"success","trial_type","trial_index","time_elapsed","internal_node_id","pid","sid","timeout","failed_images","failed_audio","failed_video","rt","response_type","key_press","response","avg_frame_time","center_x","center_y","task","ml_len","ml_start","ml_x","ml_y","resp","targ","back"
"true","fullscreen","0","2367","0.0-0.0","59bd5ee0b7a3f000017d5c60","62575886b4b38ca30079bc28","","","","","","","","","","","","","","","","","","",""
"true","preload","1","2372","0.0-1.0","59bd5ee0b7a3f000017d5c60","62575886b4b38ca30079bc28","false","[]","[]","[]","","","","","","","","","","","","","","",""
"","psychophysics","2","5813","0.0-2.0","59bd5ee0b7a3f000017d5c60","62575886b4b38ca30079bc28","","","","","3414","key"," "," ","16.77881951219512","500","250","inst","","","","","","",""
"","psychophysics","3","7175","0.0-3.0","59bd5ee0b7a3f000017d5c60","62575886b4b38ca30079bc28","","","","","1358","key"," "," ","16.692049382716043","500","250","inst","","","","","","",""
"","psychophysics","4","18394","0.0-4.0","59bd5ee0b7a3f000017d5c60","62575886b4b38ca30079bc28","","","","","11214","key"," "," ","16.691965722801786","500","250","instMl","162","-27","29","-30","-20","",""
"","psychophysics","5","26921","0.0-5.0","59bd5ee0b7a3f000017d5c60","62575886b4b38ca30079bc28","","","","","8523","key"," "," ","16.691990196078432","500","250","instMl","176","-29.333333333333332","4","10","-17.333333333333314","",""
"","psychophysics","6","29817","0.0-6.0","59bd5ee0b7a3f000017d5c60","62575886b4b38ca30079bc28","","","","","2893","key"," "," ","16.691994186046518","500","250","inst","","","","","","",""
"","psychophysics","7","34916","0.0-7.0","59bd5ee0b7a3f000017d5c60","62575886b4b38ca30079bc28","","","","","5096","key"," "," ","16.691986885245914","500","250","ml","224","8","-12","-4","-13","",""
"","psychophysics","8","39849","0.0-8.0","59bd5ee0b7a3f000017d5c60","62575886b4b38ca30079bc28","","","","","4928","key"," "," ","26.670880434782585","500","250","ml","174","-20","-25","2","-20","",""
"","psychophysics","9","44436","0.0-9.0","59bd5ee0b7a3f000017d5c60","62575886b4b38ca30079bc28","","","","","4581","key"," "," ","16.691989051094904","500","250","ml","248","-59","-24","-3","-3","",""
"","psychophysics","10","47067","0.0-10.0","59bd5ee0b7a3f000017d5c60","62575886b4b38ca30079bc28","","","","","2626","key"," "," ","16.691980891719766","500","250","ml","212","8","18","16","-4","",""
"","psychophysics","11","50596","0.0-11.0","59bd5ee0b7a3f000017d5c60","62575886b4b38ca30079bc28","","","","","3526","key"," "," ","16.692","500","250","ml","222","-31","-18","21","-22","",""
"","psychophysics","12","57775","0.0-12.0","59bd5ee0b7a3f000017d5c60","62575886b4b38ca30079bc28","","","","","7174","key"," "," ","16.691986013986018","500","250","ml","212","10","28","-20","-13","",""
"","psychophysics","13","64024","0.0-13.0","59bd5ee0b7a3f000017d5c60","62575886b4b38ca30079bc28","","","","","6246","key"," "," ","16.69199463806973","500","250","ml","226","-1","14","-7","-15","",""
"","psychophysics","14","68930","0.0-14.0","59bd5ee0b7a3f000017d5c60","62575886b4b38ca30079bc28","","","","","4898","key"," "," ","16.691993174061437","500","250","ml","154","27","-29","-29","-12","",""
"","psychophysics","15","85848","0.0-15.0","59bd5ee0b7a3f000017d5c60","62575886b4b38ca30079bc28","","","","","16910","key"," "," ","16.691985192497533","500","250","ml","166","5","28","6","-17","",""
"","psychophysics","16","88788","0.0-16.0","59bd5ee0b7a3f000017d5c60","62575886b4b38ca30079bc28","","","","","2938","key"," "," ","16.691982857142907","500","250","ml","192","-37","7","-7","-19","",""
"","psychophysics","17","92956","0.0-17.0","59bd5ee0b7a3f000017d5c60","62575886b4b38ca30079bc28","","","","","4163","key"," "," ","16.69194377510038","500","250","ml","242","5","-30","9","-17","",""
"","psychophysics","18","96156","0.0-18.0","59bd5ee0b7a3f000017d5c60","62575886b4b38ca30079bc28","","","","","3197","key"," "," ","16.6920526315789","500","250","ml","150","-32","1","-3","-22","",""
"","psychophysics","19","99456","0.0-19.0","59bd5ee0b7a3f000017d5c60","62575886b4b38ca30079bc28","","","","","3292","key"," "," ","16.691939086294443","500","250","ml","156","14","5","18","-12","",""
"","psychophysics","20","104873","0.0-20.0","59bd5ee0b7a3f000017d5c60","62575886b4b38ca30079bc28","","","","","5411","key"," "," ","16.692027777777792","500","250","ml","208","-41","-17","29","-17","",""
"","psychophysics","21","107883","0.0-21.0","59bd5ee0b7a3f000017d5c60","62575886b4b38ca30079bc28","","","","","3006","key"," "," ","16.691983240223493","500","250","ml","166","-20","-2","-17","-15","",""
"","psychophysics","22","109823","0.0-22.0","59bd5ee0b7a3f000017d5c60","62575886b4b38ca30079bc28","","","","","1936","key"," "," ","16.691652173913113","500","250","inst","","","","","","",""
"","psychophysics","23","120382","0.0-23.0","59bd5ee0b7a3f000017d5c60","62575886b4b38ca30079bc28","","","","","10555","key"," "," ","16.692009493670895","500","250","instPog","","","","","130","130",""
"","psychophysics","24","126131","0.0-24.0","59bd5ee0b7a3f000017d5c60","62575886b4b38ca30079bc28","","","","","5745","key"," "," ","16.691985422740554","500","250","instPog","","","","","131","130",""
"","psychophysics","25","135266","0.0-25.0","59bd5ee0b7a3f000017d5c60","62575886b4b38ca30079bc28","","","","","9130","key"," "," ","18.791387628865987","500","250","instPog","","","","","140","130",""
"","psychophysics","26","136482","0.0-26.0","59bd5ee0b7a3f000017d5c60","62575886b4b38ca30079bc28","","","","","1212","key"," "," ","16.692388888888672","500","250","inst","","","","","","",""
"","psychophysics","27","140011","0.0-27.0","59bd5ee0b7a3f000017d5c60","62575886b4b38ca30079bc28","","","","","3525","key"," "," ","16.691881516587785","500","250","pog","","","","","200","195",""
"","psychophysics","28","142611","0.0-28.0","59bd5ee0b7a3f000017d5c60","62575886b4b38ca30079bc28","","","","","2598","key"," "," ","16.692025806451586","500","250","pog","","","","","161","157",""
"","psychophysics","29","146928","0.0-29.0","59bd5ee0b7a3f000017d5c60","62575886b4b38ca30079bc28","","","","","4311","key"," "," ","16.69201556420233","500","250","pog","","","","","147","136",""
"","psychophysics","30","150463","0.0-30.0","59bd5ee0b7a3f000017d5c60","62575886b4b38ca30079bc28","","","","","3533","key"," "," ","16.692047393364916","500","250","pog","","","","","171","165",""
"","psychophysics","31","153543","0.0-31.0","59bd5ee0b7a3f000017d5c60","62575886b4b38ca30079bc28","","","","","3078","key"," "," ","16.69196721311478","500","250","pog","","","","","174","155",""
"","psychophysics","32","156509","0.0-32.0","59bd5ee0b7a3f000017d5c60","62575886b4b38ca30079bc28","","","","","2962","key"," "," ","16.691909604519736","500","250","pog","","","","","145","137",""
"","psychophysics","33","162538","0.0-33.0","59bd5ee0b7a3f000017d5c60","62575886b4b38ca30079bc28","","","","","6025","key"," "," ","16.691977777777762","500","250","pog","","","","","206","189",""
"","psychophysics","34","167361","0.0-34.0","59bd5ee0b7a3f000017d5c60","62575886b4b38ca30079bc28","","","","","4816","key"," "," ","16.691986111111063","500","250","pog","","","","","131","121",""
"","psychophysics","35","170272","0.0-35.0","59bd5ee0b7a3f000017d5c60","62575886b4b38ca30079bc28","","","","","2905","key"," "," ","16.691982758620682","500","250","pog","","","","","152","149",""
"","psychophysics","36","178380","0.0-36.0","59bd5ee0b7a3f000017d5c60","62575886b4b38ca30079bc28","","","","","8103","key"," "," ","16.691977272727307","500","250","pog","","","","","192","176",""
"","psychophysics","37","186681","0.0-37.0","59bd5ee0b7a3f000017d5c60","62575886b4b38ca30079bc28","","","","","8294","key"," "," ","16.69197786720322","500","250","pog","","","","","134","130",""
"","psychophysics","38","190404","0.0-38.0","59bd5ee0b7a3f000017d5c60","62575886b4b38ca30079bc28","","","","","3718","key"," "," ","16.692058558558635","500","250","pog","","","","","210","191",""
"","psychophysics","39","194100","0.0-39.0","59bd5ee0b7a3f000017d5c60","62575886b4b38ca30079bc28","","","","","3692","key"," "," ","16.69194090909084","500","250","pog","","","","","209","187",""
"","psychophysics","40","197074","0.0-40.0","59bd5ee0b7a3f000017d5c60","62575886b4b38ca30079bc28","","","","","2971","key"," "," ","16.691932203389882","500","250","pog","","","","","139","127",""
"","psychophysics","41","200275","0.0-41.0","59bd5ee0b7a3f000017d5c60","62575886b4b38ca30079bc28","","","","","3193","key"," "," ","16.6919057591622","500","250","pog","","","","","206","192",""
"","psychophysics","42","201339","0.0-42.0","59bd5ee0b7a3f000017d5c60","62575886b4b38ca30079bc28","","","","","1060","key"," "," ","16.69192063492041","500","250","inst","","","","","","",""
"","psychophysics","43","204809","0.0-43.0","59bd5ee0b7a3f000017d5c60","62575886b4b38ca30079bc28","","","","","3464","key"," "," ","16.69198067632846","500","250","instTilt","","","","","NaN","0","0"
"","psychophysics","44","208368","0.0-44.0","59bd5ee0b7a3f000017d5c60","62575886b4b38ca30079bc28","","","","","3554","key"," "," ","16.69197641509431","500","250","instTilt","","","","","0","0","0"
"","psychophysics","45","216050","0.0-45.0","59bd5ee0b7a3f000017d5c60","62575886b4b38ca30079bc28","","","","","7678","key"," "," ","16.691997821350714","500","250","instTilt","","","","","10","0","0"
"","psychophysics","46","218182","0.0-46.0","59bd5ee0b7a3f000017d5c60","62575886b4b38ca30079bc28","","","","","2130","key"," "," ","16.69209448818904","500","250","inst","","","","","","",""
"","psychophysics","47","223666","0.0-47.0","59bd5ee0b7a3f000017d5c60","62575886b4b38ca30079bc28","","","","","5479","key"," "," ","16.6919724770642","500","250","tilt","","","","","10","7","0"
"","psychophysics","48","228383","0.0-48.0","59bd5ee0b7a3f000017d5c60","62575886b4b38ca30079bc28","","","","","4709","key"," "," ","16.691914893617003","500","250","tilt","","","","","-10","3","1"
"","psychophysics","49","230640","0.0-49.0","59bd5ee0b7a3f000017d5c60","62575886b4b38ca30079bc28","","","","","2254","key"," "," ","16.692074626865544","500","250","tilt","","","","","12","10","0"
"","psychophysics","50","232905","0.0-50.0","59bd5ee0b7a3f000017d5c60","62575886b4b38ca30079bc28","","","","","2257","key"," "," ","16.691955555555694","500","250","tilt","","","","","-11","0","1"
"","psychophysics","51","235298","0.0-51.0","59bd5ee0b7a3f000017d5c60","62575886b4b38ca30079bc28","","","","","2389","key"," "," ","16.69203521126761","500","250","tilt","","","","","-14","-1","1"
"","psychophysics","52","237373","0.0-52.0","59bd5ee0b7a3f000017d5c60","62575886b4b38ca30079bc28","","","","","2069","key"," "," ","16.69210483870988","500","250","tilt","","","","","7","0","0"
"","psychophysics","53","239406","0.0-53.0","59bd5ee0b7a3f000017d5c60","62575886b4b38ca30079bc28","","","","","2028","key"," "," ","16.691833333333488","500","250","tilt","","","","","10","0","0"
"","psychophysics","54","242566","0.0-54.0","59bd5ee0b7a3f000017d5c60","62575886b4b38ca30079bc28","","","","","3153","key"," "," ","16.69197883597876","500","250","tilt","","","","","-11","-7","1"
"","psychophysics","55","246257","0.0-55.0","59bd5ee0b7a3f000017d5c60","62575886b4b38ca30079bc28","","","","","3687","key"," "," ","16.691977272727343","500","250","tilt","","","","","-10","6","1"
"","psychophysics","56","249419","0.0-56.0","59bd5ee0b7a3f000017d5c60","62575886b4b38ca30079bc28","","","","","3158","key"," "," ","16.691914893616953","500","250","tilt","","","","","-14","-6","1"
"","psychophysics","57","252394","0.0-57.0","59bd5ee0b7a3f000017d5c60","62575886b4b38ca30079bc28","","","","","2973","key"," "," ","16.691994350282528","500","250","tilt","","","","","8","5","1"
"","psychophysics","58","254786","0.0-58.0","59bd5ee0b7a3f000017d5c60","62575886b4b38ca30079bc28","","","","","2385","key"," "," ","16.69201398601408","500","250","tilt","","","","","-15","-3","1"
"","psychophysics","59","258087","0.0-59.0","59bd5ee0b7a3f000017d5c60","62575886b4b38ca30079bc28","","","","","3292","key"," "," ","16.69202040816326","500","250","tilt","","","","","-7","-7","0"
"","psychophysics","60","261257","0.0-60.0","59bd5ee0b7a3f000017d5c60","62575886b4b38ca30079bc28","","","","","3164","key"," "," ","16.691968253968287","500","250","tilt","","","","","6","-5","0"
"","psychophysics","61","264325","0.0-61.0","59bd5ee0b7a3f000017d5c60","62575886b4b38ca30079bc28","","","","","3064","key"," "," ","16.69197814207641","500","250","tilt","","","","","8","-6","0"
"","psychophysics","62","276440","0.0-62.0","59bd5ee0b7a3f000017d5c60","62575886b4b38ca30079bc28","","","","","12112","key"," "," ","32.18531648936171","500","250","tilt","","","","","-9","1","1"
"","psychophysics","63","279202","0.0-63.0","59bd5ee0b7a3f000017d5c60","62575886b4b38ca30079bc28","","","","","2760","key"," "," ","16.691696969697","500","250","tilt","","","","","-16","-7","1"
"","psychophysics","64","282269","0.0-64.0","59bd5ee0b7a3f000017d5c60","62575886b4b38ca30079bc28","","","","","3061","key"," "," ","16.6919725274726","500","250","tilt","","","","","-18","-10","1"
"","psychophysics","65","284493","0.0-65.0","59bd5ee0b7a3f000017d5c60","62575886b4b38ca30079bc28","","","","","2217","key"," "," ","16.691977272727385","500","250","tilt","","","","","-8","-3","1"
"","psychophysics","66","287474","0.0-66.0","59bd5ee0b7a3f000017d5c60","62575886b4b38ca30079bc28","","","","","2976","key"," "," ","16.69196629213474","500","250","tilt","","","","","-4","6","1"
"","psychophysics","67","290900","0.0-67.0","59bd5ee0b7a3f000017d5c60","62575886b4b38ca30079bc28","","","","","3422","key"," "," ","16.691897058823514","500","250","tilt","","","","","-19","-8","1"
"","psychophysics","68","293708","0.0-68.0","59bd5ee0b7a3f000017d5c60","62575886b4b38ca30079bc28","","","","","2804","key"," "," ","16.691851190476363","500","250","tilt","","","","","-9","-7","1"
"","psychophysics","69","381662","0.0-69.0","59bd5ee0b7a3f000017d5c60","62575886b4b38ca30079bc28","","","","","87948","key"," "," ","275.65297178683386","500","250","tilt","","","","","11","7","0"
"","psychophysics","70","384876","0.0-70.0","59bd5ee0b7a3f000017d5c60","62575886b4b38ca30079bc28","","","","","3209","key"," "," ","16.691910994764545","500","250","tilt","","","","","-11","-2","1"
"","psychophysics","71","388428","0.0-71.0","59bd5ee0b7a3f000017d5c60","62575886b4b38ca30079bc28","","","","","3544","key"," "," ","16.691990566037965","500","250","tilt","","","","","7","9","1"
"","psychophysics","72","392086","0.0-72.0","59bd5ee0b7a3f000017d5c60","62575886b4b38ca30079bc28","","","","","3649","key"," "," ","16.6919036697246","500","250","tilt","","","","","6","8","1"
"","psychophysics","73","394914","0.0-73.0","59bd5ee0b7a3f000017d5c60","62575886b4b38ca30079bc28","","","","","2821","key"," "," ","16.69205325443784","500","250","tilt","","","","","6","5","0"
"","psychophysics","74","405259","0.0-74.0","59bd5ee0b7a3f000017d5c60","62575886b4b38ca30079bc28","","","","","10341","key"," "," ","44.85056521739133","500","250","tilt","","","","","-8","-9","0"
"","psychophysics","75","410044","0.0-75.0","59bd5ee0b7a3f000017d5c60","62575886b4b38ca30079bc28","","","","","4775","key"," "," ","16.69197902097908","500","250","tilt","","","","","-1","-4","0"
"","psychophysics","76","412181","0.0-76.0","59bd5ee0b7a3f000017d5c60","62575886b4b38ca30079bc28","","","","","2135","key"," "," ","16.691960629920924","500","250","tilt","","","","","16","9","0"
"","psychophysics","77","413780","0.0-77.0","59bd5ee0b7a3f000017d5c60","62575886b4b38ca30079bc28","","","","","1594","key"," "," ","16.69196842105226","500","250","inst","","","","","","",""
"","psychophysics","78","415689","0.0-78.0","59bd5ee0b7a3f000017d5c60","62575886b4b38ca30079bc28","","","","","1904","key"," "," ","16.692000000000483","500","250","instPz","","","","","50","50",""
"","psychophysics","79","418187","0.0-79.0","59bd5ee0b7a3f000017d5c60","62575886b4b38ca30079bc28","","","","","2491","key"," "," ","16.69196644295304","500","250","instPz","","","","","15","50",""
"","psychophysics","80","422875","0.0-80.0","59bd5ee0b7a3f000017d5c60","62575886b4b38ca30079bc28","","","","","4683","key"," "," ","16.691939285714138","500","250","instPz","","","","","35","30",""
"","psychophysics","81","429947","0.0-81.0","59bd5ee0b7a3f000017d5c60","62575886b4b38ca30079bc28","","","","","7070","key"," "," ","16.691973995271905","500","250","instPz","","","","","49","40",""
"","psychophysics","82","431167","0.0-82.0","59bd5ee0b7a3f000017d5c60","62575886b4b38ca30079bc28","","","","","1217","key"," "," ","16.691958333333282","500","250","inst","","","","","","",""
"","psychophysics","83","434065","0.0-83.0","59bd5ee0b7a3f000017d5c60","62575886b4b38ca30079bc28","","","","","2889","key"," "," ","16.69195930232554","500","250","pz","","","","","48","28",""
"","psychophysics","84","436491","0.0-84.0","59bd5ee0b7a3f000017d5c60","62575886b4b38ca30079bc28","","","","","2419","key"," "," ","16.691765517241258","500","250","pz","","","","","48","42",""
"","psychophysics","85","438818","0.0-85.0","59bd5ee0b7a3f000017d5c60","62575886b4b38ca30079bc28","","","","","2322","key"," "," ","16.69198550724642","500","250","pz","","","","","56","50",""
"","psychophysics","86","441260","0.0-86.0","59bd5ee0b7a3f000017d5c60","62575886b4b38ca30079bc28","","","","","2437","key"," "," ","16.691999999999776","500","250","pz","","","","","49","33",""
"","psychophysics","87","443315","0.0-87.0","59bd5ee0b7a3f000017d5c60","62575886b4b38ca30079bc28","","","","","2048","key"," "," ","16.69202459016414","500","250","pz","","","","","29","21",""
"","psychophysics","88","445811","0.0-88.0","59bd5ee0b7a3f000017d5c60","62575886b4b38ca30079bc28","","","","","2489","key"," "," ","16.691986577181012","500","250","pz","","","","","62","52",""
"","psychophysics","89","448219","0.0-89.0","59bd5ee0b7a3f000017d5c60","62575886b4b38ca30079bc28","","","","","2403","key"," "," ","16.692013986013876","500","250","pz","","","","","56","37",""
"","psychophysics","90","450084","0.0-90.0","59bd5ee0b7a3f000017d5c60","62575886b4b38ca30079bc28","","","","","1862","key"," "," ","16.69201801801761","500","250","pz","","","","","34","28",""
"","psychophysics","91","451936","0.0-91.0","59bd5ee0b7a3f000017d5c60","62575886b4b38ca30079bc28","","","","","1847","key"," "," ","16.691799999999983","500","250","pz","","","","","41","28",""
"","psychophysics","92","454679","0.0-92.0","59bd5ee0b7a3f000017d5c60","62575886b4b38ca30079bc28","","","","","2738","key"," "," ","16.691944785276142","500","250","pz","","","","","74","53",""
"","psychophysics","93","456450","0.0-93.0","59bd5ee0b7a3f000017d5c60","62575886b4b38ca30079bc28","","","","","1767","key"," "," ","16.69197142857149","500","250","pz","","","","","35","20",""
"","psychophysics","94","458612","0.0-94.0","59bd5ee0b7a3f000017d5c60","62575886b4b38ca30079bc28","","","","","2155","key"," "," ","16.691984496124057","500","250","pz","","","","","52","35",""
"","psychophysics","95","461233","0.0-95.0","59bd5ee0b7a3f000017d5c60","62575886b4b38ca30079bc28","","","","","2616","key"," "," ","16.69193589743615","500","250","pz","","","","","35","25",""
"","psychophysics","96","463353","0.0-96.0","59bd5ee0b7a3f000017d5c60","62575886b4b38ca30079bc28","","","","","2112","key"," "," ","16.691976190476293","500","250","pz","","","","","46","24",""
"","psychophysics","97","465348","0.0-97.0","59bd5ee0b7a3f000017d5c60","62575886b4b38ca30079bc28","","","","","1992","key"," "," ","16.69199152542347","500","250","pz","","","","","35","24",""
"","psychophysics","98","467161","0.0-98.0","59bd5ee0b7a3f000017d5c60","62575886b4b38ca30079bc28","","","","","1805","key"," "," ","16.691833333333275","500","250","inst","","","","","","",""
"","psychophysics","99","469509","0.0-99.0","59bd5ee0b7a3f000017d5c60","62575886b4b38ca30079bc28","","","","","2343","key"," "," ","16.691978571428418","500","250","inst","","","","","","",""
"","psychophysics","100","477494","0.0-100.0","59bd5ee0b7a3f000017d5c60","62575886b4b38ca30079bc28","","","","","7975","key"," "," ","16.691993710691836","500","250","instFlank","","","","","0.5","0.3","1"
"","psychophysics","101","481409","0.0-101.0","59bd5ee0b7a3f000017d5c60","62575886b4b38ca30079bc28","","","","","3912","key"," "," ","16.69198717948713","500","250","inst","","","","","","",""
"","psychophysics","102","486600","0.0-102.0","59bd5ee0b7a3f000017d5c60","62575886b4b38ca30079bc28","","","","","5184","key"," "," ","16.691983870967785","500","250","instFlank","","","","","0.2899999999999998","0.3","1"
"","psychophysics","103","495316","0.0-103.0","59bd5ee0b7a3f000017d5c60","62575886b4b38ca30079bc28","","","","","8711","key"," "," ","28.053341935483942","500","250","inst","","","","","","",""
"","psychophysics","104","500136","0.0-104.0","59bd5ee0b7a3f000017d5c60","62575886b4b38ca30079bc28","","","","","4814","key"," "," ","16.691961672474047","500","250","instFlank","","","","","0.2899999999999998","0.3","0"
"","psychophysics","105","501519","0.0-105.0","59bd5ee0b7a3f000017d5c60","62575886b4b38ca30079bc28","","","","","1378","key"," "," ","16.692073170731707","500","250","inst","","","","","","",""
"","psychophysics","106","505451","0.0-106.0","59bd5ee0b7a3f000017d5c60","62575886b4b38ca30079bc28","","","","","3925","key"," "," ","16.69198297872332","500","250","flank","","","","","0.7700000000000002","0.8","1"
"","psychophysics","107","508099","0.0-107.0","59bd5ee0b7a3f000017d5c60","62575886b4b38ca30079bc28","","","","","2643","key"," "," ","16.69199367088584","500","250","flank","","","","","0.34999999999999987","0.34","1"
"","psychophysics","108","510472","0.0-108.0","59bd5ee0b7a3f000017d5c60","62575886b4b38ca30079bc28","","","","","2370","key"," "," ","16.692070921985778","500","250","flank","","","","","0.5","0.36","1"
"","psychophysics","109","514156","0.0-109.0","59bd5ee0b7a3f000017d5c60","62575886b4b38ca30079bc28","","","","","3678","key"," "," ","16.69195890410954","500","250","flank","","","","","0.2599999999999998","0.34","1"
"","psychophysics","110","516938","0.0-110.0","59bd5ee0b7a3f000017d5c60","62575886b4b38ca30079bc28","","","","","2771","key"," "," ","16.691969879517888","500","250","flank","","","","","0.7400000000000002","0.76","1"
"","psychophysics","111","520057","0.0-111.0","59bd5ee0b7a3f000017d5c60","62575886b4b38ca30079bc28","","","","","3114","key"," "," ","16.69182795698921","500","250","flank","","","","","0.6200000000000001","0.62","0"
"","psychophysics","112","522814","0.0-112.0","59bd5ee0b7a3f000017d5c60","62575886b4b38ca30079bc28","","","","","2753","key"," "," ","16.691987804878252","500","250","flank","","","","","0.56","0.42","0"
"","psychophysics","113","526143","0.0-113.0","59bd5ee0b7a3f000017d5c60","62575886b4b38ca30079bc28","","","","","3323","key"," "," ","16.691994974874053","500","250","flank","","","","","0.6800000000000002","0.7","1"
"","psychophysics","114","529742","0.0-114.0","59bd5ee0b7a3f000017d5c60","62575886b4b38ca30079bc28","","","","","3595","key"," "," ","16.69202336448595","500","250","flank","","","","","0.8300000000000003","0.74","1"
"","psychophysics","115","533004","0.0-115.0","59bd5ee0b7a3f000017d5c60","62575886b4b38ca30079bc28","","","","","3252","key"," "," ","16.692010256410455","500","250","flank","","","","","0.7700000000000002","0.72","0"
"","psychophysics","116","535863","0.0-116.0","59bd5ee0b7a3f000017d5c60","62575886b4b38ca30079bc28","","","","","2853","key"," "," ","16.692076470587843","500","250","flank","","","","","0.43999999999999995","0.36","1"
"","psychophysics","117","538702","0.0-117.0","59bd5ee0b7a3f000017d5c60","62575886b4b38ca30079bc28","","","","","2837","key"," "," ","16.691970414201005","500","250","flank","","","","","0.53","0.26","0"
"","psychophysics","118","542051","0.0-118.0","59bd5ee0b7a3f000017d5c60","62575886b4b38ca30079bc28","","","","","3344","key"," "," ","16.69198999999964","500","250","flank","","","","","0.53","0.42","1"
"","psychophysics","119","546364","0.0-119.0","59bd5ee0b7a3f000017d5c60","62575886b4b38ca30079bc28","","","","","4305","key"," "," ","16.69198443579754","500","250","flank","","","","","0.7700000000000002","0.8","0"
"","psychophysics","120","550297","0.0-120.0","59bd5ee0b7a3f000017d5c60","62575886b4b38ca30079bc28","","","","","3927","key"," "," ","16.692025531915096","500","250","flank","","","","","0.7400000000000002","0.72","0"
"","psychophysics","121","553893","0.0-121.0","59bd5ee0b7a3f000017d5c60","62575886b4b38ca30079bc28","","","","","3592","key"," "," ","16.691962616822234","500","250","flank","","","","","0.8600000000000003","0.76","0"
"","psychophysics","122","557310","0.0-122.0","59bd5ee0b7a3f000017d5c60","62575886b4b38ca30079bc28","","","","","3414","key"," "," ","16.692009803921202","500","250","flank","","","","","0.10999999999999979","0.2","1"
"","psychophysics","123","560505","0.0-123.0","59bd5ee0b7a3f000017d5c60","62575886b4b38ca30079bc28","","","","","3189","key"," "," ","16.691973684210403","500","250","flank","","","","","0.7400000000000002","0.68","0"
"","psychophysics","124","564040","0.0-124.0","59bd5ee0b7a3f000017d5c60","62575886b4b38ca30079bc28","","","","","3532","key"," "," ","16.6920568720378","500","250","flank","","","","","0.7700000000000002","0.72","1"
"","psychophysics","125","567536","0.0-125.0","59bd5ee0b7a3f000017d5c60","62575886b4b38ca30079bc28","","","","","3488","key"," "," ","16.69195673076879","500","250","flank","","","","","0.7700000000000002","0.68","1"
"","psychophysics","126","570364","0.0-126.0","59bd5ee0b7a3f000017d5c60","62575886b4b38ca30079bc28","","","","","2820","key"," "," ","16.69199999999985","500","250","flank","","","","","0.43999999999999995","0.4","1"
"","psychophysics","127","573943","0.0-127.0","59bd5ee0b7a3f000017d5c60","62575886b4b38ca30079bc28","","","","","3574","key"," "," ","16.691957746478817","500","250","flank","","","","","0.34999999999999987","0.34","0"
"","psychophysics","128","577075","0.0-128.0","59bd5ee0b7a3f000017d5c60","62575886b4b38ca30079bc28","","","","","3124","key"," "," ","16.691925133689914","500","250","flank","","","","","0.6800000000000002","0.62","0"
"","psychophysics","129","581208","0.0-129.0","59bd5ee0b7a3f000017d5c60","62575886b4b38ca30079bc28","","","","","4129","key"," "," ","16.69191056910554","500","250","flank","","","","","0.8000000000000003","0.74","1"
"","psychophysics","130","584572","0.0-130.0","59bd5ee0b7a3f000017d5c60","62575886b4b38ca30079bc28","","","","","3359","key"," "," ","16.691970149253784","500","250","flank","","","","","0.47","0.42","1"
"","psychophysics","131","587474","0.0-131.0","59bd5ee0b7a3f000017d5c60","62575886b4b38ca30079bc28","","","","","2898","key"," "," ","16.692000000000085","500","250","flank","","","","","0.53","0.44","1"
"","psychophysics","132","592362","0.0-132.0","59bd5ee0b7a3f000017d5c60","62575886b4b38ca30079bc28","","","","","4882","key"," "," ","16.691976027397363","500","250","flank","","","","","0.8300000000000003","0.8","1"
"","psychophysics","133","595895","0.0-133.0","59bd5ee0b7a3f000017d5c60","62575886b4b38ca30079bc28","","","","","3529","key"," "," ","16.691976190475923","500","250","flank","","","","","0.6800000000000002","0.62","1"
"","psychophysics","134","599072","0.0-134.0","59bd5ee0b7a3f000017d5c60","62575886b4b38ca30079bc28","","","","","3167","key"," "," ","16.691873684210556","500","250","flank","","","","","0.2899999999999998","0.28","1"
"","psychophysics","135","602552","0.0-135.0","59bd5ee0b7a3f000017d5c60","62575886b4b38ca30079bc28","","","","","3476","key"," "," ","16.691995169082208","500","250","flank","","","","","0.7100000000000002","0.66","0"
"true","fullscreen","136","602555","0.0-136.0","59bd5ee0b7a3f000017d5c60","62575886b4b38ca30079bc28","","","","","","","","","","","","","","","","","","",""
