"success","trial_type","trial_index","time_elapsed","internal_node_id","pid","sid","timeout","failed_images","failed_audio","failed_video","rt","response_type","key_press","response","avg_frame_time","center_x","center_y","task","ml_len","ml_start","ml_x","ml_y","resp","targ","back"
"true","fullscreen","0","2504","0.0-0.0","609ee7a707f13c414e5e87ec","625751619be6d55cc6b08b09","","","","","","","","","","","","","","","","","","",""
"true","preload","1","2509","0.0-1.0","609ee7a707f13c414e5e87ec","625751619be6d55cc6b08b09","false","[]","[]","[]","","","","","","","","","","","","","","",""
"","psychophysics","2","6215","0.0-2.0","609ee7a707f13c414e5e87ec","625751619be6d55cc6b08b09","","","","","3673","key"," "," ","16.740176470588235","500","250","inst","","","","","","",""
"","psychophysics","3","7515","0.0-3.0","609ee7a707f13c414e5e87ec","625751619be6d55cc6b08b09","","","","","1296","key"," "," ","16.661233766233778","500","250","inst","","","","","","",""
"","psychophysics","4","42576","0.0-4.0","609ee7a707f13c414e5e87ec","625751619be6d55cc6b08b09","","","","","35055","key"," "," ","16.664708987161198","500","250","instMl","170","-28.333333333333332","-19","0","-17.333333333333314","",""
"","psychophysics","5","70775","0.0-5.0","609ee7a707f13c414e5e87ec","625751619be6d55cc6b08b09","","","","","28194","key"," "," ","16.66474985215849","500","250","instMl","172","-28.666666666666668","-28","-21","-17.666666666666686","",""
"","psychophysics","6","74570","0.0-6.0","609ee7a707f13c414e5e87ec","625751619be6d55cc6b08b09","","","","","3789","key"," "," ","16.66656387665197","500","250","inst","","","","","","",""
"","psychophysics","7","93364","0.0-7.0","609ee7a707f13c414e5e87ec","625751619be6d55cc6b08b09","","","","","18790","key"," "," ","16.6645173025732","500","250","ml","228","31","-11","29","-16","",""
"","psychophysics","8","103995","0.0-8.0","609ee7a707f13c414e5e87ec","625751619be6d55cc6b08b09","","","","","10626","key"," "," ","16.66385400313972","500","250","ml","152","3","9","-16","-10","",""
"","psychophysics","9","122219","0.0-9.0","609ee7a707f13c414e5e87ec","625751619be6d55cc6b08b09","","","","","18222","key"," "," ","16.66439652014653","500","250","ml","212","-30","-24","-16","-17","",""
"","psychophysics","10","133479","0.0-10.0","609ee7a707f13c414e5e87ec","625751619be6d55cc6b08b09","","","","","11251","key"," "," ","16.665176296296305","500","250","ml","168","-11","28","15","-16","",""
"","psychophysics","11","173539","0.0-11.0","609ee7a707f13c414e5e87ec","625751619be6d55cc6b08b09","","","","","40053","key"," "," ","16.664580108198077","500","250","ml","194","11","26","30","-16","",""
"","psychophysics","12","204705","0.0-12.0","609ee7a707f13c414e5e87ec","625751619be6d55cc6b08b09","","","","","31161","key"," "," ","16.664266452648473","500","250","ml","250","26","-24","6","-21","",""
"","psychophysics","13","216734","0.0-13.0","609ee7a707f13c414e5e87ec","625751619be6d55cc6b08b09","","","","","12025","key"," "," ","16.664486823855757","500","250","ml","158","-31","-7","25","-20","",""
"","psychophysics","14","236451","0.0-14.0","609ee7a707f13c414e5e87ec","625751619be6d55cc6b08b09","","","","","19712","key"," "," ","16.66461590524535","500","250","ml","230","-17","-16","-13","-14","",""
"","psychophysics","15","246382","0.0-15.0","609ee7a707f13c414e5e87ec","625751619be6d55cc6b08b09","","","","","9925","key"," "," ","16.66626890756306","500","250","ml","206","-51","-5","8","-19","",""
"","psychophysics","16","305704","0.0-16.0","609ee7a707f13c414e5e87ec","625751619be6d55cc6b08b09","","","","","59318","key"," "," ","16.66459567294184","500","250","ml","226","3","-16","-13","-18","",""
"","psychophysics","17","314052","0.0-17.0","609ee7a707f13c414e5e87ec","625751619be6d55cc6b08b09","","","","","8344","key"," "," ","16.66433200000005","500","250","ml","172","-37","-19","-20","-17","",""
"","psychophysics","18","328012","0.0-18.0","609ee7a707f13c414e5e87ec","625751619be6d55cc6b08b09","","","","","13954","key"," "," ","16.66396770334927","500","250","ml","248","-55","17","-17","-23","",""
"","psychophysics","19","344468","0.0-19.0","609ee7a707f13c414e5e87ec","625751619be6d55cc6b08b09","","","","","16441","key"," "," ","16.665028368794356","500","250","ml","166","-17","-9","-5","-16","",""
"","psychophysics","20","356682","0.0-20.0","609ee7a707f13c414e5e87ec","625751619be6d55cc6b08b09","","","","","12208","key"," "," ","16.664204918032752","500","250","ml","240","-18","6","11","-18","",""
"","psychophysics","21","367349","0.0-21.0","609ee7a707f13c414e5e87ec","625751619be6d55cc6b08b09","","","","","10661","key"," "," ","16.66378873239431","500","250","ml","220","1","-21","-7","-13","",""
"","psychophysics","22","373816","0.0-22.0","609ee7a707f13c414e5e87ec","625751619be6d55cc6b08b09","","","","","6462","key"," "," ","16.664545219638253","500","250","inst","","","","","","",""
"","psychophysics","23","399570","0.0-23.0","609ee7a707f13c414e5e87ec","625751619be6d55cc6b08b09","","","","","25749","key"," "," ","16.664812823834172","500","250","instPog","","","","","130","130",""
"","psychophysics","24","424416","0.0-24.0","609ee7a707f13c414e5e87ec","625751619be6d55cc6b08b09","","","","","24835","key"," "," ","16.664829530201356","500","250","instPog","","","","","137","130",""
"","psychophysics","25","445178","0.0-25.0","609ee7a707f13c414e5e87ec","625751619be6d55cc6b08b09","","","","","20753","key"," "," ","16.664696385542186","500","250","instPog","","","","","149","130",""
"","psychophysics","26","825334","0.0-26.0","609ee7a707f13c414e5e87ec","625751619be6d55cc6b08b09","","","","","380148","key"," "," ","16.66455017316207","500","250","inst","","","","","","",""
"","psychophysics","27","867644","0.0-27.0","609ee7a707f13c414e5e87ec","625751619be6d55cc6b08b09","","","","","42302","key"," "," ","16.664704491725775","500","250","pog","","","","","180","167",""
"","psychophysics","28","881741","0.0-28.0","609ee7a707f13c414e5e87ec","625751619be6d55cc6b08b09","","","","","14089","key"," "," ","16.664624852071015","500","250","pog","","","","","208","196",""
"","psychophysics","29","903700","0.0-29.0","609ee7a707f13c414e5e87ec","625751619be6d55cc6b08b09","","","","","21951","key"," "," ","16.664882308276404","500","250","pog","","","","","174","164",""
"","psychophysics","30","945406","0.0-30.0","609ee7a707f13c414e5e87ec","625751619be6d55cc6b08b09","","","","","41701","key"," "," ","16.664537969624302","500","250","pog","","","","","156","141",""
"","psychophysics","31","974059","0.0-31.0","609ee7a707f13c414e5e87ec","625751619be6d55cc6b08b09","","","","","28648","key"," "," ","16.66483061699651","500","250","pog","","","","","178","167",""
"","psychophysics","32","1000146","0.0-32.0","609ee7a707f13c414e5e87ec","625751619be6d55cc6b08b09","","","","","26082","key"," "," ","16.66474872122763","500","250","pog","","","","","195","183",""
"","psychophysics","33","1025717","0.0-33.0","609ee7a707f13c414e5e87ec","625751619be6d55cc6b08b09","","","","","25564","key"," "," ","16.664831160365075","500","250","pog","","","","","204","196",""
"","psychophysics","34","1069467","0.0-34.0","609ee7a707f13c414e5e87ec","625751619be6d55cc6b08b09","","","","","43746","key"," "," ","16.66439862804882","500","250","pog","","","","","197","184",""
"","psychophysics","35","1082606","0.0-35.0","609ee7a707f13c414e5e87ec","625751619be6d55cc6b08b09","","","","","13130","key"," "," ","16.664616751269175","500","250","pog","","","","","171","163",""
"","psychophysics","36","1113523","0.0-36.0","609ee7a707f13c414e5e87ec","625751619be6d55cc6b08b09","","","","","30913","key"," "," ","16.664831715210354","500","250","pog","","","","","207","198",""
"","psychophysics","37","1135211","0.0-37.0","609ee7a707f13c414e5e87ec","625751619be6d55cc6b08b09","","","","","21684","key"," "," ","16.664580769230827","500","250","pog","","","","","176","164",""
"","psychophysics","38","1159495","0.0-38.0","609ee7a707f13c414e5e87ec","625751619be6d55cc6b08b09","","","","","24276","key"," "," ","16.6647357584077","500","250","pog","","","","","183","171",""
"","psychophysics","39","1178263","0.0-39.0","609ee7a707f13c414e5e87ec","625751619be6d55cc6b08b09","","","","","18762","key"," "," ","16.66500266666669","500","250","pog","","","","","175","162",""
"","psychophysics","40","1197847","0.0-40.0","609ee7a707f13c414e5e87ec","625751619be6d55cc6b08b09","","","","","19579","key"," "," ","16.66491141396926","500","250","pog","","","","","144","131",""
"","psychophysics","41","1265589","0.0-41.0","609ee7a707f13c414e5e87ec","625751619be6d55cc6b08b09","","","","","67738","key"," "," ","16.664530019685017","500","250","pog","","","","","191","176",""
"","psychophysics","42","1267434","0.0-42.0","609ee7a707f13c414e5e87ec","625751619be6d55cc6b08b09","","","","","1842","key"," "," ","16.665918181819674","500","250","inst","","","","","","",""
"","psychophysics","43","1272069","0.0-43.0","609ee7a707f13c414e5e87ec","625751619be6d55cc6b08b09","","","","","4628","key"," "," ","16.665148014439747","500","250","instTilt","","","","","NaN","0","0"
"","psychophysics","44","1276217","0.0-44.0","609ee7a707f13c414e5e87ec","625751619be6d55cc6b08b09","","","","","4143","key"," "," ","16.665657258064922","500","250","instTilt","","","","","0","0","0"
"","psychophysics","45","1302909","0.0-45.0","609ee7a707f13c414e5e87ec","625751619be6d55cc6b08b09","","","","","26687","key"," "," ","16.664557500000083","500","250","instTilt","","","","","1","0","0"
"","psychophysics","46","1306553","0.0-46.0","609ee7a707f13c414e5e87ec","625751619be6d55cc6b08b09","","","","","3638","key"," "," ","16.66619724770709","500","250","inst","","","","","","",""
"","psychophysics","47","1312691","0.0-47.0","609ee7a707f13c414e5e87ec","625751619be6d55cc6b08b09","","","","","6127","key"," "," ","16.664950953678506","500","250","tilt","","","","","1","4","1"
"","psychophysics","48","1347032","0.0-48.0","609ee7a707f13c414e5e87ec","625751619be6d55cc6b08b09","","","","","34334","key"," "," ","16.664600485436917","500","250","tilt","","","","","2","6","1"
"","psychophysics","49","1363804","0.0-49.0","609ee7a707f13c414e5e87ec","625751619be6d55cc6b08b09","","","","","16762","key"," "," ","16.664881709741593","500","250","tilt","","","","","-10","-9","1"
"","psychophysics","50","1387258","0.0-50.0","609ee7a707f13c414e5e87ec","625751619be6d55cc6b08b09","","","","","23449","key"," "," ","16.66487197724027","500","250","tilt","","","","","7","3","0"
"","psychophysics","51","1396216","0.0-51.0","609ee7a707f13c414e5e87ec","625751619be6d55cc6b08b09","","","","","8948","key"," "," ","16.665167597765485","500","250","tilt","","","","","1","4","1"
"","psychophysics","52","1412663","0.0-52.0","609ee7a707f13c414e5e87ec","625751619be6d55cc6b08b09","","","","","16442","key"," "," ","16.664731237322563","500","250","tilt","","","","","-4","-4","1"
"","psychophysics","53","1450569","0.0-53.0","609ee7a707f13c414e5e87ec","625751619be6d55cc6b08b09","","","","","37901","key"," "," ","16.66466959964804","500","250","tilt","","","","","8","4","0"
"","psychophysics","54","1470242","0.0-54.0","609ee7a707f13c414e5e87ec","625751619be6d55cc6b08b09","","","","","19662","key"," "," ","16.664725423728953","500","250","tilt","","","","","7","5","0"
"","psychophysics","55","1494285","0.0-55.0","609ee7a707f13c414e5e87ec","625751619be6d55cc6b08b09","","","","","24038","key"," "," ","16.66469951422619","500","250","tilt","","","","","-9","-9","0"
"","psychophysics","56","1504258","0.0-56.0","609ee7a707f13c414e5e87ec","625751619be6d55cc6b08b09","","","","","9967","key"," "," ","16.664752508361005","500","250","tilt","","","","","-3","-4","1"
"","psychophysics","57","1533153","0.0-57.0","609ee7a707f13c414e5e87ec","625751619be6d55cc6b08b09","","","","","28885","key"," "," ","16.66457357184074","500","250","tilt","","","","","9","8","0"
"","psychophysics","58","1704580","0.0-58.0","609ee7a707f13c414e5e87ec","625751619be6d55cc6b08b09","","","","","171422","key"," "," ","16.664552012444094","500","250","tilt","","","","","4","2","0"
"","psychophysics","59","1724139","0.0-59.0","609ee7a707f13c414e5e87ec","625751619be6d55cc6b08b09","","","","","19554","key"," "," ","16.664843856655228","500","250","tilt","","","","","10","6","0"
"","psychophysics","60","1740498","0.0-60.0","609ee7a707f13c414e5e87ec","625751619be6d55cc6b08b09","","","","","16354","key"," "," ","16.66496330275244","500","250","tilt","","","","","-8","-10","0"
"","psychophysics","61","1760038","0.0-61.0","609ee7a707f13c414e5e87ec","625751619be6d55cc6b08b09","","","","","19530","key"," "," ","16.664761945392513","500","250","tilt","","","","","-7","-9","0"
"","psychophysics","62","1777899","0.0-62.0","609ee7a707f13c414e5e87ec","625751619be6d55cc6b08b09","","","","","17856","key"," "," ","16.664794584500573","500","250","tilt","","","","","-8","-8","1"
"","psychophysics","63","1790824","0.0-63.0","609ee7a707f13c414e5e87ec","625751619be6d55cc6b08b09","","","","","12922","key"," "," ","16.66483074935419","500","250","tilt","","","","","1","-3","0"
"","psychophysics","64","1806029","0.0-64.0","609ee7a707f13c414e5e87ec","625751619be6d55cc6b08b09","","","","","15194","key"," "," ","16.664926454445816","500","250","tilt","","","","","7","2","0"
"","psychophysics","65","1815500","0.0-65.0","609ee7a707f13c414e5e87ec","625751619be6d55cc6b08b09","","","","","9465","key"," "," ","16.665288732394504","500","250","tilt","","","","","2","6","1"
"","psychophysics","66","1827421","0.0-66.0","609ee7a707f13c414e5e87ec","625751619be6d55cc6b08b09","","","","","11916","key"," "," ","16.665345938375392","500","250","tilt","","","","","0","-2","0"
"","psychophysics","67","1848683","0.0-67.0","609ee7a707f13c414e5e87ec","625751619be6d55cc6b08b09","","","","","21252","key"," "," ","16.664843137254756","500","250","tilt","","","","","-4","0","1"
"","psychophysics","68","1861295","0.0-68.0","609ee7a707f13c414e5e87ec","625751619be6d55cc6b08b09","","","","","12602","key"," "," ","16.664797619047388","500","250","tilt","","","","","-2","-4","0"
"","psychophysics","69","1875038","0.0-69.0","609ee7a707f13c414e5e87ec","625751619be6d55cc6b08b09","","","","","13733","key"," "," ","16.66466868932029","500","250","tilt","","","","","-1","-2","0"
"","psychophysics","70","1890919","0.0-70.0","609ee7a707f13c414e5e87ec","625751619be6d55cc6b08b09","","","","","15877","key"," "," ","16.66500945378143","500","250","tilt","","","","","-8","-3","1"
"","psychophysics","71","1904750","0.0-71.0","609ee7a707f13c414e5e87ec","625751619be6d55cc6b08b09","","","","","13826","key"," "," ","16.664650180940747","500","250","tilt","","","","","6","1","0"
"","psychophysics","72","1919131","0.0-72.0","609ee7a707f13c414e5e87ec","625751619be6d55cc6b08b09","","","","","14376","key"," "," ","16.664293503480327","500","250","tilt","","","","","-7","-6","1"
"","psychophysics","73","1934181","0.0-73.0","609ee7a707f13c414e5e87ec","625751619be6d55cc6b08b09","","","","","15045","key"," "," ","16.6648226164079","500","250","tilt","","","","","-7","-10","0"
"","psychophysics","74","1946298","0.0-74.0","609ee7a707f13c414e5e87ec","625751619be6d55cc6b08b09","","","","","12112","key"," "," ","16.66506060606065","500","250","tilt","","","","","12","9","0"
"","psychophysics","75","1955699","0.0-75.0","609ee7a707f13c414e5e87ec","625751619be6d55cc6b08b09","","","","","9396","key"," "," ","16.66521136767312","500","250","tilt","","","","","-9","-6","1"
"","psychophysics","76","1964143","0.0-76.0","609ee7a707f13c414e5e87ec","625751619be6d55cc6b08b09","","","","","8438","key"," "," ","16.664588932806108","500","250","tilt","","","","","-3","-1","1"
"","psychophysics","77","1966160","0.0-77.0","609ee7a707f13c414e5e87ec","625751619be6d55cc6b08b09","","","","","2011","key"," "," ","16.666191666666418","500","250","inst","","","","","","",""
"","psychophysics","78","1969776","0.0-78.0","609ee7a707f13c414e5e87ec","625751619be6d55cc6b08b09","","","","","3612","key"," "," ","16.665680555555607","500","250","instPz","","","","","50","50",""
"","psychophysics","79","1993663","0.0-79.0","609ee7a707f13c414e5e87ec","625751619be6d55cc6b08b09","","","","","23883","key"," "," ","16.66431703910608","500","250","instPz","","","","","49","50",""
"","psychophysics","80","2008774","0.0-80.0","609ee7a707f13c414e5e87ec","625751619be6d55cc6b08b09","","","","","15108","key"," "," ","16.664495584989023","500","250","instPz","","","","","30","30",""
"","psychophysics","81","2034303","0.0-81.0","609ee7a707f13c414e5e87ec","625751619be6d55cc6b08b09","","","","","25523","key"," "," ","16.664541476159336","500","250","instPz","","","","","43","40",""
"","psychophysics","82","2039026","0.0-82.0","609ee7a707f13c414e5e87ec","625751619be6d55cc6b08b09","","","","","4721","key"," "," ","16.663453900709364","500","250","inst","","","","","","",""
"","psychophysics","83","2047267","0.0-83.0","609ee7a707f13c414e5e87ec","625751619be6d55cc6b08b09","","","","","8232","key"," "," ","16.665133603238633","500","250","pz","","","","","31","24",""
"","psychophysics","84","2058373","0.0-84.0","609ee7a707f13c414e5e87ec","625751619be6d55cc6b08b09","","","","","11101","key"," "," ","16.66464661654134","500","250","pz","","","","","28","22",""
"","psychophysics","85","2069230","0.0-85.0","609ee7a707f13c414e5e87ec","625751619be6d55cc6b08b09","","","","","10848","key"," "," ","16.665130568356375","500","250","pz","","","","","34","30",""
"","psychophysics","86","2083745","0.0-86.0","609ee7a707f13c414e5e87ec","625751619be6d55cc6b08b09","","","","","14511","key"," "," ","16.664978160919492","500","250","pz","","","","","29","23",""
"","psychophysics","87","2107639","0.0-87.0","609ee7a707f13c414e5e87ec","625751619be6d55cc6b08b09","","","","","23890","key"," "," ","16.664603351955186","500","250","pz","","","","","51","42",""
"","psychophysics","88","2130221","0.0-88.0","609ee7a707f13c414e5e87ec","625751619be6d55cc6b08b09","","","","","22575","key"," "," ","16.66453800738009","500","250","pz","","","","","65","51",""
"","psychophysics","89","2140519","0.0-89.0","609ee7a707f13c414e5e87ec","625751619be6d55cc6b08b09","","","","","10292","key"," "," ","16.66444805194775","500","250","pz","","","","","53","41",""
"","psychophysics","90","2173966","0.0-90.0","609ee7a707f13c414e5e87ec","625751619be6d55cc6b08b09","","","","","33441","key"," "," ","16.664523168908982","500","250","pz","","","","","44","31",""
"","psychophysics","91","2197313","0.0-91.0","609ee7a707f13c414e5e87ec","625751619be6d55cc6b08b09","","","","","23342","key"," "," ","16.664535382415718","500","250","pz","","","","","41","29",""
"","psychophysics","92","2215827","0.0-92.0","609ee7a707f13c414e5e87ec","625751619be6d55cc6b08b09","","","","","18508","key"," "," ","16.664285585585446","500","250","pz","","","","","49","39",""
"","psychophysics","93","2232043","0.0-93.0","609ee7a707f13c414e5e87ec","625751619be6d55cc6b08b09","","","","","16189","key"," "," ","16.66449537512847","500","250","pz","","","","","78","59",""
"","psychophysics","94","2257972","0.0-94.0","609ee7a707f13c414e5e87ec","625751619be6d55cc6b08b09","","","","","25924","key"," "," ","16.664355627009556","500","250","pz","","","","","70","57",""
"","psychophysics","95","2271811","0.0-95.0","609ee7a707f13c414e5e87ec","625751619be6d55cc6b08b09","","","","","13834","key"," "," ","16.664650180941027","500","250","pz","","","","","36","27",""
"","psychophysics","96","2289848","0.0-96.0","609ee7a707f13c414e5e87ec","625751619be6d55cc6b08b09","","","","","18029","key"," "," ","16.66482608695665","500","250","pz","","","","","54","46",""
"","psychophysics","97","2300989","0.0-97.0","609ee7a707f13c414e5e87ec","625751619be6d55cc6b08b09","","","","","11133","key"," "," ","16.664803892215797","500","250","pz","","","","","60","47",""
"","psychophysics","98","2303622","0.0-98.0","609ee7a707f13c414e5e87ec","625751619be6d55cc6b08b09","","","","","2630","key"," "," ","16.66661783439481","500","250","inst","","","","","","",""
"","psychophysics","99","2306147","0.0-99.0","609ee7a707f13c414e5e87ec","625751619be6d55cc6b08b09","","","","","2522","key"," "," ","16.664258278147717","500","250","inst","","","","","","",""
"","psychophysics","100","2309505","0.0-100.0","609ee7a707f13c414e5e87ec","625751619be6d55cc6b08b09","","","","","3354","key"," "," ","16.666680000000632","500","250","instFlank","","","","","0.5","0.3","1"
"","psychophysics","101","2313780","0.0-101.0","609ee7a707f13c414e5e87ec","625751619be6d55cc6b08b09","","","","","4271","key"," "," ","16.66412499999933","500","250","inst","","","","","","",""
"","psychophysics","102","2346512","0.0-102.0","609ee7a707f13c414e5e87ec","625751619be6d55cc6b08b09","","","","","32728","key"," "," ","16.66435965359158","500","250","instFlank","","","","","0.34999999999999987","0.3","1"
"","psychophysics","103","2349601","0.0-103.0","609ee7a707f13c414e5e87ec","625751619be6d55cc6b08b09","","","","","3085","key"," "," ","16.666722826085195","500","250","inst","","","","","","",""
"","psychophysics","104","2359107","0.0-104.0","609ee7a707f13c414e5e87ec","625751619be6d55cc6b08b09","","","","","9490","key"," "," ","16.665198594024847","500","250","instFlank","","","","","0.5","0.3","0"
"","psychophysics","105","2360694","0.0-105.0","609ee7a707f13c414e5e87ec","625751619be6d55cc6b08b09","","","","","1581","key"," "," ","16.667694736840694","500","250","inst","","","","","","",""
"","psychophysics","106","2369814","0.0-106.0","609ee7a707f13c414e5e87ec","625751619be6d55cc6b08b09","","","","","9113","key"," "," ","16.664663003662927","500","250","flank","","","","","0.47","0.42","1"
"","psychophysics","107","2374017","0.0-107.0","609ee7a707f13c414e5e87ec","625751619be6d55cc6b08b09","","","","","4192","key"," "," ","16.666314741034448","500","250","flank","","","","","0.4099999999999999","0.36","1"
"","psychophysics","108","2378714","0.0-108.0","609ee7a707f13c414e5e87ec","625751619be6d55cc6b08b09","","","","","4685","key"," "," ","16.66534163700947","500","250","flank","","","","","0.5900000000000001","0.58","0"
"","psychophysics","109","2383744","0.0-109.0","609ee7a707f13c414e5e87ec","625751619be6d55cc6b08b09","","","","","5018","key"," "," ","16.665571428570846","500","250","flank","","","","","0.53","0.42","1"
"","psychophysics","110","2388305","0.0-110.0","609ee7a707f13c414e5e87ec","625751619be6d55cc6b08b09","","","","","4555","key"," "," ","16.665937728937646","500","250","flank","","","","","0.6200000000000001","0.62","0"
"","psychophysics","111","2393371","0.0-111.0","609ee7a707f13c414e5e87ec","625751619be6d55cc6b08b09","","","","","5059","key"," "," ","16.664069306930656","500","250","flank","","","","","0.34999999999999987","0.2","1"
"","psychophysics","112","2399759","0.0-112.0","609ee7a707f13c414e5e87ec","625751619be6d55cc6b08b09","","","","","6381","key"," "," ","16.66505497382193","500","250","flank","","","","","0.7100000000000002","0.7","0"
"","psychophysics","113","2403587","0.0-113.0","609ee7a707f13c414e5e87ec","625751619be6d55cc6b08b09","","","","","3819","key"," "," ","16.665196506550544","500","250","flank","","","","","0.4099999999999999","0.32","1"
"","psychophysics","114","2407017","0.0-114.0","609ee7a707f13c414e5e87ec","625751619be6d55cc6b08b09","","","","","3423","key"," "," ","16.664995098039142","500","250","flank","","","","","0.53","0.52","1"
"","psychophysics","115","2410790","0.0-115.0","609ee7a707f13c414e5e87ec","625751619be6d55cc6b08b09","","","","","3765","key"," "," ","16.665349557521893","500","250","flank","","","","","0.4099999999999999","0.32","0"
"","psychophysics","116","2417285","0.0-116.0","609ee7a707f13c414e5e87ec","625751619be6d55cc6b08b09","","","","","6484","key"," "," ","16.66493316195369","500","250","flank","","","","","0.7100000000000002","0.72","1"
"","psychophysics","117","2423652","0.0-117.0","609ee7a707f13c414e5e87ec","625751619be6d55cc6b08b09","","","","","6361","key"," "," ","16.6646115485569","500","250","flank","","","","","0.43999999999999995","0.34","1"
"","psychophysics","118","2428806","0.0-118.0","609ee7a707f13c414e5e87ec","625751619be6d55cc6b08b09","","","","","5147","key"," "," ","16.66570779220685","500","250","flank","","","","","0.3799999999999999","0.24","1"
"","psychophysics","119","2432536","0.0-119.0","609ee7a707f13c414e5e87ec","625751619be6d55cc6b08b09","","","","","3722","key"," "," ","16.666170403586843","500","250","flank","","","","","0.56","0.46","0"
"","psychophysics","120","2439206","0.0-120.0","609ee7a707f13c414e5e87ec","625751619be6d55cc6b08b09","","","","","6663","key"," "," ","16.66497243107775","500","250","flank","","","","","0.2899999999999998","0.24","1"
"","psychophysics","121","2443492","0.0-121.0","609ee7a707f13c414e5e87ec","625751619be6d55cc6b08b09","","","","","4276","key"," "," ","16.6646796874993","500","250","flank","","","","","0.7400000000000002","0.66","0"
"","psychophysics","122","2448090","0.0-122.0","609ee7a707f13c414e5e87ec","625751619be6d55cc6b08b09","","","","","4585","key"," "," ","16.66441090909087","500","250","flank","","","","","0.7700000000000002","0.74","1"
"","psychophysics","123","2451799","0.0-123.0","609ee7a707f13c414e5e87ec","625751619be6d55cc6b08b09","","","","","3698","key"," "," ","16.66440990990917","500","250","flank","","","","","0.6500000000000001","0.52","1"
"","psychophysics","124","2456041","0.0-124.0","609ee7a707f13c414e5e87ec","625751619be6d55cc6b08b09","","","","","4237","key"," "," ","16.665300395256903","500","250","flank","","","","","0.2599999999999998","0.2","1"
"","psychophysics","125","2459079","0.0-125.0","609ee7a707f13c414e5e87ec","625751619be6d55cc6b08b09","","","","","3027","key"," "," ","16.666911602210643","500","250","flank","","","","","0.5900000000000001","0.5","0"
"","psychophysics","126","2462932","0.0-126.0","609ee7a707f13c414e5e87ec","625751619be6d55cc6b08b09","","","","","3845","key"," "," ","16.664826839827647","500","250","flank","","","","","0.7100000000000002","0.72","1"
"","psychophysics","127","2466640","0.0-127.0","609ee7a707f13c414e5e87ec","625751619be6d55cc6b08b09","","","","","3700","key"," "," ","16.666343891403187","500","250","flank","","","","","0.31999999999999984","0.36","1"
"","psychophysics","128","2471288","0.0-128.0","609ee7a707f13c414e5e87ec","625751619be6d55cc6b08b09","","","","","4638","key"," "," ","16.665359712230952","500","250","flank","","","","","0.5","0.48","1"
"","psychophysics","129","2474517","0.0-129.0","609ee7a707f13c414e5e87ec","625751619be6d55cc6b08b09","","","","","3217","key"," "," ","16.665191709843267","500","250","flank","","","","","0.56","0.58","0"
"","psychophysics","130","2478426","0.0-130.0","609ee7a707f13c414e5e87ec","625751619be6d55cc6b08b09","","","","","3900","key"," "," ","16.664969957081897","500","250","flank","","","","","0.43999999999999995","0.36","1"
"","psychophysics","131","2482426","0.0-131.0","609ee7a707f13c414e5e87ec","625751619be6d55cc6b08b09","","","","","3991","key"," "," ","16.664280334727206","500","250","flank","","","","","0.4099999999999999","0.34","0"
"","psychophysics","132","2487211","0.0-132.0","609ee7a707f13c414e5e87ec","625751619be6d55cc6b08b09","","","","","4777","key"," "," ","16.665898954705092","500","250","flank","","","","","0.47","0.48","1"
"","psychophysics","133","2491692","0.0-133.0","609ee7a707f13c414e5e87ec","625751619be6d55cc6b08b09","","","","","4476","key"," "," ","16.665623134328747","500","250","flank","","","","","0.2599999999999998","0.26","1"
"","psychophysics","134","2495798","0.0-134.0","609ee7a707f13c414e5e87ec","625751619be6d55cc6b08b09","","","","","4097","key"," "," ","16.664579591837388","500","250","flank","","","","","0.7400000000000002","0.72","1"
"","psychophysics","135","2500198","0.0-135.0","609ee7a707f13c414e5e87ec","625751619be6d55cc6b08b09","","","","","4391","key"," "," ","16.665486692015378","500","250","flank","","","","","0.7700000000000002","0.66","0"
"true","fullscreen","136","2500202","0.0-136.0","609ee7a707f13c414e5e87ec","625751619be6d55cc6b08b09","","","","","","","","","","","","","","","","","","",""
