"success","trial_type","trial_index","time_elapsed","internal_node_id","pid","sid","timeout","failed_images","failed_audio","failed_video","rt","response_type","key_press","response","avg_frame_time","center_x","center_y","task","ml_len","ml_start","ml_x","ml_y","resp","targ","back"
"true","fullscreen","0","4524","0.0-0.0","5c99901553deaa0014cc1565","625755b8ed5cd1d771ac6622","","","","","","","","","","","","","","","","","","",""
"true","preload","1","4528","0.0-1.0","5c99901553deaa0014cc1565","625755b8ed5cd1d771ac6622","false","[]","[]","[]","","","","","","","","","","","","","","",""
"","psychophysics","2","8013","0.0-2.0","5c99901553deaa0014cc1565","625755b8ed5cd1d771ac6622","","","","","3461","key"," "," ","16.666","500","250","inst","","","","","","",""
"","psychophysics","3","9626","0.0-3.0","5c99901553deaa0014cc1565","625755b8ed5cd1d771ac6622","","","","","1610","key"," "," ","16.65132291666667","500","250","inst","","","","","","",""
"","psychophysics","4","25394","0.0-4.0","5c99901553deaa0014cc1565","625755b8ed5cd1d771ac6622","","","","","15766","key"," "," ","16.666307936507938","500","250","instMl","238","-39.666666666666664","-22","-11","-23.666666666666686","",""
"","psychophysics","5","40409","0.0-5.0","5c99901553deaa0014cc1565","625755b8ed5cd1d771ac6622","","","","","15012","key"," "," ","16.666590000000003","500","250","instMl","164","-27.333333333333332","-8","29","-15.333333333333314","",""
"","psychophysics","6","44330","0.0-6.0","5c99901553deaa0014cc1565","625755b8ed5cd1d771ac6622","","","","","3919","key"," "," ","16.66599999999999","500","250","inst","","","","","","",""
"","psychophysics","7","51134","0.0-7.0","5c99901553deaa0014cc1565","625755b8ed5cd1d771ac6622","","","","","6801","key"," "," ","16.666653562653565","500","250","ml","200","-9","-17","-25","-20","",""
"","psychophysics","8","59340","0.0-8.0","5c99901553deaa0014cc1565","625755b8ed5cd1d771ac6622","","","","","8202","key"," "," ","16.666540650406507","500","250","ml","184","-17","-1","-3","-12","",""
"","psychophysics","9","68873","0.0-9.0","5c99901553deaa0014cc1565","625755b8ed5cd1d771ac6622","","","","","9531","key"," "," ","16.666462346760063","500","250","ml","216","24","3","6","-16","",""
"","psychophysics","10","83362","0.0-10.0","5c99901553deaa0014cc1565","625755b8ed5cd1d771ac6622","","","","","14486","key"," "," ","16.6663133640553","500","250","ml","236","54","-4","18","-11","",""
"","psychophysics","11","89844","0.0-11.0","5c99901553deaa0014cc1565","625755b8ed5cd1d771ac6622","","","","","6479","key"," "," ","16.666672680412358","500","250","ml","194","21","0","5","-13","",""
"","psychophysics","12","97973","0.0-12.0","5c99901553deaa0014cc1565","625755b8ed5cd1d771ac6622","","","","","8127","key"," "," ","16.666000000000007","500","250","ml","162","10","-15","4","-12","",""
"","psychophysics","13","107659","0.0-13.0","5c99901553deaa0014cc1565","625755b8ed5cd1d771ac6622","","","","","9683","key"," "," ","16.666456896551722","500","250","ml","222","20","12","-8","-18","",""
"","psychophysics","14","116975","0.0-14.0","5c99901553deaa0014cc1565","625755b8ed5cd1d771ac6622","","","","","9315","key"," "," ","16.666480286738366","500","250","ml","228","-52","26","-24","-13","",""
"","psychophysics","15","127606","0.0-15.0","5c99901553deaa0014cc1565","625755b8ed5cd1d771ac6622","","","","","10628","key"," "," ","16.666416012558866","500","250","ml","242","-60","29","-18","-14","",""
"","psychophysics","16","137077","0.0-16.0","5c99901553deaa0014cc1565","625755b8ed5cd1d771ac6622","","","","","9469","key"," "," ","16.6664126984127","500","250","ml","232","-36","-26","-15","-16","",""
"","psychophysics","17","145673","0.0-17.0","5c99901553deaa0014cc1565","625755b8ed5cd1d771ac6622","","","","","8593","key"," "," ","16.6665786407767","500","250","ml","194","-44","16","21","-12","",""
"","psychophysics","18","161810","0.0-18.0","5c99901553deaa0014cc1565","625755b8ed5cd1d771ac6622","","","","","16135","key"," "," ","16.666549120992777","500","250","ml","222","-28","-30","-13","-10","",""
"","psychophysics","19","171945","0.0-19.0","5c99901553deaa0014cc1565","625755b8ed5cd1d771ac6622","","","","","10132","key"," "," ","16.6664398682043","500","250","ml","196","28","10","-20","-15","",""
"","psychophysics","20","180857","0.0-20.0","5c99901553deaa0014cc1565","625755b8ed5cd1d771ac6622","","","","","8909","key"," "," ","16.666499999999985","500","250","ml","218","8","-17","3","-14","",""
"","psychophysics","21","191071","0.0-21.0","5c99901553deaa0014cc1565","625755b8ed5cd1d771ac6622","","","","","10213","key"," "," ","16.66643137254902","500","250","ml","182","-44","-25","-21","-12","",""
"","psychophysics","22","194032","0.0-22.0","5c99901553deaa0014cc1565","625755b8ed5cd1d771ac6622","","","","","2959","key"," "," ","16.66600000000007","500","250","inst","","","","","","",""
"","psychophysics","23","214723","0.0-23.0","5c99901553deaa0014cc1565","625755b8ed5cd1d771ac6622","","","","","20678","key"," "," ","16.666427419354836","500","250","instPog","","","","","130","130",""
"","psychophysics","24","243489","0.0-24.0","5c99901553deaa0014cc1565","625755b8ed5cd1d771ac6622","","","","","28764","key"," "," ","16.66646376811594","500","250","instPog","","","","","135","130",""
"","psychophysics","25","258654","0.0-25.0","5c99901553deaa0014cc1565","625755b8ed5cd1d771ac6622","","","","","15163","key"," "," ","16.66629262926293","500","250","instPog","","","","","146","130",""
"","psychophysics","26","263272","0.0-26.0","5c99901553deaa0014cc1565","625755b8ed5cd1d771ac6622","","","","","4616","key"," "," ","16.66671739130433","500","250","inst","","","","","","",""
"","psychophysics","27","275553","0.0-27.0","5c99901553deaa0014cc1565","625755b8ed5cd1d771ac6622","","","","","12279","key"," "," ","16.666452445652123","500","250","pog","","","","","152","134",""
"","psychophysics","28","289524","0.0-28.0","5c99901553deaa0014cc1565","625755b8ed5cd1d771ac6622","","","","","13968","key"," "," ","16.66663799283157","500","250","pog","","","","","164","143",""
"","psychophysics","29","301859","0.0-29.0","5c99901553deaa0014cc1565","625755b8ed5cd1d771ac6622","","","","","12332","key"," "," ","16.666355886332852","500","250","pog","","","","","200","181",""
"","psychophysics","30","334353","0.0-30.0","5c99901553deaa0014cc1565","625755b8ed5cd1d771ac6622","","","","","32491","key"," "," ","16.66640944073884","500","250","pog","","","","","208","179",""
"","psychophysics","31","344001","0.0-31.0","5c99901553deaa0014cc1565","625755b8ed5cd1d771ac6622","","","","","9646","key"," "," ","16.666456747404844","500","250","pog","","","","","202","181",""
"","psychophysics","32","354890","0.0-32.0","5c99901553deaa0014cc1565","625755b8ed5cd1d771ac6622","","","","","10886","key"," "," ","16.6664125766871","500","250","pog","","","","","175","154",""
"","psychophysics","33","367787","0.0-33.0","5c99901553deaa0014cc1565","625755b8ed5cd1d771ac6622","","","","","12896","key"," "," ","16.66634411384214","500","250","pog","","","","","211","186",""
"","psychophysics","34","392409","0.0-34.0","5c99901553deaa0014cc1565","625755b8ed5cd1d771ac6622","","","","","24619","key"," "," ","16.666540650406514","500","250","pog","","","","","222","196",""
"","psychophysics","35","401985","0.0-35.0","5c99901553deaa0014cc1565","625755b8ed5cd1d771ac6622","","","","","9575","key"," "," ","16.666440766550544","500","250","pog","","","","","162","137",""
"","psychophysics","36","409659","0.0-36.0","5c99901553deaa0014cc1565","625755b8ed5cd1d771ac6622","","","","","7672","key"," "," ","16.66599999999991","500","250","pog","","","","","177","160",""
"","psychophysics","37","419289","0.0-37.0","5c99901553deaa0014cc1565","625755b8ed5cd1d771ac6622","","","","","9628","key"," "," ","16.66647140381283","500","250","pog","","","","","184","162",""
"","psychophysics","38","429986","0.0-38.0","5c99901553deaa0014cc1565","625755b8ed5cd1d771ac6622","","","","","10694","key"," "," ","16.666733229329246","500","250","pog","","","","","204","192",""
"","psychophysics","39","442206","0.0-39.0","5c99901553deaa0014cc1565","625755b8ed5cd1d771ac6622","","","","","12219","key"," "," ","16.666407103825133","500","250","pog","","","","","212","195",""
"","psychophysics","40","450641","0.0-40.0","5c99901553deaa0014cc1565","625755b8ed5cd1d771ac6622","","","","","8432","key"," "," ","16.66659603960395","500","250","pog","","","","","159","135",""
"","psychophysics","41","459434","0.0-41.0","5c99901553deaa0014cc1565","625755b8ed5cd1d771ac6622","","","","","8790","key"," "," ","16.666000000000036","500","250","pog","","","","","176","159",""
"","psychophysics","42","461087","0.0-42.0","5c99901553deaa0014cc1565","625755b8ed5cd1d771ac6622","","","","","1649","key"," "," ","16.66870408163261","500","250","inst","","","","","","",""
"","psychophysics","43","463969","0.0-43.0","5c99901553deaa0014cc1565","625755b8ed5cd1d771ac6622","","","","","2880","key"," "," ","16.666000000000146","500","250","instTilt","","","","","NaN","0","0"
"","psychophysics","44","468370","0.0-44.0","5c99901553deaa0014cc1565","625755b8ed5cd1d771ac6622","","","","","4394","key"," "," ","16.665999999999983","500","250","instTilt","","","","","0","0","0"
"","psychophysics","45","489552","0.0-45.0","5c99901553deaa0014cc1565","625755b8ed5cd1d771ac6622","","","","","21179","key"," "," ","16.666422047244073","500","250","instTilt","","","","","6","0","0"
"","psychophysics","46","493301","0.0-46.0","5c99901553deaa0014cc1565","625755b8ed5cd1d771ac6622","","","","","3747","key"," "," ","16.667183035714384","500","250","inst","","","","","","",""
"","psychophysics","47","504518","0.0-47.0","5c99901553deaa0014cc1565","625755b8ed5cd1d771ac6622","","","","","11215","key"," "," ","16.666395833333375","500","250","tilt","","","","","-2","1","1"
"","psychophysics","48","513284","0.0-48.0","5c99901553deaa0014cc1565","625755b8ed5cd1d771ac6622","","","","","8763","key"," "," ","16.666502857142838","500","250","tilt","","","","","4","-1","0"
"","psychophysics","49","524420","0.0-49.0","5c99901553deaa0014cc1565","625755b8ed5cd1d771ac6622","","","","","11134","key"," "," ","16.666395802098915","500","250","tilt","","","","","2","1","0"
"","psychophysics","50","531921","0.0-50.0","5c99901553deaa0014cc1565","625755b8ed5cd1d771ac6622","","","","","7499","key"," "," ","16.6666057906461","500","250","tilt","","","","","6","9","1"
"","psychophysics","51","545243","0.0-51.0","5c99901553deaa0014cc1565","625755b8ed5cd1d771ac6622","","","","","13319","key"," "," ","16.666284461152816","500","250","tilt","","","","","-1","3","1"
"","psychophysics","52","550197","0.0-52.0","5c99901553deaa0014cc1565","625755b8ed5cd1d771ac6622","","","","","4950","key"," "," ","16.66701010100995","500","250","tilt","","","","","-13","-10","1"
"","psychophysics","53","562851","0.0-53.0","5c99901553deaa0014cc1565","625755b8ed5cd1d771ac6622","","","","","12650","key"," "," ","16.666350923482902","500","250","tilt","","","","","-2","2","1"
"","psychophysics","54","572950","0.0-54.0","5c99901553deaa0014cc1565","625755b8ed5cd1d771ac6622","","","","","10097","key"," "," ","16.666438016529032","500","250","tilt","","","","","0","-3","0"
"","psychophysics","55","580472","0.0-55.0","5c99901553deaa0014cc1565","625755b8ed5cd1d771ac6622","","","","","7518","key"," "," ","16.666591111111146","500","250","tilt","","","","","-6","-7","0"
"","psychophysics","56","587891","0.0-56.0","5c99901553deaa0014cc1565","625755b8ed5cd1d771ac6622","","","","","7417","key"," "," ","16.66600000000006","500","250","tilt","","","","","-6","-8","0"
"","psychophysics","57","592485","0.0-57.0","5c99901553deaa0014cc1565","625755b8ed5cd1d771ac6622","","","","","4589","key"," "," ","16.666749090909196","500","250","tilt","","","","","4","5","1"
"","psychophysics","58","598918","0.0-58.0","5c99901553deaa0014cc1565","625755b8ed5cd1d771ac6622","","","","","6432","key"," "," ","16.666000000000086","500","250","tilt","","","","","-4","-2","1"
"","psychophysics","59","607501","0.0-59.0","5c99901553deaa0014cc1565","625755b8ed5cd1d771ac6622","","","","","8579","key"," "," ","16.666632295719797","500","250","tilt","","","","","1","-5","0"
"","psychophysics","60","615183","0.0-60.0","5c99901553deaa0014cc1565","625755b8ed5cd1d771ac6622","","","","","7680","key"," "," ","16.666578260869414","500","250","tilt","","","","","-2","-3","0"
"","psychophysics","61","617983","0.0-61.0","5c99901553deaa0014cc1565","625755b8ed5cd1d771ac6622","","","","","2798","key"," "," ","16.666000000000402","500","250","tilt","","","","","6","6","0"
"","psychophysics","62","621266","0.0-62.0","5c99901553deaa0014cc1565","625755b8ed5cd1d771ac6622","","","","","3281","key"," "," ","16.666999999999796","500","250","tilt","","","","","2","4","0"
"","psychophysics","63","631583","0.0-63.0","5c99901553deaa0014cc1565","625755b8ed5cd1d771ac6622","","","","","10313","key"," "," ","16.66642718446595","500","250","tilt","","","","","2","6","1"
"","psychophysics","64","637150","0.0-64.0","5c99901553deaa0014cc1565","625755b8ed5cd1d771ac6622","","","","","5565","key"," "," ","16.66600000000015","500","250","tilt","","","","","5","5","0"
"","psychophysics","65","639952","0.0-65.0","5c99901553deaa0014cc1565","625755b8ed5cd1d771ac6622","","","","","2800","key"," "," ","16.666000000000402","500","250","tilt","","","","","0","-2","0"
"","psychophysics","66","643591","0.0-66.0","5c99901553deaa0014cc1565","625755b8ed5cd1d771ac6622","","","","","3631","key"," "," ","16.66740092165899","500","250","tilt","","","","","-5","-6","0"
"","psychophysics","67","651300","0.0-67.0","5c99901553deaa0014cc1565","625755b8ed5cd1d771ac6622","","","","","7706","key"," "," ","16.66649783549788","500","250","tilt","","","","","2","2","1"
"","psychophysics","68","658368","0.0-68.0","5c99901553deaa0014cc1565","625755b8ed5cd1d771ac6622","","","","","7066","key"," "," ","16.665999999999986","500","250","tilt","","","","","7","10","1"
"","psychophysics","69","670424","0.0-69.0","5c99901553deaa0014cc1565","625755b8ed5cd1d771ac6622","","","","","12053","key"," "," ","16.666463988919553","500","250","tilt","","","","","4","6","1"
"","psychophysics","70","678616","0.0-70.0","5c99901553deaa0014cc1565","625755b8ed5cd1d771ac6622","","","","","8188","key"," "," ","16.6664704684317","500","250","tilt","","","","","2","5","1"
"","psychophysics","71","684759","0.0-71.0","5c99901553deaa0014cc1565","625755b8ed5cd1d771ac6622","","","","","6140","key"," "," ","16.666823369565385","500","250","tilt","","","","","2","2","0"
"","psychophysics","72","693951","0.0-72.0","5c99901553deaa0014cc1565","625755b8ed5cd1d771ac6622","","","","","9189","key"," "," ","16.666478181818118","500","250","tilt","","","","","8","10","1"
"","psychophysics","73","699683","0.0-73.0","5c99901553deaa0014cc1565","625755b8ed5cd1d771ac6622","","","","","5728","key"," "," ","16.66600000000024","500","250","tilt","","","","","-5","-6","0"
"","psychophysics","74","706280","0.0-74.0","5c99901553deaa0014cc1565","625755b8ed5cd1d771ac6622","","","","","6595","key"," "," ","16.666675949367235","500","250","tilt","","","","","-11","-8","1"
"","psychophysics","75","713388","0.0-75.0","5c99901553deaa0014cc1565","625755b8ed5cd1d771ac6622","","","","","7106","key"," "," ","16.666475294117596","500","250","tilt","","","","","8","6","0"
"","psychophysics","76","723503","0.0-76.0","5c99901553deaa0014cc1565","625755b8ed5cd1d771ac6622","","","","","10110","key"," "," ","16.666542904290505","500","250","tilt","","","","","-9","-10","0"
"","psychophysics","77","724748","0.0-77.0","5c99901553deaa0014cc1565","625755b8ed5cd1d771ac6622","","","","","1241","key"," "," ","16.665999999999798","500","250","inst","","","","","","",""
"","psychophysics","78","727503","0.0-78.0","5c99901553deaa0014cc1565","625755b8ed5cd1d771ac6622","","","","","2752","key"," "," ","16.665999999999567","500","250","instPz","","","","","50","50",""
"","psychophysics","79","735666","0.0-79.0","5c99901553deaa0014cc1565","625755b8ed5cd1d771ac6622","","","","","8161","key"," "," ","16.666543967280287","500","250","instPz","","","","","52","50",""
"","psychophysics","80","743112","0.0-80.0","5c99901553deaa0014cc1565","625755b8ed5cd1d771ac6622","","","","","7444","key"," "," ","16.666591928251226","500","250","instPz","","","","","32","30",""
"","psychophysics","81","766804","0.0-81.0","5c99901553deaa0014cc1565","625755b8ed5cd1d771ac6622","","","","","23688","key"," "," ","16.666376760563384","500","250","instPz","","","","","64","40",""
"","psychophysics","82","769946","0.0-82.0","5c99901553deaa0014cc1565","625755b8ed5cd1d771ac6622","","","","","3141","key"," "," ","16.665999999999915","500","250","inst","","","","","","",""
"","psychophysics","83","782567","0.0-83.0","5c99901553deaa0014cc1565","625755b8ed5cd1d771ac6622","","","","","12619","key"," "," ","16.666719576719473","500","250","pz","","","","","48","33",""
"","psychophysics","84","797447","0.0-84.0","5c99901553deaa0014cc1565","625755b8ed5cd1d771ac6622","","","","","14877","key"," "," ","16.666282511210657","500","250","pz","","","","","33","23",""
"","psychophysics","85","808130","0.0-85.0","5c99901553deaa0014cc1565","625755b8ed5cd1d771ac6622","","","","","10681","key"," "," ","16.666357812499882","500","250","pz","","","","","37","27",""
"","psychophysics","86","816165","0.0-86.0","5c99901553deaa0014cc1565","625755b8ed5cd1d771ac6622","","","","","8033","key"," "," ","16.666634095634002","500","250","pz","","","","","47","36",""
"","psychophysics","87","832032","0.0-87.0","5c99901553deaa0014cc1565","625755b8ed5cd1d771ac6622","","","","","15864","key"," "," ","16.66648895899054","500","250","pz","","","","","79","60",""
"","psychophysics","88","841200","0.0-88.0","5c99901553deaa0014cc1565","625755b8ed5cd1d771ac6622","","","","","9165","key"," "," ","16.66660109289603","500","250","pz","","","","","73","54",""
"","psychophysics","89","850445","0.0-89.0","5c99901553deaa0014cc1565","625755b8ed5cd1d771ac6622","","","","","9243","key"," "," ","16.666000000000064","500","250","pz","","","","","43","32",""
"","psychophysics","90","857236","0.0-90.0","5c99901553deaa0014cc1565","625755b8ed5cd1d771ac6622","","","","","6788","key"," "," ","16.666655172413822","500","250","pz","","","","","40","32",""
"","psychophysics","91","866947","0.0-91.0","5c99901553deaa0014cc1565","625755b8ed5cd1d771ac6622","","","","","9708","key"," "," ","16.666408934707864","500","250","pz","","","","","50","41",""
"","psychophysics","92","873554","0.0-92.0","5c99901553deaa0014cc1565","625755b8ed5cd1d771ac6622","","","","","6606","key"," "," ","16.66669113924049","500","250","pz","","","","","44","36",""
"","psychophysics","93","881497","0.0-93.0","5c99901553deaa0014cc1565","625755b8ed5cd1d771ac6622","","","","","7938","key"," "," ","16.666598739495996","500","250","pz","","","","","57","42",""
"","psychophysics","94","886162","0.0-94.0","5c99901553deaa0014cc1565","625755b8ed5cd1d771ac6622","","","","","4663","key"," "," ","16.666000000000047","500","250","pz","","","","","37","27",""
"","psychophysics","95","894421","0.0-95.0","5c99901553deaa0014cc1565","625755b8ed5cd1d771ac6622","","","","","8255","key"," "," ","16.666467611336003","500","250","pz","","","","","63","55",""
"","psychophysics","96","905998","0.0-96.0","5c99901553deaa0014cc1565","625755b8ed5cd1d771ac6622","","","","","11573","key"," "," ","16.666435158501518","500","250","pz","","","","","65","53",""
"","psychophysics","97","911021","0.0-97.0","5c99901553deaa0014cc1565","625755b8ed5cd1d771ac6622","","","","","5021","key"," "," ","16.666000000000157","500","250","pz","","","","","33","26",""
"","psychophysics","98","912737","0.0-98.0","5c99901553deaa0014cc1565","625755b8ed5cd1d771ac6622","","","","","1711","key"," "," ","16.668617647059044","500","250","inst","","","","","","",""
"","psychophysics","99","915751","0.0-99.0","5c99901553deaa0014cc1565","625755b8ed5cd1d771ac6622","","","","","3001","key"," "," ","16.666000000000025","500","250","inst","","","","","","",""
"","psychophysics","100","918366","0.0-100.0","5c99901553deaa0014cc1565","625755b8ed5cd1d771ac6622","","","","","2610","key"," "," ","16.666000000000423","500","250","instFlank","","","","","0.5","0.3","1"
"","psychophysics","101","922032","0.0-101.0","5c99901553deaa0014cc1565","625755b8ed5cd1d771ac6622","","","","","3664","key"," "," ","16.667086757991154","500","250","inst","","","","","","",""
"","psychophysics","102","930352","0.0-102.0","5c99901553deaa0014cc1565","625755b8ed5cd1d771ac6622","","","","","8315","key"," "," ","16.665999999999894","500","250","instFlank","","","","","0.3799999999999999","0.3","1"
"","psychophysics","103","934148","0.0-103.0","5c99901553deaa0014cc1565","625755b8ed5cd1d771ac6622","","","","","3792","key"," "," ","16.667290748898576","500","250","inst","","","","","","",""
"","psychophysics","104","940680","0.0-104.0","5c99901553deaa0014cc1565","625755b8ed5cd1d771ac6622","","","","","6519","key"," "," ","16.665999999999894","500","250","instFlank","","","","","0.6800000000000002","0.3","0"
"","psychophysics","105","942112","0.0-105.0","5c99901553deaa0014cc1565","625755b8ed5cd1d771ac6622","","","","","1430","key"," "," ","16.66915294117541","500","250","inst","","","","","","",""
"","psychophysics","106","946765","0.0-106.0","5c99901553deaa0014cc1565","625755b8ed5cd1d771ac6622","","","","","4649","key"," "," ","16.66599999999974","500","250","flank","","","","","0.6200000000000001","0.56","0"
"","psychophysics","107","953095","0.0-107.0","5c99901553deaa0014cc1565","625755b8ed5cd1d771ac6622","","","","","6327","key"," "," ","16.666696569920727","500","250","flank","","","","","0.7700000000000002","0.64","0"
"","psychophysics","108","958063","0.0-108.0","5c99901553deaa0014cc1565","625755b8ed5cd1d771ac6622","","","","","4965","key"," "," ","16.666000000000086","500","250","flank","","","","","0.7700000000000002","0.7","1"
"","psychophysics","109","962834","0.0-109.0","5c99901553deaa0014cc1565","625755b8ed5cd1d771ac6622","","","","","4768","key"," "," ","16.666870175438866","500","250","flank","","","","","0.8600000000000003","0.76","1"
"","psychophysics","110","969276","0.0-110.0","5c99901553deaa0014cc1565","625755b8ed5cd1d771ac6622","","","","","6437","key"," "," ","16.666000000000004","500","250","flank","","","","","0.6500000000000001","0.52","1"
"","psychophysics","111","976469","0.0-111.0","5c99901553deaa0014cc1565","625755b8ed5cd1d771ac6622","","","","","7191","key"," "," ","16.666660465116255","500","250","flank","","","","","0.0799999999999998","0.2","1"
"","psychophysics","112","982284","0.0-112.0","5c99901553deaa0014cc1565","625755b8ed5cd1d771ac6622","","","","","5810","key"," "," ","16.66676436781605","500","250","flank","","","","","0.6800000000000002","0.66","0"
"","psychophysics","113","985821","0.0-113.0","5c99901553deaa0014cc1565","625755b8ed5cd1d771ac6622","","","","","3531","key"," "," ","16.666000000000185","500","250","flank","","","","","0.56","0.52","0"
"","psychophysics","114","991393","0.0-114.0","5c99901553deaa0014cc1565","625755b8ed5cd1d771ac6622","","","","","5568","key"," "," ","16.665999999999798","500","250","flank","","","","","0.7400000000000002","0.78","1"
"","psychophysics","115","996662","0.0-115.0","5c99901553deaa0014cc1565","625755b8ed5cd1d771ac6622","","","","","5266","key"," "," ","16.666755555555344","500","250","flank","","","","","0.47","0.48","0"
"","psychophysics","116","1001265","0.0-116.0","5c99901553deaa0014cc1565","625755b8ed5cd1d771ac6622","","","","","4600","key"," "," ","16.665999999999663","500","250","flank","","","","","0.53","0.54","0"
"","psychophysics","117","1005629","0.0-117.0","5c99901553deaa0014cc1565","625755b8ed5cd1d771ac6622","","","","","4360","key"," "," ","16.667114942528617","500","250","flank","","","","","0.7100000000000002","0.68","1"
"","psychophysics","118","1010634","0.0-118.0","5c99901553deaa0014cc1565","625755b8ed5cd1d771ac6622","","","","","4991","key"," "," ","16.666000000000263","500","250","flank","","","","","0.7700000000000002","0.78","1"
"","psychophysics","119","1014360","0.0-119.0","5c99901553deaa0014cc1565","625755b8ed5cd1d771ac6622","","","","","3720","key"," "," ","16.666964125560572","500","250","flank","","","","","0.3799999999999999","0.48","1"
"","psychophysics","120","1020336","0.0-120.0","5c99901553deaa0014cc1565","625755b8ed5cd1d771ac6622","","","","","5972","key"," "," ","16.665999999999965","500","250","flank","","","","","0.6500000000000001","0.6","0"
"","psychophysics","121","1026165","0.0-121.0","5c99901553deaa0014cc1565","625755b8ed5cd1d771ac6622","","","","","5825","key"," "," ","16.66683381088852","500","250","flank","","","","","0.47","0.42","1"
"","psychophysics","122","1030444","0.0-122.0","5c99901553deaa0014cc1565","625755b8ed5cd1d771ac6622","","","","","4265","key"," "," ","16.665999999999837","500","250","flank","","","","","0.7400000000000002","0.68","1"
"","psychophysics","123","1034693","0.0-123.0","5c99901553deaa0014cc1565","625755b8ed5cd1d771ac6622","","","","","4245","key"," "," ","16.6671372549024","500","250","flank","","","","","0.47","0.48","1"
"","psychophysics","124","1039228","0.0-124.0","5c99901553deaa0014cc1565","625755b8ed5cd1d771ac6622","","","","","4532","key"," "," ","16.666000000000125","500","250","flank","","","","","0.34999999999999987","0.32","1"
"","psychophysics","125","1044942","0.0-125.0","5c99901553deaa0014cc1565","625755b8ed5cd1d771ac6622","","","","","5702","key"," "," ","16.666795321637412","500","250","flank","","","","","0.7400000000000002","0.72","1"
"","psychophysics","126","1051495","0.0-126.0","5c99901553deaa0014cc1565","625755b8ed5cd1d771ac6622","","","","","6550","key"," "," ","16.66600000000011","500","250","flank","","","","","0.2599999999999998","0.26","1"
"","psychophysics","127","1056066","0.0-127.0","5c99901553deaa0014cc1565","625755b8ed5cd1d771ac6622","","","","","4567","key"," "," ","16.666904761904558","500","250","flank","","","","","0.6800000000000002","0.5","0"
"","psychophysics","128","1062693","0.0-128.0","5c99901553deaa0014cc1565","625755b8ed5cd1d771ac6622","","","","","6624","key"," "," ","16.666710327456233","500","250","flank","","","","","0.31999999999999984","0.2","1"
"","psychophysics","129","1069494","0.0-129.0","5c99901553deaa0014cc1565","625755b8ed5cd1d771ac6622","","","","","6798","key"," "," ","16.665999999999798","500","250","flank","","","","","0.47","0.22","0"
"","psychophysics","130","1074040","0.0-130.0","5c99901553deaa0014cc1565","625755b8ed5cd1d771ac6622","","","","","4543","key"," "," ","16.666867647058954","500","250","flank","","","","","0.56","0.34","0"
"","psychophysics","131","1077127","0.0-131.0","5c99901553deaa0014cc1565","625755b8ed5cd1d771ac6622","","","","","3084","key"," "," ","16.66599999999997","500","250","flank","","","","","0.6200000000000001","0.68","1"
"","psychophysics","132","1081174","0.0-132.0","5c99901553deaa0014cc1565","625755b8ed5cd1d771ac6622","","","","","4044","key"," "," ","16.666000000000086","500","250","flank","","","","","0.7400000000000002","0.76","0"
"","psychophysics","133","1086466","0.0-133.0","5c99901553deaa0014cc1565","625755b8ed5cd1d771ac6622","","","","","5288","key"," "," ","16.66680696202498","500","250","flank","","","","","0.7400000000000002","0.72","0"
"","psychophysics","134","1092292","0.0-134.0","5c99901553deaa0014cc1565","625755b8ed5cd1d771ac6622","","","","","5821","key"," "," ","16.6668796561609","500","250","flank","","","","","0.7100000000000002","0.66","0"
"","psychophysics","135","1097825","0.0-135.0","5c99901553deaa0014cc1565","625755b8ed5cd1d771ac6622","","","","","5530","key"," "," ","16.66599999999999","500","250","flank","","","","","0.47","0.48","0"
"true","fullscreen","136","1097827","0.0-136.0","5c99901553deaa0014cc1565","625755b8ed5cd1d771ac6622","","","","","","","","","","","","","","","","","","",""
