"success","trial_type","trial_index","time_elapsed","internal_node_id","pid","sid","timeout","failed_images","failed_audio","failed_video","rt","response_type","key_press","response","avg_frame_time","center_x","center_y","task","ml_len","ml_start","ml_x","ml_y","resp","targ","back"
"true","fullscreen","0","4050","0.0-0.0","60de50896b0ce86b84a2ee24","625755d30cd3f289b5f0ff4e","","","","","","","","","","","","","","","","","","",""
"true","preload","1","4053","0.0-1.0","60de50896b0ce86b84a2ee24","625755d30cd3f289b5f0ff4e","false","[]","[]","[]","","","","","","","","","","","","","","",""
"","psychophysics","2","13374","0.0-2.0","60de50896b0ce86b84a2ee24","625755d30cd3f289b5f0ff4e","","","","","9301","key"," "," ","16.67728264758497","500","250","inst","","","","","","",""
"","psychophysics","3","15158","0.0-3.0","60de50896b0ce86b84a2ee24","625755d30cd3f289b5f0ff4e","","","","","1782","key"," "," ","16.65267924528301","500","250","inst","","","","","","",""
"","psychophysics","4","45850","0.0-4.0","60de50896b0ce86b84a2ee24","625755d30cd3f289b5f0ff4e","","","","","30684","key"," "," ","16.650628323385785","500","250","instMl","150","-25","-3","-26","-11","",""
"","psychophysics","5","54706","0.0-5.0","60de50896b0ce86b84a2ee24","625755d30cd3f289b5f0ff4e","","","","","8853","key"," "," ","16.650538606403018","500","250","instMl","220","-36.666666666666664","-23","-10","-14.666666666666686","",""
"","psychophysics","6","59871","0.0-6.0","60de50896b0ce86b84a2ee24","625755d30cd3f289b5f0ff4e","","","","","5162","key"," "," ","16.650093851132688","500","250","inst","","","","","","",""
"","psychophysics","7","65933","0.0-7.0","60de50896b0ce86b84a2ee24","625755d30cd3f289b5f0ff4e","","","","","6059","key"," "," ","16.651641873278223","500","250","ml","182","42","-4","1","-15","",""
"","psychophysics","8","72183","0.0-8.0","60de50896b0ce86b84a2ee24","625755d30cd3f289b5f0ff4e","","","","","6248","key"," "," ","16.651133689839547","500","250","ml","158","31","-18","-26","-16","",""
"","psychophysics","9","81537","0.0-9.0","60de50896b0ce86b84a2ee24","625755d30cd3f289b5f0ff4e","","","","","9350","key"," "," ","16.651058823529397","500","250","ml","184","-19","25","29","-14","",""
"","psychophysics","10","89317","0.0-10.0","60de50896b0ce86b84a2ee24","625755d30cd3f289b5f0ff4e","","","","","7778","key"," "," ","16.650184549356233","500","250","ml","240","47","-23","-19","-12","",""
"","psychophysics","11","95169","0.0-11.0","60de50896b0ce86b84a2ee24","625755d30cd3f289b5f0ff4e","","","","","5847","key"," "," ","16.651504273504273","500","250","ml","190","-11","-15","20","-15","",""
"","psychophysics","12","102253","0.0-12.0","60de50896b0ce86b84a2ee24","625755d30cd3f289b5f0ff4e","","","","","7083","key"," "," ","16.650424528301883","500","250","ml","186","-32","-25","22","-20","",""
"","psychophysics","13","109065","0.0-13.0","60de50896b0ce86b84a2ee24","625755d30cd3f289b5f0ff4e","","","","","6809","key"," "," ","16.65106372549021","500","250","ml","242","-16","5","9","-18","",""
"","psychophysics","14","120780","0.0-14.0","60de50896b0ce86b84a2ee24","625755d30cd3f289b5f0ff4e","","","","","11712","key"," "," ","16.650431009957323","500","250","ml","240","14","-9","-14","-13","",""
"","psychophysics","15","129283","0.0-15.0","60de50896b0ce86b84a2ee24","625755d30cd3f289b5f0ff4e","","","","","8500","key"," "," ","16.650423529411736","500","250","ml","190","-17","-20","-5","-14","",""
"","psychophysics","16","135564","0.0-16.0","60de50896b0ce86b84a2ee24","625755d30cd3f289b5f0ff4e","","","","","6278","key"," "," ","16.649228723404217","500","250","ml","172","28","-19","25","-11","",""
"","psychophysics","17","146418","0.0-17.0","60de50896b0ce86b84a2ee24","625755d30cd3f289b5f0ff4e","","","","","10852","key"," "," ","16.65005837173578","500","250","ml","180","45","30","-9","-11","",""
"","psychophysics","18","152627","0.0-18.0","60de50896b0ce86b84a2ee24","625755d30cd3f289b5f0ff4e","","","","","6207","key"," "," ","16.65039247311827","500","250","ml","184","-46","3","-21","-13","",""
"","psychophysics","19","160517","0.0-19.0","60de50896b0ce86b84a2ee24","625755d30cd3f289b5f0ff4e","","","","","7887","key"," "," ","16.6502690677966","500","250","ml","224","-11","25","-16","-16","",""
"","psychophysics","20","165374","0.0-20.0","60de50896b0ce86b84a2ee24","625755d30cd3f289b5f0ff4e","","","","","4853","key"," "," ","16.65089690721647","500","250","ml","210","-6","-20","11","-18","",""
"","psychophysics","21","170686","0.0-21.0","60de50896b0ce86b84a2ee24","625755d30cd3f289b5f0ff4e","","","","","5309","key"," "," ","16.65010377358484","500","250","ml","160","14","23","-3","-16","",""
"","psychophysics","22","173388","0.0-22.0","60de50896b0ce86b84a2ee24","625755d30cd3f289b5f0ff4e","","","","","2699","key"," "," ","16.649751552795124","500","250","inst","","","","","","",""
"","psychophysics","23","197455","0.0-23.0","60de50896b0ce86b84a2ee24","625755d30cd3f289b5f0ff4e","","","","","24063","key"," "," ","16.65069826989619","500","250","instPog","","","","","130","130",""
"","psychophysics","24","210495","0.0-24.0","60de50896b0ce86b84a2ee24","625755d30cd3f289b5f0ff4e","","","","","13038","key"," "," ","16.64990409207162","500","250","instPog","","","","","150","130",""
"","psychophysics","25","217856","0.0-25.0","60de50896b0ce86b84a2ee24","625755d30cd3f289b5f0ff4e","","","","","7358","key"," "," ","16.650274376417187","500","250","instPog","","","","","154","130",""
"","psychophysics","26","220426","0.0-26.0","60de50896b0ce86b84a2ee24","625755d30cd3f289b5f0ff4e","","","","","2569","key"," "," ","16.647675324675316","500","250","inst","","","","","","",""
"","psychophysics","27","229607","0.0-27.0","60de50896b0ce86b84a2ee24","625755d30cd3f289b5f0ff4e","","","","","9179","key"," "," ","16.651192727272704","500","250","pog","","","","","185","165",""
"","psychophysics","28","238593","0.0-28.0","60de50896b0ce86b84a2ee24","625755d30cd3f289b5f0ff4e","","","","","8984","key"," "," ","16.650376623376594","500","250","pog","","","","","200","176",""
"","psychophysics","29","246639","0.0-29.0","60de50896b0ce86b84a2ee24","625755d30cd3f289b5f0ff4e","","","","","8044","key"," "," ","16.649823651452277","500","250","pog","","","","","163","142",""
"","psychophysics","30","256476","0.0-30.0","60de50896b0ce86b84a2ee24","625755d30cd3f289b5f0ff4e","","","","","9834","key"," "," ","16.649993220338956","500","250","pog","","","","","194","161",""
"","psychophysics","31","266166","0.0-31.0","60de50896b0ce86b84a2ee24","625755d30cd3f289b5f0ff4e","","","","","9688","key"," "," ","16.650240963855385","500","250","pog","","","","","203","174",""
"","psychophysics","32","277338","0.0-32.0","60de50896b0ce86b84a2ee24","625755d30cd3f289b5f0ff4e","","","","","11170","key"," "," ","16.650423880596993","500","250","pog","","","","","199","171",""
"","psychophysics","33","285296","0.0-33.0","60de50896b0ce86b84a2ee24","625755d30cd3f289b5f0ff4e","","","","","7956","key"," "," ","16.65067924528304","500","250","pog","","","","","199","164",""
"","psychophysics","34","292746","0.0-34.0","60de50896b0ce86b84a2ee24","625755d30cd3f289b5f0ff4e","","","","","7448","key"," "," ","16.650652466367696","500","250","pog","","","","","157","127",""
"","psychophysics","35","297888","0.0-35.0","60de50896b0ce86b84a2ee24","625755d30cd3f289b5f0ff4e","","","","","5139","key"," "," ","16.64926623376619","500","250","pog","","","","","160","132",""
"","psychophysics","36","305064","0.0-36.0","60de50896b0ce86b84a2ee24","625755d30cd3f289b5f0ff4e","","","","","7174","key"," "," ","16.649593023255704","500","250","pog","","","","","178","151",""
"","psychophysics","37","310791","0.0-37.0","60de50896b0ce86b84a2ee24","625755d30cd3f289b5f0ff4e","","","","","5725","key"," "," ","16.650349854227425","500","250","pog","","","","","155","129",""
"","psychophysics","38","318370","0.0-38.0","60de50896b0ce86b84a2ee24","625755d30cd3f289b5f0ff4e","","","","","7577","key"," "," ","16.650735682819402","500","250","pog","","","","","180","165",""
"","psychophysics","39","330556","0.0-39.0","60de50896b0ce86b84a2ee24","625755d30cd3f289b5f0ff4e","","","","","12184","key"," "," ","16.65040629274964","500","250","pog","","","","","177","157",""
"","psychophysics","40","334514","0.0-40.0","60de50896b0ce86b84a2ee24","625755d30cd3f289b5f0ff4e","","","","","3956","key"," "," ","16.64827848101263","500","250","pog","","","","","156","138",""
"","psychophysics","41","342467","0.0-41.0","60de50896b0ce86b84a2ee24","625755d30cd3f289b5f0ff4e","","","","","7949","key"," "," ","16.650210084033613","500","250","pog","","","","","201","182",""
"","psychophysics","42","344166","0.0-42.0","60de50896b0ce86b84a2ee24","625755d30cd3f289b5f0ff4e","","","","","1697","key"," "," ","16.65386138613898","500","250","inst","","","","","","",""
"","psychophysics","43","348493","0.0-43.0","60de50896b0ce86b84a2ee24","625755d30cd3f289b5f0ff4e","","","","","4323","key"," "," ","16.650301158301215","500","250","instTilt","","","","","NaN","0","0"
"","psychophysics","44","352363","0.0-44.0","60de50896b0ce86b84a2ee24","625755d30cd3f289b5f0ff4e","","","","","3868","key"," "," ","16.65057327586215","500","250","instTilt","","","","","0","0","0"
"","psychophysics","45","370391","0.0-45.0","60de50896b0ce86b84a2ee24","625755d30cd3f289b5f0ff4e","","","","","18026","key"," "," ","16.650349676225762","500","250","instTilt","","","","","4","0","0"
"","psychophysics","46","372736","0.0-46.0","60de50896b0ce86b84a2ee24","625755d30cd3f289b5f0ff4e","","","","","2343","key"," "," ","16.651964285714037","500","250","inst","","","","","","",""
"","psychophysics","47","381083","0.0-47.0","60de50896b0ce86b84a2ee24","625755d30cd3f289b5f0ff4e","","","","","8344","key"," "," ","16.651292000000016","500","250","tilt","","","","","8","7","0"
"","psychophysics","48","385941","0.0-48.0","60de50896b0ce86b84a2ee24","625755d30cd3f289b5f0ff4e","","","","","4855","key"," "," ","16.651295532646053","500","250","tilt","","","","","-2","-1","1"
"","psychophysics","49","390560","0.0-49.0","60de50896b0ce86b84a2ee24","625755d30cd3f289b5f0ff4e","","","","","4617","key"," "," ","16.651267148014487","500","250","tilt","","","","","-4","-8","1"
"","psychophysics","50","396253","0.0-50.0","60de50896b0ce86b84a2ee24","625755d30cd3f289b5f0ff4e","","","","","5691","key"," "," ","16.6505131964808","500","250","tilt","","","","","8","9","1"
"","psychophysics","51","402583","0.0-51.0","60de50896b0ce86b84a2ee24","625755d30cd3f289b5f0ff4e","","","","","6326","key"," "," ","16.650437994722964","500","250","tilt","","","","","3","0","0"
"","psychophysics","52","409321","0.0-52.0","60de50896b0ce86b84a2ee24","625755d30cd3f289b5f0ff4e","","","","","6736","key"," "," ","16.65039205955337","500","250","tilt","","","","","4","2","0"
"","psychophysics","53","413496","0.0-53.0","60de50896b0ce86b84a2ee24","625755d30cd3f289b5f0ff4e","","","","","4171","key"," "," ","16.652071999999926","500","250","tilt","","","","","-4","-6","1"
"","psychophysics","54","417411","0.0-54.0","60de50896b0ce86b84a2ee24","625755d30cd3f289b5f0ff4e","","","","","3912","key"," "," ","16.652320512820435","500","250","tilt","","","","","3","4","1"
"","psychophysics","55","422606","0.0-55.0","60de50896b0ce86b84a2ee24","625755d30cd3f289b5f0ff4e","","","","","5193","key"," "," ","16.65141479099668","500","250","tilt","","","","","-4","-8","0"
"","psychophysics","56","429502","0.0-56.0","60de50896b0ce86b84a2ee24","625755d30cd3f289b5f0ff4e","","","","","6893","key"," "," ","16.651121065375303","500","250","tilt","","","","","-2","-2","1"
"","psychophysics","57","437996","0.0-57.0","60de50896b0ce86b84a2ee24","625755d30cd3f289b5f0ff4e","","","","","8490","key"," "," ","16.65029803921569","500","250","tilt","","","","","-1","-5","0"
"","psychophysics","58","441986","0.0-58.0","60de50896b0ce86b84a2ee24","625755d30cd3f289b5f0ff4e","","","","","3988","key"," "," ","16.65034033613428","500","250","tilt","","","","","-3","-9","1"
"","psychophysics","59","448523","0.0-59.0","60de50896b0ce86b84a2ee24","625755d30cd3f289b5f0ff4e","","","","","6535","key"," "," ","16.650377551020494","500","250","tilt","","","","","5","3","0"
"","psychophysics","60","452199","0.0-60.0","60de50896b0ce86b84a2ee24","625755d30cd3f289b5f0ff4e","","","","","3673","key"," "," ","16.650186363636486","500","250","tilt","","","","","2","-3","0"
"","psychophysics","61","459540","0.0-61.0","60de50896b0ce86b84a2ee24","625755d30cd3f289b5f0ff4e","","","","","7339","key"," "," ","16.650398633257456","500","250","tilt","","","","","-7","-5","1"
"","psychophysics","62","465275","0.0-62.0","60de50896b0ce86b84a2ee24","625755d30cd3f289b5f0ff4e","","","","","5732","key"," "," ","16.650456395348787","500","250","tilt","","","","","6","8","1"
"","psychophysics","63","468416","0.0-63.0","60de50896b0ce86b84a2ee24","625755d30cd3f289b5f0ff4e","","","","","3138","key"," "," ","16.65036898395725","500","250","tilt","","","","","2","5","1"
"","psychophysics","64","472184","0.0-64.0","60de50896b0ce86b84a2ee24","625755d30cd3f289b5f0ff4e","","","","","3765","key"," "," ","16.65058849557546","500","250","tilt","","","","","6","7","0"
"","psychophysics","65","476524","0.0-65.0","60de50896b0ce86b84a2ee24","625755d30cd3f289b5f0ff4e","","","","","4338","key"," "," ","16.6503474903475","500","250","tilt","","","","","6","7","0"
"","psychophysics","66","479171","0.0-66.0","60de50896b0ce86b84a2ee24","625755d30cd3f289b5f0ff4e","","","","","2644","key"," "," ","16.65073417721514","500","250","tilt","","","","","3","7","1"
"","psychophysics","67","482833","0.0-67.0","60de50896b0ce86b84a2ee24","625755d30cd3f289b5f0ff4e","","","","","3659","key"," "," ","16.650611872146104","500","250","tilt","","","","","8","10","0"
"","psychophysics","68","487184","0.0-68.0","60de50896b0ce86b84a2ee24","625755d30cd3f289b5f0ff4e","","","","","4347","key"," "," ","16.650498084291073","500","250","tilt","","","","","1","2","1"
"","psychophysics","69","491368","0.0-69.0","60de50896b0ce86b84a2ee24","625755d30cd3f289b5f0ff4e","","","","","4181","key"," "," ","16.65041200000001","500","250","tilt","","","","","-2","-1","1"
"","psychophysics","70","498410","0.0-70.0","60de50896b0ce86b84a2ee24","625755d30cd3f289b5f0ff4e","","","","","7039","key"," "," ","16.65030805687202","500","250","tilt","","","","","-1","-4","0"
"","psychophysics","71","501838","0.0-71.0","60de50896b0ce86b84a2ee24","625755d30cd3f289b5f0ff4e","","","","","3426","key"," "," ","16.65034146341467","500","250","tilt","","","","","-1","-4","0"
"","psychophysics","72","508170","0.0-72.0","60de50896b0ce86b84a2ee24","625755d30cd3f289b5f0ff4e","","","","","6330","key"," "," ","16.650377308707014","500","250","tilt","","","","","-2","-1","1"
"","psychophysics","73","512201","0.0-73.0","60de50896b0ce86b84a2ee24","625755d30cd3f289b5f0ff4e","","","","","4029","key"," "," ","16.650473029045745","500","250","tilt","","","","","3","6","1"
"","psychophysics","74","514728","0.0-74.0","60de50896b0ce86b84a2ee24","625755d30cd3f289b5f0ff4e","","","","","2525","key"," "," ","16.650503311258053","500","250","tilt","","","","","-3","-7","0"
"","psychophysics","75","518903","0.0-75.0","60de50896b0ce86b84a2ee24","625755d30cd3f289b5f0ff4e","","","","","4171","key"," "," ","16.650539999999804","500","250","tilt","","","","","-2","-8","0"
"","psychophysics","76","522987","0.0-76.0","60de50896b0ce86b84a2ee24","625755d30cd3f289b5f0ff4e","","","","","4082","key"," "," ","16.650393442622935","500","250","tilt","","","","","-3","-6","0"
"","psychophysics","77","524805","0.0-77.0","60de50896b0ce86b84a2ee24","625755d30cd3f289b5f0ff4e","","","","","1817","key"," "," ","16.650546296295943","500","250","inst","","","","","","",""
"","psychophysics","78","528838","0.0-78.0","60de50896b0ce86b84a2ee24","625755d30cd3f289b5f0ff4e","","","","","4030","key"," "," ","16.6512655601658","500","250","instPz","","","","","50","50",""
"","psychophysics","79","539011","0.0-79.0","60de50896b0ce86b84a2ee24","625755d30cd3f289b5f0ff4e","","","","","10169","key"," "," ","16.650670491803446","500","250","instPz","","","","","51","50",""
"","psychophysics","80","544730","0.0-80.0","60de50896b0ce86b84a2ee24","625755d30cd3f289b5f0ff4e","","","","","5717","key"," "," ","16.651641399416672","500","250","instPz","","","","","30","30",""
"","psychophysics","81","554867","0.0-81.0","60de50896b0ce86b84a2ee24","625755d30cd3f289b5f0ff4e","","","","","10134","key"," "," ","16.650572368421166","500","250","instPz","","","","","56","40",""
"","psychophysics","82","557510","0.0-82.0","60de50896b0ce86b84a2ee24","625755d30cd3f289b5f0ff4e","","","","","2641","key"," "," ","16.65035031847122","500","250","inst","","","","","","",""
"","psychophysics","83","564775","0.0-83.0","60de50896b0ce86b84a2ee24","625755d30cd3f289b5f0ff4e","","","","","7261","key"," "," ","16.651110091743032","500","250","pz","","","","","37","21",""
"","psychophysics","84","572938","0.0-84.0","60de50896b0ce86b84a2ee24","625755d30cd3f289b5f0ff4e","","","","","8161","key"," "," ","16.650400817995855","500","250","pz","","","","","70","38",""
"","psychophysics","85","577364","0.0-85.0","60de50896b0ce86b84a2ee24","625755d30cd3f289b5f0ff4e","","","","","4421","key"," "," ","16.650988679245238","500","250","pz","","","","","38","22",""
"","psychophysics","86","582524","0.0-86.0","60de50896b0ce86b84a2ee24","625755d30cd3f289b5f0ff4e","","","","","5158","key"," "," ","16.65043689320384","500","250","pz","","","","","56","32",""
"","psychophysics","87","588286","0.0-87.0","60de50896b0ce86b84a2ee24","625755d30cd3f289b5f0ff4e","","","","","5759","key"," "," ","16.649055072463767","500","250","pz","","","","","84","54",""
"","psychophysics","88","594640","0.0-88.0","60de50896b0ce86b84a2ee24","625755d30cd3f289b5f0ff4e","","","","","6352","key"," "," ","16.649007894736897","500","250","pz","","","","","93","50",""
"","psychophysics","89","602089","0.0-89.0","60de50896b0ce86b84a2ee24","625755d30cd3f289b5f0ff4e","","","","","7443","key"," "," ","16.651413870246152","500","250","pz","","","","","52","24",""
"","psychophysics","90","607461","0.0-90.0","60de50896b0ce86b84a2ee24","625755d30cd3f289b5f0ff4e","","","","","5370","key"," "," ","16.649619937694858","500","250","pz","","","","","99","57",""
"","psychophysics","91","613818","0.0-91.0","60de50896b0ce86b84a2ee24","625755d30cd3f289b5f0ff4e","","","","","6350","key"," "," ","16.651522309711236","500","250","pz","","","","","69","30",""
"","psychophysics","92","619992","0.0-92.0","60de50896b0ce86b84a2ee24","625755d30cd3f289b5f0ff4e","","","","","6171","key"," "," ","16.649718918918783","500","250","pz","","","","","89","58",""
"","psychophysics","93","624451","0.0-93.0","60de50896b0ce86b84a2ee24","625755d30cd3f289b5f0ff4e","","","","","4457","key"," "," ","16.650573033708223","500","250","pz","","","","","63","37",""
"","psychophysics","94","627885","0.0-94.0","60de50896b0ce86b84a2ee24","625755d30cd3f289b5f0ff4e","","","","","3432","key"," "," ","16.65124390243905","500","250","pz","","","","","51","30",""
"","psychophysics","95","632190","0.0-95.0","60de50896b0ce86b84a2ee24","625755d30cd3f289b5f0ff4e","","","","","4301","key"," "," ","16.649507751937886","500","250","pz","","","","","51","30",""
"","psychophysics","96","637242","0.0-96.0","60de50896b0ce86b84a2ee24","625755d30cd3f289b5f0ff4e","","","","","5050","key"," "," ","16.65032119205297","500","250","pz","","","","","59","38",""
"","psychophysics","97","641198","0.0-97.0","60de50896b0ce86b84a2ee24","625755d30cd3f289b5f0ff4e","","","","","3953","key"," "," ","16.652008438818374","500","250","pz","","","","","40","25",""
"","psychophysics","98","643261","0.0-98.0","60de50896b0ce86b84a2ee24","625755d30cd3f289b5f0ff4e","","","","","2060","key"," "," ","16.651295081967085","500","250","inst","","","","","","",""
"","psychophysics","99","648026","0.0-99.0","60de50896b0ce86b84a2ee24","625755d30cd3f289b5f0ff4e","","","","","4760","key"," "," ","16.651230769231102","500","250","inst","","","","","","",""
"","psychophysics","100","662063","0.0-100.0","60de50896b0ce86b84a2ee24","625755d30cd3f289b5f0ff4e","","","","","14033","key"," "," ","16.650384798099704","500","250","instFlank","","","","","0.5","0.3","1"
"","psychophysics","101","667446","0.0-101.0","60de50896b0ce86b84a2ee24","625755d30cd3f289b5f0ff4e","","","","","5381","key"," "," ","16.65056211180133","500","250","inst","","","","","","",""
"","psychophysics","102","674651","0.0-102.0","60de50896b0ce86b84a2ee24","625755d30cd3f289b5f0ff4e","","","","","7201","key"," "," ","16.65042824074098","500","250","instFlank","","","","","0.31999999999999984","0.3","1"
"","psychophysics","103","678370","0.0-103.0","60de50896b0ce86b84a2ee24","625755d30cd3f289b5f0ff4e","","","","","3717","key"," "," ","16.6508468468469","500","250","inst","","","","","","",""
"","psychophysics","104","683308","0.0-104.0","60de50896b0ce86b84a2ee24","625755d30cd3f289b5f0ff4e","","","","","4935","key"," "," ","16.649530405405205","500","250","instFlank","","","","","0.56","0.3","0"
"","psychophysics","105","685271","0.0-105.0","60de50896b0ce86b84a2ee24","625755d30cd3f289b5f0ff4e","","","","","1961","key"," "," ","16.648589743589824","500","250","inst","","","","","","",""
"","psychophysics","106","688375","0.0-106.0","60de50896b0ce86b84a2ee24","625755d30cd3f289b5f0ff4e","","","","","3100","key"," "," ","16.650410810810815","500","250","flank","","","","","0.53","0.64","1"
"","psychophysics","107","691600","0.0-107.0","60de50896b0ce86b84a2ee24","625755d30cd3f289b5f0ff4e","","","","","3223","key"," "," ","16.652585492228095","500","250","flank","","","","","0.56","0.38","0"
"","psychophysics","108","695580","0.0-108.0","60de50896b0ce86b84a2ee24","625755d30cd3f289b5f0ff4e","","","","","3976","key"," "," ","16.648739495798416","500","250","flank","","","","","0.47","0.22","0"
"","psychophysics","109","699932","0.0-109.0","60de50896b0ce86b84a2ee24","625755d30cd3f289b5f0ff4e","","","","","4348","key"," "," ","16.649911538461815","500","250","flank","","","","","0.8000000000000003","0.8","0"
"","psychophysics","110","704821","0.0-110.0","60de50896b0ce86b84a2ee24","625755d30cd3f289b5f0ff4e","","","","","4886","key"," "," ","16.650402730375326","500","250","flank","","","","","0.7100000000000002","0.64","1"
"","psychophysics","111","709532","0.0-111.0","60de50896b0ce86b84a2ee24","625755d30cd3f289b5f0ff4e","","","","","4707","key"," "," ","16.650535460992913","500","250","flank","","","","","0.5900000000000001","0.56","1"
"","psychophysics","112","714426","0.0-112.0","60de50896b0ce86b84a2ee24","625755d30cd3f289b5f0ff4e","","","","","4889","key"," "," ","16.64833447098956","500","250","flank","","","","","0.31999999999999984","0.38","1"
"","psychophysics","113","717766","0.0-113.0","60de50896b0ce86b84a2ee24","625755d30cd3f289b5f0ff4e","","","","","3335","key"," "," ","16.648105527638183","500","250","flank","","","","","0.5900000000000001","0.34","0"
"","psychophysics","114","721555","0.0-114.0","60de50896b0ce86b84a2ee24","625755d30cd3f289b5f0ff4e","","","","","3786","key"," "," ","16.652255506608082","500","250","flank","","","","","0.6200000000000001","0.58","0"
"","psychophysics","115","725058","0.0-115.0","60de50896b0ce86b84a2ee24","625755d30cd3f289b5f0ff4e","","","","","3496","key"," "," ","16.652602870813258","500","250","flank","","","","","0.56","0.54","1"
"","psychophysics","116","728503","0.0-116.0","60de50896b0ce86b84a2ee24","625755d30cd3f289b5f0ff4e","","","","","3441","key"," "," ","16.650669902912906","500","250","flank","","","","","0.53","0.42","1"
"","psychophysics","117","733967","0.0-117.0","60de50896b0ce86b84a2ee24","625755d30cd3f289b5f0ff4e","","","","","5461","key"," "," ","16.65038532110085","500","250","flank","","","","","0.8000000000000003","0.72","0"
"","psychophysics","118","738483","0.0-118.0","60de50896b0ce86b84a2ee24","625755d30cd3f289b5f0ff4e","","","","","4512","key"," "," ","16.652051851851866","500","250","flank","","","","","0.2899999999999998","0.24","0"
"","psychophysics","119","742540","0.0-119.0","60de50896b0ce86b84a2ee24","625755d30cd3f289b5f0ff4e","","","","","4053","key"," "," ","16.65200411522648","500","250","flank","","","","","0.7400000000000002","0.62","0"
"","psychophysics","120","746537","0.0-120.0","60de50896b0ce86b84a2ee24","625755d30cd3f289b5f0ff4e","","","","","3994","key"," "," ","16.649769874476675","500","250","flank","","","","","0.4099999999999999","0.42","1"
"","psychophysics","121","750333","0.0-121.0","60de50896b0ce86b84a2ee24","625755d30cd3f289b5f0ff4e","","","","","3792","key"," "," ","16.650207048457933","500","250","flank","","","","","0.6800000000000002","0.6","0"
"","psychophysics","122","754029","0.0-122.0","60de50896b0ce86b84a2ee24","625755d30cd3f289b5f0ff4e","","","","","3693","key"," "," ","16.648986425339267","500","250","flank","","","","","0.7700000000000002","0.72","0"
"","psychophysics","123","757353","0.0-123.0","60de50896b0ce86b84a2ee24","625755d30cd3f289b5f0ff4e","","","","","3320","key"," "," ","16.65246231155821","500","250","flank","","","","","0.7100000000000002","0.64","1"
"","psychophysics","124","760818","0.0-124.0","60de50896b0ce86b84a2ee24","625755d30cd3f289b5f0ff4e","","","","","3462","key"," "," ","16.649280193236496","500","250","flank","","","","","0.7700000000000002","0.78","1"
"","psychophysics","125","764622","0.0-125.0","60de50896b0ce86b84a2ee24","625755d30cd3f289b5f0ff4e","","","","","3801","key"," "," ","16.65030396475748","500","250","flank","","","","","0.7100000000000002","0.48","0"
"","psychophysics","126","768305","0.0-126.0","60de50896b0ce86b84a2ee24","625755d30cd3f289b5f0ff4e","","","","","3679","key"," "," ","16.65091363636364","500","250","flank","","","","","0.7400000000000002","0.52","0"
"","psychophysics","127","772202","0.0-127.0","60de50896b0ce86b84a2ee24","625755d30cd3f289b5f0ff4e","","","","","3894","key"," "," ","16.650692307692257","500","250","flank","","","","","0.7700000000000002","0.68","1"
"","psychophysics","128","775732","0.0-128.0","60de50896b0ce86b84a2ee24","625755d30cd3f289b5f0ff4e","","","","","3527","key"," "," ","16.647981042654244","500","250","flank","","","","","0.8000000000000003","0.78","1"
"","psychophysics","129","780877","0.0-129.0","60de50896b0ce86b84a2ee24","625755d30cd3f289b5f0ff4e","","","","","5142","key"," "," ","16.649922077922007","500","250","flank","","","","","0.2599999999999998","0.26","1"
"","psychophysics","130","784360","0.0-130.0","60de50896b0ce86b84a2ee24","625755d30cd3f289b5f0ff4e","","","","","3480","key"," "," ","16.648509615384683","500","250","flank","","","","","0.47","0.22","0"
"","psychophysics","131","787900","0.0-131.0","60de50896b0ce86b84a2ee24","625755d30cd3f289b5f0ff4e","","","","","3538","key"," "," ","16.652715639810417","500","250","flank","","","","","0.6800000000000002","0.62","0"
"","psychophysics","132","791493","0.0-132.0","60de50896b0ce86b84a2ee24","625755d30cd3f289b5f0ff4e","","","","","3589","key"," "," ","16.65133023255851","500","250","flank","","","","","0.6800000000000002","0.52","0"
"","psychophysics","133","794747","0.0-133.0","60de50896b0ce86b84a2ee24","625755d30cd3f289b5f0ff4e","","","","","3251","key"," "," ","16.648205128205248","500","250","flank","","","","","0.53","0.48","1"
"","psychophysics","134","798138","0.0-134.0","60de50896b0ce86b84a2ee24","625755d30cd3f289b5f0ff4e","","","","","3387","key"," "," ","16.652589108910767","500","250","flank","","","","","0.7400000000000002","0.68","0"
"","psychophysics","135","801593","0.0-135.0","60de50896b0ce86b84a2ee24","625755d30cd3f289b5f0ff4e","","","","","3452","key"," "," ","16.65251207729444","500","250","flank","","","","","0.7400000000000002","0.64","0"
"true","fullscreen","136","801596","0.0-136.0","60de50896b0ce86b84a2ee24","625755d30cd3f289b5f0ff4e","","","","","","","","","","","","","","","","","","",""
