"success","trial_type","trial_index","time_elapsed","internal_node_id","pid","sid","timeout","failed_images","failed_audio","failed_video","rt","response_type","key_press","response","avg_frame_time","center_x","center_y","task","ml_len","ml_start","ml_x","ml_y","resp","targ","back"
"true","fullscreen","0","4798","0.0-0.0","60fde4dee9fab6ac2c315eed","625754baedaa27aaa8611dca","","","","","","","","","","","","","","","","","","",""
"true","preload","1","4803","0.0-1.0","60fde4dee9fab6ac2c315eed","625754baedaa27aaa8611dca","false","[]","[]","[]","","","","","","","","","","","","","","",""
"","psychophysics","2","8078","0.0-2.0","60fde4dee9fab6ac2c315eed","625754baedaa27aaa8611dca","","","","","3255","key"," "," ","16.656923469387763","500","250","inst","","","","","","",""
"","psychophysics","3","9057","0.0-3.0","60fde4dee9fab6ac2c315eed","625754baedaa27aaa8611dca","","","","","974","key"," "," ","16.654999999999998","500","250","inst","","","","","","",""
"","psychophysics","4","23857","0.0-4.0","60fde4dee9fab6ac2c315eed","625754baedaa27aaa8611dca","","","","","14786","key"," "," ","16.655423423423425","500","250","instMl","158","-26.333333333333332","1","-30","-22.333333333333314","",""
"","psychophysics","5","32737","0.0-5.0","60fde4dee9fab6ac2c315eed","625754baedaa27aaa8611dca","","","","","8876","key"," "," ","16.65570676691729","500","250","instMl","152","-25.333333333333332","9","8","-17.333333333333314","",""
"","psychophysics","6","36383","0.0-6.0","60fde4dee9fab6ac2c315eed","625754baedaa27aaa8611dca","","","","","3644","key"," "," ","16.656724770642224","500","250","inst","","","","","","",""
"","psychophysics","7","39911","0.0-7.0","60fde4dee9fab6ac2c315eed","625754baedaa27aaa8611dca","","","","","3523","key"," "," ","16.654999999999973","500","250","ml","156","5","-4","-17","-10","",""
"","psychophysics","8","42879","0.0-8.0","60fde4dee9fab6ac2c315eed","625754baedaa27aaa8611dca","","","","","2966","key"," "," ","16.654999999999987","500","250","ml","160","-13","-18","23","-11","",""
"","psychophysics","9","47587","0.0-9.0","60fde4dee9fab6ac2c315eed","625754baedaa27aaa8611dca","","","","","4706","key"," "," ","16.656336879432622","500","250","ml","222","13","-28","-25","-12","",""
"","psychophysics","10","51944","0.0-10.0","60fde4dee9fab6ac2c315eed","625754baedaa27aaa8611dca","","","","","4354","key"," "," ","16.655000000000012","500","250","ml","220","-8","28","21","-14","",""
"","psychophysics","11","57950","0.0-11.0","60fde4dee9fab6ac2c315eed","625754baedaa27aaa8611dca","","","","","6002","key"," "," ","16.656044444444444","500","250","ml","180","9","4","-19","-15","",""
"","psychophysics","12","63514","0.0-12.0","60fde4dee9fab6ac2c315eed","625754baedaa27aaa8611dca","","","","","5561","key"," "," ","16.655000000000015","500","250","ml","212","37","28","-29","-6","",""
"","psychophysics","13","71611","0.0-13.0","60fde4dee9fab6ac2c315eed","625754baedaa27aaa8611dca","","","","","8095","key"," "," ","16.655775257731943","500","250","ml","236","46","-16","26","-12","",""
"","psychophysics","14","75137","0.0-14.0","60fde4dee9fab6ac2c315eed","625754baedaa27aaa8611dca","","","","","3524","key"," "," ","16.65499999999994","500","250","ml","180","-19","-27","2","-17","",""
"","psychophysics","15","80913","0.0-15.0","60fde4dee9fab6ac2c315eed","625754baedaa27aaa8611dca","","","","","5774","key"," "," ","16.656086705202338","500","250","ml","228","21","10","-3","-15","",""
"","psychophysics","16","86599","0.0-16.0","60fde4dee9fab6ac2c315eed","625754baedaa27aaa8611dca","","","","","5683","key"," "," ","16.656108823529426","500","250","ml","240","-42","-8","-11","-15","",""
"","psychophysics","17","92417","0.0-17.0","60fde4dee9fab6ac2c315eed","625754baedaa27aaa8611dca","","","","","5817","key"," "," ","16.65500000000001","500","250","ml","200","24","-22","16","-14","",""
"","psychophysics","18","96492","0.0-18.0","60fde4dee9fab6ac2c315eed","625754baedaa27aaa8611dca","","","","","4070","key"," "," ","16.656540983606543","500","250","ml","166","-28","-1","13","-11","",""
"","psychophysics","19","102922","0.0-19.0","60fde4dee9fab6ac2c315eed","625754baedaa27aaa8611dca","","","","","6429","key"," "," ","16.65500000000001","500","250","ml","190","32","-26","-5","-12","",""
"","psychophysics","20","104480","0.0-20.0","60fde4dee9fab6ac2c315eed","625754baedaa27aaa8611dca","","","","","1555","key"," "," ","16.65499999999993","500","250","ml","228","-12","7","-11","-14","",""
"","psychophysics","21","108840","0.0-21.0","60fde4dee9fab6ac2c315eed","625754baedaa27aaa8611dca","","","","","4358","key"," "," ","16.65644615384618","500","250","ml","224","-48","11","-15","-21","",""
"","psychophysics","22","110051","0.0-22.0","60fde4dee9fab6ac2c315eed","625754baedaa27aaa8611dca","","","","","1206","key"," "," ","16.655000000000047","500","250","inst","","","","","","",""
"","psychophysics","23","127345","0.0-23.0","60fde4dee9fab6ac2c315eed","625754baedaa27aaa8611dca","","","","","17293","key"," "," ","16.65572543352601","500","250","instPog","","","","","130","130",""
"","psychophysics","24","134746","0.0-24.0","60fde4dee9fab6ac2c315eed","625754baedaa27aaa8611dca","","","","","7399","key"," "," ","16.65500000000002","500","250","instPog","","","","","137","130",""
"","psychophysics","25","149864","0.0-25.0","60fde4dee9fab6ac2c315eed","625754baedaa27aaa8611dca","","","","","15116","key"," "," ","16.655829106945976","500","250","instPog","","","","","129","130",""
"","psychophysics","26","151430","0.0-26.0","60fde4dee9fab6ac2c315eed","625754baedaa27aaa8611dca","","","","","1564","key"," "," ","16.655000000000086","500","250","inst","","","","","","",""
"","psychophysics","27","157413","0.0-27.0","60fde4dee9fab6ac2c315eed","625754baedaa27aaa8611dca","","","","","5981","key"," "," ","16.656050279329552","500","250","pog","","","","","164","149",""
"","psychophysics","28","159703","0.0-28.0","60fde4dee9fab6ac2c315eed","625754baedaa27aaa8611dca","","","","","2276","key"," "," ","16.65500000000012","500","250","pog","","","","","163","155",""
"","psychophysics","29","171505","0.0-29.0","60fde4dee9fab6ac2c315eed","625754baedaa27aaa8611dca","","","","","11799","key"," "," ","16.655532485875703","500","250","pog","","","","","197","192",""
"","psychophysics","30","174899","0.0-30.0","60fde4dee9fab6ac2c315eed","625754baedaa27aaa8611dca","","","","","3392","key"," "," ","16.654999999999983","500","250","pog","","","","","150","139",""
"","psychophysics","31","177667","0.0-31.0","60fde4dee9fab6ac2c315eed","625754baedaa27aaa8611dca","","","","","2765","key"," "," ","16.657278787878795","500","250","pog","","","","","153","147",""
"","psychophysics","32","180442","0.0-32.0","60fde4dee9fab6ac2c315eed","625754baedaa27aaa8611dca","","","","","2774","key"," "," ","16.65500000000006","500","250","pog","","","","","176","160",""
"","psychophysics","33","182945","0.0-33.0","60fde4dee9fab6ac2c315eed","625754baedaa27aaa8611dca","","","","","2497","key"," "," ","16.65500000000001","500","250","pog","","","","","143","135",""
"","psychophysics","34","189514","0.0-34.0","60fde4dee9fab6ac2c315eed","625754baedaa27aaa8611dca","","","","","6568","key"," "," ","16.655956743002537","500","250","pog","","","","","208","191",""
"","psychophysics","35","193489","0.0-35.0","60fde4dee9fab6ac2c315eed","625754baedaa27aaa8611dca","","","","","3973","key"," "," ","16.654999999999937","500","250","pog","","","","","138","125",""
"","psychophysics","36","196900","0.0-36.0","60fde4dee9fab6ac2c315eed","625754baedaa27aaa8611dca","","","","","3409","key"," "," ","16.65684313725497","500","250","pog","","","","","144","122",""
"","psychophysics","37","201809","0.0-37.0","60fde4dee9fab6ac2c315eed","625754baedaa27aaa8611dca","","","","","4907","key"," "," ","16.65500000000003","500","250","pog","","","","","191","164",""
"","psychophysics","38","205272","0.0-38.0","60fde4dee9fab6ac2c315eed","625754baedaa27aaa8611dca","","","","","3459","key"," "," ","16.654999999999962","500","250","pog","","","","","181","149",""
"","psychophysics","39","210003","0.0-39.0","60fde4dee9fab6ac2c315eed","625754baedaa27aaa8611dca","","","","","4728","key"," "," ","16.656327464788724","500","250","pog","","","","","201","174",""
"","psychophysics","40","212103","0.0-40.0","60fde4dee9fab6ac2c315eed","625754baedaa27aaa8611dca","","","","","2099","key"," "," ","16.655","500","250","pog","","","","","151","127",""
"","psychophysics","41","216890","0.0-41.0","60fde4dee9fab6ac2c315eed","625754baedaa27aaa8611dca","","","","","4782","key"," "," ","16.656314685314705","500","250","pog","","","","","207","198",""
"","psychophysics","42","217813","0.0-42.0","60fde4dee9fab6ac2c315eed","625754baedaa27aaa8611dca","","","","","920","key"," "," ","16.654999999999912","500","250","inst","","","","","","",""
"","psychophysics","43","220542","0.0-43.0","60fde4dee9fab6ac2c315eed","625754baedaa27aaa8611dca","","","","","2725","key"," "," ","16.655000000000086","500","250","instTilt","","","","","NaN","0","0"
"","psychophysics","44","224060","0.0-44.0","60fde4dee9fab6ac2c315eed","625754baedaa27aaa8611dca","","","","","3505","key"," "," ","16.65499999999994","500","250","instTilt","","","","","0","0","0"
"","psychophysics","45","230032","0.0-45.0","60fde4dee9fab6ac2c315eed","625754baedaa27aaa8611dca","","","","","5968","key"," "," ","16.656053221288545","500","250","instTilt","","","","","1","0","0"
"","psychophysics","46","233562","0.0-46.0","60fde4dee9fab6ac2c315eed","625754baedaa27aaa8611dca","","","","","3529","key"," "," ","16.655000000000076","500","250","inst","","","","","","",""
"","psychophysics","47","236991","0.0-47.0","60fde4dee9fab6ac2c315eed","625754baedaa27aaa8611dca","","","","","3349","key"," "," ","16.656879999999948","500","250","tilt","","","","","4","8","1"
"","psychophysics","48","238859","0.0-48.0","60fde4dee9fab6ac2c315eed","625754baedaa27aaa8611dca","","","","","1866","key"," "," ","16.654999999999884","500","250","tilt","","","","","3","1","0"
"","psychophysics","49","241555","0.0-49.0","60fde4dee9fab6ac2c315eed","625754baedaa27aaa8611dca","","","","","2684","key"," "," ","16.6550000000001","500","250","tilt","","","","","5","4","1"
"","psychophysics","50","244477","0.0-50.0","60fde4dee9fab6ac2c315eed","625754baedaa27aaa8611dca","","","","","2917","key"," "," ","16.655","500","250","tilt","","","","","-11","-4","1"
"","psychophysics","51","247232","0.0-51.0","60fde4dee9fab6ac2c315eed","625754baedaa27aaa8611dca","","","","","2753","key"," "," ","16.657298780487753","500","250","tilt","","","","","-8","-8","0"
"","psychophysics","52","253590","0.0-52.0","60fde4dee9fab6ac2c315eed","625754baedaa27aaa8611dca","","","","","6353","key"," "," ","16.655000000000058","500","250","tilt","","","","","-13","-8","1"
"","psychophysics","53","255874","0.0-53.0","60fde4dee9fab6ac2c315eed","625754baedaa27aaa8611dca","","","","","2281","key"," "," ","16.654999999999905","500","250","tilt","","","","","-7","-2","1"
"","psychophysics","54","258245","0.0-54.0","60fde4dee9fab6ac2c315eed","625754baedaa27aaa8611dca","","","","","2368","key"," "," ","16.65766666666687","500","250","tilt","","","","","3","-1","0"
"","psychophysics","55","260003","0.0-55.0","60fde4dee9fab6ac2c315eed","625754baedaa27aaa8611dca","","","","","1753","key"," "," ","16.65500000000022","500","250","tilt","","","","","-6","-2","1"
"","psychophysics","56","264811","0.0-56.0","60fde4dee9fab6ac2c315eed","625754baedaa27aaa8611dca","","","","","4798","key"," "," ","16.655000000000047","500","250","tilt","","","","","11","9","0"
"","psychophysics","57","267962","0.0-57.0","60fde4dee9fab6ac2c315eed","625754baedaa27aaa8611dca","","","","","3148","key"," "," ","16.657000000000018","500","250","tilt","","","","","5","10","1"
"","psychophysics","58","270371","0.0-58.0","60fde4dee9fab6ac2c315eed","625754baedaa27aaa8611dca","","","","","2406","key"," "," ","16.655000000000047","500","250","tilt","","","","","-7","-1","1"
"","psychophysics","59","272556","0.0-59.0","60fde4dee9fab6ac2c315eed","625754baedaa27aaa8611dca","","","","","2181","key"," "," ","16.65500000000018","500","250","tilt","","","","","-8","-2","1"
"","psychophysics","60","274841","0.0-60.0","60fde4dee9fab6ac2c315eed","625754baedaa27aaa8611dca","","","","","2283","key"," "," ","16.65500000000012","500","250","tilt","","","","","-10","-2","1"
"","psychophysics","61","277357","0.0-61.0","60fde4dee9fab6ac2c315eed","625754baedaa27aaa8611dca","","","","","2507","key"," "," ","16.657506666666595","500","250","tilt","","","","","6","8","1"
"","psychophysics","62","278789","0.0-62.0","60fde4dee9fab6ac2c315eed","625754baedaa27aaa8611dca","","","","","1430","key"," "," ","16.65500000000055","500","250","tilt","","","","","0","1","1"
"","psychophysics","63","281206","0.0-63.0","60fde4dee9fab6ac2c315eed","625754baedaa27aaa8611dca","","","","","2414","key"," "," ","16.655000000000047","500","250","tilt","","","","","11","9","1"
"","psychophysics","64","283331","0.0-64.0","60fde4dee9fab6ac2c315eed","625754baedaa27aaa8611dca","","","","","2123","key"," "," ","16.654999999999983","500","250","tilt","","","","","7","8","1"
"","psychophysics","65","285699","0.0-65.0","60fde4dee9fab6ac2c315eed","625754baedaa27aaa8611dca","","","","","2365","key"," "," ","16.654999999999866","500","250","tilt","","","","","13","7","0"
"","psychophysics","66","288141","0.0-66.0","60fde4dee9fab6ac2c315eed","625754baedaa27aaa8611dca","","","","","2434","key"," "," ","16.657600000000095","500","250","tilt","","","","","-6","-1","0"
"","psychophysics","67","290169","0.0-67.0","60fde4dee9fab6ac2c315eed","625754baedaa27aaa8611dca","","","","","2023","key"," "," ","16.65500000000004","500","250","tilt","","","","","5","6","1"
"","psychophysics","68","291878","0.0-68.0","60fde4dee9fab6ac2c315eed","625754baedaa27aaa8611dca","","","","","1707","key"," "," ","16.654999999999976","500","250","tilt","","","","","-1","1","1"
"","psychophysics","69","294286","0.0-69.0","60fde4dee9fab6ac2c315eed","625754baedaa27aaa8611dca","","","","","2398","key"," "," ","16.65500000000026","500","250","tilt","","","","","-11","-6","1"
"","psychophysics","70","296986","0.0-70.0","60fde4dee9fab6ac2c315eed","625754baedaa27aaa8611dca","","","","","2696","key"," "," ","16.65732098765453","500","250","tilt","","","","","-5","1","1"
"","psychophysics","71","301135","0.0-71.0","60fde4dee9fab6ac2c315eed","625754baedaa27aaa8611dca","","","","","4146","key"," "," ","16.72242914979758","500","250","tilt","","","","","-3","-5","0"
"","psychophysics","72","305175","0.0-72.0","60fde4dee9fab6ac2c315eed","625754baedaa27aaa8611dca","","","","","4031","key"," "," ","16.654999999999923","500","250","tilt","","","","","10","2","0"
"","psychophysics","73","307434","0.0-73.0","60fde4dee9fab6ac2c315eed","625754baedaa27aaa8611dca","","","","","2254","key"," "," ","16.65778518518545","500","250","tilt","","","","","5","7","1"
"","psychophysics","74","309541","0.0-74.0","60fde4dee9fab6ac2c315eed","625754baedaa27aaa8611dca","","","","","2104","key"," "," ","16.655","500","250","tilt","","","","","-8","-7","0"
"","psychophysics","75","311530","0.0-75.0","60fde4dee9fab6ac2c315eed","625754baedaa27aaa8611dca","","","","","1979","key"," "," ","16.655000000000058","500","250","tilt","","","","","-7","0","1"
"","psychophysics","76","313375","0.0-76.0","60fde4dee9fab6ac2c315eed","625754baedaa27aaa8611dca","","","","","1842","key"," "," ","16.654999999999895","500","250","tilt","","","","","-6","-3","1"
"","psychophysics","77","314447","0.0-77.0","60fde4dee9fab6ac2c315eed","625754baedaa27aaa8611dca","","","","","1070","key"," "," ","16.65500000000022","500","250","inst","","","","","","",""
"","psychophysics","78","317806","0.0-78.0","60fde4dee9fab6ac2c315eed","625754baedaa27aaa8611dca","","","","","3351","key"," "," ","16.656870646766254","500","250","instPz","","","","","50","50",""
"","psychophysics","79","325103","0.0-79.0","60fde4dee9fab6ac2c315eed","625754baedaa27aaa8611dca","","","","","7295","key"," "," ","16.6550000000001","500","250","instPz","","","","","51","50",""
"","psychophysics","80","329534","0.0-80.0","60fde4dee9fab6ac2c315eed","625754baedaa27aaa8611dca","","","","","4429","key"," "," ","16.656422641509398","500","250","instPz","","","","","32","30",""
"","psychophysics","81","336731","0.0-81.0","60fde4dee9fab6ac2c315eed","625754baedaa27aaa8611dca","","","","","7194","key"," "," ","16.654999999999983","500","250","instPz","","","","","39","40",""
"","psychophysics","82","340324","0.0-82.0","60fde4dee9fab6ac2c315eed","625754baedaa27aaa8611dca","","","","","3591","key"," "," ","16.656748837209307","500","250","inst","","","","","","",""
"","psychophysics","83","345905","0.0-83.0","60fde4dee9fab6ac2c315eed","625754baedaa27aaa8611dca","","","","","5578","key"," "," ","16.655000000000054","500","250","pz","","","","","28","21",""
"","psychophysics","84","354368","0.0-84.0","60fde4dee9fab6ac2c315eed","625754baedaa27aaa8611dca","","","","","8461","key"," "," ","16.655741617357023","500","250","pz","","","","","66","57",""
"","psychophysics","85","358398","0.0-85.0","60fde4dee9fab6ac2c315eed","625754baedaa27aaa8611dca","","","","","4027","key"," "," ","16.65656016597498","500","250","pz","","","","","50","41",""
"","psychophysics","86","362082","0.0-86.0","60fde4dee9fab6ac2c315eed","625754baedaa27aaa8611dca","","","","","3682","key"," "," ","16.654999999999895","500","250","pz","","","","","35","28",""
"","psychophysics","87","365957","0.0-87.0","60fde4dee9fab6ac2c315eed","625754baedaa27aaa8611dca","","","","","3872","key"," "," ","16.65500000000009","500","250","pz","","","","","27","22",""
"","psychophysics","88","372165","0.0-88.0","60fde4dee9fab6ac2c315eed","625754baedaa27aaa8611dca","","","","","6205","key"," "," ","16.656016172506693","500","250","pz","","","","","56","48",""
"","psychophysics","89","375605","0.0-89.0","60fde4dee9fab6ac2c315eed","625754baedaa27aaa8611dca","","","","","3436","key"," "," ","16.65500000000025","500","250","pz","","","","","28","24",""
"","psychophysics","90","378942","0.0-90.0","60fde4dee9fab6ac2c315eed","625754baedaa27aaa8611dca","","","","","3335","key"," "," ","16.656889447236278","500","250","pz","","","","","42","35",""
"","psychophysics","91","381467","0.0-91.0","60fde4dee9fab6ac2c315eed","625754baedaa27aaa8611dca","","","","","2519","key"," "," ","16.655000000000186","500","250","pz","","","","","26","27",""
"","psychophysics","92","384874","0.0-92.0","60fde4dee9fab6ac2c315eed","625754baedaa27aaa8611dca","","","","","3405","key"," "," ","16.654999999999976","500","250","pz","","","","","44","40",""
"","psychophysics","93","389550","0.0-93.0","60fde4dee9fab6ac2c315eed","625754baedaa27aaa8611dca","","","","","4673","key"," "," ","16.65634767025084","500","250","pz","","","","","59","49",""
"","psychophysics","94","391404","0.0-94.0","60fde4dee9fab6ac2c315eed","625754baedaa27aaa8611dca","","","","","1843","key"," "," ","16.65499999999962","500","250","pz","","","","","27","25",""
"","psychophysics","95","393979","0.0-95.0","60fde4dee9fab6ac2c315eed","625754baedaa27aaa8611dca","","","","","2572","key"," "," ","16.654999999999788","500","250","pz","","","","","35","39",""
"","psychophysics","96","398418","0.0-96.0","60fde4dee9fab6ac2c315eed","625754baedaa27aaa8611dca","","","","","4434","key"," "," ","16.656413533834694","500","250","pz","","","","","60","49",""
"","psychophysics","97","401895","0.0-97.0","60fde4dee9fab6ac2c315eed","625754baedaa27aaa8611dca","","","","","3475","key"," "," ","16.654999999999955","500","250","pz","","","","","45","40",""
"","psychophysics","98","402865","0.0-98.0","60fde4dee9fab6ac2c315eed","625754baedaa27aaa8611dca","","","","","968","key"," "," ","16.654999999999347","500","250","inst","","","","","","",""
"","psychophysics","99","404746","0.0-99.0","60fde4dee9fab6ac2c315eed","625754baedaa27aaa8611dca","","","","","1877","key"," "," ","16.654999999999877","500","250","inst","","","","","","",""
"","psychophysics","100","408180","0.0-100.0","60fde4dee9fab6ac2c315eed","625754baedaa27aaa8611dca","","","","","3430","key"," "," ","16.65683902439025","500","250","instFlank","","","","","0.5","0.3","1"
"","psychophysics","101","412775","0.0-101.0","60fde4dee9fab6ac2c315eed","625754baedaa27aaa8611dca","","","","","4594","key"," "," ","16.655","500","250","inst","","","","","","",""
"","psychophysics","102","416473","0.0-102.0","60fde4dee9fab6ac2c315eed","625754baedaa27aaa8611dca","","","","","3695","key"," "," ","16.655000000000022","500","250","instFlank","","","","","0.3799999999999999","0.3","1"
"","psychophysics","103","420569","0.0-103.0","60fde4dee9fab6ac2c315eed","625754baedaa27aaa8611dca","","","","","4094","key"," "," ","16.65653469387765","500","250","inst","","","","","","",""
"","psychophysics","104","424231","0.0-104.0","60fde4dee9fab6ac2c315eed","625754baedaa27aaa8611dca","","","","","3659","key"," "," ","16.655000000000033","500","250","instFlank","","","","","0.31999999999999984","0.3","0"
"","psychophysics","105","425111","0.0-105.0","60fde4dee9fab6ac2c315eed","625754baedaa27aaa8611dca","","","","","878","key"," "," ","16.654999999999955","500","250","inst","","","","","","",""
"","psychophysics","106","428237","0.0-106.0","60fde4dee9fab6ac2c315eed","625754baedaa27aaa8611dca","","","","","3121","key"," "," ","16.657021505376374","500","250","flank","","","","","0.56","0.46","1"
"","psychophysics","107","430914","0.0-107.0","60fde4dee9fab6ac2c315eed","625754baedaa27aaa8611dca","","","","","2675","key"," "," ","16.654999999999927","500","250","flank","","","","","0.43999999999999995","0.38","1"
"","psychophysics","108","433656","0.0-108.0","60fde4dee9fab6ac2c315eed","625754baedaa27aaa8611dca","","","","","2738","key"," "," ","16.655000000000257","500","250","flank","","","","","0.3799999999999999","0.32","1"
"","psychophysics","109","436647","0.0-109.0","60fde4dee9fab6ac2c315eed","625754baedaa27aaa8611dca","","","","","2987","key"," "," ","16.655000000000143","500","250","flank","","","","","0.6200000000000001","0.34","0"
"","psychophysics","110","439677","0.0-110.0","60fde4dee9fab6ac2c315eed","625754baedaa27aaa8611dca","","","","","3027","key"," "," ","16.6570773480662","500","250","flank","","","","","0.6800000000000002","0.58","0"
"","psychophysics","111","442026","0.0-111.0","60fde4dee9fab6ac2c315eed","625754baedaa27aaa8611dca","","","","","2346","key"," "," ","16.655000000000083","500","250","flank","","","","","0.53","0.32","0"
"","psychophysics","112","444987","0.0-112.0","60fde4dee9fab6ac2c315eed","625754baedaa27aaa8611dca","","","","","2958","key"," "," ","16.654999999999987","500","250","flank","","","","","0.34999999999999987","0.26","1"
"","psychophysics","113","447974","0.0-113.0","60fde4dee9fab6ac2c315eed","625754baedaa27aaa8611dca","","","","","2984","key"," "," ","16.657117977528113","500","250","flank","","","","","0.2899999999999998","0.2","1"
"","psychophysics","114","451877","0.0-114.0","60fde4dee9fab6ac2c315eed","625754baedaa27aaa8611dca","","","","","3900","key"," "," ","16.65499999999996","500","250","flank","","","","","0.8000000000000003","0.7","1"
"","psychophysics","115","454685","0.0-115.0","60fde4dee9fab6ac2c315eed","625754baedaa27aaa8611dca","","","","","2805","key"," "," ","16.654999999999877","500","250","flank","","","","","0.7100000000000002","0.62","0"
"","psychophysics","116","457047","0.0-116.0","60fde4dee9fab6ac2c315eed","625754baedaa27aaa8611dca","","","","","2359","key"," "," ","16.654999999999866","500","250","flank","","","","","0.53","0.44","0"
"","psychophysics","117","460523","0.0-117.0","60fde4dee9fab6ac2c315eed","625754baedaa27aaa8611dca","","","","","3471","key"," "," ","16.656807692307595","500","250","flank","","","","","0.2299999999999998","0.2","1"
"","psychophysics","118","463920","0.0-118.0","60fde4dee9fab6ac2c315eed","625754baedaa27aaa8611dca","","","","","3394","key"," "," ","16.654999999999838","500","250","flank","","","","","0.53","0.28","0"
"","psychophysics","119","466838","0.0-119.0","60fde4dee9fab6ac2c315eed","625754baedaa27aaa8611dca","","","","","2915","key"," "," ","16.654999999999838","500","250","flank","","","","","0.31999999999999984","0.22","1"
"","psychophysics","120","469737","0.0-120.0","60fde4dee9fab6ac2c315eed","625754baedaa27aaa8611dca","","","","","2897","key"," "," ","16.657173410404575","500","250","flank","","","","","0.3799999999999999","0.34","1"
"","psychophysics","121","473563","0.0-121.0","60fde4dee9fab6ac2c315eed","625754baedaa27aaa8611dca","","","","","3823","key"," "," ","16.65499999999998","500","250","flank","","","","","0.8000000000000003","0.74","0"
"","psychophysics","122","475869","0.0-122.0","60fde4dee9fab6ac2c315eed","625754baedaa27aaa8611dca","","","","","2303","key"," "," ","16.654999999999898","500","250","flank","","","","","0.56","0.32","0"
"","psychophysics","123","480094","0.0-123.0","60fde4dee9fab6ac2c315eed","625754baedaa27aaa8611dca","","","","","4222","key"," "," ","16.656486166007735","500","250","flank","","","","","0.8000000000000003","0.7","1"
"","psychophysics","124","482793","0.0-124.0","60fde4dee9fab6ac2c315eed","625754baedaa27aaa8611dca","","","","","2696","key"," "," ","16.6550000000001","500","250","flank","","","","","0.43999999999999995","0.36","1"
"","psychophysics","125","486920","0.0-125.0","60fde4dee9fab6ac2c315eed","625754baedaa27aaa8611dca","","","","","4125","key"," "," ","16.655000000000133","500","250","flank","","","","","0.6800000000000002","0.44","1"
"","psychophysics","126","493194","0.0-126.0","60fde4dee9fab6ac2c315eed","625754baedaa27aaa8611dca","","","","","6270","key"," "," ","16.656005333333432","500","250","flank","","","","","0.8300000000000003","0.76","0"
"","psychophysics","127","495482","0.0-127.0","60fde4dee9fab6ac2c315eed","625754baedaa27aaa8611dca","","","","","2284","key"," "," ","16.654999999999898","500","250","flank","","","","","0.47","0.38","1"
"","psychophysics","128","499361","0.0-128.0","60fde4dee9fab6ac2c315eed","625754baedaa27aaa8611dca","","","","","3875","key"," "," ","16.656620689655217","500","250","flank","","","","","0.8000000000000003","0.8","0"
"","psychophysics","129","502377","0.0-129.0","60fde4dee9fab6ac2c315eed","625754baedaa27aaa8611dca","","","","","3012","key"," "," ","16.65500000000013","500","250","flank","","","","","0.6800000000000002","0.62","1"
"","psychophysics","130","505428","0.0-130.0","60fde4dee9fab6ac2c315eed","625754baedaa27aaa8611dca","","","","","3048","key"," "," ","16.655000000000115","500","250","flank","","","","","0.8000000000000003","0.62","0"
"","psychophysics","131","508236","0.0-131.0","60fde4dee9fab6ac2c315eed","625754baedaa27aaa8611dca","","","","","2805","key"," "," ","16.65725149700598","500","250","flank","","","","","0.31999999999999984","0.24","0"
"","psychophysics","132","511124","0.0-132.0","60fde4dee9fab6ac2c315eed","625754baedaa27aaa8611dca","","","","","2883","key"," "," ","16.655000000000012","500","250","flank","","","","","0.31999999999999984","0.26","1"
"","psychophysics","133","513829","0.0-133.0","60fde4dee9fab6ac2c315eed","625754baedaa27aaa8611dca","","","","","2703","key"," "," ","16.6550000000001","500","250","flank","","","","","0.43999999999999995","0.34","1"
"","psychophysics","134","517398","0.0-134.0","60fde4dee9fab6ac2c315eed","625754baedaa27aaa8611dca","","","","","3564","key"," "," ","16.656757009345668","500","250","flank","","","","","0.6200000000000001","0.5","1"
"","psychophysics","135","521056","0.0-135.0","60fde4dee9fab6ac2c315eed","625754baedaa27aaa8611dca","","","","","3655","key"," "," ","16.654999999999905","500","250","flank","","","","","0.8300000000000003","0.8","0"
"true","fullscreen","136","521058","0.0-136.0","60fde4dee9fab6ac2c315eed","625754baedaa27aaa8611dca","","","","","","","","","","","","","","","","","","",""
