"rt","response_type","key_press","response","avg_frame_time","center_x","center_y","task","trial_type","trial_index","time_elapsed","internal_node_id","pid","sid","ml_len","ml_start","ml_x","ml_y","resp","targ","back"
"6106","key"," "," ","16.652173913043477","500","250","inst","psychophysics","0","6136","0.0-0.0","5","35","","","","","","",""
"1913","key"," "," ","16.666666666666668","500","250","inst","psychophysics","1","8053","0.0-1.0","5","35","","","","","","",""
"15447","key"," "," ","16.794341675734493","500","250","instML","psychophysics","2","23503","0.0-2.0","5","35","224","-37.333333333333336","-18","-2","-30.333333333333314","",""
"5061","key"," "," ","16.666666666666668","500","250","inst","psychophysics","3","28568","0.0-3.0","5","35","","","","","","",""
"4179","key"," "," ","16.668","500","250","ml","psychophysics","4","32752","0.0-4.0","5","35","194","-17","-28","21","-21","",""
"5667","key"," "," ","16.666666666666668","500","250","ml","psychophysics","5","38421","0.0-5.0","5","35","170","-35","6","5","-25","",""
"12685","key"," "," ","16.731836195508585","500","250","ml","psychophysics","6","51109","0.0-6.0","5","35","182","41","15","-12","-21","",""
"9139","key"," "," ","16.664233576642335","500","250","ml","psychophysics","7","60250","0.0-7.0","5","35","176","41","-4","25","-13","",""
"4293","key"," "," ","16.66147859922179","500","250","ml","psychophysics","8","64547","0.0-8.0","5","35","226","-20","5","29","-20","",""
"12060","key"," "," ","16.666204986149584","500","250","ml","psychophysics","9","76609","0.0-9.0","5","35","176","42","-15","3","-20","",""
"8093","key"," "," ","16.668041237113403","500","250","ml","psychophysics","10","84705","0.0-10.0","5","35","162","-39","-5","14","-19","",""
"5276","key"," "," ","16.667721518987342","500","250","ml","psychophysics","11","89987","0.0-11.0","5","35","236","-45","-26","-6","-25","",""
"5937","key"," "," ","16.668539325842698","500","250","ml","psychophysics","12","95931","0.0-12.0","5","35","178","-28","22","28","-21","",""
"4227","key"," "," ","16.666666666666668","500","250","ml","psychophysics","13","100161","0.0-13.0","5","35","194","-25","-11","19","-20","",""
"6257","key"," "," ","16.658666666666665","500","250","ml","psychophysics","14","106421","0.0-14.0","5","35","230","-57","-24","21","-23","",""
"10773","key"," "," ","16.6656346749226","500","250","ml","psychophysics","15","117197","0.0-15.0","5","35","162","31","23","21","-15","",""
"7278","key"," "," ","16.665137614678898","500","250","ml","psychophysics","16","124479","0.0-16.0","5","35","242","39","19","4","-17","",""
"2720","key"," "," ","16.67283950617284","500","250","ml","psychophysics","17","127202","0.0-17.0","5","35","166","-23","25","-26","-21","",""
"2440","key"," "," ","16.664383561643834","500","250","ml","psychophysics","18","129645","0.0-18.0","5","35","238","-29","-3","-17","-24","",""
"7849","key"," "," ","16.66808510638298","500","250","inst","psychophysics","19","137497","0.0-19.0","5","35","","","","","","",""
"16231","key"," "," ","16.667009249743064","500","250","instPog","psychophysics","20","153733","0.0-20.0","5","35","","","","","198","180",""
"1096","key"," "," ","16.676923076923078","500","250","inst","psychophysics","21","154833","0.0-21.0","5","35","","","","","","",""
"3725","key"," "," ","16.666666666666668","500","250","pog","psychophysics","22","158560","0.0-22.0","5","35","","","","","179","152",""
"2326","key"," "," ","16.640287769784173","500","250","pog","psychophysics","23","160890","0.0-23.0","5","35","","","","","178","149",""
"312","key"," "," ","16.72222222222222","500","250","pog","psychophysics","24","161206","0.0-24.0","5","35","","","","","160","145",""
"4971","key"," "," ","16.664429530201343","500","250","pog","psychophysics","25","166181","0.0-25.0","5","35","","","","","171","142",""
"1272","key"," "," ","16.653333333333332","500","250","pog","psychophysics","26","167456","0.0-26.0","5","35","","","","","161","135",""
"10856","key"," "," ","16.666666666666668","500","250","pog","psychophysics","27","178314","0.0-27.0","5","35","","","","","207","184",""
"3833","key"," "," ","16.66812227074236","500","250","pog","psychophysics","28","182150","0.0-28.0","5","35","","","","","156","133",""
"6777","key"," "," ","16.665024630541872","500","250","pog","psychophysics","29","188931","0.0-29.0","5","35","","","","","180","166",""
"4431","key"," "," ","16.664150943396226","500","250","pog","psychophysics","30","193365","0.0-30.0","5","35","","","","","151","127",""
"9188","key"," "," ","16.665454545454544","500","250","pog","psychophysics","31","202556","0.0-31.0","5","35","","","","","174","153",""
"1705","key"," "," ","16.666666666666668","500","250","pog","psychophysics","32","204265","0.0-32.0","5","35","","","","","168","141",""
"6854","key"," "," ","16.665853658536584","500","250","pog","psychophysics","33","211123","0.0-33.0","5","35","","","","","193","166",""
"8689","key"," "," ","16.66602687140115","500","250","pog","psychophysics","34","219815","0.0-34.0","5","35","","","","","192","168",""
"6972","key"," "," ","16.666666666666668","500","250","pog","psychophysics","35","226791","0.0-35.0","5","35","","","","","166","141",""
"5433","key"," "," ","16.662576687116566","500","250","pog","psychophysics","36","232232","0.0-36.0","5","35","","","","","192","162",""
"791","key"," "," ","16.652173913043477","500","250","inst","psychophysics","37","233025","0.0-37.0","5","35","","","","","","",""
"6426","key"," "," ","16.65714285714286","500","250","instTilt","psychophysics","38","239456","0.0-38.0","5","35","","","","","NaN","0","0"
"4957","key"," "," ","16.663299663299664","500","250","instTilt","psychophysics","39","244416","0.0-39.0","5","35","","","","","0","0","0"
"16203","key"," "," ","16.66735324407827","500","250","instTilt","psychophysics","40","260622","0.0-40.0","5","35","","","","","1","0","0"
"1599","key"," "," ","16.645833333333332","500","250","inst","psychophysics","41","262226","0.0-41.0","5","35","","","","","","",""
"3234","key"," "," ","16.66839378238342","500","250","tilt","psychophysics","42","265463","0.0-42.0","5","35","","","","","-6","-2","1"
"3193","key"," "," ","16.670157068062828","500","250","tilt","psychophysics","43","268659","0.0-43.0","5","35","","","","","-2","-3","0"
"4458","key"," "," ","16.665413533834588","500","250","tilt","psychophysics","44","273121","0.0-44.0","5","35","","","","","4","8","0"
"2555","key"," "," ","16.666666666666668","500","250","tilt","psychophysics","45","275679","0.0-45.0","5","35","","","","","4","2","0"
"2818","key"," "," ","16.666666666666668","500","250","tilt","psychophysics","46","278501","0.0-46.0","5","35","","","","","-5","-6","1"
"2952","key"," "," ","16.664772727272727","500","250","tilt","psychophysics","47","281455","0.0-47.0","5","35","","","","","3","1","0"
"3909","key"," "," ","16.662393162393162","500","250","tilt","psychophysics","48","285369","0.0-48.0","5","35","","","","","-8","-10","1"
"4887","key"," "," ","16.66552901023891","500","250","tilt","psychophysics","49","290258","0.0-49.0","5","35","","","","","-4","-4","1"
"6625","key"," "," ","16.666666666666668","500","250","tilt","psychophysics","50","296887","0.0-50.0","5","35","","","","","-6","-9","0"
"3189","key"," "," ","16.664921465968586","500","250","tilt","psychophysics","51","300080","0.0-51.0","5","35","","","","","3","8","1"
"3029","key"," "," ","16.662983425414364","500","250","tilt","psychophysics","52","303113","0.0-52.0","5","35","","","","","1","-1","0"
"1015","key"," "," ","16.65","500","250","tilt","psychophysics","53","304131","0.0-53.0","5","35","","","","","0","2","0"
"2769","key"," "," ","16.672727272727272","500","250","tilt","psychophysics","54","306904","0.0-54.0","5","35","","","","","3","1","0"
"1960","key"," "," ","16.666666666666668","500","250","tilt","psychophysics","55","308867","0.0-55.0","5","35","","","","","5","7","1"
"7867","key"," "," ","16.666666666666668","500","250","tilt","psychophysics","56","316738","0.0-56.0","5","35","","","","","-2","1","1"
"3463","key"," "," ","16.666666666666668","500","250","tilt","psychophysics","57","320205","0.0-57.0","5","35","","","","","-4","-5","1"
"3926","key"," "," ","16.65531914893617","500","250","tilt","psychophysics","58","324135","0.0-58.0","5","35","","","","","-6","-7","1"
"1057","key"," "," ","16.666666666666668","500","250","tilt","psychophysics","59","325194","0.0-59.0","5","35","","","","","0","-5","0"
"3859","key"," "," ","16.660869565217393","500","250","tilt","psychophysics","60","329057","0.0-60.0","5","35","","","","","-2","-6","0"
"2567","key"," "," ","16.649350649350648","500","250","tilt","psychophysics","61","331628","0.0-61.0","5","35","","","","","-3","-4","0"
"2062","key"," "," ","16.666666666666668","500","250","tilt","psychophysics","62","333693","0.0-62.0","5","35","","","","","-2","-4","0"
"4606","key"," "," ","16.669090909090908","500","250","tilt","psychophysics","63","338301","0.0-63.0","5","35","","","","","1","2","1"
"2219","key"," "," ","16.669172932330827","500","250","tilt","psychophysics","64","340524","0.0-64.0","5","35","","","","","-2","-5","0"
"2698","key"," "," ","16.664596273291924","500","250","tilt","psychophysics","65","343225","0.0-65.0","5","35","","","","","-3","-2","1"
"687","key"," "," ","16.675","500","250","tilt","psychophysics","66","343916","0.0-66.0","5","35","","","","","0","-7","1"
"2368","key"," "," ","16.666666666666668","500","250","tilt","psychophysics","67","346286","0.0-67.0","5","35","","","","","2","0","0"
"2205","key"," "," ","16.666666666666668","500","250","tilt","psychophysics","68","348493","0.0-68.0","5","35","","","","","3","2","0"
"2307","key"," "," ","16.918518518518518","500","250","tilt","psychophysics","69","350804","0.0-69.0","5","35","","","","","-6","-5","1"
"2286","key"," "," ","16.664233576642335","500","250","tilt","psychophysics","70","353093","0.0-70.0","5","35","","","","","-5","-1","1"
"2113","key"," "," ","16.674603174603174","500","250","tilt","psychophysics","71","355210","0.0-71.0","5","35","","","","","-10","-8","1"
"3308","key"," "," ","16.66497461928934","500","250","inst","psychophysics","72","358520","0.0-72.0","5","35","","","","","","",""
"25554","key"," "," ","16.666666666666668","500","250","instPz","psychophysics","73","384076","0.0-73.0","5","35","","","","","181","50",""
"18992","key"," "," ","16.666374012291485","500","250","instPz","psychophysics","74","403072","0.0-74.0","5","35","","","","","178","50",""
"6787","key"," "," ","16.667487684729064","500","250","instPz","psychophysics","75","409862","0.0-75.0","5","35","","","","","10","50",""
"1837","key"," "," ","16.6697247706422","500","250","inst","psychophysics","76","411700","0.0-76.0","5","35","","","","","","",""
"5125","key"," "," ","16.664495114006513","500","250","pz","psychophysics","77","416829","0.0-77.0","5","35","","","","","35","25",""
"5720","key"," "," ","16.666666666666668","500","250","pz","psychophysics","78","422553","0.0-78.0","5","35","","","","","55","38",""
"5376","key"," "," ","16.6625386996904","500","250","pz","psychophysics","79","427948","0.0-79.0","5","35","","","","","61","49",""
"632","key"," "," ","16.675675675675677","500","250","pz","psychophysics","80","428585","0.0-80.0","5","35","","","","","10","28",""
"9023","key"," "," ","16.66358595194085","500","250","pz","psychophysics","81","437611","0.0-81.0","5","35","","","","","89","60",""
"7617","key"," "," ","16.666666666666668","500","250","pz","psychophysics","82","445231","0.0-82.0","5","35","","","","","36","23",""
"10569","key"," "," ","16.66824644549763","500","250","pz","psychophysics","83","455802","0.0-83.0","5","35","","","","","78","54",""
"4550","key"," "," ","16.65934065934066","500","250","pz","psychophysics","84","460356","0.0-84.0","5","35","","","","","38","28",""
"3175","key"," "," ","16.666666666666668","500","250","pz","psychophysics","85","463535","0.0-85.0","5","35","","","","","35","24",""
"7578","key"," "," ","16.662995594713657","500","250","pz","psychophysics","86","471118","0.0-86.0","5","35","","","","","65","45",""
"3625","key"," "," ","16.658986175115206","500","250","pz","psychophysics","87","474747","0.0-87.0","5","35","","","","","41","28",""
"6518","key"," "," ","16.664102564102564","500","250","pz","psychophysics","88","481267","0.0-88.0","5","35","","","","","73","55",""
"5477","key"," "," ","16.66768292682927","500","250","pz","psychophysics","89","486747","0.0-89.0","5","35","","","","","50","35",""
"8154","key"," "," ","16.66871165644172","500","250","pz","psychophysics","90","494904","0.0-90.0","5","35","","","","","69","50",""
"5764","key"," "," ","16.66376811594203","500","250","pz","psychophysics","91","500672","0.0-91.0","5","35","","","","","42","33",""
"2480","key"," "," ","16.66891891891892","500","250","inst","psychophysics","92","503158","0.0-92.0","5","35","","","","","","",""
"3741","key"," "," ","16.743243243243242","500","250","inst","psychophysics","93","506901","0.0-93.0","5","35","","","","","","",""
"7490","key"," "," ","16.661469933184854","500","250","instFlank","psychophysics","94","514396","0.0-94.0","5","35","","","","","0.5","0.3","1"
"4166","key"," "," ","16.666666666666668","500","250","inst","psychophysics","95","518566","0.0-95.0","5","35","","","","","","",""
"4154","key"," "," ","16.662650602409638","500","250","instFlank","psychophysics","96","522723","0.0-96.0","5","35","","","","","0.47","0.3","1"
"5664","key"," "," ","16.666666666666668","500","250","inst","psychophysics","97","528388","0.0-97.0","5","35","","","","","","",""
"6021","key"," "," ","16.663888888888888","500","250","instFlank","psychophysics","98","534412","0.0-98.0","5","35","","","","","0.53","0.3","0"
"2015","key"," "," ","16.666666666666668","500","250","inst","psychophysics","99","536429","0.0-99.0","5","35","","","","","","",""
"5717","key"," "," ","16.666666666666668","500","250","flank","psychophysics","100","542148","0.0-100.0","5","35","","","","","0.53","0.26","0"
"4461","key"," "," ","16.666666666666668","500","250","flank","psychophysics","101","546612","0.0-101.0","5","35","","","","","0.56","0.52","1"
"3250","key"," "," ","16.670103092783506","500","250","flank","psychophysics","102","549867","0.0-102.0","5","35","","","","","0.7100000000000002","0.7","0"
"3268","key"," "," ","16.658163265306122","500","250","flank","psychophysics","103","553140","0.0-103.0","5","35","","","","","0.7100000000000002","0.66","0"
"2955","key"," "," ","16.664772727272727","500","250","flank","psychophysics","104","556098","0.0-104.0","5","35","","","","","0.6800000000000002","0.48","0"
"3096","key"," "," ","16.65945945945946","500","250","flank","psychophysics","105","559198","0.0-105.0","5","35","","","","","0.7100000000000002","0.64","1"
"3037","key"," "," ","16.664835164835164","500","250","flank","psychophysics","106","562240","0.0-106.0","5","35","","","","","0.6200000000000001","0.46","0"
"3183","key"," "," ","16.66842105263158","500","250","flank","psychophysics","107","565427","0.0-107.0","5","35","","","","","0.7700000000000002","0.76","1"
"4561","key"," "," ","16.666666666666668","500","250","flank","psychophysics","108","569992","0.0-108.0","5","35","","","","","0.1999999999999998","0.22","1"
"3195","key"," "," ","16.664921465968586","500","250","flank","psychophysics","109","573191","0.0-109.0","5","35","","","","","0.6800000000000002","0.68","1"
"3050","key"," "," ","16.664835164835164","500","250","flank","psychophysics","110","576244","0.0-110.0","5","35","","","","","0.34999999999999987","0.48","1"
"3812","key"," "," ","16.67105263157895","500","250","flank","psychophysics","111","580062","0.0-111.0","5","35","","","","","0.6200000000000001","0.56","1"
"2667","key"," "," ","16.666666666666668","500","250","flank","psychophysics","112","582732","0.0-112.0","5","35","","","","","0.47","0.44","0"
"2516","key"," "," ","16.649006622516556","500","250","flank","psychophysics","113","585251","0.0-113.0","5","35","","","","","0.47","0.42","1"
"3245","key"," "," ","16.66321243523316","500","250","flank","psychophysics","114","588500","0.0-114.0","5","35","","","","","0.7400000000000002","0.8","0"
"4356","key"," "," ","16.659003831417625","500","250","flank","psychophysics","115","592861","0.0-115.0","5","35","","","","","0.8000000000000003","0.76","0"
"3747","key"," "," ","16.665178571428573","500","250","flank","psychophysics","116","596613","0.0-116.0","5","35","","","","","0.6800000000000002","0.66","0"
"3270","key"," "," ","16.668367346938776","500","250","flank","psychophysics","117","599886","0.0-117.0","5","35","","","","","0.7100000000000002","0.78","0"
"2958","key"," "," ","16.676136363636363","500","250","flank","psychophysics","118","602849","0.0-118.0","5","35","","","","","0.6500000000000001","0.48","0"
"2607","key"," "," ","16.66025641025641","500","250","flank","psychophysics","119","605460","0.0-119.0","5","35","","","","","0.6500000000000001","0.54","1"
"2630","key"," "," ","16.67515923566879","500","250","flank","psychophysics","120","608094","0.0-120.0","5","35","","","","","0.6500000000000001","0.54","1"
"5271","key"," "," ","16.664556962025316","500","250","flank","psychophysics","121","613368","0.0-121.0","5","35","","","","","0.7700000000000002","0.7","1"
"4564","key"," "," ","16.67032967032967","500","250","flank","psychophysics","122","617936","0.0-122.0","5","35","","","","","0.31999999999999984","0.28","1"
"3399","key"," "," ","16.660098522167488","500","250","flank","psychophysics","123","621337","0.0-123.0","5","35","","","","","0.5","0.22","1"
"4400","key"," "," ","16.665399239543728","500","250","flank","psychophysics","124","625740","0.0-124.0","5","35","","","","","0.7700000000000002","0.74","1"
"3808","key"," "," ","16.666666666666668","500","250","flank","psychophysics","125","629552","0.0-125.0","5","35","","","","","0.1699999999999998","0.24","0"
"4553","key"," "," ","16.669117647058822","500","250","flank","psychophysics","126","634107","0.0-126.0","5","35","","","","","0.3799999999999999","0.36","1"
"3096","key"," "," ","16.67027027027027","500","250","flank","psychophysics","127","637206","0.0-127.0","5","35","","","","","0.7700000000000002","0.76","0"
"3836","key"," "," ","16.663755458515283","500","250","flank","psychophysics","128","641046","0.0-128.0","5","35","","","","","0.7700000000000002","0.74","0"
"3362","key"," "," ","16.666666666666668","500","250","flank","psychophysics","129","644411","0.0-129.0","5","35","","","","","0.7400000000000002","0.66","1"
