"success","trial_type","trial_index","time_elapsed","internal_node_id","pid","sid","timeout","failed_images","failed_audio","failed_video","rt","response_type","key_press","response","avg_frame_time","center_x","center_y","task","ml_len","ml_start","ml_x","ml_y","resp","targ","back"
"true","fullscreen","0","3635","0.0-0.0","60051d10e63710373daee6e7","6257550f9bd4b9f5a4a75b08","","","","","","","","","","","","","","","","","","",""
"true","preload","1","3642","0.0-1.0","60051d10e63710373daee6e7","6257550f9bd4b9f5a4a75b08","false","[]","[]","[]","","","","","","","","","","","","","","",""
"","psychophysics","2","9701","0.0-2.0","60051d10e63710373daee6e7","6257550f9bd4b9f5a4a75b08","","","","","6031","key"," "," ","16.805038781163432","500","250","inst","","","","","","",""
"","psychophysics","3","11598","0.0-3.0","60051d10e63710373daee6e7","6257550f9bd4b9f5a4a75b08","","","","","1894","key"," "," ","16.666513274336275","500","250","inst","","","","","","",""
"","psychophysics","4","34296","0.0-4.0","60051d10e63710373daee6e7","6257550f9bd4b9f5a4a75b08","","","","","22695","key"," "," ","16.666379867744308","500","250","instMl","176","-29.333333333333332","-11","-21","-16.333333333333314","",""
"","psychophysics","5","49676","0.0-5.0","60051d10e63710373daee6e7","6257550f9bd4b9f5a4a75b08","","","","","15374","key"," "," ","16.666398479913134","500","250","instMl","178","-29.666666666666668","-24","15","-13.666666666666686","",""
"","psychophysics","6","54319","0.0-6.0","60051d10e63710373daee6e7","6257550f9bd4b9f5a4a75b08","","","","","4623","key"," "," ","16.666201438848912","500","250","inst","","","","","","",""
"","psychophysics","7","59402","0.0-7.0","60051d10e63710373daee6e7","6257550f9bd4b9f5a4a75b08","","","","","5041","key"," "," ","16.721211221122093","500","250","ml","234","18","-25","2","-17","",""
"","psychophysics","8","67114","0.0-8.0","60051d10e63710373daee6e7","6257550f9bd4b9f5a4a75b08","","","","","7703","key"," "," ","16.666515151515153","500","250","ml","250","2","-5","-8","-16","",""
"","psychophysics","9","80649","0.0-9.0","60051d10e63710373daee6e7","6257550f9bd4b9f5a4a75b08","","","","","13519","key"," "," ","16.66644636251543","500","250","ml","212","-38","-3","-22","-18","",""
"","psychophysics","10","87796","0.0-10.0","60051d10e63710373daee6e7","6257550f9bd4b9f5a4a75b08","","","","","7137","key"," "," ","16.666196261682238","500","250","ml","168","38","26","-5","-15","",""
"","psychophysics","11","97228","0.0-11.0","60051d10e63710373daee6e7","6257550f9bd4b9f5a4a75b08","","","","","9424","key"," "," ","16.666387610619452","500","250","ml","222","16","9","-25","-18","",""
"","psychophysics","12","107826","0.0-12.0","60051d10e63710373daee6e7","6257550f9bd4b9f5a4a75b08","","","","","10592","key"," "," ","16.66621102362206","500","250","ml","172","20","-5","22","-13","",""
"","psychophysics","13","113811","0.0-13.0","60051d10e63710373daee6e7","6257550f9bd4b9f5a4a75b08","","","","","5983","key"," "," ","16.66655865921787","500","250","ml","178","0","22","10","-13","",""
"","psychophysics","14","124485","0.0-14.0","60051d10e63710373daee6e7","6257550f9bd4b9f5a4a75b08","","","","","10669","key"," "," ","16.692504702194356","500","250","ml","238","-35","2","1","-18","",""
"","psychophysics","15","129883","0.0-15.0","60051d10e63710373daee6e7","6257550f9bd4b9f5a4a75b08","","","","","5384","key"," "," ","16.666424148606872","500","250","ml","162","-2","23","-29","-13","",""
"","psychophysics","16","139734","0.0-16.0","60051d10e63710373daee6e7","6257550f9bd4b9f5a4a75b08","","","","","9838","key"," "," ","16.666299999999996","500","250","ml","154","-12","15","17","-12","",""
"","psychophysics","17","148084","0.0-17.0","60051d10e63710373daee6e7","6257550f9bd4b9f5a4a75b08","","","","","8336","key"," "," ","16.666504000000014","500","250","ml","158","28","8","-23","-12","",""
"","psychophysics","18","158007","0.0-18.0","60051d10e63710373daee6e7","6257550f9bd4b9f5a4a75b08","","","","","9909","key"," "," ","16.66645959595961","500","250","ml","156","-33","-12","24","-12","",""
"","psychophysics","19","166596","0.0-19.0","60051d10e63710373daee6e7","6257550f9bd4b9f5a4a75b08","","","","","8580","key"," "," ","16.666357281553395","500","250","ml","188","-47","2","-7","-18","",""
"","psychophysics","20","179077","0.0-20.0","60051d10e63710373daee6e7","6257550f9bd4b9f5a4a75b08","","","","","12476","key"," "," ","16.666300802139013","500","250","ml","212","-29","-27","-10","-15","",""
"","psychophysics","21","186794","0.0-21.0","60051d10e63710373daee6e7","6257550f9bd4b9f5a4a75b08","","","","","7713","key"," "," ","16.66636580086581","500","250","ml","234","-43","-8","25","-13","",""
"","psychophysics","22","188943","0.0-22.0","60051d10e63710373daee6e7","6257550f9bd4b9f5a4a75b08","","","","","2143","key"," "," ","16.666398437499993","500","250","inst","","","","","","",""
"","psychophysics","23","209194","0.0-23.0","60051d10e63710373daee6e7","6257550f9bd4b9f5a4a75b08","","","","","20246","key"," "," ","16.666287479406936","500","250","instPog","","","","","130","130",""
"","psychophysics","24","226139","0.0-24.0","60051d10e63710373daee6e7","6257550f9bd4b9f5a4a75b08","","","","","16937","key"," "," ","16.666257142857162","500","250","instPog","","","","","134","130",""
"","psychophysics","25","239481","0.0-25.0","60051d10e63710373daee6e7","6257550f9bd4b9f5a4a75b08","","","","","13334","key"," "," ","16.666313750000008","500","250","instPog","","","","","142","130",""
"","psychophysics","26","242608","0.0-26.0","60051d10e63710373daee6e7","6257550f9bd4b9f5a4a75b08","","","","","3117","key"," "," ","16.666786096256754","500","250","inst","","","","","","",""
"","psychophysics","27","249865","0.0-27.0","60051d10e63710373daee6e7","6257550f9bd4b9f5a4a75b08","","","","","7221","key"," "," ","16.666400921659037","500","250","pog","","","","","182","173",""
"","psychophysics","28","261331","0.0-28.0","60051d10e63710373daee6e7","6257550f9bd4b9f5a4a75b08","","","","","11455","key"," "," ","16.666270742358083","500","250","pog","","","","","200","191",""
"","psychophysics","29","287008","0.0-29.0","60051d10e63710373daee6e7","6257550f9bd4b9f5a4a75b08","","","","","25669","key"," "," ","16.677197530864195","500","250","pog","","","","","146","138",""
"","psychophysics","30","295237","0.0-30.0","60051d10e63710373daee6e7","6257550f9bd4b9f5a4a75b08","","","","","8216","key"," "," ","16.666243902439057","500","250","pog","","","","","131","122",""
"","psychophysics","31","312480","0.0-31.0","60051d10e63710373daee6e7","6257550f9bd4b9f5a4a75b08","","","","","17237","key"," "," ","16.666382011605407","500","250","pog","","","","","167","157",""
"","psychophysics","32","328542","0.0-32.0","60051d10e63710373daee6e7","6257550f9bd4b9f5a4a75b08","","","","","16049","key"," "," ","16.66638213914852","500","250","pog","","","","","144","136",""
"","psychophysics","33","340237","0.0-33.0","60051d10e63710373daee6e7","6257550f9bd4b9f5a4a75b08","","","","","11690","key"," "," ","16.66625534950069","500","250","pog","","","","","134","125",""
"","psychophysics","34","363021","0.0-34.0","60051d10e63710373daee6e7","6257550f9bd4b9f5a4a75b08","","","","","22782","key"," "," ","16.666396336996332","500","250","pog","","","","","170","161",""
"","psychophysics","35","367338","0.0-35.0","60051d10e63710373daee6e7","6257550f9bd4b9f5a4a75b08","","","","","4309","key"," "," ","16.66610424710428","500","250","pog","","","","","154","140",""
"","psychophysics","36","377042","0.0-36.0","60051d10e63710373daee6e7","6257550f9bd4b9f5a4a75b08","","","","","9699","key"," "," ","16.666301204819252","500","250","pog","","","","","212","196",""
"","psychophysics","37","389153","0.0-37.0","60051d10e63710373daee6e7","6257550f9bd4b9f5a4a75b08","","","","","12107","key"," "," ","16.666225895316796","500","250","pog","","","","","203","195",""
"","psychophysics","38","399718","0.0-38.0","60051d10e63710373daee6e7","6257550f9bd4b9f5a4a75b08","","","","","10560","key"," "," ","16.666433544303867","500","250","pog","","","","","175","155",""
"","psychophysics","39","406336","0.0-39.0","60051d10e63710373daee6e7","6257550f9bd4b9f5a4a75b08","","","","","6610","key"," "," ","16.665279596977427","500","250","pog","","","","","172","161",""
"","psychophysics","40","428285","0.0-40.0","60051d10e63710373daee6e7","6257550f9bd4b9f5a4a75b08","","","","","21945","key"," "," ","16.666352091254772","500","250","pog","","","","","183","163",""
"","psychophysics","41","440672","0.0-41.0","60051d10e63710373daee6e7","6257550f9bd4b9f5a4a75b08","","","","","12379","key"," "," ","16.666445491251675","500","250","pog","","","","","198","185",""
"","psychophysics","42","442337","0.0-42.0","60051d10e63710373daee6e7","6257550f9bd4b9f5a4a75b08","","","","","1659","key"," "," ","16.66626262626225","500","250","inst","","","","","","",""
"","psychophysics","43","446355","0.0-43.0","60051d10e63710373daee6e7","6257550f9bd4b9f5a4a75b08","","","","","4010","key"," "," ","17.24361471861482","500","250","instTilt","","","","","NaN","0","0"
"","psychophysics","44","449487","0.0-44.0","60051d10e63710373daee6e7","6257550f9bd4b9f5a4a75b08","","","","","3116","key"," "," ","16.666425531914896","500","250","instTilt","","","","","0","0","0"
"","psychophysics","45","462303","0.0-45.0","60051d10e63710373daee6e7","6257550f9bd4b9f5a4a75b08","","","","","12810","key"," "," ","16.666299869621938","500","250","instTilt","","","","","0","0","0"
"","psychophysics","46","463621","0.0-46.0","60051d10e63710373daee6e7","6257550f9bd4b9f5a4a75b08","","","","","1309","key"," "," ","16.65440506329082","500","250","inst","","","","","","",""
"","psychophysics","47","478476","0.0-47.0","60051d10e63710373daee6e7","6257550f9bd4b9f5a4a75b08","","","","","14850","key"," "," ","16.66635056179778","500","250","tilt","","","","","-8","-8","1"
"","psychophysics","48","485837","0.0-48.0","60051d10e63710373daee6e7","6257550f9bd4b9f5a4a75b08","","","","","7346","key"," "," ","16.666378684807306","500","250","tilt","","","","","-4","-3","1"
"","psychophysics","49","493772","0.0-49.0","60051d10e63710373daee6e7","6257550f9bd4b9f5a4a75b08","","","","","7928","key"," "," ","16.666347368421082","500","250","tilt","","","","","-4","-5","1"
"","psychophysics","50","500653","0.0-50.0","60051d10e63710373daee6e7","6257550f9bd4b9f5a4a75b08","","","","","6869","key"," "," ","16.66635436893204","500","250","tilt","","","","","1","8","1"
"","psychophysics","51","525333","0.0-51.0","60051d10e63710373daee6e7","6257550f9bd4b9f5a4a75b08","","","","","24671","key"," "," ","16.66633603786342","500","250","tilt","","","","","-1","3","1"
"","psychophysics","52","528443","0.0-52.0","60051d10e63710373daee6e7","6257550f9bd4b9f5a4a75b08","","","","","3102","key"," "," ","16.666032258064426","500","250","tilt","","","","","5","9","0"
"","psychophysics","53","531607","0.0-53.0","60051d10e63710373daee6e7","6257550f9bd4b9f5a4a75b08","","","","","3134","key"," "," ","16.666486772486852","500","250","tilt","","","","","-4","-3","1"
"","psychophysics","54","534686","0.0-54.0","60051d10e63710373daee6e7","6257550f9bd4b9f5a4a75b08","","","","","3062","key"," "," ","16.666407608696","500","250","tilt","","","","","-2","-6","0"
"","psychophysics","55","539470","0.0-55.0","60051d10e63710373daee6e7","6257550f9bd4b9f5a4a75b08","","","","","4778","key"," "," ","16.66615034965025","500","250","tilt","","","","","-2","-3","0"
"","psychophysics","56","544541","0.0-56.0","60051d10e63710373daee6e7","6257550f9bd4b9f5a4a75b08","","","","","5067","key"," "," ","16.666452145214322","500","250","tilt","","","","","-10","-10","1"
"","psychophysics","57","547609","0.0-57.0","60051d10e63710373daee6e7","6257550f9bd4b9f5a4a75b08","","","","","3054","key"," "," ","16.666765027321986","500","250","tilt","","","","","2","3","0"
"","psychophysics","58","550858","0.0-58.0","60051d10e63710373daee6e7","6257550f9bd4b9f5a4a75b08","","","","","3207","key"," "," ","16.75336787564779","500","250","tilt","","","","","-3","-1","1"
"","psychophysics","59","555656","0.0-59.0","60051d10e63710373daee6e7","6257550f9bd4b9f5a4a75b08","","","","","4782","key"," "," ","16.666362369338128","500","250","tilt","","","","","-1","2","1"
"","psychophysics","60","566136","0.0-60.0","60051d10e63710373daee6e7","6257550f9bd4b9f5a4a75b08","","","","","10465","key"," "," ","16.666393312101903","500","250","tilt","","","","","-7","-9","0"
"","psychophysics","61","571535","0.0-61.0","60051d10e63710373daee6e7","6257550f9bd4b9f5a4a75b08","","","","","5392","key"," "," ","16.666321981423994","500","250","tilt","","","","","0","4","1"
"","psychophysics","62","573687","0.0-62.0","60051d10e63710373daee6e7","6257550f9bd4b9f5a4a75b08","","","","","2147","key"," "," ","16.666171875000146","500","250","tilt","","","","","-1","2","1"
"","psychophysics","63","576776","0.0-63.0","60051d10e63710373daee6e7","6257550f9bd4b9f5a4a75b08","","","","","3053","key"," "," ","16.66630434782596","500","250","tilt","","","","","-6","-3","1"
"","psychophysics","64","581136","0.0-64.0","60051d10e63710373daee6e7","6257550f9bd4b9f5a4a75b08","","","","","4347","key"," "," ","16.666337164750917","500","250","tilt","","","","","-12","-10","1"
"","psychophysics","65","584803","0.0-65.0","60051d10e63710373daee6e7","6257550f9bd4b9f5a4a75b08","","","","","3661","key"," "," ","16.666789954337908","500","250","tilt","","","","","5","10","0"
"","psychophysics","66","591774","0.0-66.0","60051d10e63710373daee6e7","6257550f9bd4b9f5a4a75b08","","","","","6965","key"," "," ","16.666326139088746","500","250","tilt","","","","","-8","-4","1"
"","psychophysics","67","597981","0.0-67.0","60051d10e63710373daee6e7","6257550f9bd4b9f5a4a75b08","","","","","6194","key"," "," ","16.666479784366487","500","250","tilt","","","","","-10","-7","1"
"","psychophysics","68","603450","0.0-68.0","60051d10e63710373daee6e7","6257550f9bd4b9f5a4a75b08","","","","","5460","key"," "," ","16.666600609756156","500","250","tilt","","","","","4","10","1"
"","psychophysics","69","607771","0.0-69.0","60051d10e63710373daee6e7","6257550f9bd4b9f5a4a75b08","","","","","4315","key"," "," ","16.666538759689715","500","250","tilt","","","","","4","8","0"
"","psychophysics","70","613950","0.0-70.0","60051d10e63710373daee6e7","6257550f9bd4b9f5a4a75b08","","","","","6170","key"," "," ","16.666554054054053","500","250","tilt","","","","","2","4","0"
"","psychophysics","71","621487","0.0-71.0","60051d10e63710373daee6e7","6257550f9bd4b9f5a4a75b08","","","","","7531","key"," "," ","16.66619068736127","500","250","tilt","","","","","2","6","0"
"","psychophysics","72","624430","0.0-72.0","60051d10e63710373daee6e7","6257550f9bd4b9f5a4a75b08","","","","","2927","key"," "," ","16.66623428571437","500","250","tilt","","","","","1","1","0"
"","psychophysics","73","643745","0.0-73.0","60051d10e63710373daee6e7","6257550f9bd4b9f5a4a75b08","","","","","19308","key"," "," ","16.6664231433506","500","250","tilt","","","","","-3","-6","0"
"","psychophysics","74","650298","0.0-74.0","60051d10e63710373daee6e7","6257550f9bd4b9f5a4a75b08","","","","","6541","key"," "," ","16.66605089058532","500","250","tilt","","","","","-7","-5","1"
"","psychophysics","75","657232","0.0-75.0","60051d10e63710373daee6e7","6257550f9bd4b9f5a4a75b08","","","","","6927","key"," "," ","16.66636626506028","500","250","tilt","","","","","-2","4","1"
"","psychophysics","76","663316","0.0-76.0","60051d10e63710373daee6e7","6257550f9bd4b9f5a4a75b08","","","","","6076","key"," "," ","16.666510989010952","500","250","tilt","","","","","-1","-1","0"
"","psychophysics","77","673981","0.0-77.0","60051d10e63710373daee6e7","6257550f9bd4b9f5a4a75b08","","","","","10659","key"," "," ","16.666362068965466","500","250","inst","","","","","","",""
"","psychophysics","78","678151","0.0-78.0","60051d10e63710373daee6e7","6257550f9bd4b9f5a4a75b08","","","","","4155","key"," "," ","16.666407999999823","500","250","instPz","","","","","50","50",""
"","psychophysics","79","685885","0.0-79.0","60051d10e63710373daee6e7","6257550f9bd4b9f5a4a75b08","","","","","7729","key"," "," ","16.666367170626458","500","250","instPz","","","","","48","50",""
"","psychophysics","80","690668","0.0-80.0","60051d10e63710373daee6e7","6257550f9bd4b9f5a4a75b08","","","","","4778","key"," "," ","16.666472027972144","500","250","instPz","","","","","28","30",""
"","psychophysics","81","699832","0.0-81.0","60051d10e63710373daee6e7","6257550f9bd4b9f5a4a75b08","","","","","9149","key"," "," ","16.69564416058392","500","250","instPz","","","","","41","40",""
"","psychophysics","82","700981","0.0-82.0","60051d10e63710373daee6e7","6257550f9bd4b9f5a4a75b08","","","","","1146","key"," "," ","16.667014925374037","500","250","inst","","","","","","",""
"","psychophysics","83","712924","0.0-83.0","60051d10e63710373daee6e7","6257550f9bd4b9f5a4a75b08","","","","","11934","key"," "," ","16.666406424581","500","250","pz","","","","","52","45",""
"","psychophysics","84","719065","0.0-84.0","60051d10e63710373daee6e7","6257550f9bd4b9f5a4a75b08","","","","","6127","key"," "," ","16.66632152588566","500","250","pz","","","","","35","31",""
"","psychophysics","85","724830","0.0-85.0","60051d10e63710373daee6e7","6257550f9bd4b9f5a4a75b08","","","","","5756","key"," "," ","16.666304347826088","500","250","pz","","","","","56","51",""
"","psychophysics","86","731753","0.0-86.0","60051d10e63710373daee6e7","6257550f9bd4b9f5a4a75b08","","","","","6914","key"," "," ","16.666414457831408","500","250","pz","","","","","36","29",""
"","psychophysics","87","739312","0.0-87.0","60051d10e63710373daee6e7","6257550f9bd4b9f5a4a75b08","","","","","7543","key"," "," ","16.666349557522256","500","250","pz","","","","","66","55",""
"","psychophysics","88","746564","0.0-88.0","60051d10e63710373daee6e7","6257550f9bd4b9f5a4a75b08","","","","","7242","key"," "," ","16.666552995391672","500","250","pz","","","","","46","37",""
"","psychophysics","89","751099","0.0-89.0","60051d10e63710373daee6e7","6257550f9bd4b9f5a4a75b08","","","","","4526","key"," "," ","16.66523529411771","500","250","pz","","","","","50","42",""
"","psychophysics","90","756633","0.0-90.0","60051d10e63710373daee6e7","6257550f9bd4b9f5a4a75b08","","","","","5527","key"," "," ","16.66640785498491","500","250","pz","","","","","56","46",""
"","psychophysics","91","760355","0.0-91.0","60051d10e63710373daee6e7","6257550f9bd4b9f5a4a75b08","","","","","3716","key"," "," ","16.666351351351057","500","250","pz","","","","","30","24",""
"","psychophysics","92","765628","0.0-92.0","60051d10e63710373daee6e7","6257550f9bd4b9f5a4a75b08","","","","","5258","key"," "," ","16.66849523809524","500","250","pz","","","","","51","43",""
"","psychophysics","93","769754","0.0-93.0","60051d10e63710373daee6e7","6257550f9bd4b9f5a4a75b08","","","","","4123","key"," "," ","16.666566801619403","500","250","pz","","","","","26","20",""
"","psychophysics","94","773883","0.0-94.0","60051d10e63710373daee6e7","6257550f9bd4b9f5a4a75b08","","","","","4117","key"," "," ","16.667165991902984","500","250","pz","","","","","67","58",""
"","psychophysics","95","780116","0.0-95.0","60051d10e63710373daee6e7","6257550f9bd4b9f5a4a75b08","","","","","6229","key"," "," ","16.66641018766755","500","250","pz","","","","","56","45",""
"","psychophysics","96","783064","0.0-96.0","60051d10e63710373daee6e7","6257550f9bd4b9f5a4a75b08","","","","","2930","key"," "," ","16.66628409090944","500","250","pz","","","","","34","28",""
"","psychophysics","97","786835","0.0-97.0","60051d10e63710373daee6e7","6257550f9bd4b9f5a4a75b08","","","","","3764","key"," "," ","16.666528888888553","500","250","pz","","","","","43","34",""
"","psychophysics","98","788048","0.0-98.0","60051d10e63710373daee6e7","6257550f9bd4b9f5a4a75b08","","","","","1198","key"," "," ","16.666708333333695","500","250","inst","","","","","","",""
"","psychophysics","99","804586","0.0-99.0","60051d10e63710373daee6e7","6257550f9bd4b9f5a4a75b08","","","","","16534","key"," "," ","16.6663309788092","500","250","inst","","","","","","",""
"","psychophysics","100","810664","0.0-100.0","60051d10e63710373daee6e7","6257550f9bd4b9f5a4a75b08","","","","","6047","key"," "," ","16.666478021978016","500","250","instFlank","","","","","0.5","0.3","1"
"","psychophysics","101","816584","0.0-101.0","60051d10e63710373daee6e7","6257550f9bd4b9f5a4a75b08","","","","","5914","key"," "," ","16.66630790960458","500","250","inst","","","","","","",""
"","psychophysics","102","825145","0.0-102.0","60051d10e63710373daee6e7","6257550f9bd4b9f5a4a75b08","","","","","8547","key"," "," ","16.666323586744458","500","250","instFlank","","","","","0.47","0.3","1"
"","psychophysics","103","831863","0.0-103.0","60051d10e63710373daee6e7","6257550f9bd4b9f5a4a75b08","","","","","6715","key"," "," ","16.70806749999989","500","250","inst","","","","","","",""
"","psychophysics","104","836711","0.0-104.0","60051d10e63710373daee6e7","6257550f9bd4b9f5a4a75b08","","","","","4828","key"," "," ","16.666455172413784","500","250","instFlank","","","","","0.5","0.3","0"
"","psychophysics","105","840914","0.0-105.0","60051d10e63710373daee6e7","6257550f9bd4b9f5a4a75b08","","","","","4196","key"," "," ","16.66630952380965","500","250","inst","","","","","","",""
"","psychophysics","106","846137","0.0-106.0","60051d10e63710373daee6e7","6257550f9bd4b9f5a4a75b08","","","","","5205","key"," "," ","16.666314102564147","500","250","flank","","","","","0.56","0.52","0"
"","psychophysics","107","848899","0.0-107.0","60051d10e63710373daee6e7","6257550f9bd4b9f5a4a75b08","","","","","2745","key"," "," ","16.66616363636373","500","250","flank","","","","","0.5","0.38","1"
"","psychophysics","108","854034","0.0-108.0","60051d10e63710373daee6e7","6257550f9bd4b9f5a4a75b08","","","","","5114","key"," "," ","16.66660912052147","500","250","flank","","","","","0.6500000000000001","0.6","1"
"","psychophysics","109","858949","0.0-109.0","60051d10e63710373daee6e7","6257550f9bd4b9f5a4a75b08","","","","","4900","key"," "," ","16.6664523809525","500","250","flank","","","","","0.6500000000000001","0.58","0"
"","psychophysics","110","863048","0.0-110.0","60051d10e63710373daee6e7","6257550f9bd4b9f5a4a75b08","","","","","4084","key"," "," ","16.66633061224509","500","250","flank","","","","","0.6200000000000001","0.52","0"
"","psychophysics","111","866616","0.0-111.0","60051d10e63710373daee6e7","6257550f9bd4b9f5a4a75b08","","","","","3555","key"," "," ","16.666267605633976","500","250","flank","","","","","0.53","0.46","1"
"","psychophysics","112","869916","0.0-112.0","60051d10e63710373daee6e7","6257550f9bd4b9f5a4a75b08","","","","","3287","key"," "," ","16.66689340101536","500","250","flank","","","","","0.56","0.54","0"
"","psychophysics","113","873629","0.0-113.0","60051d10e63710373daee6e7","6257550f9bd4b9f5a4a75b08","","","","","3698","key"," "," ","16.6666261261263","500","250","flank","","","","","0.6200000000000001","0.44","0"
"","psychophysics","114","877952","0.0-114.0","60051d10e63710373daee6e7","6257550f9bd4b9f5a4a75b08","","","","","4315","key"," "," ","16.66617829457391","500","250","flank","","","","","0.8000000000000003","0.74","0"
"","psychophysics","115","882636","0.0-115.0","60051d10e63710373daee6e7","6257550f9bd4b9f5a4a75b08","","","","","4669","key"," "," ","16.666521428571183","500","250","flank","","","","","0.3799999999999999","0.24","0"
"","psychophysics","116","886860","0.0-116.0","60051d10e63710373daee6e7","6257550f9bd4b9f5a4a75b08","","","","","4211","key"," "," ","16.666615079364938","500","250","flank","","","","","0.7100000000000002","0.68","1"
"","psychophysics","117","892581","0.0-117.0","60051d10e63710373daee6e7","6257550f9bd4b9f5a4a75b08","","","","","5711","key"," "," ","16.665002915451954","500","250","flank","","","","","0.56","0.44","1"
"","psychophysics","118","897027","0.0-118.0","60051d10e63710373daee6e7","6257550f9bd4b9f5a4a75b08","","","","","4433","key"," "," ","16.66662264150954","500","250","flank","","","","","0.7100000000000002","0.72","1"
"","psychophysics","119","901735","0.0-119.0","60051d10e63710373daee6e7","6257550f9bd4b9f5a4a75b08","","","","","4700","key"," "," ","16.66634751773061","500","250","flank","","","","","0.7700000000000002","0.74","0"
"","psychophysics","120","905817","0.0-120.0","60051d10e63710373daee6e7","6257550f9bd4b9f5a4a75b08","","","","","4037","key"," "," ","16.73510699588451","500","250","flank","","","","","0.7700000000000002","0.7","0"
"","psychophysics","121","908813","0.0-121.0","60051d10e63710373daee6e7","6257550f9bd4b9f5a4a75b08","","","","","2982","key"," "," ","16.666245810055386","500","250","flank","","","","","0.5","0.48","0"
"","psychophysics","122","911239","0.0-122.0","60051d10e63710373daee6e7","6257550f9bd4b9f5a4a75b08","","","","","2405","key"," "," ","16.66290972222244","500","250","flank","","","","","0.5","0.36","1"
"","psychophysics","123","916012","0.0-123.0","60051d10e63710373daee6e7","6257550f9bd4b9f5a4a75b08","","","","","4761","key"," "," ","16.666611888111728","500","250","flank","","","","","0.8000000000000003","0.76","0"
"","psychophysics","124","919094","0.0-124.0","60051d10e63710373daee6e7","6257550f9bd4b9f5a4a75b08","","","","","3075","key"," "," ","16.666461956521506","500","250","flank","","","","","0.43999999999999995","0.36","0"
"","psychophysics","125","921813","0.0-125.0","60051d10e63710373daee6e7","6257550f9bd4b9f5a4a75b08","","","","","2674","key"," "," ","16.66628395061779","500","250","flank","","","","","0.47","0.38","1"
"","psychophysics","126","925775","0.0-126.0","60051d10e63710373daee6e7","6257550f9bd4b9f5a4a75b08","","","","","3947","key"," "," ","16.666423728813367","500","250","flank","","","","","0.6500000000000001","0.68","0"
"","psychophysics","127","929513","0.0-127.0","60051d10e63710373daee6e7","6257550f9bd4b9f5a4a75b08","","","","","3724","key"," "," ","16.66441517857103","500","250","flank","","","","","0.3799999999999999","0.36","1"
"","psychophysics","128","934045","0.0-128.0","60051d10e63710373daee6e7","6257550f9bd4b9f5a4a75b08","","","","","4516","key"," "," ","16.666284132841632","500","250","flank","","","","","0.7400000000000002","0.72","1"
"","psychophysics","129","938527","0.0-129.0","60051d10e63710373daee6e7","6257550f9bd4b9f5a4a75b08","","","","","4466","key"," "," ","16.666426966292086","500","250","flank","","","","","0.2599999999999998","0.22","0"
"","psychophysics","130","941206","0.0-130.0","60051d10e63710373daee6e7","6257550f9bd4b9f5a4a75b08","","","","","2664","key"," "," ","16.66596875000032","500","250","flank","","","","","0.5","0.3","0"
"","psychophysics","131","945777","0.0-131.0","60051d10e63710373daee6e7","6257550f9bd4b9f5a4a75b08","","","","","4563","key"," "," ","16.666624087591345","500","250","flank","","","","","0.4099999999999999","0.28","0"
"","psychophysics","132","948829","0.0-132.0","60051d10e63710373daee6e7","6257550f9bd4b9f5a4a75b08","","","","","3033","key"," "," ","16.66632417582454","500","250","flank","","","","","0.53","0.54","1"
"","psychophysics","133","951758","0.0-133.0","60051d10e63710373daee6e7","6257550f9bd4b9f5a4a75b08","","","","","2919","key"," "," ","16.66604597701212","500","250","flank","","","","","0.56","0.54","1"
"","psychophysics","134","954293","0.0-134.0","60051d10e63710373daee6e7","6257550f9bd4b9f5a4a75b08","","","","","2530","key"," "," ","16.666723684210172","500","250","flank","","","","","0.5","0.34","0"
"","psychophysics","135","956526","0.0-135.0","60051d10e63710373daee6e7","6257550f9bd4b9f5a4a75b08","","","","","2225","key"," "," ","16.66581818181845","500","250","flank","","","","","0.5","0.3","0"
"true","fullscreen","136","956530","0.0-136.0","60051d10e63710373daee6e7","6257550f9bd4b9f5a4a75b08","","","","","","","","","","","","","","","","","","",""
