"success","trial_type","trial_index","time_elapsed","internal_node_id","pid","sid","timeout","failed_images","failed_audio","failed_video","rt","response_type","key_press","response","avg_frame_time","center_x","center_y","task","ml_len","ml_start","ml_x","ml_y","resp","targ","back"
"true","fullscreen","0","35036","0.0-0.0","5ff37fcafef4d1958f4ac4a3","62575488a0273bb69b0a88b9","","","","","","","","","","","","","","","","","","",""
"true","preload","1","35038","0.0-1.0","5ff37fcafef4d1958f4ac4a3","62575488a0273bb69b0a88b9","false","[]","[]","[]","","","","","","","","","","","","","","",""
"","psychophysics","2","38334","0.0-2.0","5ff37fcafef4d1958f4ac4a3","62575488a0273bb69b0a88b9","","","","","3286","key"," "," ","16.74612244897958","500","250","inst","","","","","","",""
"","psychophysics","3","40127","0.0-3.0","5ff37fcafef4d1958f4ac4a3","62575488a0273bb69b0a88b9","","","","","1790","key"," "," ","16.666542056074764","500","250","inst","","","","","","",""
"","psychophysics","4","48819","0.0-4.0","5ff37fcafef4d1958f4ac4a3","62575488a0273bb69b0a88b9","","","","","8687","key"," "," ","16.666653846153853","500","250","instMl","228","-38","12","29","-30","",""
"","psychophysics","5","54252","0.0-5.0","5ff37fcafef4d1958f4ac4a3","62575488a0273bb69b0a88b9","","","","","5425","key"," "," ","16.666707692307693","500","250","instMl","170","-28.333333333333332","1","3","-22.333333333333314","",""
"","psychophysics","6","56743","0.0-6.0","5ff37fcafef4d1958f4ac4a3","62575488a0273bb69b0a88b9","","","","","2485","key"," "," ","16.66671140939595","500","250","inst","","","","","","",""
"","psychophysics","7","60260","0.0-7.0","5ff37fcafef4d1958f4ac4a3","62575488a0273bb69b0a88b9","","","","","3514","key"," "," ","16.666666666666668","500","250","ml","222","-27","30","-6","-23","",""
"","psychophysics","8","64335","0.0-8.0","5ff37fcafef4d1958f4ac4a3","62575488a0273bb69b0a88b9","","","","","4071","key"," "," ","16.666666666666668","500","250","ml","230","-35","19","-9","-21","",""
"","psychophysics","9","67293","0.0-9.0","5ff37fcafef4d1958f4ac4a3","62575488a0273bb69b0a88b9","","","","","2950","key"," "," ","16.666666666666668","500","250","ml","180","0","19","18","-17","",""
"","psychophysics","10","73537","0.0-10.0","5ff37fcafef4d1958f4ac4a3","62575488a0273bb69b0a88b9","","","","","6238","key"," "," ","16.66664879356569","500","250","ml","246","18","3","3","-25","",""
"","psychophysics","11","77952","0.0-11.0","5ff37fcafef4d1958f4ac4a3","62575488a0273bb69b0a88b9","","","","","4409","key"," "," ","16.666666666666668","500","250","ml","238","9","-17","27","-24","",""
"","psychophysics","12","84394","0.0-12.0","5ff37fcafef4d1958f4ac4a3","62575488a0273bb69b0a88b9","","","","","6439","key"," "," ","16.666683937823827","500","250","ml","198","41","-2","-13","-15","",""
"","psychophysics","13","90774","0.0-13.0","5ff37fcafef4d1958f4ac4a3","62575488a0273bb69b0a88b9","","","","","6375","key"," "," ","16.666649214659696","500","250","ml","200","47","-30","13","-15","",""
"","psychophysics","14","93326","0.0-14.0","5ff37fcafef4d1958f4ac4a3","62575488a0273bb69b0a88b9","","","","","2549","key"," "," ","16.666578947368468","500","250","ml","172","-29","-16","23","-21","",""
"","psychophysics","15","94583","0.0-15.0","5ff37fcafef4d1958f4ac4a3","62575488a0273bb69b0a88b9","","","","","1253","key"," "," ","16.66648648648658","500","250","ml","180","-18","27","7","-19","",""
"","psychophysics","16","99088","0.0-16.0","5ff37fcafef4d1958f4ac4a3","62575488a0273bb69b0a88b9","","","","","4496","key"," "," ","16.66750929368029","500","250","ml","206","20","20","-2","-21","",""
"","psychophysics","17","101294","0.0-17.0","5ff37fcafef4d1958f4ac4a3","62575488a0273bb69b0a88b9","","","","","2200","key"," "," ","16.666666666666668","500","250","ml","242","-28","-16","-28","-19","",""
"","psychophysics","18","105807","0.0-18.0","5ff37fcafef4d1958f4ac4a3","62575488a0273bb69b0a88b9","","","","","4510","key"," "," ","16.666666666666668","500","250","ml","218","17","21","-22","-24","",""
"","psychophysics","19","109460","0.0-19.0","5ff37fcafef4d1958f4ac4a3","62575488a0273bb69b0a88b9","","","","","3649","key"," "," ","16.666697247706406","500","250","ml","160","-8","-21","-9","-18","",""
"","psychophysics","20","113396","0.0-20.0","5ff37fcafef4d1958f4ac4a3","62575488a0273bb69b0a88b9","","","","","3932","key"," "," ","16.66672340425529","500","250","ml","250","2","-30","14","-19","",""
"","psychophysics","21","116015","0.0-21.0","5ff37fcafef4d1958f4ac4a3","62575488a0273bb69b0a88b9","","","","","2616","key"," "," ","16.666666666666668","500","250","ml","178","-5","27","25","-16","",""
"","psychophysics","22","117268","0.0-22.0","5ff37fcafef4d1958f4ac4a3","62575488a0273bb69b0a88b9","","","","","1248","key"," "," ","16.66675675675671","500","250","inst","","","","","","",""
"","psychophysics","23","126924","0.0-23.0","5ff37fcafef4d1958f4ac4a3","62575488a0273bb69b0a88b9","","","","","9651","key"," "," ","16.666666666666643","500","250","instPog","","","","","130","130",""
"","psychophysics","24","137010","0.0-24.0","5ff37fcafef4d1958f4ac4a3","62575488a0273bb69b0a88b9","","","","","10084","key"," "," ","16.66665562913903","500","250","instPog","","","","","137","130",""
"","psychophysics","25","142360","0.0-25.0","5ff37fcafef4d1958f4ac4a3","62575488a0273bb69b0a88b9","","","","","5345","key"," "," ","16.666687499999988","500","250","instPog","","","","","161","130",""
"","psychophysics","26","143483","0.0-26.0","5ff37fcafef4d1958f4ac4a3","62575488a0273bb69b0a88b9","","","","","1119","key"," "," ","16.666666666666668","500","250","inst","","","","","","",""
"","psychophysics","27","148394","0.0-27.0","5ff37fcafef4d1958f4ac4a3","62575488a0273bb69b0a88b9","","","","","4907","key"," "," ","16.666666666666668","500","250","pog","","","","","185","152",""
"","psychophysics","28","150893","0.0-28.0","5ff37fcafef4d1958f4ac4a3","62575488a0273bb69b0a88b9","","","","","2494","key"," "," ","16.666711409396147","500","250","pog","","","","","158","125",""
"","psychophysics","29","160179","0.0-29.0","5ff37fcafef4d1958f4ac4a3","62575488a0273bb69b0a88b9","","","","","9283","key"," "," ","16.666654676259","500","250","pog","","","","","232","190",""
"","psychophysics","30","164795","0.0-30.0","5ff37fcafef4d1958f4ac4a3","62575488a0273bb69b0a88b9","","","","","4611","key"," "," ","16.666666666666668","500","250","pog","","","","","172","141",""
"","psychophysics","31","167493","0.0-31.0","5ff37fcafef4d1958f4ac4a3","62575488a0273bb69b0a88b9","","","","","2694","key"," "," ","16.66670807453432","500","250","pog","","","","","158","124",""
"","psychophysics","32","174982","0.0-32.0","5ff37fcafef4d1958f4ac4a3","62575488a0273bb69b0a88b9","","","","","7484","key"," "," ","16.666651785714294","500","250","pog","","","","","205","178",""
"","psychophysics","33","179726","0.0-33.0","5ff37fcafef4d1958f4ac4a3","62575488a0273bb69b0a88b9","","","","","4738","key"," "," ","16.66725352112676","500","250","pog","","","","","187","166",""
"","psychophysics","34","182676","0.0-34.0","5ff37fcafef4d1958f4ac4a3","62575488a0273bb69b0a88b9","","","","","2947","key"," "," ","16.666590909090782","500","250","pog","","","","","155","131",""
"","psychophysics","35","184048","0.0-35.0","5ff37fcafef4d1958f4ac4a3","62575488a0273bb69b0a88b9","","","","","1368","key"," "," ","16.666666666666668","500","250","pog","","","","","160","135",""
"","psychophysics","36","186761","0.0-36.0","5ff37fcafef4d1958f4ac4a3","62575488a0273bb69b0a88b9","","","","","2707","key"," "," ","16.666666666666668","500","250","pog","","","","","167","140",""
"","psychophysics","37","189659","0.0-37.0","5ff37fcafef4d1958f4ac4a3","62575488a0273bb69b0a88b9","","","","","2893","key"," "," ","16.66670520231212","500","250","pog","","","","","174","148",""
"","psychophysics","38","196803","0.0-38.0","5ff37fcafef4d1958f4ac4a3","62575488a0273bb69b0a88b9","","","","","7138","key"," "," ","16.666276346604217","500","250","pog","","","","","206","171",""
"","psychophysics","39","200517","0.0-39.0","5ff37fcafef4d1958f4ac4a3","62575488a0273bb69b0a88b9","","","","","3708","key"," "," ","16.666666666666668","500","250","pog","","","","","185","156",""
"","psychophysics","40","203526","0.0-40.0","5ff37fcafef4d1958f4ac4a3","62575488a0273bb69b0a88b9","","","","","3002","key"," "," ","16.666666666666668","500","250","pog","","","","","155","125",""
"","psychophysics","41","210260","0.0-41.0","5ff37fcafef4d1958f4ac4a3","62575488a0273bb69b0a88b9","","","","","6731","key"," "," ","16.66610421836229","500","250","pog","","","","","202","173",""
"","psychophysics","42","210926","0.0-42.0","5ff37fcafef4d1958f4ac4a3","62575488a0273bb69b0a88b9","","","","","663","key"," "," ","16.666666666666668","500","250","inst","","","","","","",""
"","psychophysics","43","211432","0.0-43.0","5ff37fcafef4d1958f4ac4a3","62575488a0273bb69b0a88b9","","","","","503","key"," "," ","16.66620689655096","500","250","instTilt","","","","","NaN","0","0"
"","psychophysics","44","227225","0.0-44.0","5ff37fcafef4d1958f4ac4a3","62575488a0273bb69b0a88b9","","","","","15791","key"," "," ","16.666652587117188","500","250","instTilt","","","","","-24","0","0"
"","psychophysics","45","237976","0.0-45.0","5ff37fcafef4d1958f4ac4a3","62575488a0273bb69b0a88b9","","","","","10748","key"," "," ","16.666645962732886","500","250","instTilt","","","","","1","0","0"
"","psychophysics","46","239707","0.0-46.0","5ff37fcafef4d1958f4ac4a3","62575488a0273bb69b0a88b9","","","","","1729","key"," "," ","16.666601941747324","500","250","inst","","","","","","",""
"","psychophysics","47","244776","0.0-47.0","5ff37fcafef4d1958f4ac4a3","62575488a0273bb69b0a88b9","","","","","5066","key"," "," ","16.666666666666668","500","250","tilt","","","","","-5","-5","0"
"","psychophysics","48","247666","0.0-48.0","5ff37fcafef4d1958f4ac4a3","62575488a0273bb69b0a88b9","","","","","2886","key"," "," ","16.666627906976597","500","250","tilt","","","","","-6","-5","0"
"","psychophysics","49","253188","0.0-49.0","5ff37fcafef4d1958f4ac4a3","62575488a0273bb69b0a88b9","","","","","5520","key"," "," ","16.66670694864055","500","250","tilt","","","","","5","6","1"
"","psychophysics","50","258750","0.0-50.0","5ff37fcafef4d1958f4ac4a3","62575488a0273bb69b0a88b9","","","","","5558","key"," "," ","16.666686746988027","500","250","tilt","","","","","-8","-4","1"
"","psychophysics","51","264075","0.0-51.0","5ff37fcafef4d1958f4ac4a3","62575488a0273bb69b0a88b9","","","","","5322","key"," "," ","16.66664576802518","500","250","tilt","","","","","11","6","0"
"","psychophysics","52","269548","0.0-52.0","5ff37fcafef4d1958f4ac4a3","62575488a0273bb69b0a88b9","","","","","5468","key"," "," ","16.666666666666668","500","250","tilt","","","","","-8","-10","0"
"","psychophysics","53","273774","0.0-53.0","5ff37fcafef4d1958f4ac4a3","62575488a0273bb69b0a88b9","","","","","4223","key"," "," ","16.66664031620566","500","250","tilt","","","","","-4","-3","0"
"","psychophysics","54","278293","0.0-54.0","5ff37fcafef4d1958f4ac4a3","62575488a0273bb69b0a88b9","","","","","4515","key"," "," ","16.666666666666668","500","250","tilt","","","","","2","1","1"
"","psychophysics","55","282394","0.0-55.0","5ff37fcafef4d1958f4ac4a3","62575488a0273bb69b0a88b9","","","","","4097","key"," "," ","16.666693877551126","500","250","tilt","","","","","-17","-9","1"
"","psychophysics","56","285782","0.0-56.0","5ff37fcafef4d1958f4ac4a3","62575488a0273bb69b0a88b9","","","","","3385","key"," "," ","16.666633663366497","500","250","tilt","","","","","7","4","1"
"","psychophysics","57","291219","0.0-57.0","5ff37fcafef4d1958f4ac4a3","62575488a0273bb69b0a88b9","","","","","5433","key"," "," ","16.666646153846074","500","250","tilt","","","","","5","-1","0"
"","psychophysics","58","295259","0.0-58.0","5ff37fcafef4d1958f4ac4a3","62575488a0273bb69b0a88b9","","","","","4036","key"," "," ","16.6666942148759","500","250","tilt","","","","","-8","-5","1"
"","psychophysics","59","300011","0.0-59.0","5ff37fcafef4d1958f4ac4a3","62575488a0273bb69b0a88b9","","","","","4748","key"," "," ","16.66380281690127","500","250","tilt","","","","","-8","0","1"
"","psychophysics","60","303607","0.0-60.0","5ff37fcafef4d1958f4ac4a3","62575488a0273bb69b0a88b9","","","","","3595","key"," "," ","16.666697674418455","500","250","tilt","","","","","-2","-2","0"
"","psychophysics","61","307126","0.0-61.0","5ff37fcafef4d1958f4ac4a3","62575488a0273bb69b0a88b9","","","","","3517","key"," "," ","16.666666666666668","500","250","tilt","","","","","-6","-1","1"
"","psychophysics","62","309297","0.0-62.0","5ff37fcafef4d1958f4ac4a3","62575488a0273bb69b0a88b9","","","","","2167","key"," "," ","16.66806201550382","500","250","tilt","","","","","5","-1","0"
"","psychophysics","63","312642","0.0-63.0","5ff37fcafef4d1958f4ac4a3","62575488a0273bb69b0a88b9","","","","","3340","key"," "," ","16.666700000000127","500","250","tilt","","","","","3","3","1"
"","psychophysics","64","314058","0.0-64.0","5ff37fcafef4d1958f4ac4a3","62575488a0273bb69b0a88b9","","","","","1414","key"," "," ","16.66476190476221","500","250","tilt","","","","","-4","-5","0"
"","psychophysics","65","317002","0.0-65.0","5ff37fcafef4d1958f4ac4a3","62575488a0273bb69b0a88b9","","","","","2941","key"," "," ","16.66674285714282","500","250","tilt","","","","","-11","-7","1"
"","psychophysics","66","320076","0.0-66.0","5ff37fcafef4d1958f4ac4a3","62575488a0273bb69b0a88b9","","","","","3064","key"," "," ","16.666630434782785","500","250","tilt","","","","","7","4","1"
"","psychophysics","67","321641","0.0-67.0","5ff37fcafef4d1958f4ac4a3","62575488a0273bb69b0a88b9","","","","","1561","key"," "," ","16.666666666666668","500","250","tilt","","","","","0","3","1"
"","psychophysics","68","330443","0.0-68.0","5ff37fcafef4d1958f4ac4a3","62575488a0273bb69b0a88b9","","","","","8801","key"," "," ","16.666679316888093","500","250","tilt","","","","","14","10","0"
"","psychophysics","69","337967","0.0-69.0","5ff37fcafef4d1958f4ac4a3","62575488a0273bb69b0a88b9","","","","","7526","key"," "," ","16.666651884700737","500","250","tilt","","","","","10","9","1"
"","psychophysics","70","347098","0.0-70.0","5ff37fcafef4d1958f4ac4a3","62575488a0273bb69b0a88b9","","","","","9131","key"," "," ","16.66775137111519","500","250","tilt","","","","","-6","-3","0"
"","psychophysics","71","354611","0.0-71.0","5ff37fcafef4d1958f4ac4a3","62575488a0273bb69b0a88b9","","","","","7510","key"," "," ","16.666666666666668","500","250","tilt","","","","","-11","-9","0"
"","psychophysics","72","356709","0.0-72.0","5ff37fcafef4d1958f4ac4a3","62575488a0273bb69b0a88b9","","","","","2096","key"," "," ","16.666560000000057","500","250","tilt","","","","","9","0","0"
"","psychophysics","73","359632","0.0-73.0","5ff37fcafef4d1958f4ac4a3","62575488a0273bb69b0a88b9","","","","","2919","key"," "," ","16.666666666666668","500","250","tilt","","","","","8","4","0"
"","psychophysics","74","361617","0.0-74.0","5ff37fcafef4d1958f4ac4a3","62575488a0273bb69b0a88b9","","","","","1977","key"," "," ","16.6666101694918","500","250","tilt","","","","","-10","-9","0"
"","psychophysics","75","365460","0.0-75.0","5ff37fcafef4d1958f4ac4a3","62575488a0273bb69b0a88b9","","","","","3835","key"," "," ","16.666608695652204","500","250","tilt","","","","","-5","-3","0"
"","psychophysics","76","369209","0.0-76.0","5ff37fcafef4d1958f4ac4a3","62575488a0273bb69b0a88b9","","","","","3747","key"," "," ","16.666607142857174","500","250","tilt","","","","","11","9","0"
"","psychophysics","77","370260","0.0-77.0","5ff37fcafef4d1958f4ac4a3","62575488a0273bb69b0a88b9","","","","","1046","key"," "," ","16.666451612903337","500","250","inst","","","","","","",""
"","psychophysics","78","372519","0.0-78.0","5ff37fcafef4d1958f4ac4a3","62575488a0273bb69b0a88b9","","","","","2254","key"," "," ","16.666119402985146","500","250","instPz","","","","","50","50",""
"","psychophysics","79","379941","0.0-79.0","5ff37fcafef4d1958f4ac4a3","62575488a0273bb69b0a88b9","","","","","7417","key"," "," ","16.6666516853932","500","250","instPz","","","","","42","50",""
"","psychophysics","80","385442","0.0-80.0","5ff37fcafef4d1958f4ac4a3","62575488a0273bb69b0a88b9","","","","","5498","key"," "," ","16.666686930091085","500","250","instPz","","","","","25","30",""
"","psychophysics","81","396161","0.0-81.0","5ff37fcafef4d1958f4ac4a3","62575488a0273bb69b0a88b9","","","","","10715","key"," "," ","16.666666666666668","500","250","instPz","","","","","40","40",""
"","psychophysics","82","397473","0.0-82.0","5ff37fcafef4d1958f4ac4a3","62575488a0273bb69b0a88b9","","","","","1310","key"," "," ","16.67076923076932","500","250","inst","","","","","","",""
"","psychophysics","83","401378","0.0-83.0","5ff37fcafef4d1958f4ac4a3","62575488a0273bb69b0a88b9","","","","","3902","key"," "," ","16.666695278970067","500","250","pz","","","","","28","25",""
"","psychophysics","84","404295","0.0-84.0","5ff37fcafef4d1958f4ac4a3","62575488a0273bb69b0a88b9","","","","","2915","key"," "," ","16.666666666666668","500","250","pz","","","","","34","33",""
"","psychophysics","85","410224","0.0-85.0","5ff37fcafef4d1958f4ac4a3","62575488a0273bb69b0a88b9","","","","","5927","key"," "," ","16.666704225352092","500","250","pz","","","","","53","50",""
"","psychophysics","86","415392","0.0-86.0","5ff37fcafef4d1958f4ac4a3","62575488a0273bb69b0a88b9","","","","","5164","key"," "," ","16.666666666666668","500","250","pz","","","","","53","44",""
"","psychophysics","87","421027","0.0-87.0","5ff37fcafef4d1958f4ac4a3","62575488a0273bb69b0a88b9","","","","","5632","key"," "," ","16.666706231453986","500","250","pz","","","","","51","42",""
"","psychophysics","88","426941","0.0-88.0","5ff37fcafef4d1958f4ac4a3","62575488a0273bb69b0a88b9","","","","","5912","key"," "," ","16.666666666666668","500","250","pz","","","","","64","49",""
"","psychophysics","89","432345","0.0-89.0","5ff37fcafef4d1958f4ac4a3","62575488a0273bb69b0a88b9","","","","","5401","key"," "," ","16.666687306501448","500","250","pz","","","","","51","38",""
"","psychophysics","90","437679","0.0-90.0","5ff37fcafef4d1958f4ac4a3","62575488a0273bb69b0a88b9","","","","","5331","key"," "," ","16.66670846394982","500","250","pz","","","","","54","45",""
"","psychophysics","91","444094","0.0-91.0","5ff37fcafef4d1958f4ac4a3","62575488a0273bb69b0a88b9","","","","","6412","key"," "," ","16.666666666666668","500","250","pz","","","","","66","50",""
"","psychophysics","92","448590","0.0-92.0","5ff37fcafef4d1958f4ac4a3","62575488a0273bb69b0a88b9","","","","","4492","key"," "," ","16.666691449814007","500","250","pz","","","","","41","29",""
"","psychophysics","93","454164","0.0-93.0","5ff37fcafef4d1958f4ac4a3","62575488a0273bb69b0a88b9","","","","","5573","key"," "," ","16.666666666666668","500","250","pz","","","","","64","47",""
"","psychophysics","94","457440","0.0-94.0","5ff37fcafef4d1958f4ac4a3","62575488a0273bb69b0a88b9","","","","","3266","key"," "," ","16.666632653061093","500","250","pz","","","","","39","26",""
"","psychophysics","95","460031","0.0-95.0","5ff37fcafef4d1958f4ac4a3","62575488a0273bb69b0a88b9","","","","","2589","key"," "," ","16.666753246753203","500","250","pz","","","","","36","27",""
"","psychophysics","96","465998","0.0-96.0","5ff37fcafef4d1958f4ac4a3","62575488a0273bb69b0a88b9","","","","","5958","key"," "," ","16.666666666666668","500","250","pz","","","","","68","50",""
"","psychophysics","97","470723","0.0-97.0","5ff37fcafef4d1958f4ac4a3","62575488a0273bb69b0a88b9","","","","","4717","key"," "," ","16.666713780918702","500","250","pz","","","","","51","41",""
"","psychophysics","98","471666","0.0-98.0","5ff37fcafef4d1958f4ac4a3","62575488a0273bb69b0a88b9","","","","","938","key"," "," ","16.666545454546046","500","250","inst","","","","","","",""
"","psychophysics","99","474041","0.0-99.0","5ff37fcafef4d1958f4ac4a3","62575488a0273bb69b0a88b9","","","","","2368","key"," "," ","16.66661971830968","500","250","inst","","","","","","",""
"","psychophysics","100","477675","0.0-100.0","5ff37fcafef4d1958f4ac4a3","62575488a0273bb69b0a88b9","","","","","3630","key"," "," ","16.666728110599045","500","250","instFlank","","","","","0.5","0.3","1"
"","psychophysics","101","482285","0.0-101.0","5ff37fcafef4d1958f4ac4a3","62575488a0273bb69b0a88b9","","","","","4606","key"," "," ","16.666666666666668","500","250","inst","","","","","","",""
"","psychophysics","102","484986","0.0-102.0","5ff37fcafef4d1958f4ac4a3","62575488a0273bb69b0a88b9","","","","","2697","key"," "," ","16.666708074533958","500","250","instFlank","","","","","0.47","0.3","1"
"","psychophysics","103","487406","0.0-103.0","5ff37fcafef4d1958f4ac4a3","62575488a0273bb69b0a88b9","","","","","2416","key"," "," ","16.666666666666668","500","250","inst","","","","","","",""
"","psychophysics","104","491858","0.0-104.0","5ff37fcafef4d1958f4ac4a3","62575488a0273bb69b0a88b9","","","","","4445","key"," "," ","16.66909774436105","500","250","instFlank","","","","","0.5","0.3","0"
"","psychophysics","105","493741","0.0-105.0","5ff37fcafef4d1958f4ac4a3","62575488a0273bb69b0a88b9","","","","","1880","key"," "," ","16.666607142856915","500","250","inst","","","","","","",""
"","psychophysics","106","497058","0.0-106.0","5ff37fcafef4d1958f4ac4a3","62575488a0273bb69b0a88b9","","","","","3312","key"," "," ","16.666666666666668","500","250","flank","","","","","0.53","0.28","1"
"","psychophysics","107","503030","0.0-107.0","5ff37fcafef4d1958f4ac4a3","62575488a0273bb69b0a88b9","","","","","5965","key"," "," ","16.666666666666668","500","250","flank","","","","","0.6800000000000002","0.7","1"
"","psychophysics","108","506202","0.0-108.0","5ff37fcafef4d1958f4ac4a3","62575488a0273bb69b0a88b9","","","","","3166","key"," "," ","16.66494736842119","500","250","flank","","","","","0.7700000000000002","0.72","0"
"","psychophysics","109","508750","0.0-109.0","5ff37fcafef4d1958f4ac4a3","62575488a0273bb69b0a88b9","","","","","2543","key"," "," ","16.664868421052617","500","250","flank","","","","","0.43999999999999995","0.42","0"
"","psychophysics","110","511882","0.0-110.0","5ff37fcafef4d1958f4ac4a3","62575488a0273bb69b0a88b9","","","","","3125","key"," "," ","16.666666666666668","500","250","flank","","","","","0.31999999999999984","0.22","1"
"","psychophysics","111","514899","0.0-111.0","5ff37fcafef4d1958f4ac4a3","62575488a0273bb69b0a88b9","","","","","3010","key"," "," ","16.666629834254323","500","250","flank","","","","","0.43999999999999995","0.26","0"
"","psychophysics","112","517641","0.0-112.0","5ff37fcafef4d1958f4ac4a3","62575488a0273bb69b0a88b9","","","","","2735","key"," "," ","16.666625766871007","500","250","flank","","","","","0.6200000000000001","0.52","1"
"","psychophysics","113","521157","0.0-113.0","5ff37fcafef4d1958f4ac4a3","62575488a0273bb69b0a88b9","","","","","3510","key"," "," ","16.666666666666668","500","250","flank","","","","","0.7400000000000002","0.62","1"
"","psychophysics","114","523458","0.0-114.0","5ff37fcafef4d1958f4ac4a3","62575488a0273bb69b0a88b9","","","","","2296","key"," "," ","16.66656934306617","500","250","flank","","","","","0.5","0.54","1"
"","psychophysics","115","526226","0.0-115.0","5ff37fcafef4d1958f4ac4a3","62575488a0273bb69b0a88b9","","","","","2762","key"," "," ","16.666666666666668","500","250","flank","","","","","0.6200000000000001","0.36","0"
"","psychophysics","116","529651","0.0-116.0","5ff37fcafef4d1958f4ac4a3","62575488a0273bb69b0a88b9","","","","","3421","key"," "," ","16.66663414634162","500","250","flank","","","","","0.6800000000000002","0.6","1"
"","psychophysics","117","532825","0.0-117.0","5ff37fcafef4d1958f4ac4a3","62575488a0273bb69b0a88b9","","","","","3171","key"," "," ","16.666666666666668","500","250","flank","","","","","0.6500000000000001","0.36","0"
"","psychophysics","118","536470","0.0-118.0","5ff37fcafef4d1958f4ac4a3","62575488a0273bb69b0a88b9","","","","","3639","key"," "," ","16.666697247706274","500","250","flank","","","","","0.8300000000000003","0.8","1"
"","psychophysics","119","539817","0.0-119.0","5ff37fcafef4d1958f4ac4a3","62575488a0273bb69b0a88b9","","","","","3345","key"," "," ","16.668241206030057","500","250","flank","","","","","0.7100000000000002","0.64","0"
"","psychophysics","120","542688","0.0-120.0","5ff37fcafef4d1958f4ac4a3","62575488a0273bb69b0a88b9","","","","","2865","key"," "," ","16.666627906976935","500","250","flank","","","","","0.31999999999999984","0.24","1"
"","psychophysics","121","545748","0.0-121.0","5ff37fcafef4d1958f4ac4a3","62575488a0273bb69b0a88b9","","","","","3056","key"," "," ","16.66670329670312","500","250","flank","","","","","0.6500000000000001","0.54","1"
"","psychophysics","122","549407","0.0-122.0","5ff37fcafef4d1958f4ac4a3","62575488a0273bb69b0a88b9","","","","","3652","key"," "," ","16.666666666666668","500","250","flank","","","","","0.7700000000000002","0.7","0"
"","psychophysics","123","553338","0.0-123.0","5ff37fcafef4d1958f4ac4a3","62575488a0273bb69b0a88b9","","","","","3927","key"," "," ","16.666638297872478","500","250","flank","","","","","0.6500000000000001","0.48","0"
"","psychophysics","124","556516","0.0-124.0","5ff37fcafef4d1958f4ac4a3","62575488a0273bb69b0a88b9","","","","","3174","key"," "," ","16.66673684210492","500","250","flank","","","","","0.6200000000000001","0.48","1"
"","psychophysics","125","559273","0.0-125.0","5ff37fcafef4d1958f4ac4a3","62575488a0273bb69b0a88b9","","","","","2754","key"," "," ","16.666707317072973","500","250","flank","","","","","0.3799999999999999","0.22","0"
"","psychophysics","126","562963","0.0-126.0","5ff37fcafef4d1958f4ac4a3","62575488a0273bb69b0a88b9","","","","","3686","key"," "," ","16.666636363636513","500","250","flank","","","","","0.7400000000000002","0.66","1"
"","psychophysics","127","566418","0.0-127.0","5ff37fcafef4d1958f4ac4a3","62575488a0273bb69b0a88b9","","","","","3450","key"," "," ","16.666666666666668","500","250","flank","","","","","0.7700000000000002","0.68","1"
"","psychophysics","128","570224","0.0-128.0","5ff37fcafef4d1958f4ac4a3","62575488a0273bb69b0a88b9","","","","","3801","key"," "," ","16.666696035242147","500","250","flank","","","","","0.8300000000000003","0.76","0"
"","psychophysics","129","573250","0.0-129.0","5ff37fcafef4d1958f4ac4a3","62575488a0273bb69b0a88b9","","","","","3023","key"," "," ","16.666629834254323","500","250","flank","","","","","0.6800000000000002","0.5","0"
"","psychophysics","130","576738","0.0-130.0","5ff37fcafef4d1958f4ac4a3","62575488a0273bb69b0a88b9","","","","","3485","key"," "," ","16.666634615384773","500","250","flank","","","","","0.8000000000000003","0.62","1"
"","psychophysics","131","579681","0.0-131.0","5ff37fcafef4d1958f4ac4a3","62575488a0273bb69b0a88b9","","","","","2939","key"," "," ","16.666742857142484","500","250","flank","","","","","0.3799999999999999","0.4","1"
"","psychophysics","132","582824","0.0-132.0","5ff37fcafef4d1958f4ac4a3","62575488a0273bb69b0a88b9","","","","","3137","key"," "," ","16.666702127659402","500","250","flank","","","","","0.8000000000000003","0.78","1"
"","psychophysics","133","586292","0.0-133.0","5ff37fcafef4d1958f4ac4a3","62575488a0273bb69b0a88b9","","","","","3464","key"," "," ","16.666666666666668","500","250","flank","","","","","0.7400000000000002","0.6","0"
"","psychophysics","134","589050","0.0-134.0","5ff37fcafef4d1958f4ac4a3","62575488a0273bb69b0a88b9","","","","","2750","key"," "," ","16.661575757575957","500","250","flank","","","","","0.5900000000000001","0.34","0"
"","psychophysics","135","591949","0.0-135.0","5ff37fcafef4d1958f4ac4a3","62575488a0273bb69b0a88b9","","","","","2893","key"," "," ","16.764912280701346","500","250","flank","","","","","0.6200000000000001","0.46","0"
"true","fullscreen","136","591952","0.0-136.0","5ff37fcafef4d1958f4ac4a3","62575488a0273bb69b0a88b9","","","","","","","","","","","","","","","","","","",""
