"success","trial_type","trial_index","time_elapsed","internal_node_id","pid","sid","timeout","failed_images","failed_audio","failed_video","rt","response_type","key_press","response","avg_frame_time","center_x","center_y","task","ml_len","ml_start","ml_x","ml_y","resp","targ","back"
"true","fullscreen","0","4092","0.0-0.0","5d67d4393fcbbc0019f3e1a4","62574c292c6ed3496afcb9b6","","","","","","","","","","","","","","","","","","",""
"true","preload","1","4099","0.0-1.0","5d67d4393fcbbc0019f3e1a4","62574c292c6ed3496afcb9b6","false","[]","[]","[]","","","","","","","","","","","","","","",""
"","psychophysics","2","8928","0.0-2.0","5d67d4393fcbbc0019f3e1a4","62574c292c6ed3496afcb9b6","","","","","4807","key"," "," ","16.710570934256058","500","250","inst","","","","","","",""
"","psychophysics","3","17125","0.0-3.0","5d67d4393fcbbc0019f3e1a4","62574c292c6ed3496afcb9b6","","","","","8188","key"," "," ","16.664511201629328","500","250","inst","","","","","","",""
"","psychophysics","4","44037","0.0-4.0","5d67d4393fcbbc0019f3e1a4","62574c292c6ed3496afcb9b6","","","","","26873","key"," "," ","16.66560904584882","500","250","instMl","246","-41","23","26","-41","",""
"","psychophysics","5","53116","0.0-5.0","5d67d4393fcbbc0019f3e1a4","62574c292c6ed3496afcb9b6","","","","","9073","key"," "," ","16.66577573529412","500","250","instMl","164","-27.333333333333332","-29","-29","-27.333333333333314","",""
"","psychophysics","6","164661","0.0-6.0","5d67d4393fcbbc0019f3e1a4","62574c292c6ed3496afcb9b6","","","","","111538","key"," "," ","16.668037214168287","500","250","inst","","","","","","",""
"","psychophysics","7","172732","0.0-7.0","5d67d4393fcbbc0019f3e1a4","62574c292c6ed3496afcb9b6","","","","","8065","key"," "," ","16.665430641821928","500","250","ml","214","-9","-8","-5","-26","",""
"","psychophysics","8","177196","0.0-8.0","5d67d4393fcbbc0019f3e1a4","62574c292c6ed3496afcb9b6","","","","","4448","key"," "," ","16.665906367041167","500","250","ml","154","31","-18","29","-21","",""
"","psychophysics","9","180156","0.0-9.0","5d67d4393fcbbc0019f3e1a4","62574c292c6ed3496afcb9b6","","","","","2950","key"," "," ","16.665288135593187","500","250","ml","230","-3","-30","-9","-21","",""
"","psychophysics","10","185285","0.0-10.0","5d67d4393fcbbc0019f3e1a4","62574c292c6ed3496afcb9b6","","","","","5124","key"," "," ","16.66541368078178","500","250","ml","232","-35","30","-5","-23","",""
"","psychophysics","11","190019","0.0-11.0","5d67d4393fcbbc0019f3e1a4","62574c292c6ed3496afcb9b6","","","","","4728","key"," "," ","16.6655512367491","500","250","ml","218","5","0","-12","-18","",""
"","psychophysics","12","196044","0.0-12.0","5d67d4393fcbbc0019f3e1a4","62574c292c6ed3496afcb9b6","","","","","6020","key"," "," ","16.665300000000006","500","250","ml","248","-55","-13","18","-22","",""
"","psychophysics","13","199933","0.0-13.0","5d67d4393fcbbc0019f3e1a4","62574c292c6ed3496afcb9b6","","","","","3880","key"," "," ","16.665549356223192","500","250","ml","186","14","-20","-30","-24","",""
"","psychophysics","14","204300","0.0-14.0","5d67d4393fcbbc0019f3e1a4","62574c292c6ed3496afcb9b6","","","","","4362","key"," "," ","16.666172413793156","500","250","ml","156","-5","-29","-14","-21","",""
"","psychophysics","15","211740","0.0-15.0","5d67d4393fcbbc0019f3e1a4","62574c292c6ed3496afcb9b6","","","","","7434","key"," "," ","16.665552808988767","500","250","ml","184","41","19","25","-19","",""
"","psychophysics","16","217596","0.0-16.0","5d67d4393fcbbc0019f3e1a4","62574c292c6ed3496afcb9b6","","","","","5851","key"," "," ","16.66572000000002","500","250","ml","208","46","12","-11","-16","",""
"","psychophysics","17","224156","0.0-17.0","5d67d4393fcbbc0019f3e1a4","62574c292c6ed3496afcb9b6","","","","","6552","key"," "," ","16.665656488549626","500","250","ml","238","-39","11","-6","-26","",""
"","psychophysics","18","227658","0.0-18.0","5d67d4393fcbbc0019f3e1a4","62574c292c6ed3496afcb9b6","","","","","3498","key"," "," ","16.66473684210523","500","250","ml","162","-34","26","17","-29","",""
"","psychophysics","19","231460","0.0-19.0","5d67d4393fcbbc0019f3e1a4","62574c292c6ed3496afcb9b6","","","","","3798","key"," "," ","16.666259911894183","500","250","ml","224","-44","-28","-6","-30","",""
"","psychophysics","20","237500","0.0-20.0","5d67d4393fcbbc0019f3e1a4","62574c292c6ed3496afcb9b6","","","","","6031","key"," "," ","16.665696132596654","500","250","ml","210","32","19","-13","-21","",""
"","psychophysics","21","241733","0.0-21.0","5d67d4393fcbbc0019f3e1a4","62574c292c6ed3496afcb9b6","","","","","4228","key"," "," ","16.665865612648133","500","250","ml","230","3","-21","-13","-26","",""
"","psychophysics","22","243460","0.0-22.0","5d67d4393fcbbc0019f3e1a4","62574c292c6ed3496afcb9b6","","","","","1721","key"," "," ","16.66561764705893","500","250","inst","","","","","","",""
"","psychophysics","23","256308","0.0-23.0","5d67d4393fcbbc0019f3e1a4","62574c292c6ed3496afcb9b6","","","","","12837","key"," "," ","16.665671428571404","500","250","instPog","","","","","160","130",""
"","psychophysics","24","274436","0.0-24.0","5d67d4393fcbbc0019f3e1a4","62574c292c6ed3496afcb9b6","","","","","18117","key"," "," ","16.66561453541857","500","250","instPog","","","","","156","130",""
"","psychophysics","25","282708","0.0-25.0","5d67d4393fcbbc0019f3e1a4","62574c292c6ed3496afcb9b6","","","","","8268","key"," "," ","16.66554343434347","500","250","instPog","","","","","157","130",""
"","psychophysics","26","286372","0.0-26.0","5d67d4393fcbbc0019f3e1a4","62574c292c6ed3496afcb9b6","","","","","3655","key"," "," ","16.665894977168975","500","250","inst","","","","","","",""
"","psychophysics","27","301060","0.0-27.0","5d67d4393fcbbc0019f3e1a4","62574c292c6ed3496afcb9b6","","","","","14680","key"," "," ","16.665641316685576","500","250","pog","","","","","181","145",""
"","psychophysics","28","309283","0.0-28.0","5d67d4393fcbbc0019f3e1a4","62574c292c6ed3496afcb9b6","","","","","8217","key"," "," ","16.66582926829266","500","250","pog","","","","","161","123",""
"","psychophysics","29","319325","0.0-29.0","5d67d4393fcbbc0019f3e1a4","62574c292c6ed3496afcb9b6","","","","","10038","key"," "," ","16.66544518272425","500","250","pog","","","","","230","197",""
"","psychophysics","30","328556","0.0-30.0","5d67d4393fcbbc0019f3e1a4","62574c292c6ed3496afcb9b6","","","","","9226","key"," "," ","16.665541666666694","500","250","pog","","","","","222","191",""
"","psychophysics","31","336724","0.0-31.0","5d67d4393fcbbc0019f3e1a4","62574c292c6ed3496afcb9b6","","","","","8161","key"," "," ","16.665385714285694","500","250","pog","","","","","220","190",""
"","psychophysics","32","338731","0.0-32.0","5d67d4393fcbbc0019f3e1a4","62574c292c6ed3496afcb9b6","","","","","2002","key"," "," ","16.66555462184875","500","250","pog","","","","","160","129",""
"","psychophysics","33","377779","0.0-33.0","5d67d4393fcbbc0019f3e1a4","62574c292c6ed3496afcb9b6","","","","","39044","key"," "," ","16.66553629376603","500","250","pog","","","","","213","192",""
"","psychophysics","34","383412","0.0-34.0","5d67d4393fcbbc0019f3e1a4","62574c292c6ed3496afcb9b6","","","","","5628","key"," "," ","16.66571513353104","500","250","pog","","","","","219","199",""
"","psychophysics","35","389763","0.0-35.0","5d67d4393fcbbc0019f3e1a4","62574c292c6ed3496afcb9b6","","","","","6347","key"," "," ","16.665528947368454","500","250","pog","","","","","181","157",""
"","psychophysics","36","396499","0.0-36.0","5d67d4393fcbbc0019f3e1a4","62574c292c6ed3496afcb9b6","","","","","6731","key"," "," ","16.66563523573213","500","250","pog","","","","","193","171",""
"","psychophysics","37","407236","0.0-37.0","5d67d4393fcbbc0019f3e1a4","62574c292c6ed3496afcb9b6","","","","","10729","key"," "," ","16.66567546583852","500","250","pog","","","","","219","194",""
"","psychophysics","38","419843","0.0-38.0","5d67d4393fcbbc0019f3e1a4","62574c292c6ed3496afcb9b6","","","","","12602","key"," "," ","16.6655417218543","500","250","pog","","","","","186","160",""
"","psychophysics","39","426635","0.0-39.0","5d67d4393fcbbc0019f3e1a4","62574c292c6ed3496afcb9b6","","","","","6788","key"," "," ","16.70660591133015","500","250","pog","","","","","223","198",""
"","psychophysics","40","433971","0.0-40.0","5d67d4393fcbbc0019f3e1a4","62574c292c6ed3496afcb9b6","","","","","7331","key"," "," ","16.66572437357637","500","250","pog","","","","","181","158",""
"","psychophysics","41","436387","0.0-41.0","5d67d4393fcbbc0019f3e1a4","62574c292c6ed3496afcb9b6","","","","","2412","key"," "," ","16.66552777777785","500","250","pog","","","","","160","132",""
"","psychophysics","42","443812","0.0-42.0","5d67d4393fcbbc0019f3e1a4","62574c292c6ed3496afcb9b6","","","","","7410","key"," "," ","16.665772522522527","500","250","inst","","","","","","",""
"","psychophysics","43","451179","0.0-43.0","5d67d4393fcbbc0019f3e1a4","62574c292c6ed3496afcb9b6","","","","","7355","key"," "," ","16.665668934240358","500","250","instTilt","","","","","NaN","0","0"
"","psychophysics","44","454868","0.0-44.0","5d67d4393fcbbc0019f3e1a4","62574c292c6ed3496afcb9b6","","","","","3680","key"," "," ","16.665904977375735","500","250","instTilt","","","","","0","0","0"
"","psychophysics","45","462133","0.0-45.0","5d67d4393fcbbc0019f3e1a4","62574c292c6ed3496afcb9b6","","","","","7260","key"," "," ","16.66583678160925","500","250","instTilt","","","","","-1","0","0"
"","psychophysics","46","470187","0.0-46.0","5d67d4393fcbbc0019f3e1a4","62574c292c6ed3496afcb9b6","","","","","8051","key"," "," ","16.665547717842312","500","250","inst","","","","","","",""
"","psychophysics","47","477323","0.0-47.0","5d67d4393fcbbc0019f3e1a4","62574c292c6ed3496afcb9b6","","","","","7130","key"," "," ","16.66551053864171","500","250","tilt","","","","","-7","-9","0"
"","psychophysics","48","483202","0.0-48.0","5d67d4393fcbbc0019f3e1a4","62574c292c6ed3496afcb9b6","","","","","5875","key"," "," ","16.665659090909188","500","250","tilt","","","","","-7","-8","1"
"","psychophysics","49","487827","0.0-49.0","5d67d4393fcbbc0019f3e1a4","62574c292c6ed3496afcb9b6","","","","","4619","key"," "," ","16.6655760869566","500","250","tilt","","","","","-5","-5","1"
"","psychophysics","50","492058","0.0-50.0","5d67d4393fcbbc0019f3e1a4","62574c292c6ed3496afcb9b6","","","","","4220","key"," "," ","16.665901185770743","500","250","tilt","","","","","3","2","1"
"","psychophysics","51","497363","0.0-51.0","5d67d4393fcbbc0019f3e1a4","62574c292c6ed3496afcb9b6","","","","","5295","key"," "," ","16.665374213836408","500","250","tilt","","","","","-1","-4","0"
"","psychophysics","52","504314","0.0-52.0","5d67d4393fcbbc0019f3e1a4","62574c292c6ed3496afcb9b6","","","","","6946","key"," "," ","16.66512980769235","500","250","tilt","","","","","10","10","1"
"","psychophysics","53","509363","0.0-53.0","5d67d4393fcbbc0019f3e1a4","62574c292c6ed3496afcb9b6","","","","","5042","key"," "," ","16.66595364238416","500","250","tilt","","","","","-5","-7","0"
"","psychophysics","54","514812","0.0-54.0","5d67d4393fcbbc0019f3e1a4","62574c292c6ed3496afcb9b6","","","","","5444","key"," "," ","16.665616564417117","500","250","tilt","","","","","-11","-9","1"
"","psychophysics","55","519554","0.0-55.0","5d67d4393fcbbc0019f3e1a4","62574c292c6ed3496afcb9b6","","","","","4737","key"," "," ","16.666021201413415","500","250","tilt","","","","","-10","-7","1"
"","psychophysics","56","526514","0.0-56.0","5d67d4393fcbbc0019f3e1a4","62574c292c6ed3496afcb9b6","","","","","6955","key"," "," ","16.665726618705055","500","250","tilt","","","","","-7","-7","1"
"","psychophysics","57","530763","0.0-57.0","5d67d4393fcbbc0019f3e1a4","62574c292c6ed3496afcb9b6","","","","","4243","key"," "," ","16.665566929133874","500","250","tilt","","","","","-7","-6","1"
"","psychophysics","58","541035","0.0-58.0","5d67d4393fcbbc0019f3e1a4","62574c292c6ed3496afcb9b6","","","","","10268","key"," "," ","16.665682926829298","500","250","tilt","","","","","-8","-8","1"
"","psychophysics","59","550443","0.0-59.0","5d67d4393fcbbc0019f3e1a4","62574c292c6ed3496afcb9b6","","","","","9402","key"," "," ","16.665668439716374","500","250","tilt","","","","","-3","-2","1"
"","psychophysics","60","572210","0.0-60.0","5d67d4393fcbbc0019f3e1a4","62574c292c6ed3496afcb9b6","","","","","21763","key"," "," ","16.66557394636008","500","250","tilt","","","","","14","10","0"
"","psychophysics","61","575059","0.0-61.0","5d67d4393fcbbc0019f3e1a4","62574c292c6ed3496afcb9b6","","","","","2844","key"," "," ","16.665517647058348","500","250","tilt","","","","","17","10","0"
"","psychophysics","62","578289","0.0-62.0","5d67d4393fcbbc0019f3e1a4","62574c292c6ed3496afcb9b6","","","","","3226","key"," "," ","16.665217616580247","500","250","tilt","","","","","10","8","1"
"","psychophysics","63","581330","0.0-63.0","5d67d4393fcbbc0019f3e1a4","62574c292c6ed3496afcb9b6","","","","","3028","key"," "," ","16.666762430939272","500","250","tilt","","","","","19","10","0"
"","psychophysics","64","583482","0.0-64.0","5d67d4393fcbbc0019f3e1a4","62574c292c6ed3496afcb9b6","","","","","2146","key"," "," ","16.665554687499935","500","250","tilt","","","","","0","0","0"
"","psychophysics","65","589508","0.0-65.0","5d67d4393fcbbc0019f3e1a4","62574c292c6ed3496afcb9b6","","","","","6019","key"," "," ","16.665767313019565","500","250","tilt","","","","","2","0","1"
"","psychophysics","66","595411","0.0-66.0","5d67d4393fcbbc0019f3e1a4","62574c292c6ed3496afcb9b6","","","","","5897","key"," "," ","16.665810198300168","500","250","tilt","","","","","4","2","0"
"","psychophysics","67","600708","0.0-67.0","5d67d4393fcbbc0019f3e1a4","62574c292c6ed3496afcb9b6","","","","","5293","key"," "," ","16.66576656151441","500","250","tilt","","","","","-14","-8","1"
"","psychophysics","68","603540","0.0-68.0","5d67d4393fcbbc0019f3e1a4","62574c292c6ed3496afcb9b6","","","","","2827","key"," "," ","16.665195266272566","500","250","tilt","","","","","-12","-8","1"
"","psychophysics","69","607491","0.0-69.0","5d67d4393fcbbc0019f3e1a4","62574c292c6ed3496afcb9b6","","","","","3922","key"," "," ","16.66605932203366","500","250","tilt","","","","","-7","-9","0"
"","psychophysics","70","611252","0.0-70.0","5d67d4393fcbbc0019f3e1a4","62574c292c6ed3496afcb9b6","","","","","3756","key"," "," ","16.665352678571384","500","250","tilt","","","","","-5","-5","1"
"","psychophysics","71","613977","0.0-71.0","5d67d4393fcbbc0019f3e1a4","62574c292c6ed3496afcb9b6","","","","","2685","key"," "," ","16.767635802468888","500","250","tilt","","","","","0","0","1"
"","psychophysics","72","617643","0.0-72.0","5d67d4393fcbbc0019f3e1a4","62574c292c6ed3496afcb9b6","","","","","3662","key"," "," ","16.6662648401827","500","250","tilt","","","","","4","6","1"
"","psychophysics","73","619155","0.0-73.0","5d67d4393fcbbc0019f3e1a4","62574c292c6ed3496afcb9b6","","","","","1508","key"," "," ","16.666588888889073","500","250","tilt","","","","","0","2","1"
"","psychophysics","74","623683","0.0-74.0","5d67d4393fcbbc0019f3e1a4","62574c292c6ed3496afcb9b6","","","","","4522","key"," "," ","16.665118518518714","500","250","tilt","","","","","-3","-1","1"
"","psychophysics","75","627499","0.0-75.0","5d67d4393fcbbc0019f3e1a4","62574c292c6ed3496afcb9b6","","","","","3805","key"," "," ","16.6658684210525","500","250","tilt","","","","","11","5","0"
"","psychophysics","76","631155","0.0-76.0","5d67d4393fcbbc0019f3e1a4","62574c292c6ed3496afcb9b6","","","","","3650","key"," "," ","16.665872146118726","500","250","tilt","","","","","0","0","1"
"","psychophysics","77","634795","0.0-77.0","5d67d4393fcbbc0019f3e1a4","62574c292c6ed3496afcb9b6","","","","","3635","key"," "," ","16.665511520737716","500","250","inst","","","","","","",""
"","psychophysics","78","638843","0.0-78.0","5d67d4393fcbbc0019f3e1a4","62574c292c6ed3496afcb9b6","","","","","4042","key"," "," ","16.665549586776716","500","250","instPz","","","","","50","50",""
"","psychophysics","79","641955","0.0-79.0","5d67d4393fcbbc0019f3e1a4","62574c292c6ed3496afcb9b6","","","","","3107","key"," "," ","16.665559139785543","500","250","instPz","","","","","15","50",""
"","psychophysics","80","647762","0.0-80.0","5d67d4393fcbbc0019f3e1a4","62574c292c6ed3496afcb9b6","","","","","5803","key"," "," ","16.665530259366033","500","250","instPz","","","","","33","30",""
"","psychophysics","81","653306","0.0-81.0","5d67d4393fcbbc0019f3e1a4","62574c292c6ed3496afcb9b6","","","","","5531","key"," "," ","16.66582530120483","500","250","instPz","","","","","15","40",""
"","psychophysics","82","654498","0.0-82.0","5d67d4393fcbbc0019f3e1a4","62574c292c6ed3496afcb9b6","","","","","1188","key"," "," ","16.66668571428662","500","250","inst","","","","","","",""
"","psychophysics","83","665170","0.0-83.0","5d67d4393fcbbc0019f3e1a4","62574c292c6ed3496afcb9b6","","","","","10662","key"," "," ","16.665678124999978","500","250","pz","","","","","75","37",""
"","psychophysics","84","680051","0.0-84.0","5d67d4393fcbbc0019f3e1a4","62574c292c6ed3496afcb9b6","","","","","14876","key"," "," ","16.66553026905835","500","250","pz","","","","","84","54",""
"","psychophysics","85","684329","0.0-85.0","5d67d4393fcbbc0019f3e1a4","62574c292c6ed3496afcb9b6","","","","","4273","key"," "," ","16.665556862744886","500","250","pz","","","","","59","41",""
"","psychophysics","86","688283","0.0-86.0","5d67d4393fcbbc0019f3e1a4","62574c292c6ed3496afcb9b6","","","","","3945","key"," "," ","16.666308016877796","500","250","pz","","","","","64","41",""
"","psychophysics","87","692761","0.0-87.0","5d67d4393fcbbc0019f3e1a4","62574c292c6ed3496afcb9b6","","","","","4473","key"," "," ","16.665498127340694","500","250","pz","","","","","66","46",""
"","psychophysics","88","702377","0.0-88.0","5d67d4393fcbbc0019f3e1a4","62574c292c6ed3496afcb9b6","","","","","9592","key"," "," ","16.665531250000033","500","250","pz","","","","","36","22",""
"","psychophysics","89","705721","0.0-89.0","5d67d4393fcbbc0019f3e1a4","62574c292c6ed3496afcb9b6","","","","","3335","key"," "," ","16.665825000000186","500","250","pz","","","","","52","35",""
"","psychophysics","90","709585","0.0-90.0","5d67d4393fcbbc0019f3e1a4","62574c292c6ed3496afcb9b6","","","","","3859","key"," "," ","16.66553679653655","500","250","pz","","","","","54","33",""
"","psychophysics","91","713754","0.0-91.0","5d67d4393fcbbc0019f3e1a4","62574c292c6ed3496afcb9b6","","","","","4163","key"," "," ","16.66514859437787","500","250","pz","","","","","45","23",""
"","psychophysics","92","717348","0.0-92.0","5d67d4393fcbbc0019f3e1a4","62574c292c6ed3496afcb9b6","","","","","3562","key"," "," ","16.66591162790685","500","250","pz","","","","","56","33",""
"","psychophysics","93","721985","0.0-93.0","5d67d4393fcbbc0019f3e1a4","62574c292c6ed3496afcb9b6","","","","","4633","key"," "," ","16.665530685920416","500","250","pz","","","","","61","44",""
"","psychophysics","94","727017","0.0-94.0","5d67d4393fcbbc0019f3e1a4","62574c292c6ed3496afcb9b6","","","","","5027","key"," "," ","16.66605647840534","500","250","pz","","","","","76","56",""
"","psychophysics","95","730834","0.0-95.0","5d67d4393fcbbc0019f3e1a4","62574c292c6ed3496afcb9b6","","","","","3812","key"," "," ","16.665543859648896","500","250","pz","","","","","51","26",""
"","psychophysics","96","736882","0.0-96.0","5d67d4393fcbbc0019f3e1a4","62574c292c6ed3496afcb9b6","","","","","6042","key"," "," ","16.665560773480554","500","250","pz","","","","","84","52",""
"","psychophysics","97","742530","0.0-97.0","5d67d4393fcbbc0019f3e1a4","62574c292c6ed3496afcb9b6","","","","","5642","key"," "," ","16.66572189349137","500","250","pz","","","","","65","43",""
"","psychophysics","98","758212","0.0-98.0","5d67d4393fcbbc0019f3e1a4","62574c292c6ed3496afcb9b6","","","","","15677","key"," "," ","16.665435106382937","500","250","inst","","","","","","",""
"","psychophysics","99","759864","0.0-99.0","5d67d4393fcbbc0019f3e1a4","62574c292c6ed3496afcb9b6","","","","","1648","key"," "," ","16.663857142857932","500","250","inst","","","","","","",""
"","psychophysics","100","767457","0.0-100.0","5d67d4393fcbbc0019f3e1a4","62574c292c6ed3496afcb9b6","","","","","7590","key"," "," ","16.66588986784144","500","250","instFlank","","","","","0.43999999999999995","0.3","1"
"","psychophysics","101","776171","0.0-101.0","5d67d4393fcbbc0019f3e1a4","62574c292c6ed3496afcb9b6","","","","","8704","key"," "," ","16.665582375478944","500","250","inst","","","","","","",""
"","psychophysics","102","782322","0.0-102.0","5d67d4393fcbbc0019f3e1a4","62574c292c6ed3496afcb9b6","","","","","6140","key"," "," ","16.665589673913136","500","250","instFlank","","","","","0.2599999999999998","0.3","1"
"","psychophysics","103","786130","0.0-103.0","5d67d4393fcbbc0019f3e1a4","62574c292c6ed3496afcb9b6","","","","","3799","key"," "," ","16.666083333333198","500","250","inst","","","","","","",""
"","psychophysics","104","789914","0.0-104.0","5d67d4393fcbbc0019f3e1a4","62574c292c6ed3496afcb9b6","","","","","3777","key"," "," ","16.665672566371853","500","250","instFlank","","","","","0.43999999999999995","0.3","0"
"","psychophysics","105","791370","0.0-105.0","5d67d4393fcbbc0019f3e1a4","62574c292c6ed3496afcb9b6","","","","","1451","key"," "," ","16.665523255813792","500","250","inst","","","","","","",""
"","psychophysics","106","795690","0.0-106.0","5d67d4393fcbbc0019f3e1a4","62574c292c6ed3496afcb9b6","","","","","4308","key"," "," ","16.665934108527082","500","250","flank","","","","","0.3799999999999999","0.3","1"
"","psychophysics","107","799922","0.0-107.0","5d67d4393fcbbc0019f3e1a4","62574c292c6ed3496afcb9b6","","","","","4222","key"," "," ","16.66583794466378","500","250","flank","","","","","0.6800000000000002","0.66","0"
"","psychophysics","108","804122","0.0-108.0","5d67d4393fcbbc0019f3e1a4","62574c292c6ed3496afcb9b6","","","","","4188","key"," "," ","16.665601593625464","500","250","flank","","","","","0.53","0.34","0"
"","psychophysics","109","807666","0.0-109.0","5d67d4393fcbbc0019f3e1a4","62574c292c6ed3496afcb9b6","","","","","3535","key"," "," ","16.66611792452805","500","250","flank","","","","","0.56","0.24","0"
"","psychophysics","110","812026","0.0-110.0","5d67d4393fcbbc0019f3e1a4","62574c292c6ed3496afcb9b6","","","","","4353","key"," "," ","16.665854406130492","500","250","flank","","","","","0.7700000000000002","0.7","1"
"","psychophysics","111","816362","0.0-111.0","5d67d4393fcbbc0019f3e1a4","62574c292c6ed3496afcb9b6","","","","","4329","key"," "," ","16.665536679536945","500","250","flank","","","","","0.6200000000000001","0.58","1"
"","psychophysics","112","819947","0.0-112.0","5d67d4393fcbbc0019f3e1a4","62574c292c6ed3496afcb9b6","","","","","3579","key"," "," ","16.66516822429916","500","250","flank","","","","","0.7700000000000002","0.74","0"
"","psychophysics","113","825114","0.0-113.0","5d67d4393fcbbc0019f3e1a4","62574c292c6ed3496afcb9b6","","","","","5160","key"," "," ","16.666245954692542","500","250","flank","","","","","0.7100000000000002","0.38","0"
"","psychophysics","114","827739","0.0-114.0","5d67d4393fcbbc0019f3e1a4","62574c292c6ed3496afcb9b6","","","","","2618","key"," "," ","16.665538461538606","500","250","flank","","","","","0.5","0.26","0"
"","psychophysics","115","830939","0.0-115.0","5d67d4393fcbbc0019f3e1a4","62574c292c6ed3496afcb9b6","","","","","3190","key"," "," ","16.66576963350791","500","250","flank","","","","","0.56","0.22","0"
"","psychophysics","116","834418","0.0-116.0","5d67d4393fcbbc0019f3e1a4","62574c292c6ed3496afcb9b6","","","","","3471","key"," "," ","16.66580769230775","500","250","flank","","","","","0.6200000000000001","0.62","1"
"","psychophysics","117","840818","0.0-117.0","5d67d4393fcbbc0019f3e1a4","62574c292c6ed3496afcb9b6","","","","","6390","key"," "," ","16.665694516971307","500","250","flank","","","","","0.1999999999999998","0.2","1"
"","psychophysics","118","844698","0.0-118.0","5d67d4393fcbbc0019f3e1a4","62574c292c6ed3496afcb9b6","","","","","3870","key"," "," ","16.665508620689344","500","250","flank","","","","","0.3799999999999999","0.28","0"
"","psychophysics","119","850074","0.0-119.0","5d67d4393fcbbc0019f3e1a4","62574c292c6ed3496afcb9b6","","","","","5370","key"," "," ","16.666360248447113","500","250","flank","","","","","0.56","0.28","0"
"","psychophysics","120","853240","0.0-120.0","5d67d4393fcbbc0019f3e1a4","62574c292c6ed3496afcb9b6","","","","","3160","key"," "," ","16.664825396825407","500","250","flank","","","","","0.34999999999999987","0.2","0"
"","psychophysics","121","857034","0.0-121.0","5d67d4393fcbbc0019f3e1a4","62574c292c6ed3496afcb9b6","","","","","3790","key"," "," ","16.666256637167724","500","250","flank","","","","","0.8000000000000003","0.78","0"
"","psychophysics","122","859834","0.0-122.0","5d67d4393fcbbc0019f3e1a4","62574c292c6ed3496afcb9b6","","","","","2789","key"," "," ","16.666035928143728","500","250","flank","","","","","0.43999999999999995","0.26","0"
"","psychophysics","123","864187","0.0-123.0","5d67d4393fcbbc0019f3e1a4","62574c292c6ed3496afcb9b6","","","","","4341","key"," "," ","16.665865384615383","500","250","flank","","","","","0.7100000000000002","0.66","0"
"","psychophysics","124","868755","0.0-124.0","5d67d4393fcbbc0019f3e1a4","62574c292c6ed3496afcb9b6","","","","","4555","key"," "," ","16.6658248175182","500","250","flank","","","","","0.6200000000000001","0.52","1"
"","psychophysics","125","872010","0.0-125.0","5d67d4393fcbbc0019f3e1a4","62574c292c6ed3496afcb9b6","","","","","3247","key"," "," ","16.665422680412092","500","250","flank","","","","","0.56","0.52","0"
"","psychophysics","126","876178","0.0-126.0","5d67d4393fcbbc0019f3e1a4","62574c292c6ed3496afcb9b6","","","","","4162","key"," "," ","16.665518072288833","500","250","flank","","","","","0.7100000000000002","0.62","0"
"","psychophysics","127","880419","0.0-127.0","5d67d4393fcbbc0019f3e1a4","62574c292c6ed3496afcb9b6","","","","","4232","key"," "," ","16.66583794466378","500","250","flank","","","","","0.6500000000000001","0.54","1"
"","psychophysics","128","884987","0.0-128.0","5d67d4393fcbbc0019f3e1a4","62574c292c6ed3496afcb9b6","","","","","4560","key"," "," ","16.666510948904936","500","250","flank","","","","","0.6200000000000001","0.56","1"
"","psychophysics","129","889546","0.0-129.0","5d67d4393fcbbc0019f3e1a4","62574c292c6ed3496afcb9b6","","","","","4551","key"," "," ","16.66594485294113","500","250","flank","","","","","0.7700000000000002","0.76","1"
"","psychophysics","130","893753","0.0-130.0","5d67d4393fcbbc0019f3e1a4","62574c292c6ed3496afcb9b6","","","","","4198","key"," "," ","16.665579365079463","500","250","flank","","","","","0.6800000000000002","0.6","0"
"","psychophysics","131","897673","0.0-131.0","5d67d4393fcbbc0019f3e1a4","62574c292c6ed3496afcb9b6","","","","","3912","key"," "," ","16.666311965812035","500","250","flank","","","","","0.56","0.28","0"
"","psychophysics","132","913241","0.0-132.0","5d67d4393fcbbc0019f3e1a4","62574c292c6ed3496afcb9b6","","","","","15561","key"," "," ","16.665480171489737","500","250","flank","","","","","0.5900000000000001","0.22","1"
"","psychophysics","133","918345","0.0-133.0","5d67d4393fcbbc0019f3e1a4","62574c292c6ed3496afcb9b6","","","","","5093","key"," "," ","16.665918032786823","500","250","flank","","","","","0.8600000000000003","0.78","0"
"","psychophysics","134","922704","0.0-134.0","5d67d4393fcbbc0019f3e1a4","62574c292c6ed3496afcb9b6","","","","","4350","key"," "," ","16.665310344827393","500","250","flank","","","","","0.6800000000000002","0.62","1"
"","psychophysics","135","927169","0.0-135.0","5d67d4393fcbbc0019f3e1a4","62574c292c6ed3496afcb9b6","","","","","4462","key"," "," ","16.66643820224724","500","250","flank","","","","","0.7100000000000002","0.56","0"
"true","fullscreen","136","927172","0.0-136.0","5d67d4393fcbbc0019f3e1a4","62574c292c6ed3496afcb9b6","","","","","","","","","","","","","","","","","","",""
