"success","trial_type","trial_index","time_elapsed","internal_node_id","pid","sid","timeout","failed_images","failed_audio","failed_video","rt","response_type","key_press","response","avg_frame_time","center_x","center_y","task","ml_len","ml_start","ml_x","ml_y","resp","targ","back"
"true","fullscreen","0","4414","0.0-0.0","5de7f5d27c17f804d007da90","625753371438100a4e027adf","","","","","","","","","","","","","","","","","","",""
"true","preload","1","4416","0.0-1.0","5de7f5d27c17f804d007da90","625753371438100a4e027adf","false","[]","[]","[]","","","","","","","","","","","","","","",""
"","psychophysics","2","9486","0.0-2.0","5de7f5d27c17f804d007da90","625753371438100a4e027adf","","","","","5053","key"," "," ","16.667519736842106","500","250","inst","","","","","","",""
"","psychophysics","3","11669","0.0-3.0","5de7f5d27c17f804d007da90","625753371438100a4e027adf","","","","","2180","key"," "," ","16.668404580152668","500","250","inst","","","","","","",""
"","psychophysics","4","46895","0.0-4.0","5de7f5d27c17f804d007da90","625753371438100a4e027adf","","","","","35224","key"," "," ","16.66717518939394","500","250","instMl","156","-26","-2","10","-24","",""
"","psychophysics","5","62592","0.0-5.0","5de7f5d27c17f804d007da90","625753371438100a4e027adf","","","","","15695","key"," "," ","16.667255047821463","500","250","instMl","246","-41","-12","-27","-14","",""
"","psychophysics","6","67585","0.0-6.0","5de7f5d27c17f804d007da90","625753371438100a4e027adf","","","","","4989","key"," "," ","16.66707382550336","500","250","inst","","","","","","",""
"","psychophysics","7","73105","0.0-7.0","5de7f5d27c17f804d007da90","625753371438100a4e027adf","","","","","5518","key"," "," ","16.66792145015104","500","250","ml","208","-31","-17","15","-9","",""
"","psychophysics","8","79698","0.0-8.0","5de7f5d27c17f804d007da90","625753371438100a4e027adf","","","","","6590","key"," "," ","16.667477157360416","500","250","ml","176","-38","17","-14","-7","",""
"","psychophysics","9","86843","0.0-9.0","5de7f5d27c17f804d007da90","625753371438100a4e027adf","","","","","7141","key"," "," ","16.667642523364496","500","250","ml","236","-50","-18","26","-9","",""
"","psychophysics","10","91131","0.0-10.0","5de7f5d27c17f804d007da90","625753371438100a4e027adf","","","","","4286","key"," "," ","16.667140625000002","500","250","ml","186","3","-18","-16","-13","",""
"","psychophysics","11","99172","0.0-11.0","5de7f5d27c17f804d007da90","625753371438100a4e027adf","","","","","8038","key"," "," ","16.666973029045643","500","250","ml","210","38","29","-14","-14","",""
"","psychophysics","12","103772","0.0-12.0","5de7f5d27c17f804d007da90","625753371438100a4e027adf","","","","","4598","key"," "," ","16.66725090909088","500","250","ml","244","0","5","-21","-21","",""
"","psychophysics","13","110669","0.0-13.0","5de7f5d27c17f804d007da90","625753371438100a4e027adf","","","","","6895","key"," "," ","16.66663834951456","500","250","ml","222","41","1","-11","-17","",""
"","psychophysics","14","116277","0.0-14.0","5de7f5d27c17f804d007da90","625753371438100a4e027adf","","","","","5605","key"," "," ","16.667931547619055","500","250","ml","200","23","23","7","-17","",""
"","psychophysics","15","121045","0.0-15.0","5de7f5d27c17f804d007da90","625753371438100a4e027adf","","","","","4767","key"," "," ","16.66670526315789","500","250","ml","170","1","-23","-12","-8","",""
"","psychophysics","16","125158","0.0-16.0","5de7f5d27c17f804d007da90","625753371438100a4e027adf","","","","","4110","key"," "," ","16.66765853658539","500","250","ml","234","-33","20","19","-10","",""
"","psychophysics","17","129358","0.0-17.0","5de7f5d27c17f804d007da90","625753371438100a4e027adf","","","","","4198","key"," "," ","16.66632669322712","500","250","ml","182","-33","22","11","-13","",""
"","psychophysics","18","134055","0.0-18.0","5de7f5d27c17f804d007da90","625753371438100a4e027adf","","","","","4694","key"," "," ","16.667596428571414","500","250","ml","226","-44","-16","-14","-9","",""
"","psychophysics","19","139463","0.0-19.0","5de7f5d27c17f804d007da90","625753371438100a4e027adf","","","","","5404","key"," "," ","16.66806172839512","500","250","ml","212","44","-2","-21","-14","",""
"","psychophysics","20","142904","0.0-20.0","5de7f5d27c17f804d007da90","625753371438100a4e027adf","","","","","3438","key"," "," ","16.66777073170737","500","250","ml","186","-40","18","-17","-12","",""
"","psychophysics","21","146608","0.0-21.0","5de7f5d27c17f804d007da90","625753371438100a4e027adf","","","","","3700","key"," "," ","16.66797297297301","500","250","ml","186","-37","-16","6","-14","",""
"","psychophysics","22","155585","0.0-22.0","5de7f5d27c17f804d007da90","625753371438100a4e027adf","","","","","8974","key"," "," ","16.667031657355672","500","250","inst","","","","","","",""
"","psychophysics","23","169370","0.0-23.0","5de7f5d27c17f804d007da90","625753371438100a4e027adf","","","","","13782","key"," "," ","16.667444309927372","500","250","instPog","","","","","130","130",""
"","psychophysics","24","182811","0.0-24.0","5de7f5d27c17f804d007da90","625753371438100a4e027adf","","","","","13439","key"," "," ","16.66719975186105","500","250","instPog","","","","","130","130",""
"","psychophysics","25","189652","0.0-25.0","5de7f5d27c17f804d007da90","625753371438100a4e027adf","","","","","6838","key"," "," ","16.667391198043983","500","250","instPog","","","","","142","130",""
"","psychophysics","26","191836","0.0-26.0","5de7f5d27c17f804d007da90","625753371438100a4e027adf","","","","","2182","key"," "," ","16.66695384615383","500","250","inst","","","","","","",""
"","psychophysics","27","195500","0.0-27.0","5de7f5d27c17f804d007da90","625753371438100a4e027adf","","","","","3662","key"," "," ","16.667114155251134","500","250","pog","","","","","159","147",""
"","psychophysics","28","204733","0.0-28.0","5de7f5d27c17f804d007da90","625753371438100a4e027adf","","","","","9231","key"," "," ","16.66743399638339","500","250","pog","","","","","139","126",""
"","psychophysics","29","209549","0.0-29.0","5de7f5d27c17f804d007da90","625753371438100a4e027adf","","","","","4814","key"," "," ","16.666718750000047","500","250","pog","","","","","192","178",""
"","psychophysics","30","216782","0.0-30.0","5de7f5d27c17f804d007da90","625753371438100a4e027adf","","","","","7230","key"," "," ","16.66671593533486","500","250","pog","","","","","210","194",""
"","psychophysics","31","221622","0.0-31.0","5de7f5d27c17f804d007da90","625753371438100a4e027adf","","","","","4837","key"," "," ","16.666951557093462","500","250","pog","","","","","167","152",""
"","psychophysics","32","226095","0.0-32.0","5de7f5d27c17f804d007da90","625753371438100a4e027adf","","","","","4471","key"," "," ","16.667940298507467","500","250","pog","","","","","175","159",""
"","psychophysics","33","231376","0.0-33.0","5de7f5d27c17f804d007da90","625753371438100a4e027adf","","","","","5279","key"," "," ","16.667158227848148","500","250","pog","","","","","205","183",""
"","psychophysics","34","236928","0.0-34.0","5de7f5d27c17f804d007da90","625753371438100a4e027adf","","","","","5551","key"," "," ","16.66712650602411","500","250","pog","","","","","150","131",""
"","psychophysics","35","244512","0.0-35.0","5de7f5d27c17f804d007da90","625753371438100a4e027adf","","","","","7581","key"," "," ","16.667057268722495","500","250","pog","","","","","164","147",""
"","psychophysics","36","250497","0.0-36.0","5de7f5d27c17f804d007da90","625753371438100a4e027adf","","","","","5982","key"," "," ","16.666860335195544","500","250","pog","","","","","189","170",""
"","psychophysics","37","255410","0.0-37.0","5de7f5d27c17f804d007da90","625753371438100a4e027adf","","","","","4909","key"," "," ","16.667143344709892","500","250","pog","","","","","183","162",""
"","psychophysics","38","259114","0.0-38.0","5de7f5d27c17f804d007da90","625753371438100a4e027adf","","","","","3701","key"," "," ","16.667545045044946","500","250","pog","","","","","173","152",""
"","psychophysics","39","262250","0.0-39.0","5de7f5d27c17f804d007da90","625753371438100a4e027adf","","","","","3133","key"," "," ","16.667122994652605","500","250","pog","","","","","169","142",""
"","psychophysics","40","267995","0.0-40.0","5de7f5d27c17f804d007da90","625753371438100a4e027adf","","","","","5742","key"," "," ","16.667311046511777","500","250","pog","","","","","151","133",""
"","psychophysics","41","273660","0.0-41.0","5de7f5d27c17f804d007da90","625753371438100a4e027adf","","","","","5661","key"," "," ","16.66730769230766","500","250","pog","","","","","219","197",""
"","psychophysics","42","275563","0.0-42.0","5de7f5d27c17f804d007da90","625753371438100a4e027adf","","","","","1896","key"," "," ","16.6693684210528","500","250","inst","","","","","","",""
"","psychophysics","43","279796","0.0-43.0","5de7f5d27c17f804d007da90","625753371438100a4e027adf","","","","","4230","key"," "," ","16.73300793650791","500","250","instTilt","","","","","NaN","0","0"
"","psychophysics","44","283020","0.0-44.0","5de7f5d27c17f804d007da90","625753371438100a4e027adf","","","","","3222","key"," "," ","16.667088541666697","500","250","instTilt","","","","","0","0","0"
"","psychophysics","45","300102","0.0-45.0","5de7f5d27c17f804d007da90","625753371438100a4e027adf","","","","","17080","key"," "," ","16.6670400390625","500","250","instTilt","","","","","3","0","0"
"","psychophysics","46","302094","0.0-46.0","5de7f5d27c17f804d007da90","625753371438100a4e027adf","","","","","1990","key"," "," ","16.666008403361385","500","250","inst","","","","","","",""
"","psychophysics","47","307358","0.0-47.0","5de7f5d27c17f804d007da90","625753371438100a4e027adf","","","","","5261","key"," "," ","16.666859872611372","500","250","tilt","","","","","-4","-2","1"
"","psychophysics","48","312111","0.0-48.0","5de7f5d27c17f804d007da90","625753371438100a4e027adf","","","","","4751","key"," "," ","16.667242105263327","500","250","tilt","","","","","-6","-3","1"
"","psychophysics","49","317670","0.0-49.0","5de7f5d27c17f804d007da90","625753371438100a4e027adf","","","","","5558","key"," "," ","16.667210843373567","500","250","tilt","","","","","7","8","0"
"","psychophysics","50","323439","0.0-50.0","5de7f5d27c17f804d007da90","625753371438100a4e027adf","","","","","5764","key"," "," ","16.667750724637713","500","250","tilt","","","","","-3","4","1"
"","psychophysics","51","330823","0.0-51.0","5de7f5d27c17f804d007da90","625753371438100a4e027adf","","","","","7382","key"," "," ","16.667309954751133","500","250","tilt","","","","","1","0","0"
"","psychophysics","52","337096","0.0-52.0","5de7f5d27c17f804d007da90","625753371438100a4e027adf","","","","","6270","key"," "," ","16.667784574468083","500","250","tilt","","","","","-7","-4","1"
"","psychophysics","53","343057","0.0-53.0","5de7f5d27c17f804d007da90","625753371438100a4e027adf","","","","","5959","key"," "," ","16.667014044943805","500","250","tilt","","","","","6","10","0"
"","psychophysics","54","347929","0.0-54.0","5de7f5d27c17f804d007da90","625753371438100a4e027adf","","","","","4870","key"," "," ","16.6677842465754","500","250","tilt","","","","","-3","-5","0"
"","psychophysics","55","353394","0.0-55.0","5de7f5d27c17f804d007da90","625753371438100a4e027adf","","","","","5462","key"," "," ","16.667585889570468","500","250","tilt","","","","","2","6","1"
"","psychophysics","56","358826","0.0-56.0","5de7f5d27c17f804d007da90","625753371438100a4e027adf","","","","","5428","key"," "," ","16.66770461538466","500","250","tilt","","","","","-5","-1","1"
"","psychophysics","57","367811","0.0-57.0","5de7f5d27c17f804d007da90","625753371438100a4e027adf","","","","","8981","key"," "," ","16.667600371747202","500","250","tilt","","","","","-7","-4","1"
"","psychophysics","58","374540","0.0-58.0","5de7f5d27c17f804d007da90","625753371438100a4e027adf","","","","","6726","key"," "," ","16.667285359801554","500","250","tilt","","","","","6","9","1"
"","psychophysics","59","378821","0.0-59.0","5de7f5d27c17f804d007da90","625753371438100a4e027adf","","","","","4279","key"," "," ","16.667046875000096","500","250","tilt","","","","","2","8","1"
"","psychophysics","60","383101","0.0-60.0","5de7f5d27c17f804d007da90","625753371438100a4e027adf","","","","","4278","key"," "," ","16.667441406249964","500","250","tilt","","","","","2","7","1"
"","psychophysics","61","388430","0.0-61.0","5de7f5d27c17f804d007da90","625753371438100a4e027adf","","","","","5324","key"," "," ","16.667144654088055","500","250","tilt","","","","","-5","-7","0"
"","psychophysics","62","393198","0.0-62.0","5de7f5d27c17f804d007da90","625753371438100a4e027adf","","","","","4764","key"," "," ","16.667993006992912","500","250","tilt","","","","","-11","-10","1"
"","psychophysics","63","399231","0.0-63.0","5de7f5d27c17f804d007da90","625753371438100a4e027adf","","","","","6029","key"," "," ","16.667149584487415","500","250","tilt","","","","","-8","-6","1"
"","psychophysics","64","405471","0.0-64.0","5de7f5d27c17f804d007da90","625753371438100a4e027adf","","","","","6238","key"," "," ","16.66697319034857","500","250","tilt","","","","","4","6","0"
"","psychophysics","65","411079","0.0-65.0","5de7f5d27c17f804d007da90","625753371438100a4e027adf","","","","","5606","key"," "," ","16.667107462686655","500","250","tilt","","","","","4","7","0"
"","psychophysics","66","415984","0.0-66.0","5de7f5d27c17f804d007da90","625753371438100a4e027adf","","","","","4901","key"," "," ","16.66782312925159","500","250","tilt","","","","","-4","-2","1"
"","psychophysics","67","423193","0.0-67.0","5de7f5d27c17f804d007da90","625753371438100a4e027adf","","","","","7207","key"," "," ","16.66716241299295","500","250","tilt","","","","","-6","-7","0"
"","psychophysics","68","428466","0.0-68.0","5de7f5d27c17f804d007da90","625753371438100a4e027adf","","","","","5271","key"," "," ","16.667174050633065","500","250","tilt","","","","","-8","-8","1"
"","psychophysics","69","433082","0.0-69.0","5de7f5d27c17f804d007da90","625753371438100a4e027adf","","","","","4614","key"," "," ","16.668123636363624","500","250","tilt","","","","","-8","-10","1"
"","psychophysics","70","439522","0.0-70.0","5de7f5d27c17f804d007da90","625753371438100a4e027adf","","","","","6438","key"," "," ","16.667655440414574","500","250","tilt","","","","","3","-1","0"
"","psychophysics","71","444866","0.0-71.0","5de7f5d27c17f804d007da90","625753371438100a4e027adf","","","","","5342","key"," "," ","16.66727812499994","500","250","tilt","","","","","-8","-5","1"
"","psychophysics","72","450579","0.0-72.0","5de7f5d27c17f804d007da90","625753371438100a4e027adf","","","","","5711","key"," "," ","16.66705278592383","500","250","tilt","","","","","-3","-2","1"
"","psychophysics","73","455643","0.0-73.0","5de7f5d27c17f804d007da90","625753371438100a4e027adf","","","","","5062","key"," "," ","16.668023102310112","500","250","tilt","","","","","3","8","1"
"","psychophysics","74","459595","0.0-74.0","5de7f5d27c17f804d007da90","625753371438100a4e027adf","","","","","3950","key"," "," ","16.667813559322","500","250","tilt","","","","","-14","-10","1"
"","psychophysics","75","469701","0.0-75.0","5de7f5d27c17f804d007da90","625753371438100a4e027adf","","","","","10103","key"," "," ","16.66745379537956","500","250","tilt","","","","","2","7","1"
"","psychophysics","76","474213","0.0-76.0","5de7f5d27c17f804d007da90","625753371438100a4e027adf","","","","","4510","key"," "," ","16.666921933085508","500","250","tilt","","","","","-2","0","0"
"","psychophysics","77","476797","0.0-77.0","5de7f5d27c17f804d007da90","625753371438100a4e027adf","","","","","2580","key"," "," ","16.66859740259726","500","250","inst","","","","","","",""
"","psychophysics","78","480413","0.0-78.0","5de7f5d27c17f804d007da90","625753371438100a4e027adf","","","","","3612","key"," "," ","16.66812500000001","500","250","instPz","","","","","50","50",""
"","psychophysics","79","494223","0.0-79.0","5de7f5d27c17f804d007da90","625753371438100a4e027adf","","","","","13808","key"," "," ","16.66748671497585","500","250","instPz","","","","","50","50",""
"","psychophysics","80","500511","0.0-80.0","5de7f5d27c17f804d007da90","625753371438100a4e027adf","","","","","6287","key"," "," ","16.666901595744694","500","250","instPz","","","","","30","30",""
"","psychophysics","81","515216","0.0-81.0","5de7f5d27c17f804d007da90","625753371438100a4e027adf","","","","","14703","key"," "," ","16.667463110102126","500","250","instPz","","","","","53","40",""
"","psychophysics","82","517120","0.0-82.0","5de7f5d27c17f804d007da90","625753371438100a4e027adf","","","","","1901","key"," "," ","16.66958771929862","500","250","inst","","","","","","",""
"","psychophysics","83","522097","0.0-83.0","5de7f5d27c17f804d007da90","625753371438100a4e027adf","","","","","4975","key"," "," ","16.66761952861971","500","250","pz","","","","","72","60",""
"","psychophysics","84","525833","0.0-84.0","5de7f5d27c17f804d007da90","625753371438100a4e027adf","","","","","3734","key"," "," ","16.667991031390393","500","250","pz","","","","","37","26",""
"","psychophysics","85","532138","0.0-85.0","5de7f5d27c17f804d007da90","625753371438100a4e027adf","","","","","6301","key"," "," ","16.667862433862563","500","250","pz","","","","","84","55",""
"","psychophysics","86","536754","0.0-86.0","5de7f5d27c17f804d007da90","625753371438100a4e027adf","","","","","4614","key"," "," ","16.667409420289705","500","250","pz","","","","","43","32",""
"","psychophysics","87","540354","0.0-87.0","5de7f5d27c17f804d007da90","625753371438100a4e027adf","","","","","3597","key"," "," ","16.667465116279093","500","250","pz","","","","","36","25",""
"","psychophysics","88","543979","0.0-88.0","5de7f5d27c17f804d007da90","625753371438100a4e027adf","","","","","3622","key"," "," ","16.667143518518532","500","250","pz","","","","","34","23",""
"","psychophysics","89","555468","0.0-89.0","5de7f5d27c17f804d007da90","625753371438100a4e027adf","","","","","11487","key"," "," ","16.667180232558167","500","250","pz","","","","","70","49",""
"","psychophysics","90","559212","0.0-90.0","5de7f5d27c17f804d007da90","625753371438100a4e027adf","","","","","3741","key"," "," ","16.667531250000007","500","250","pz","","","","","32","25",""
"","psychophysics","91","564380","0.0-91.0","5de7f5d27c17f804d007da90","625753371438100a4e027adf","","","","","5165","key"," "," ","16.667851132685833","500","250","pz","","","","","77","56",""
"","psychophysics","92","571749","0.0-92.0","5de7f5d27c17f804d007da90","625753371438100a4e027adf","","","","","7366","key"," "," ","16.667362811791186","500","250","pz","","","","","56","37",""
"","psychophysics","93","579278","0.0-93.0","5de7f5d27c17f804d007da90","625753371438100a4e027adf","","","","","7527","key"," "," ","16.66708203991116","500","250","pz","","","","","62","40",""
"","psychophysics","94","583174","0.0-94.0","5de7f5d27c17f804d007da90","625753371438100a4e027adf","","","","","3894","key"," "," ","16.666892703862906","500","250","pz","","","","","31","20",""
"","psychophysics","95","592199","0.0-95.0","5de7f5d27c17f804d007da90","625753371438100a4e027adf","","","","","9023","key"," "," ","16.66733518518503","500","250","pz","","","","","50","38",""
"","psychophysics","96","597127","0.0-96.0","5de7f5d27c17f804d007da90","625753371438100a4e027adf","","","","","4926","key"," "," ","16.667128813559568","500","250","pz","","","","","57","44",""
"","psychophysics","97","607328","0.0-97.0","5de7f5d27c17f804d007da90","625753371438100a4e027adf","","","","","10199","key"," "," ","16.66718003273322","500","250","pz","","","","","55","44",""
"","psychophysics","98","609680","0.0-98.0","5de7f5d27c17f804d007da90","625753371438100a4e027adf","","","","","2350","key"," "," ","16.6667499999998","500","250","inst","","","","","","",""
"","psychophysics","99","613464","0.0-99.0","5de7f5d27c17f804d007da90","625753371438100a4e027adf","","","","","3782","key"," "," ","16.666393805310168","500","250","inst","","","","","","",""
"","psychophysics","100","619634","0.0-100.0","5de7f5d27c17f804d007da90","625753371438100a4e027adf","","","","","6166","key"," "," ","16.667457994579987","500","250","instFlank","","","","","0.5","0.3","1"
"","psychophysics","101","626370","0.0-101.0","5de7f5d27c17f804d007da90","625753371438100a4e027adf","","","","","6731","key"," "," ","16.666637717121656","500","250","inst","","","","","","",""
"","psychophysics","102","633474","0.0-102.0","5de7f5d27c17f804d007da90","625753371438100a4e027adf","","","","","7100","key"," "," ","16.667669014084566","500","250","instFlank","","","","","0.3799999999999999","0.3","1"
"","psychophysics","103","639011","0.0-103.0","5de7f5d27c17f804d007da90","625753371438100a4e027adf","","","","","5535","key"," "," ","16.667148036253778","500","250","inst","","","","","","",""
"","psychophysics","104","647156","0.0-104.0","5de7f5d27c17f804d007da90","625753371438100a4e027adf","","","","","8141","key"," "," ","16.667077868852427","500","250","instFlank","","","","","0.5900000000000001","0.3","0"
"","psychophysics","105","649964","0.0-105.0","5de7f5d27c17f804d007da90","625753371438100a4e027adf","","","","","2806","key"," "," ","16.66611377245532","500","250","inst","","","","","","",""
"","psychophysics","106","655581","0.0-106.0","5de7f5d27c17f804d007da90","625753371438100a4e027adf","","","","","5614","key"," "," ","16.666931547619157","500","250","flank","","","","","0.8000000000000003","0.74","0"
"","psychophysics","107","660461","0.0-107.0","5de7f5d27c17f804d007da90","625753371438100a4e027adf","","","","","4877","key"," "," ","16.667078767123325","500","250","flank","","","","","0.47","0.68","0"
"","psychophysics","108","666062","0.0-108.0","5de7f5d27c17f804d007da90","625753371438100a4e027adf","","","","","5598","key"," "," ","16.66712537313457","500","250","flank","","","","","0.2899999999999998","0.4","0"
"","psychophysics","109","670430","0.0-109.0","5de7f5d27c17f804d007da90","625753371438100a4e027adf","","","","","4366","key"," "," ","16.667398467432918","500","250","flank","","","","","0.5900000000000001","0.5","0"
"","psychophysics","110","675070","0.0-110.0","5de7f5d27c17f804d007da90","625753371438100a4e027adf","","","","","4638","key"," "," ","16.666996389891807","500","250","flank","","","","","0.8000000000000003","0.74","1"
"","psychophysics","111","679679","0.0-111.0","5de7f5d27c17f804d007da90","625753371438100a4e027adf","","","","","4605","key"," "," ","16.667105072463503","500","250","flank","","","","","0.8000000000000003","0.78","1"
"","psychophysics","112","683863","0.0-112.0","5de7f5d27c17f804d007da90","625753371438100a4e027adf","","","","","4181","key"," "," ","16.667459999999963","500","250","flank","","","","","0.5900000000000001","0.68","0"
"","psychophysics","113","687759","0.0-113.0","5de7f5d27c17f804d007da90","625753371438100a4e027adf","","","","","3892","key"," "," ","16.667158798283154","500","250","flank","","","","","0.53","0.48","0"
"","psychophysics","114","691784","0.0-114.0","5de7f5d27c17f804d007da90","625753371438100a4e027adf","","","","","4021","key"," "," ","16.66737916666704","500","250","flank","","","","","0.53","0.52","0"
"","psychophysics","115","695848","0.0-115.0","5de7f5d27c17f804d007da90","625753371438100a4e027adf","","","","","4062","key"," "," ","16.667427983538847","500","250","flank","","","","","0.6200000000000001","0.62","0"
"","psychophysics","116","699880","0.0-116.0","5de7f5d27c17f804d007da90","625753371438100a4e027adf","","","","","4029","key"," "," ","16.667091286306935","500","250","flank","","","","","0.7100000000000002","0.7","1"
"","psychophysics","117","703513","0.0-117.0","5de7f5d27c17f804d007da90","625753371438100a4e027adf","","","","","3630","key"," "," ","16.66689400921666","500","250","flank","","","","","0.56","0.58","1"
"","psychophysics","118","707553","0.0-118.0","5de7f5d27c17f804d007da90","625753371438100a4e027adf","","","","","4037","key"," "," ","16.66707468879674","500","250","flank","","","","","0.43999999999999995","0.4","1"
"","psychophysics","119","711897","0.0-119.0","5de7f5d27c17f804d007da90","625753371438100a4e027adf","","","","","4342","key"," "," ","16.667457692307654","500","250","flank","","","","","0.8000000000000003","0.72","0"
"","psychophysics","120","716994","0.0-120.0","5de7f5d27c17f804d007da90","625753371438100a4e027adf","","","","","5093","key"," "," ","16.667855737704905","500","250","flank","","","","","0.2599999999999998","0.28","1"
"","psychophysics","121","720050","0.0-121.0","5de7f5d27c17f804d007da90","625753371438100a4e027adf","","","","","3054","key"," "," ","16.667401098901443","500","250","flank","","","","","0.5900000000000001","0.64","1"
"","psychophysics","122","723499","0.0-122.0","5de7f5d27c17f804d007da90","625753371438100a4e027adf","","","","","3445","key"," "," ","16.667257281553194","500","250","flank","","","","","0.8000000000000003","0.78","1"
"","psychophysics","123","728139","0.0-123.0","5de7f5d27c17f804d007da90","625753371438100a4e027adf","","","","","4638","key"," "," ","16.666859205776074","500","250","flank","","","","","0.7700000000000002","0.78","1"
"","psychophysics","124","731579","0.0-124.0","5de7f5d27c17f804d007da90","625753371438100a4e027adf","","","","","3436","key"," "," ","16.667121359222858","500","250","flank","","","","","0.53","0.48","1"
"","psychophysics","125","735859","0.0-125.0","5de7f5d27c17f804d007da90","625753371438100a4e027adf","","","","","4277","key"," "," ","16.66739843749974","500","250","flank","","","","","0.53","0.42","1"
"","psychophysics","126","739708","0.0-126.0","5de7f5d27c17f804d007da90","625753371438100a4e027adf","","","","","3846","key"," "," ","16.667734782608306","500","250","flank","","","","","0.56","0.48","0"
"","psychophysics","127","743612","0.0-127.0","5de7f5d27c17f804d007da90","625753371438100a4e027adf","","","","","3901","key"," "," ","16.667540772532238","500","250","flank","","","","","0.7100000000000002","0.68","1"
"","psychophysics","128","747060","0.0-128.0","5de7f5d27c17f804d007da90","625753371438100a4e027adf","","","","","3445","key"," "," ","16.667786407767053","500","250","flank","","","","","0.56","0.62","1"
"","psychophysics","129","751421","0.0-129.0","5de7f5d27c17f804d007da90","625753371438100a4e027adf","","","","","4358","key"," "," ","16.66718846153862","500","250","flank","","","","","0.3799999999999999","0.28","0"
"","psychophysics","130","755413","0.0-130.0","5de7f5d27c17f804d007da90","625753371438100a4e027adf","","","","","3989","key"," "," ","16.667690376568952","500","250","flank","","","","","0.7100000000000002","0.62","0"
"","psychophysics","131","758294","0.0-131.0","5de7f5d27c17f804d007da90","625753371438100a4e027adf","","","","","2878","key"," "," ","16.66651162790706","500","250","flank","","","","","0.56","0.46","1"
"","psychophysics","132","762166","0.0-132.0","5de7f5d27c17f804d007da90","625753371438100a4e027adf","","","","","3869","key"," "," ","16.667809523809378","500","250","flank","","","","","0.53","0.36","0"
"","psychophysics","133","767022","0.0-133.0","5de7f5d27c17f804d007da90","625753371438100a4e027adf","","","","","4852","key"," "," ","16.667096551724082","500","250","flank","","","","","0.1699999999999998","0.2","0"
"","psychophysics","134","770494","0.0-134.0","5de7f5d27c17f804d007da90","625753371438100a4e027adf","","","","","3469","key"," "," ","16.667798076923084","500","250","flank","","","","","0.56","0.56","0"
"","psychophysics","135","773703","0.0-135.0","5de7f5d27c17f804d007da90","625753371438100a4e027adf","","","","","3205","key"," "," ","16.666633507853046","500","250","flank","","","","","0.5900000000000001","0.54","0"
"true","fullscreen","136","773706","0.0-136.0","5de7f5d27c17f804d007da90","625753371438100a4e027adf","","","","","","","","","","","","","","","","","","",""
