"success","trial_type","trial_index","time_elapsed","internal_node_id","pid","sid","timeout","failed_images","failed_audio","failed_video","rt","response_type","key_press","response","avg_frame_time","center_x","center_y","task","ml_len","ml_start","ml_x","ml_y","resp","targ","back"
"true","fullscreen","0","2821","0.0-0.0","5f540c0d1ed01f77d9512fac","625755aeeddd56b39e10e38a","","","","","","","","","","","","","","","","","","",""
"true","preload","1","2824","0.0-1.0","5f540c0d1ed01f77d9512fac","625755aeeddd56b39e10e38a","false","[]","[]","[]","","","","","","","","","","","","","","",""
"","psychophysics","2","6140","0.0-2.0","5f540c0d1ed01f77d9512fac","625755aeeddd56b39e10e38a","","","","","3306","key"," "," ","6.082913761467889","500","250","inst","","","","","","",""
"","psychophysics","3","7606","0.0-3.0","5f540c0d1ed01f77d9512fac","625755aeeddd56b39e10e38a","","","","","1464","key"," "," ","11.235123076923076","500","250","inst","","","","","","",""
"","psychophysics","4","7878","0.0-4.0","5f540c0d1ed01f77d9512fac","625755aeeddd56b39e10e38a","","","","","270","key"," "," ","13.397210526315815","500","250","instMl","182","-30.333333333333332","3","-22","-30.333333333333314","",""
"","psychophysics","5","16159","0.0-5.0","5f540c0d1ed01f77d9512fac","625755aeeddd56b39e10e38a","","","","","8279","key"," "," ","13.342875806451616","500","250","instMl","180","-30","6","22","-30","",""
"","psychophysics","6","21536","0.0-6.0","5f540c0d1ed01f77d9512fac","625755aeeddd56b39e10e38a","","","","","5374","key"," "," ","13.342141791044778","500","250","inst","","","","","","",""
"","psychophysics","7","27400","0.0-7.0","5f540c0d1ed01f77d9512fac","625755aeeddd56b39e10e38a","","","","","5862","key"," "," ","13.335933940774485","500","250","ml","194","35","-8","-4","35","",""
"","psychophysics","8","29543","0.0-8.0","5f540c0d1ed01f77d9512fac","625755aeeddd56b39e10e38a","","","","","2141","key"," "," ","13.340792452830176","500","250","ml","152","-5","15","-5","-5","",""
"","psychophysics","9","31175","0.0-9.0","5f540c0d1ed01f77d9512fac","625755aeeddd56b39e10e38a","","","","","1630","key"," "," ","13.36307377049179","500","250","ml","236","-54","17","-23","-54","",""
"","psychophysics","10","36321","0.0-10.0","5f540c0d1ed01f77d9512fac","625755aeeddd56b39e10e38a","","","","","5144","key"," "," ","13.336273437500003","500","250","ml","156","18","0","16","-9","",""
"","psychophysics","11","40197","0.0-11.0","5f540c0d1ed01f77d9512fac","625755aeeddd56b39e10e38a","","","","","3873","key"," "," ","13.33315517241381","500","250","ml","210","-47","16","-20","-24","",""
"","psychophysics","12","42398","0.0-12.0","5f540c0d1ed01f77d9512fac","625755aeeddd56b39e10e38a","","","","","2199","key"," "," ","13.340439024390257","500","250","ml","180","-29","13","-21","-15","",""
"","psychophysics","13","44928","0.0-13.0","5f540c0d1ed01f77d9512fac","625755aeeddd56b39e10e38a","","","","","2528","key"," "," ","13.339486772486776","500","250","ml","168","4","26","-9","-19","",""
"","psychophysics","14","46763","0.0-14.0","5f540c0d1ed01f77d9512fac","625755aeeddd56b39e10e38a","","","","","1833","key"," "," ","13.368772058823572","500","250","ml","180","14","-5","-27","-8","",""
"","psychophysics","15","48717","0.0-15.0","5f540c0d1ed01f77d9512fac","625755aeeddd56b39e10e38a","","","","","1952","key"," "," ","13.323780821917788","500","250","ml","186","-40","8","-18","-20","",""
"","psychophysics","16","50362","0.0-16.0","5f540c0d1ed01f77d9512fac","625755aeeddd56b39e10e38a","","","","","1642","key"," "," ","13.362909836065585","500","250","ml","192","-29","-12","-6","-14","",""
"","psychophysics","17","51779","0.0-17.0","5f540c0d1ed01f77d9512fac","625755aeeddd56b39e10e38a","","","","","1416","key"," "," ","13.333238095238077","500","250","ml","214","-8","17","-19","-19","",""
"","psychophysics","18","53550","0.0-18.0","5f540c0d1ed01f77d9512fac","625755aeeddd56b39e10e38a","","","","","1769","key"," "," ","13.360659090909119","500","250","ml","164","-40","12","0","-22","",""
"","psychophysics","19","56037","0.0-19.0","5f540c0d1ed01f77d9512fac","625755aeeddd56b39e10e38a","","","","","2485","key"," "," ","13.326499999999996","500","250","ml","160","29","-28","11","-11","",""
"","psychophysics","20","60117","0.0-20.0","5f540c0d1ed01f77d9512fac","625755aeeddd56b39e10e38a","","","","","4078","key"," "," ","13.337154605263166","500","250","ml","200","24","-13","1","-10","",""
"","psychophysics","21","63868","0.0-21.0","5f540c0d1ed01f77d9512fac","625755aeeddd56b39e10e38a","","","","","3749","key"," "," ","13.328768683274015","500","250","ml","206","30","-13","-21","-3","",""
"","psychophysics","22","65311","0.0-22.0","5f540c0d1ed01f77d9512fac","625755aeeddd56b39e10e38a","","","","","1440","key"," "," ","13.367102803738375","500","250","inst","","","","","","",""
"","psychophysics","23","77186","0.0-23.0","5f540c0d1ed01f77d9512fac","625755aeeddd56b39e10e38a","","","","","11874","key"," "," ","13.34132845894264","500","250","instPog","","","","","159","130",""
"","psychophysics","24","85146","0.0-24.0","5f540c0d1ed01f77d9512fac","625755aeeddd56b39e10e38a","","","","","7958","key"," "," ","13.341239932885907","500","250","instPog","","","","","128","130",""
"","psychophysics","25","91042","0.0-25.0","5f540c0d1ed01f77d9512fac","625755aeeddd56b39e10e38a","","","","","5894","key"," "," ","13.330349206349226","500","250","instPog","","","","","154","130",""
"","psychophysics","26","92559","0.0-26.0","5f540c0d1ed01f77d9512fac","625755aeeddd56b39e10e38a","","","","","1514","key"," "," ","13.301008849557483","500","250","inst","","","","","","",""
"","psychophysics","27","97911","0.0-27.0","5f540c0d1ed01f77d9512fac","625755aeeddd56b39e10e38a","","","","","5350","key"," "," ","13.333135000000002","500","250","pog","","","","","216","193",""
"","psychophysics","28","103197","0.0-28.0","5f540c0d1ed01f77d9512fac","625755aeeddd56b39e10e38a","","","","","5283","key"," "," ","13.333101265822778","500","250","pog","","","","","195","183",""
"","psychophysics","29","105656","0.0-29.0","5f540c0d1ed01f77d9512fac","625755aeeddd56b39e10e38a","","","","","2457","key"," "," ","13.33964673913041","500","250","pog","","","","","187","179",""
"","psychophysics","30","107789","0.0-30.0","5f540c0d1ed01f77d9512fac","625755aeeddd56b39e10e38a","","","","","2130","key"," "," ","13.340842767295618","500","250","pog","","","","","147","122",""
"","psychophysics","31","108725","0.0-31.0","5f540c0d1ed01f77d9512fac","625755aeeddd56b39e10e38a","","","","","934","key"," "," ","13.262898550724628","500","250","pog","","","","","159","151",""
"","psychophysics","32","110838","0.0-32.0","5f540c0d1ed01f77d9512fac","625755aeeddd56b39e10e38a","","","","","2111","key"," "," ","13.317751592356704","500","250","pog","","","","","143","129",""
"","psychophysics","33","112009","0.0-33.0","5f540c0d1ed01f77d9512fac","625755aeeddd56b39e10e38a","","","","","1169","key"," "," ","13.305252873563227","500","250","pog","","","","","160","142",""
"","psychophysics","34","114981","0.0-34.0","5f540c0d1ed01f77d9512fac","625755aeeddd56b39e10e38a","","","","","2971","key"," "," ","13.34949549549551","500","250","pog","","","","","219","199",""
"","psychophysics","35","116202","0.0-35.0","5f540c0d1ed01f77d9512fac","625755aeeddd56b39e10e38a","","","","","1218","key"," "," ","13.332477777777724","500","250","pog","","","","","159","131",""
"","psychophysics","36","120828","0.0-36.0","5f540c0d1ed01f77d9512fac","625755aeeddd56b39e10e38a","","","","","4623","key"," "," ","13.347115606936413","500","250","pog","","","","","136","121",""
"","psychophysics","37","123295","0.0-37.0","5f540c0d1ed01f77d9512fac","625755aeeddd56b39e10e38a","","","","","2465","key"," "," ","13.339586956521721","500","250","pog","","","","","172","177",""
"","psychophysics","38","124516","0.0-38.0","5f540c0d1ed01f77d9512fac","625755aeeddd56b39e10e38a","","","","","1219","key"," "," ","13.319780219780284","500","250","pog","","","","","162","156",""
"","psychophysics","39","127421","0.0-39.0","5f540c0d1ed01f77d9512fac","625755aeeddd56b39e10e38a","","","","","2901","key"," "," ","13.327527777777842","500","250","pog","","","","","216","196",""
"","psychophysics","40","128313","0.0-40.0","5f540c0d1ed01f77d9512fac","625755aeeddd56b39e10e38a","","","","","890","key"," "," ","13.406575757575796","500","250","pog","","","","","161","154",""
"","psychophysics","41","130324","0.0-41.0","5f540c0d1ed01f77d9512fac","625755aeeddd56b39e10e38a","","","","","2009","key"," "," ","13.333080000000093","500","250","pog","","","","","187","185",""
"","psychophysics","42","131735","0.0-42.0","5f540c0d1ed01f77d9512fac","625755aeeddd56b39e10e38a","","","","","1409","key"," "," ","13.3331714285715","500","250","inst","","","","","","",""
"","psychophysics","43","133822","0.0-43.0","5f540c0d1ed01f77d9512fac","625755aeeddd56b39e10e38a","","","","","2084","key"," "," ","13.37210967741933","500","250","instTilt","","","","","NaN","0","0"
"","psychophysics","44","136042","0.0-44.0","5f540c0d1ed01f77d9512fac","625755aeeddd56b39e10e38a","","","","","2217","key"," "," ","13.325819277108495","500","250","instTilt","","","","","0","0","0"
"","psychophysics","45","141120","0.0-45.0","5f540c0d1ed01f77d9512fac","625755aeeddd56b39e10e38a","","","","","5076","key"," "," ","13.336390501319256","500","250","instTilt","","","","","-25","0","0"
"","psychophysics","46","145232","0.0-46.0","5f540c0d1ed01f77d9512fac","625755aeeddd56b39e10e38a","","","","","4110","key"," "," ","13.321314935064924","500","250","inst","","","","","","",""
"","psychophysics","47","150229","0.0-47.0","5f540c0d1ed01f77d9512fac","625755aeeddd56b39e10e38a","","","","","4995","key"," "," ","13.339640750670284","500","250","tilt","","","","","-3","-5","0"
"","psychophysics","48","152203","0.0-48.0","5f540c0d1ed01f77d9512fac","625755aeeddd56b39e10e38a","","","","","1972","key"," "," ","13.316680272108817","500","250","tilt","","","","","-13","-9","1"
"","psychophysics","49","154107","0.0-49.0","5f540c0d1ed01f77d9512fac","625755aeeddd56b39e10e38a","","","","","1901","key"," "," ","13.31614084507037","500","250","tilt","","","","","12","6","0"
"","psychophysics","50","156036","0.0-50.0","5f540c0d1ed01f77d9512fac","625755aeeddd56b39e10e38a","","","","","1928","key"," "," ","13.341520833333359","500","250","tilt","","","","","-10","-9","0"
"","psychophysics","51","158365","0.0-51.0","5f540c0d1ed01f77d9512fac","625755aeeddd56b39e10e38a","","","","","2328","key"," "," ","13.347115606936455","500","250","tilt","","","","","-6","-2","1"
"","psychophysics","52","159528","0.0-52.0","5f540c0d1ed01f77d9512fac","625755aeeddd56b39e10e38a","","","","","1161","key"," "," ","13.375333333333444","500","250","tilt","","","","","0","-4","0"
"","psychophysics","53","161628","0.0-53.0","5f540c0d1ed01f77d9512fac","625755aeeddd56b39e10e38a","","","","","2097","key"," "," ","13.325262820512693","500","250","tilt","","","","","11","3","1"
"","psychophysics","54","163160","0.0-54.0","5f540c0d1ed01f77d9512fac","625755aeeddd56b39e10e38a","","","","","1528","key"," "," ","13.290649122806938","500","250","tilt","","","","","-12","-9","1"
"","psychophysics","55","164772","0.0-55.0","5f540c0d1ed01f77d9512fac","625755aeeddd56b39e10e38a","","","","","1610","key"," "," ","13.28278333333316","500","250","tilt","","","","","-15","-5","1"
"","psychophysics","56","166745","0.0-56.0","5f540c0d1ed01f77d9512fac","625755aeeddd56b39e10e38a","","","","","1971","key"," "," ","13.316421768707453","500","250","tilt","","","","","8","5","1"
"","psychophysics","57","167991","0.0-57.0","5f540c0d1ed01f77d9512fac","625755aeeddd56b39e10e38a","","","","","1245","key"," "," ","13.306706521739176","500","250","tilt","","","","","1","4","0"
"","psychophysics","58","169674","0.0-58.0","5f540c0d1ed01f77d9512fac","625755aeeddd56b39e10e38a","","","","","1681","key"," "," ","13.332952000000049","500","250","tilt","","","","","4","6","0"
"","psychophysics","59","171540","0.0-59.0","5f540c0d1ed01f77d9512fac","625755aeeddd56b39e10e38a","","","","","1864","key"," "," ","13.29823741007206","500","250","tilt","","","","","-13","-10","0"
"","psychophysics","60","173451","0.0-60.0","5f540c0d1ed01f77d9512fac","625755aeeddd56b39e10e38a","","","","","1909","key"," "," ","13.316028169014213","500","250","tilt","","","","","11","2","0"
"","psychophysics","61","176355","0.0-61.0","5f540c0d1ed01f77d9512fac","625755aeeddd56b39e10e38a","","","","","2903","key"," "," ","13.34992165898613","500","250","tilt","","","","","11","-3","0"
"","psychophysics","62","178310","0.0-62.0","5f540c0d1ed01f77d9512fac","625755aeeddd56b39e10e38a","","","","","1953","key"," "," ","13.366198630137161","500","250","tilt","","","","","7","10","1"
"","psychophysics","63","180614","0.0-63.0","5f540c0d1ed01f77d9512fac","625755aeeddd56b39e10e38a","","","","","2301","key"," "," ","13.326017543859711","500","250","tilt","","","","","0","-5","0"
"","psychophysics","64","183036","0.0-64.0","5f540c0d1ed01f77d9512fac","625755aeeddd56b39e10e38a","","","","","2420","key"," "," ","13.359917127071766","500","250","tilt","","","","","7","8","1"
"","psychophysics","65","184699","0.0-65.0","5f540c0d1ed01f77d9512fac","625755aeeddd56b39e10e38a","","","","","1660","key"," "," ","13.342540322580458","500","250","tilt","","","","","-10","1","1"
"","psychophysics","66","186647","0.0-66.0","5f540c0d1ed01f77d9512fac","625755aeeddd56b39e10e38a","","","","","1946","key"," "," ","13.333144827586285","500","250","tilt","","","","","-11","-8","0"
"","psychophysics","67","188267","0.0-67.0","5f540c0d1ed01f77d9512fac","625755aeeddd56b39e10e38a","","","","","1617","key"," "," ","13.332308333333398","500","250","tilt","","","","","-14","-6","1"
"","psychophysics","68","189626","0.0-68.0","5f540c0d1ed01f77d9512fac","625755aeeddd56b39e10e38a","","","","","1358","key"," "," ","13.321069306930836","500","250","tilt","","","","","-11","-1","1"
"","psychophysics","69","191323","0.0-69.0","5f540c0d1ed01f77d9512fac","625755aeeddd56b39e10e38a","","","","","1694","key"," "," ","13.323388888888912","500","250","tilt","","","","","11","-1","0"
"","psychophysics","70","192663","0.0-70.0","5f540c0d1ed01f77d9512fac","625755aeeddd56b39e10e38a","","","","","1338","key"," "," ","13.272509999999892","500","250","tilt","","","","","-13","-10","1"
"","psychophysics","71","194061","0.0-71.0","5f540c0d1ed01f77d9512fac","625755aeeddd56b39e10e38a","","","","","1396","key"," "," ","13.345192307692251","500","250","tilt","","","","","-12","-5","1"
"","psychophysics","72","196238","0.0-72.0","5f540c0d1ed01f77d9512fac","625755aeeddd56b39e10e38a","","","","","2174","key"," "," ","13.318191358024638","500","250","tilt","","","","","-10","-8","0"
"","psychophysics","73","198091","0.0-73.0","5f540c0d1ed01f77d9512fac","625755aeeddd56b39e10e38a","","","","","1852","key"," "," ","13.306804347826139","500","250","tilt","","","","","8","7","1"
"","psychophysics","74","199362","0.0-74.0","5f540c0d1ed01f77d9512fac","625755aeeddd56b39e10e38a","","","","","1269","key"," "," ","13.409106382978473","500","250","tilt","","","","","-14","-9","1"
"","psychophysics","75","201603","0.0-75.0","5f540c0d1ed01f77d9512fac","625755aeeddd56b39e10e38a","","","","","2238","key"," "," ","13.318670658682596","500","250","tilt","","","","","5","4","1"
"","psychophysics","76","203165","0.0-76.0","5f540c0d1ed01f77d9512fac","625755aeeddd56b39e10e38a","","","","","1561","key"," "," ","13.375224137930893","500","250","tilt","","","","","-11","-7","1"
"","psychophysics","77","205512","0.0-77.0","5f540c0d1ed01f77d9512fac","625755aeeddd56b39e10e38a","","","","","2345","key"," "," ","13.333062857142815","500","250","inst","","","","","","",""
"","psychophysics","78","209135","0.0-78.0","5f540c0d1ed01f77d9512fac","625755aeeddd56b39e10e38a","","","","","3621","key"," "," ","13.351014760147601","500","250","instPz","","","","","50","50",""
"","psychophysics","79","213217","0.0-79.0","5f540c0d1ed01f77d9512fac","625755aeeddd56b39e10e38a","","","","","4080","key"," "," ","13.333104918032816","500","250","instPz","","","","","14","50",""
"","psychophysics","80","216215","0.0-80.0","5f540c0d1ed01f77d9512fac","625755aeeddd56b39e10e38a","","","","","2996","key"," "," ","13.344035874439466","500","250","instPz","","","","","33","30",""
"","psychophysics","81","220321","0.0-81.0","5f540c0d1ed01f77d9512fac","625755aeeddd56b39e10e38a","","","","","4103","key"," "," ","13.344990228012971","500","250","instPz","","","","","37","40",""
"","psychophysics","82","221832","0.0-82.0","5f540c0d1ed01f77d9512fac","625755aeeddd56b39e10e38a","","","","","1509","key"," "," ","13.354548672566487","500","250","inst","","","","","","",""
"","psychophysics","83","223686","0.0-83.0","5f540c0d1ed01f77d9512fac","625755aeeddd56b39e10e38a","","","","","1852","key"," "," ","13.35074637681153","500","250","pz","","","","","32","45",""
"","psychophysics","84","227172","0.0-84.0","5f540c0d1ed01f77d9512fac","625755aeeddd56b39e10e38a","","","","","3483","key"," "," ","13.333111538461527","500","250","pz","","","","","63","59",""
"","psychophysics","85","229405","0.0-85.0","5f540c0d1ed01f77d9512fac","625755aeeddd56b39e10e38a","","","","","2230","key"," "," ","13.362349397590327","500","250","pz","","","","","45","42",""
"","psychophysics","86","231910","0.0-86.0","5f540c0d1ed01f77d9512fac","625755aeeddd56b39e10e38a","","","","","2503","key"," "," ","13.320133689839677","500","250","pz","","","","","65","52",""
"","psychophysics","87","234617","0.0-87.0","5f540c0d1ed01f77d9512fac","625755aeeddd56b39e10e38a","","","","","2706","key"," "," ","13.321103960395956","500","250","pz","","","","","61","53",""
"","psychophysics","88","237034","0.0-88.0","5f540c0d1ed01f77d9512fac","625755aeeddd56b39e10e38a","","","","","2415","key"," "," ","13.333666666666653","500","250","pz","","","","","56","37",""
"","psychophysics","89","238894","0.0-89.0","5f540c0d1ed01f77d9512fac","625755aeeddd56b39e10e38a","","","","","1857","key"," "," ","13.341755395683354","500","250","pz","","","","","41","29",""
"","psychophysics","90","242353","0.0-90.0","5f540c0d1ed01f77d9512fac","625755aeeddd56b39e10e38a","","","","","3458","key"," "," ","13.342519379844942","500","250","pz","","","","","89","57",""
"","psychophysics","91","243442","0.0-91.0","5f540c0d1ed01f77d9512fac","625755aeeddd56b39e10e38a","","","","","1087","key"," "," ","13.318172839506497","500","250","pz","","","","","22","28",""
"","psychophysics","92","246888","0.0-92.0","5f540c0d1ed01f77d9512fac","625755aeeddd56b39e10e38a","","","","","3443","key"," "," ","13.323712062256766","500","250","pz","","","","","76","59",""
"","psychophysics","93","249489","0.0-93.0","5f540c0d1ed01f77d9512fac","625755aeeddd56b39e10e38a","","","","","2599","key"," "," ","13.33931443298979","500","250","pz","","","","","65","48",""
"","psychophysics","94","251368","0.0-94.0","5f540c0d1ed01f77d9512fac","625755aeeddd56b39e10e38a","","","","","1877","key"," "," ","13.333078571428528","500","250","pz","","","","","44","40",""
"","psychophysics","95","253411","0.0-95.0","5f540c0d1ed01f77d9512fac","625755aeeddd56b39e10e38a","","","","","2040","key"," "," ","13.317046052631524","500","250","pz","","","","","52","54",""
"","psychophysics","96","254689","0.0-96.0","5f540c0d1ed01f77d9512fac","625755aeeddd56b39e10e38a","","","","","1276","key"," "," ","13.333168421052457","500","250","pz","","","","","25","24",""
"","psychophysics","97","256467","0.0-97.0","5f540c0d1ed01f77d9512fac","625755aeeddd56b39e10e38a","","","","","1775","key"," "," ","13.31472727272745","500","250","pz","","","","","39","38",""
"","psychophysics","98","258510","0.0-98.0","5f540c0d1ed01f77d9512fac","625755aeeddd56b39e10e38a","","","","","2041","key"," "," ","13.317164473684228","500","250","inst","","","","","","",""
"","psychophysics","99","260964","0.0-99.0","5f540c0d1ed01f77d9512fac","625755aeeddd56b39e10e38a","","","","","2452","key"," "," ","13.346448087431662","500","250","inst","","","","","","",""
"","psychophysics","100","263057","0.0-100.0","5f540c0d1ed01f77d9512fac","625755aeeddd56b39e10e38a","","","","","2089","key"," "," ","13.364166666666652","500","250","instFlank","","","","","0.5","0.3","1"
"","psychophysics","101","266183","0.0-101.0","5f540c0d1ed01f77d9512fac","625755aeeddd56b39e10e38a","","","","","3123","key"," "," ","13.338277777777806","500","250","inst","","","","","","",""
"","psychophysics","102","275312","0.0-102.0","5f540c0d1ed01f77d9512fac","625755aeeddd56b39e10e38a","","","","","9128","key"," "," ","13.336689604685173","500","250","instFlank","","","","","0.2899999999999998","0.3","1"
"","psychophysics","103","277401","0.0-103.0","5f540c0d1ed01f77d9512fac","625755aeeddd56b39e10e38a","","","","","2085","key"," "," ","13.364230769230813","500","250","inst","","","","","","",""
"","psychophysics","104","280671","0.0-104.0","5f540c0d1ed01f77d9512fac","625755aeeddd56b39e10e38a","","","","","3268","key"," "," ","13.338032786885169","500","250","instFlank","","","","","0.53","0.3","0"
"","psychophysics","105","282195","0.0-105.0","5f540c0d1ed01f77d9512fac","625755aeeddd56b39e10e38a","","","","","1522","key"," "," ","13.354601769911566","500","250","inst","","","","","","",""
"","psychophysics","106","287689","0.0-106.0","5f540c0d1ed01f77d9512fac","625755aeeddd56b39e10e38a","","","","","5491","key"," "," ","13.344912408759173","500","250","flank","","","","","0.7400000000000002","0.68","1"
"","psychophysics","107","291306","0.0-107.0","5f540c0d1ed01f77d9512fac","625755aeeddd56b39e10e38a","","","","","3616","key"," "," ","13.333129629629655","500","250","flank","","","","","0.56","0.54","0"
"","psychophysics","108","295463","0.0-108.0","5f540c0d1ed01f77d9512fac","625755aeeddd56b39e10e38a","","","","","4154","key"," "," ","13.329254019292561","500","250","flank","","","","","0.0799999999999998","0.26","1"
"","psychophysics","109","300632","0.0-109.0","5f540c0d1ed01f77d9512fac","625755aeeddd56b39e10e38a","","","","","5167","key"," "," ","13.329932642487178","500","250","flank","","","","","0.7700000000000002","0.78","0"
"","psychophysics","110","303923","0.0-110.0","5f540c0d1ed01f77d9512fac","625755aeeddd56b39e10e38a","","","","","3288","key"," "," ","13.32821544715439","500","250","flank","","","","","0.2899999999999998","0.38","0"
"","psychophysics","111","307642","0.0-111.0","5f540c0d1ed01f77d9512fac","625755aeeddd56b39e10e38a","","","","","3716","key"," "," ","13.341848920863464","500","250","flank","","","","","0.2599999999999998","0.4","0"
"","psychophysics","112","310430","0.0-112.0","5f540c0d1ed01f77d9512fac","625755aeeddd56b39e10e38a","","","","","2787","key"," "," ","13.34479326923051","500","250","flank","","","","","0.2899999999999998","0.3","0"
"","psychophysics","113","313619","0.0-113.0","5f540c0d1ed01f77d9512fac","625755aeeddd56b39e10e38a","","","","","3187","key"," "," ","13.343247899159538","500","250","flank","","","","","0.7400000000000002","0.76","0"
"","psychophysics","114","316567","0.0-114.0","5f540c0d1ed01f77d9512fac","625755aeeddd56b39e10e38a","","","","","2945","key"," "," ","13.333118181818282","500","250","flank","","","","","0.8000000000000003","0.78","0"
"","psychophysics","115","319091","0.0-115.0","5f540c0d1ed01f77d9512fac","625755aeeddd56b39e10e38a","","","","","2522","key"," "," ","13.313771276595752","500","250","flank","","","","","0.53","0.58","0"
"","psychophysics","116","321892","0.0-116.0","5f540c0d1ed01f77d9512fac","625755aeeddd56b39e10e38a","","","","","2799","key"," "," ","13.338889952153012","500","250","flank","","","","","0.4099999999999999","0.36","0"
"","psychophysics","117","325113","0.0-117.0","5f540c0d1ed01f77d9512fac","625755aeeddd56b39e10e38a","","","","","3218","key"," "," ","13.328095435684633","500","250","flank","","","","","0.7700000000000002","0.72","0"
"","psychophysics","118","327820","0.0-118.0","5f540c0d1ed01f77d9512fac","625755aeeddd56b39e10e38a","","","","","2705","key"," "," ","13.351123762376075","500","250","flank","","","","","0.1999999999999998","0.36","1"
"","psychophysics","119","332115","0.0-119.0","5f540c0d1ed01f77d9512fac","625755aeeddd56b39e10e38a","","","","","4293","key"," "," ","13.348221183800563","500","250","flank","","","","","0.6500000000000001","0.7","0"
"","psychophysics","120","335962","0.0-120.0","5f540c0d1ed01f77d9512fac","625755aeeddd56b39e10e38a","","","","","3843","key"," "," ","13.324641114982649","500","250","flank","","","","","0.2899999999999998","0.38","0"
"","psychophysics","121","338966","0.0-121.0","5f540c0d1ed01f77d9512fac","625755aeeddd56b39e10e38a","","","","","3001","key"," "," ","13.33848660714284","500","250","flank","","","","","0.1399999999999998","0.26","1"
"","psychophysics","122","343528","0.0-122.0","5f540c0d1ed01f77d9512fac","625755aeeddd56b39e10e38a","","","","","4559","key"," "," ","13.329580645161425","500","250","flank","","","","","0","0.22","1"
"","psychophysics","123","346848","0.0-123.0","5f540c0d1ed01f77d9512fac","625755aeeddd56b39e10e38a","","","","","3317","key"," "," ","13.318439516129025","500","250","flank","","","","","0.2899999999999998","0.52","1"
"","psychophysics","124","349959","0.0-124.0","5f540c0d1ed01f77d9512fac","625755aeeddd56b39e10e38a","","","","","3109","key"," "," ","13.317450643776889","500","250","flank","","","","","0.7700000000000002","0.6","0"
"","psychophysics","125","352717","0.0-125.0","5f540c0d1ed01f77d9512fac","625755aeeddd56b39e10e38a","","","","","2756","key"," "," ","13.333126829268423","500","250","flank","","","","","0.2299999999999998","0.34","0"
"","psychophysics","126","355197","0.0-126.0","5f540c0d1ed01f77d9512fac","625755aeeddd56b39e10e38a","","","","","2477","key"," "," ","13.333091891891751","500","250","flank","","","","","0.53","0.5","1"
"","psychophysics","127","357853","0.0-127.0","5f540c0d1ed01f77d9512fac","625755aeeddd56b39e10e38a","","","","","2654","key"," "," ","13.345363636363846","500","250","flank","","","","","0.3799999999999999","0.42","0"
"","psychophysics","128","360528","0.0-128.0","5f540c0d1ed01f77d9512fac","625755aeeddd56b39e10e38a","","","","","2674","key"," "," ","13.333164999999862","500","250","flank","","","","","0.34999999999999987","0.42","1"
"","psychophysics","129","363046","0.0-129.0","5f540c0d1ed01f77d9512fac","625755aeeddd56b39e10e38a","","","","","2515","key"," "," ","13.313744680851046","500","250","flank","","","","","0.1399999999999998","0.24","1"
"","psychophysics","130","365759","0.0-130.0","5f540c0d1ed01f77d9512fac","625755aeeddd56b39e10e38a","","","","","2711","key"," "," ","13.321247524752438","500","250","flank","","","","","0.43999999999999995","0.38","1"
"","psychophysics","131","368251","0.0-131.0","5f540c0d1ed01f77d9512fac","625755aeeddd56b39e10e38a","","","","","2490","key"," "," ","13.359322580645332","500","250","flank","","","","","0.1699999999999998","0.2","0"
"","psychophysics","132","371242","0.0-132.0","5f540c0d1ed01f77d9512fac","625755aeeddd56b39e10e38a","","","","","2988","key"," "," ","13.316807174888092","500","250","flank","","","","","0.6500000000000001","0.7","1"
"","psychophysics","133","373810","0.0-133.0","5f540c0d1ed01f77d9512fac","625755aeeddd56b39e10e38a","","","","","2565","key"," "," ","13.320505208333392","500","250","flank","","","","","0.43999999999999995","0.3","0"
"","psychophysics","134","376885","0.0-134.0","5f540c0d1ed01f77d9512fac","625755aeeddd56b39e10e38a","","","","","3073","key"," "," ","13.338397379912736","500","250","flank","","","","","0.7700000000000002","0.78","1"
"","psychophysics","135","379717","0.0-135.0","5f540c0d1ed01f77d9512fac","625755aeeddd56b39e10e38a","","","","","2830","key"," "," ","13.321570754717028","500","250","flank","","","","","0.7400000000000002","0.74","1"
"true","fullscreen","136","379720","0.0-136.0","5f540c0d1ed01f77d9512fac","625755aeeddd56b39e10e38a","","","","","","","","","","","","","","","","","","",""
