"success","trial_type","trial_index","time_elapsed","internal_node_id","pid","sid","timeout","failed_images","failed_audio","failed_video","rt","response_type","key_press","response","avg_frame_time","center_x","center_y","task","ml_len","ml_start","ml_x","ml_y","resp","targ","back"
"true","fullscreen","0","2126","0.0-0.0","5f1b6a9ec094bd360e71cee1","62575682e0270f2daa8fcd96","","","","","","","","","","","","","","","","","","",""
"true","preload","1","2127","0.0-1.0","5f1b6a9ec094bd360e71cee1","62575682e0270f2daa8fcd96","false","[]","[]","[]","","","","","","","","","","","","","","",""
"","psychophysics","2","4808","0.0-2.0","5f1b6a9ec094bd360e71cee1","62575682e0270f2daa8fcd96","","","","","2668","key"," "," ","16.707434782608694","500","250","inst","","","","","","",""
"","psychophysics","3","6381","0.0-3.0","5f1b6a9ec094bd360e71cee1","62575682e0270f2daa8fcd96","","","","","1571","key"," "," ","17.256800000000002","500","250","inst","","","","","","",""
"","psychophysics","4","50531","0.0-4.0","5f1b6a9ec094bd360e71cee1","62575682e0270f2daa8fcd96","","","","","44147","key"," "," ","27.380582506203478","500","250","instMl","186","-31","13","6","-11","",""
"","psychophysics","5","59459","0.0-5.0","5f1b6a9ec094bd360e71cee1","62575682e0270f2daa8fcd96","","","","","8926","key"," "," ","16.69975984990618","500","250","instMl","156","-26","12","25","-10","",""
"","psychophysics","6","61932","0.0-6.0","5f1b6a9ec094bd360e71cee1","62575682e0270f2daa8fcd96","","","","","2470","key"," "," ","16.699797297297295","500","250","inst","","","","","","",""
"","psychophysics","7","66882","0.0-7.0","5f1b6a9ec094bd360e71cee1","62575682e0270f2daa8fcd96","","","","","4947","key"," "," ","16.699772881355923","500","250","ml","162","39","-28","7","-7","",""
"","psychophysics","8","69623","0.0-8.0","5f1b6a9ec094bd360e71cee1","62575682e0270f2daa8fcd96","","","","","2739","key"," "," ","16.699730061349673","500","250","ml","236","-15","26","25","-16","",""
"","psychophysics","9","72429","0.0-9.0","5f1b6a9ec094bd360e71cee1","62575682e0270f2daa8fcd96","","","","","2804","key"," "," ","16.699754491017945","500","250","ml","204","-19","15","4","-16","",""
"","psychophysics","10","80362","0.0-10.0","5f1b6a9ec094bd360e71cee1","62575682e0270f2daa8fcd96","","","","","7930","key"," "," ","16.699717299578055","500","250","ml","192","-3","-1","-23","-11","",""
"","psychophysics","11","84878","0.0-11.0","5f1b6a9ec094bd360e71cee1","62575682e0270f2daa8fcd96","","","","","4513","key"," "," ","16.699770370370405","500","250","ml","184","-11","17","6","-13","",""
"","psychophysics","12","92518","0.0-12.0","5f1b6a9ec094bd360e71cee1","62575682e0270f2daa8fcd96","","","","","7638","key"," "," ","16.700061403508744","500","250","ml","212","31","-23","-12","-12","",""
"","psychophysics","13","99234","0.0-13.0","5f1b6a9ec094bd360e71cee1","62575682e0270f2daa8fcd96","","","","","6714","key"," "," ","16.699743142144662","500","250","ml","208","50","-25","2","-14","",""
"","psychophysics","14","101430","0.0-14.0","5f1b6a9ec094bd360e71cee1","62575682e0270f2daa8fcd96","","","","","2194","key"," "," ","16.699633587786273","500","250","ml","226","-11","19","29","-13","",""
"","psychophysics","15","105654","0.0-15.0","5f1b6a9ec094bd360e71cee1","62575682e0270f2daa8fcd96","","","","","4222","key"," "," ","16.699678571428585","500","250","ml","152","-28","15","25","-12","",""
"","psychophysics","16","110356","0.0-16.0","5f1b6a9ec094bd360e71cee1","62575682e0270f2daa8fcd96","","","","","4700","key"," "," ","16.70035714285711","500","250","ml","176","3","-30","2","-8","",""
"","psychophysics","17","113384","0.0-17.0","5f1b6a9ec094bd360e71cee1","62575682e0270f2daa8fcd96","","","","","3026","key"," "," ","16.700386740331513","500","250","ml","166","-24","-15","-16","-14","",""
"","psychophysics","18","118661","0.0-18.0","5f1b6a9ec094bd360e71cee1","62575682e0270f2daa8fcd96","","","","","5274","key"," "," ","16.699758730158727","500","250","ml","238","31","3","-10","-15","",""
"","psychophysics","19","122447","0.0-19.0","5f1b6a9ec094bd360e71cee1","62575682e0270f2daa8fcd96","","","","","3784","key"," "," ","16.700280000000042","500","250","ml","208","27","3","2","-11","",""
"","psychophysics","20","126673","0.0-20.0","5f1b6a9ec094bd360e71cee1","62575682e0270f2daa8fcd96","","","","","4224","key"," "," ","16.699753968253983","500","250","ml","196","23","5","-5","-11","",""
"","psychophysics","21","130729","0.0-21.0","5f1b6a9ec094bd360e71cee1","62575682e0270f2daa8fcd96","","","","","4054","key"," "," ","16.699764462809952","500","250","ml","222","22","14","-4","-14","",""
"","psychophysics","22","131967","0.0-22.0","5f1b6a9ec094bd360e71cee1","62575682e0270f2daa8fcd96","","","","","1236","key"," "," ","16.699767123287454","500","250","inst","","","","","","",""
"","psychophysics","23","148555","0.0-23.0","5f1b6a9ec094bd360e71cee1","62575682e0270f2daa8fcd96","","","","","16586","key"," "," ","16.69977341389728","500","250","instPog","","","","","130","130",""
"","psychophysics","24","163256","0.0-24.0","5f1b6a9ec094bd360e71cee1","62575682e0270f2daa8fcd96","","","","","14699","key"," "," ","16.699911262798643","500","250","instPog","","","","","131","130",""
"","psychophysics","25","170147","0.0-25.0","5f1b6a9ec094bd360e71cee1","62575682e0270f2daa8fcd96","","","","","6889","key"," "," ","16.699788834951445","500","250","instPog","","","","","159","130",""
"","psychophysics","26","171354","0.0-26.0","5f1b6a9ec094bd360e71cee1","62575682e0270f2daa8fcd96","","","","","1206","key"," "," ","16.69964788732378","500","250","inst","","","","","","",""
"","psychophysics","27","174211","0.0-27.0","5f1b6a9ec094bd360e71cee1","62575682e0270f2daa8fcd96","","","","","2855","key"," "," ","16.69974117647062","500","250","pog","","","","","166","149",""
"","psychophysics","28","178576","0.0-28.0","5f1b6a9ec094bd360e71cee1","62575682e0270f2daa8fcd96","","","","","4359","key"," "," ","16.699726923076938","500","250","pog","","","","","197","183",""
"","psychophysics","29","179808","0.0-29.0","5f1b6a9ec094bd360e71cee1","62575682e0270f2daa8fcd96","","","","","1230","key"," "," ","16.699191780821884","500","250","pog","","","","","160","142",""
"","psychophysics","30","189919","0.0-30.0","5f1b6a9ec094bd360e71cee1","62575682e0270f2daa8fcd96","","","","","10108","key"," "," ","16.699763636363617","500","250","pog","","","","","212","186",""
"","psychophysics","31","194050","0.0-31.0","5f1b6a9ec094bd360e71cee1","62575682e0270f2daa8fcd96","","","","","4129","key"," "," ","16.699284552845548","500","250","pog","","","","","165","141",""
"","psychophysics","32","197006","0.0-32.0","5f1b6a9ec094bd360e71cee1","62575682e0270f2daa8fcd96","","","","","2954","key"," "," ","16.700164772727227","500","250","pog","","","","","167","142",""
"","psychophysics","33","202620","0.0-33.0","5f1b6a9ec094bd360e71cee1","62575682e0270f2daa8fcd96","","","","","5613","key"," "," ","16.69973134328359","500","250","pog","","","","","209","192",""
"","psychophysics","34","205241","0.0-34.0","5f1b6a9ec094bd360e71cee1","62575682e0270f2daa8fcd96","","","","","2618","key"," "," ","16.6997243589744","500","250","pog","","","","","155","141",""
"","psychophysics","35","211061","0.0-35.0","5f1b6a9ec094bd360e71cee1","62575682e0270f2daa8fcd96","","","","","5818","key"," "," ","16.69939080459772","500","250","pog","","","","","188","181",""
"","psychophysics","36","213389","0.0-36.0","5f1b6a9ec094bd360e71cee1","62575682e0270f2daa8fcd96","","","","","2325","key"," "," ","16.699768115942025","500","250","pog","","","","","156","132",""
"","psychophysics","37","217013","0.0-37.0","5f1b6a9ec094bd360e71cee1","62575682e0270f2daa8fcd96","","","","","3622","key"," "," ","16.699189814814787","500","250","pog","","","","","181","167",""
"","psychophysics","38","221102","0.0-38.0","5f1b6a9ec094bd360e71cee1","62575682e0270f2daa8fcd96","","","","","4087","key"," "," ","16.700225409836108","500","250","pog","","","","","220","200",""
"","psychophysics","39","222628","0.0-39.0","5f1b6a9ec094bd360e71cee1","62575682e0270f2daa8fcd96","","","","","1524","key"," "," ","16.69629999999985","500","250","pog","","","","","160","137",""
"","psychophysics","40","226168","0.0-40.0","5f1b6a9ec094bd360e71cee1","62575682e0270f2daa8fcd96","","","","","3538","key"," "," ","16.699658767772497","500","250","pog","","","","","172","148",""
"","psychophysics","41","227968","0.0-41.0","5f1b6a9ec094bd360e71cee1","62575682e0270f2daa8fcd96","","","","","1798","key"," "," ","16.699869158878492","500","250","pog","","","","","162","152",""
"","psychophysics","42","229812","0.0-42.0","5f1b6a9ec094bd360e71cee1","62575682e0270f2daa8fcd96","","","","","1842","key"," "," ","16.69863302752305","500","250","inst","","","","","","",""
"","psychophysics","43","232591","0.0-43.0","5f1b6a9ec094bd360e71cee1","62575682e0270f2daa8fcd96","","","","","2777","key"," "," ","16.8016787878788","500","250","instTilt","","","","","NaN","0","0"
"","psychophysics","44","235070","0.0-44.0","5f1b6a9ec094bd360e71cee1","62575682e0270f2daa8fcd96","","","","","2476","key"," "," ","16.699768707483056","500","250","instTilt","","","","","0","0","0"
"","psychophysics","45","243888","0.0-45.0","5f1b6a9ec094bd360e71cee1","62575682e0270f2daa8fcd96","","","","","8816","key"," "," ","16.699759013282762","500","250","instTilt","","","","","0","0","0"
"","psychophysics","46","246414","0.0-46.0","5f1b6a9ec094bd360e71cee1","62575682e0270f2daa8fcd96","","","","","2525","key"," "," ","16.699688741721797","500","250","inst","","","","","","",""
"","psychophysics","47","249774","0.0-47.0","5f1b6a9ec094bd360e71cee1","62575682e0270f2daa8fcd96","","","","","3359","key"," "," ","16.69975000000006","500","250","tilt","","","","","-12","-9","0"
"","psychophysics","48","253208","0.0-48.0","5f1b6a9ec094bd360e71cee1","62575682e0270f2daa8fcd96","","","","","3432","key"," "," ","16.69927450980393","500","250","tilt","","","","","3","1","1"
"","psychophysics","49","256440","0.0-49.0","5f1b6a9ec094bd360e71cee1","62575682e0270f2daa8fcd96","","","","","3231","key"," "," ","16.69969430051812","500","250","tilt","","","","","8","10","1"
"","psychophysics","50","259200","0.0-50.0","5f1b6a9ec094bd360e71cee1","62575682e0270f2daa8fcd96","","","","","2758","key"," "," ","16.699804878048848","500","250","tilt","","","","","5","4","0"
"","psychophysics","51","263330","0.0-51.0","5f1b6a9ec094bd360e71cee1","62575682e0270f2daa8fcd96","","","","","4127","key"," "," ","16.699611336032405","500","250","tilt","","","","","9","9","0"
"","psychophysics","52","266057","0.0-52.0","5f1b6a9ec094bd360e71cee1","62575682e0270f2daa8fcd96","","","","","2726","key"," "," ","16.699148148148073","500","250","tilt","","","","","8","9","1"
"","psychophysics","53","269227","0.0-53.0","5f1b6a9ec094bd360e71cee1","62575682e0270f2daa8fcd96","","","","","3168","key"," "," ","16.699396825396757","500","250","tilt","","","","","-9","-5","1"
"","psychophysics","54","271528","0.0-54.0","5f1b6a9ec094bd360e71cee1","62575682e0270f2daa8fcd96","","","","","2299","key"," "," ","16.69893382352936","500","250","tilt","","","","","6","8","1"
"","psychophysics","55","274070","0.0-55.0","5f1b6a9ec094bd360e71cee1","62575682e0270f2daa8fcd96","","","","","2540","key"," "," ","16.699598684210383","500","250","tilt","","","","","4","4","0"
"","psychophysics","56","276159","0.0-56.0","5f1b6a9ec094bd360e71cee1","62575682e0270f2daa8fcd96","","","","","2086","key"," "," ","16.699620967742145","500","250","tilt","","","","","3","4","0"
"","psychophysics","57","279329","0.0-57.0","5f1b6a9ec094bd360e71cee1","62575682e0270f2daa8fcd96","","","","","3168","key"," "," ","16.70033862433863","500","250","tilt","","","","","3","4","1"
"","psychophysics","58","281429","0.0-58.0","5f1b6a9ec094bd360e71cee1","62575682e0270f2daa8fcd96","","","","","2098","key"," "," ","16.699709677419083","500","250","tilt","","","","","-6","-3","0"
"","psychophysics","59","284189","0.0-59.0","5f1b6a9ec094bd360e71cee1","62575682e0270f2daa8fcd96","","","","","2758","key"," "," ","16.699806060606374","500","250","tilt","","","","","-9","-6","1"
"","psychophysics","60","286753","0.0-60.0","5f1b6a9ec094bd360e71cee1","62575682e0270f2daa8fcd96","","","","","2563","key"," "," ","16.69987499999996","500","250","tilt","","","","","-2","-2","0"
"","psychophysics","61","289727","0.0-61.0","5f1b6a9ec094bd360e71cee1","62575682e0270f2daa8fcd96","","","","","2973","key"," "," ","16.6985875706216","500","250","tilt","","","","","-11","-7","1"
"","psychophysics","62","292118","0.0-62.0","5f1b6a9ec094bd360e71cee1","62575682e0270f2daa8fcd96","","","","","2388","key"," "," ","16.699887323943393","500","250","tilt","","","","","3","3","1"
"","psychophysics","63","294385","0.0-63.0","5f1b6a9ec094bd360e71cee1","62575682e0270f2daa8fcd96","","","","","2266","key"," "," ","16.699718518518516","500","250","tilt","","","","","-6","-3","1"
"","psychophysics","64","296697","0.0-64.0","5f1b6a9ec094bd360e71cee1","62575682e0270f2daa8fcd96","","","","","2310","key"," "," ","16.69981159420264","500","250","tilt","","","","","-2","-1","1"
"","psychophysics","65","299503","0.0-65.0","5f1b6a9ec094bd360e71cee1","62575682e0270f2daa8fcd96","","","","","2804","key"," "," ","16.69846706586809","500","250","tilt","","","","","-13","-10","1"
"","psychophysics","66","301969","0.0-66.0","5f1b6a9ec094bd360e71cee1","62575682e0270f2daa8fcd96","","","","","2464","key"," "," ","16.69991780821934","500","250","tilt","","","","","-7","-4","1"
"","psychophysics","67","303489","0.0-67.0","5f1b6a9ec094bd360e71cee1","62575682e0270f2daa8fcd96","","","","","1517","key"," "," ","16.699622222222388","500","250","tilt","","","","","4","4","1"
"","psychophysics","68","307120","0.0-68.0","5f1b6a9ec094bd360e71cee1","62575682e0270f2daa8fcd96","","","","","3628","key"," "," ","16.69965898617512","500","250","tilt","","","","","10","10","1"
"","psychophysics","69","310105","0.0-69.0","5f1b6a9ec094bd360e71cee1","62575682e0270f2daa8fcd96","","","","","2984","key"," "," ","16.69964406779661","500","250","tilt","","","","","-9","-7","1"
"","psychophysics","70","312562","0.0-70.0","5f1b6a9ec094bd360e71cee1","62575682e0270f2daa8fcd96","","","","","2454","key"," "," ","16.700122448979627","500","250","tilt","","","","","-8","-5","1"
"","psychophysics","71","315110","0.0-71.0","5f1b6a9ec094bd360e71cee1","62575682e0270f2daa8fcd96","","","","","2545","key"," "," ","16.69977483443726","500","250","tilt","","","","","4","1","0"
"","psychophysics","72","316844","0.0-72.0","5f1b6a9ec094bd360e71cee1","62575682e0270f2daa8fcd96","","","","","1732","key"," "," ","16.699980582524255","500","250","tilt","","","","","-5","-5","0"
"","psychophysics","73","319000","0.0-73.0","5f1b6a9ec094bd360e71cee1","62575682e0270f2daa8fcd96","","","","","2154","key"," "," ","16.6994921874998","500","250","tilt","","","","","-5","-7","1"
"","psychophysics","74","321380","0.0-74.0","5f1b6a9ec094bd360e71cee1","62575682e0270f2daa8fcd96","","","","","2378","key"," "," ","16.699732394366357","500","250","tilt","","","","","6","9","1"
"","psychophysics","75","323442","0.0-75.0","5f1b6a9ec094bd360e71cee1","62575682e0270f2daa8fcd96","","","","","2060","key"," "," ","16.699795081967213","500","250","tilt","","","","","6","7","1"
"","psychophysics","76","327141","0.0-76.0","5f1b6a9ec094bd360e71cee1","62575682e0270f2daa8fcd96","","","","","3697","key"," "," ","16.69976923076912","500","250","tilt","","","","","-14","-10","1"
"","psychophysics","77","328326","0.0-77.0","5f1b6a9ec094bd360e71cee1","62575682e0270f2daa8fcd96","","","","","1183","key"," "," ","16.6979999999998","500","250","inst","","","","","","",""
"","psychophysics","78","330779","0.0-78.0","5f1b6a9ec094bd360e71cee1","62575682e0270f2daa8fcd96","","","","","2450","key"," "," ","16.699096551723777","500","250","instPz","","","","","50","50",""
"","psychophysics","79","337736","0.0-79.0","5f1b6a9ec094bd360e71cee1","62575682e0270f2daa8fcd96","","","","","6955","key"," "," ","16.69977403846161","500","250","instPz","","","","","47","50",""
"","psychophysics","80","341785","0.0-80.0","5f1b6a9ec094bd360e71cee1","62575682e0270f2daa8fcd96","","","","","4046","key"," "," ","16.69906639004164","500","250","instPz","","","","","28","30",""
"","psychophysics","81","348745","0.0-81.0","5f1b6a9ec094bd360e71cee1","62575682e0270f2daa8fcd96","","","","","6957","key"," "," ","16.70003365384624","500","250","instPz","","","","","43","40",""
"","psychophysics","82","349786","0.0-82.0","5f1b6a9ec094bd360e71cee1","62575682e0270f2daa8fcd96","","","","","1040","key"," "," ","16.699580645161465","500","250","inst","","","","","","",""
"","psychophysics","83","354709","0.0-83.0","5f1b6a9ec094bd360e71cee1","62575682e0270f2daa8fcd96","","","","","4921","key"," "," ","16.699737201365142","500","250","pz","","","","","27","26",""
"","psychophysics","84","368907","0.0-84.0","5f1b6a9ec094bd360e71cee1","62575682e0270f2daa8fcd96","","","","","14196","key"," "," ","16.699770588235285","500","250","pz","","","","","60","57",""
"","psychophysics","85","373158","0.0-85.0","5f1b6a9ec094bd360e71cee1","62575682e0270f2daa8fcd96","","","","","4247","key"," "," ","16.6997114624506","500","250","pz","","","","","57","57",""
"","psychophysics","86","376264","0.0-86.0","5f1b6a9ec094bd360e71cee1","62575682e0270f2daa8fcd96","","","","","3105","key"," "," ","16.699794594594593","500","250","pz","","","","","30","28",""
"","psychophysics","87","378657","0.0-87.0","5f1b6a9ec094bd360e71cee1","62575682e0270f2daa8fcd96","","","","","2391","key"," "," ","16.700387323943776","500","250","pz","","","","","36","34",""
"","psychophysics","88","382318","0.0-88.0","5f1b6a9ec094bd360e71cee1","62575682e0270f2daa8fcd96","","","","","3658","key"," "," ","16.700269406392678","500","250","pz","","","","","49","46",""
"","psychophysics","89","385948","0.0-89.0","5f1b6a9ec094bd360e71cee1","62575682e0270f2daa8fcd96","","","","","3628","key"," "," ","16.698939814814906","500","250","pz","","","","","41","36",""
"","psychophysics","90","389424","0.0-90.0","5f1b6a9ec094bd360e71cee1","62575682e0270f2daa8fcd96","","","","","3473","key"," "," ","16.700371980676394","500","250","pz","","","","","53","54",""
"","psychophysics","91","392711","0.0-91.0","5f1b6a9ec094bd360e71cee1","62575682e0270f2daa8fcd96","","","","","3285","key"," "," ","16.70039795918363","500","250","pz","","","","","45","43",""
"","psychophysics","92","397258","0.0-92.0","5f1b6a9ec094bd360e71cee1","62575682e0270f2daa8fcd96","","","","","4544","key"," "," ","16.69977490774917","500","250","pz","","","","","48","47",""
"","psychophysics","93","401238","0.0-93.0","5f1b6a9ec094bd360e71cee1","62575682e0270f2daa8fcd96","","","","","3978","key"," "," ","16.699936974790003","500","250","pz","","","","","53","52",""
"","psychophysics","94","404873","0.0-94.0","5f1b6a9ec094bd360e71cee1","62575682e0270f2daa8fcd96","","","","","3632","key"," "," ","16.699782407407366","500","250","pz","","","","","52","46",""
"","psychophysics","95","406711","0.0-95.0","5f1b6a9ec094bd360e71cee1","62575682e0270f2daa8fcd96","","","","","1836","key"," "," ","16.700688073394495","500","250","pz","","","","","26","23",""
"","psychophysics","96","409254","0.0-96.0","5f1b6a9ec094bd360e71cee1","62575682e0270f2daa8fcd96","","","","","2541","key"," "," ","16.700855263157695","500","250","pz","","","","","33","30",""
"","psychophysics","97","411409","0.0-97.0","5f1b6a9ec094bd360e71cee1","62575682e0270f2daa8fcd96","","","","","2152","key"," "," ","16.699749999999767","500","250","pz","","","","","25","21",""
"","psychophysics","98","412679","0.0-98.0","5f1b6a9ec094bd360e71cee1","62575682e0270f2daa8fcd96","","","","","1268","key"," "," ","16.69918666666684","500","250","inst","","","","","","",""
"","psychophysics","99","416274","0.0-99.0","5f1b6a9ec094bd360e71cee1","62575682e0270f2daa8fcd96","","","","","3593","key"," "," ","16.70035046728972","500","250","inst","","","","","","",""
"","psychophysics","100","420119","0.0-100.0","5f1b6a9ec094bd360e71cee1","62575682e0270f2daa8fcd96","","","","","3843","key"," "," ","16.69971615720518","500","250","instFlank","","","","","0.5","0.3","1"
"","psychophysics","101","424531","0.0-101.0","5f1b6a9ec094bd360e71cee1","62575682e0270f2daa8fcd96","","","","","4410","key"," "," ","16.69965779467662","500","250","inst","","","","","","",""
"","psychophysics","102","431943","0.0-102.0","5f1b6a9ec094bd360e71cee1","62575682e0270f2daa8fcd96","","","","","7410","key"," "," ","16.699778781038326","500","250","instFlank","","","","","0.34999999999999987","0.3","1"
"","psychophysics","103","434826","0.0-103.0","5f1b6a9ec094bd360e71cee1","62575682e0270f2daa8fcd96","","","","","2881","key"," "," ","16.699081395348998","500","250","inst","","","","","","",""
"","psychophysics","104","438639","0.0-104.0","5f1b6a9ec094bd360e71cee1","62575682e0270f2daa8fcd96","","","","","3811","key"," "," ","16.700092511013352","500","250","instFlank","","","","","0.5","0.3","0"
"","psychophysics","105","439949","0.0-105.0","5f1b6a9ec094bd360e71cee1","62575682e0270f2daa8fcd96","","","","","1308","key"," "," ","16.69967948717889","500","250","inst","","","","","","",""
"","psychophysics","106","444984","0.0-106.0","5f1b6a9ec094bd360e71cee1","62575682e0270f2daa8fcd96","","","","","5033","key"," "," ","16.699883333333418","500","250","flank","","","","","0.6800000000000002","0.72","1"
"","psychophysics","107","448860","0.0-107.0","5f1b6a9ec094bd360e71cee1","62575682e0270f2daa8fcd96","","","","","3873","key"," "," ","16.699822510822447","500","250","flank","","","","","0.7700000000000002","0.72","1"
"","psychophysics","108","453020","0.0-108.0","5f1b6a9ec094bd360e71cee1","62575682e0270f2daa8fcd96","","","","","4158","key"," "," ","16.700282258064686","500","250","flank","","","","","0.2899999999999998","0.26","1"
"","psychophysics","109","457543","0.0-109.0","5f1b6a9ec094bd360e71cee1","62575682e0270f2daa8fcd96","","","","","4521","key"," "," ","16.700166666666608","500","250","flank","","","","","0.7100000000000002","0.58","1"
"","psychophysics","110","461698","0.0-110.0","5f1b6a9ec094bd360e71cee1","62575682e0270f2daa8fcd96","","","","","4154","key"," "," ","16.69961693548389","500","250","flank","","","","","0.2599999999999998","0.3","1"
"","psychophysics","111","464633","0.0-111.0","5f1b6a9ec094bd360e71cee1","62575682e0270f2daa8fcd96","","","","","2932","key"," "," ","16.69905142857161","500","250","flank","","","","","0.5","0.36","1"
"","psychophysics","112","468558","0.0-112.0","5f1b6a9ec094bd360e71cee1","62575682e0270f2daa8fcd96","","","","","3924","key"," "," ","16.700282051282215","500","250","flank","","","","","0.6800000000000002","0.56","1"
"","psychophysics","113","472068","0.0-113.0","5f1b6a9ec094bd360e71cee1","62575682e0270f2daa8fcd96","","","","","3509","key"," "," ","16.69970813397102","500","250","flank","","","","","0.7400000000000002","0.56","0"
"","psychophysics","114","475306","0.0-114.0","5f1b6a9ec094bd360e71cee1","62575682e0270f2daa8fcd96","","","","","3236","key"," "," ","16.699730569948237","500","250","flank","","","","","0.2899999999999998","0.36","1"
"","psychophysics","115","479096","0.0-115.0","5f1b6a9ec094bd360e71cee1","62575682e0270f2daa8fcd96","","","","","3789","key"," "," ","16.700039823008733","500","250","flank","","","","","0.7100000000000002","0.62","0"
"","psychophysics","116","482885","0.0-116.0","5f1b6a9ec094bd360e71cee1","62575682e0270f2daa8fcd96","","","","","3786","key"," "," ","16.69981858407073","500","250","flank","","","","","0.8600000000000003","0.78","1"
"","psychophysics","117","486044","0.0-117.0","5f1b6a9ec094bd360e71cee1","62575682e0270f2daa8fcd96","","","","","3158","key"," "," ","16.700404255319338","500","250","flank","","","","","0.2899999999999998","0.32","1"
"","psychophysics","118","489507","0.0-118.0","5f1b6a9ec094bd360e71cee1","62575682e0270f2daa8fcd96","","","","","3461","key"," "," ","16.69974757281547","500","250","flank","","","","","0.7100000000000002","0.7","0"
"","psychophysics","119","493697","0.0-119.0","5f1b6a9ec094bd360e71cee1","62575682e0270f2daa8fcd96","","","","","4188","key"," "," ","16.69981600000011","500","250","flank","","","","","0.3799999999999999","0.34","1"
"","psychophysics","120","496785","0.0-120.0","5f1b6a9ec094bd360e71cee1","62575682e0270f2daa8fcd96","","","","","3087","key"," "," ","16.69958152173912","500","250","flank","","","","","0.7400000000000002","0.64","0"
"","psychophysics","121","500134","0.0-121.0","5f1b6a9ec094bd360e71cee1","62575682e0270f2daa8fcd96","","","","","3347","key"," "," ","16.699084999999904","500","250","flank","","","","","0.6500000000000001","0.54","1"
"","psychophysics","122","503116","0.0-122.0","5f1b6a9ec094bd360e71cee1","62575682e0270f2daa8fcd96","","","","","2980","key"," "," ","16.700446327683572","500","250","flank","","","","","0.7700000000000002","0.72","0"
"","psychophysics","123","507229","0.0-123.0","5f1b6a9ec094bd360e71cee1","62575682e0270f2daa8fcd96","","","","","4112","key"," "," ","16.699755102040825","500","250","flank","","","","","0.1699999999999998","0.2","0"
"","psychophysics","124","510154","0.0-124.0","5f1b6a9ec094bd360e71cee1","62575682e0270f2daa8fcd96","","","","","2922","key"," "," ","16.699857142857343","500","250","flank","","","","","0.6200000000000001","0.62","0"
"","psychophysics","125","513044","0.0-125.0","5f1b6a9ec094bd360e71cee1","62575682e0270f2daa8fcd96","","","","","2888","key"," "," ","16.70099418604649","500","250","flank","","","","","0.3799999999999999","0.38","0"
"","psychophysics","126","515294","0.0-126.0","5f1b6a9ec094bd360e71cee1","62575682e0270f2daa8fcd96","","","","","2249","key"," "," ","16.69879699248122","500","250","flank","","","","","0.5","0.34","0"
"","psychophysics","127","518300","0.0-127.0","5f1b6a9ec094bd360e71cee1","62575682e0270f2daa8fcd96","","","","","3003","key"," "," ","16.699921787709293","500","250","flank","","","","","0.6800000000000002","0.56","0"
"","psychophysics","128","521652","0.0-128.0","5f1b6a9ec094bd360e71cee1","62575682e0270f2daa8fcd96","","","","","3351","key"," "," ","16.699709999999904","500","250","flank","","","","","0.7100000000000002","0.62","1"
"","psychophysics","129","524696","0.0-129.0","5f1b6a9ec094bd360e71cee1","62575682e0270f2daa8fcd96","","","","","3042","key"," "," ","16.699696132596465","500","250","flank","","","","","0.1999999999999998","0.28","0"
"","psychophysics","130","528688","0.0-130.0","5f1b6a9ec094bd360e71cee1","62575682e0270f2daa8fcd96","","","","","3991","key"," "," ","16.700184873949457","500","250","flank","","","","","0.7400000000000002","0.66","1"
"","psychophysics","131","531032","0.0-131.0","5f1b6a9ec094bd360e71cee1","62575682e0270f2daa8fcd96","","","","","2342","key"," "," ","16.70052857142873","500","250","flank","","","","","0.5","0.4","0"
"","psychophysics","132","534116","0.0-132.0","5f1b6a9ec094bd360e71cee1","62575682e0270f2daa8fcd96","","","","","3081","key"," "," ","16.699136612022073","500","250","flank","","","","","0.8000000000000003","0.8","1"
"","psychophysics","133","537636","0.0-133.0","5f1b6a9ec094bd360e71cee1","62575682e0270f2daa8fcd96","","","","","3518","key"," "," ","16.699766666666672","500","250","flank","","","","","0.8000000000000003","0.78","0"
"","psychophysics","134","540731","0.0-134.0","5f1b6a9ec094bd360e71cee1","62575682e0270f2daa8fcd96","","","","","3092","key"," "," ","16.699610810810576","500","250","flank","","","","","0.34999999999999987","0.26","0"
"","psychophysics","135","543160","0.0-135.0","5f1b6a9ec094bd360e71cee1","62575682e0270f2daa8fcd96","","","","","2427","key"," "," ","16.699833333333824","500","250","flank","","","","","0.5","0.44","0"
"true","fullscreen","136","543162","0.0-136.0","5f1b6a9ec094bd360e71cee1","62575682e0270f2daa8fcd96","","","","","","","","","","","","","","","","","","",""
