"success","trial_type","trial_index","time_elapsed","internal_node_id","pid","sid","timeout","failed_images","failed_audio","failed_video","rt","response_type","key_press","response","avg_frame_time","center_x","center_y","task","ml_len","ml_start","ml_x","ml_y","resp","targ","back"
"true","fullscreen","0","2858","0.0-0.0","5cec5f7afdd26c00193ba64b","62573bfba530234055809e91","","","","","","","","","","","","","","","","","","",""
"true","preload","1","2860","0.0-1.0","5cec5f7afdd26c00193ba64b","62573bfba530234055809e91","false","[]","[]","[]","","","","","","","","","","","","","","",""
"","psychophysics","2","21337","0.0-2.0","5cec5f7afdd26c00193ba64b","62573bfba530234055809e91","","","","","18465","key"," "," ","16.65215148782687","500","250","inst","","","","","","",""
"","psychophysics","3","23116","0.0-3.0","5cec5f7afdd26c00193ba64b","62573bfba530234055809e91","","","","","1775","key"," "," ","16.652216981132096","500","250","inst","","","","","","",""
"","psychophysics","4","62856","0.0-4.0","5cec5f7afdd26c00193ba64b","62573bfba530234055809e91","","","","","39735","key"," "," ","16.65218825995807","500","250","instMl","250","-41.666666666666664","-2","-19","-25.666666666666686","",""
"","psychophysics","5","75301","0.0-5.0","5cec5f7afdd26c00193ba64b","62573bfba530234055809e91","","","","","12439","key"," "," ","16.652128514056223","500","250","instMl","206","-34.333333333333336","9","-10","-34.333333333333314","",""
"","psychophysics","6","79564","0.0-6.0","5cec5f7afdd26c00193ba64b","62573bfba530234055809e91","","","","","4260","key"," "," ","16.652086274509774","500","250","inst","","","","","","",""
"","psychophysics","7","99623","0.0-7.0","5cec5f7afdd26c00193ba64b","62573bfba530234055809e91","","","","","20056","key"," "," ","16.66598086522463","500","250","ml","172","28","28","-3","-20","",""
"","psychophysics","8","104443","0.0-8.0","5cec5f7afdd26c00193ba64b","62573bfba530234055809e91","","","","","4814","key"," "," ","16.65206228373701","500","250","ml","188","-12","15","-19","-22","",""
"","psychophysics","9","132355","0.0-9.0","5cec5f7afdd26c00193ba64b","62573bfba530234055809e91","","","","","27908","key"," "," ","16.65207761194029","500","250","ml","216","-34","28","23","-24","",""
"","psychophysics","10","142163","0.0-10.0","5cec5f7afdd26c00193ba64b","62573bfba530234055809e91","","","","","9805","key"," "," ","16.65199829931973","500","250","ml","160","-31","-28","-2","-14","",""
"","psychophysics","11","148101","0.0-11.0","5cec5f7afdd26c00193ba64b","62573bfba530234055809e91","","","","","5935","key"," "," ","16.65204225352114","500","250","ml","218","8","27","28","-17","",""
"","psychophysics","12","154054","0.0-12.0","5cec5f7afdd26c00193ba64b","62573bfba530234055809e91","","","","","5948","key"," "," ","16.65210644257702","500","250","ml","190","-46","7","-12","-16","",""
"","psychophysics","13","159722","0.0-13.0","5cec5f7afdd26c00193ba64b","62573bfba530234055809e91","","","","","5664","key"," "," ","16.65190855457228","500","250","ml","208","-52","-26","8","-17","",""
"","psychophysics","14","166921","0.0-14.0","5cec5f7afdd26c00193ba64b","62573bfba530234055809e91","","","","","7194","key"," "," ","16.652141203703717","500","250","ml","192","-42","5","10","-15","",""
"","psychophysics","15","171474","0.0-15.0","5cec5f7afdd26c00193ba64b","62573bfba530234055809e91","","","","","4550","key"," "," ","16.65198897058829","500","250","ml","166","-37","0","9","-22","",""
"","psychophysics","16","174216","0.0-16.0","5cec5f7afdd26c00193ba64b","62573bfba530234055809e91","","","","","2740","key"," "," ","16.651469512195035","500","250","ml","170","-12","-22","-29","-19","",""
"","psychophysics","17","191840","0.0-17.0","5cec5f7afdd26c00193ba64b","62573bfba530234055809e91","","","","","17621","key"," "," ","16.652126773888345","500","250","ml","242","16","20","0","-22","",""
"","psychophysics","18","198928","0.0-18.0","5cec5f7afdd26c00193ba64b","62573bfba530234055809e91","","","","","7086","key"," "," ","16.65254588235293","500","250","ml","224","-49","21","11","-23","",""
"","psychophysics","19","202445","0.0-19.0","5cec5f7afdd26c00193ba64b","62573bfba530234055809e91","","","","","3514","key"," "," ","16.651738095238052","500","250","ml","152","-17","10","-9","-15","",""
"","psychophysics","20","208576","0.0-20.0","5cec5f7afdd26c00193ba64b","62573bfba530234055809e91","","","","","6128","key"," "," ","16.65215258855593","500","250","ml","250","16","27","4","-23","",""
"","psychophysics","21","222549","0.0-21.0","5cec5f7afdd26c00193ba64b","62573bfba530234055809e91","","","","","13970","key"," "," ","16.651978520286406","500","250","ml","226","37","-5","12","-20","",""
"","psychophysics","22","225579","0.0-22.0","5cec5f7afdd26c00193ba64b","62573bfba530234055809e91","","","","","3028","key"," "," ","16.65218232044206","500","250","inst","","","","","","",""
"","psychophysics","23","235475","0.0-23.0","5cec5f7afdd26c00193ba64b","62573bfba530234055809e91","","","","","9893","key"," "," ","16.708505922165795","500","250","instPog","","","","","130","130",""
"","psychophysics","24","247645","0.0-24.0","5cec5f7afdd26c00193ba64b","62573bfba530234055809e91","","","","","12165","key"," "," ","16.652283561643817","500","250","instPog","","","","","135","130",""
"","psychophysics","25","252463","0.0-25.0","5cec5f7afdd26c00193ba64b","62573bfba530234055809e91","","","","","4814","key"," "," ","16.65239792387545","500","250","instPog","","","","","159","130",""
"","psychophysics","26","256977","0.0-26.0","5cec5f7afdd26c00193ba64b","62573bfba530234055809e91","","","","","4511","key"," "," ","16.652355555555552","500","250","inst","","","","","","",""
"","psychophysics","27","263399","0.0-27.0","5cec5f7afdd26c00193ba64b","62573bfba530234055809e91","","","","","6420","key"," "," ","16.652395833333305","500","250","pog","","","","","188","186",""
"","psychophysics","28","266609","0.0-28.0","5cec5f7afdd26c00193ba64b","62573bfba530234055809e91","","","","","3205","key"," "," ","16.65228645833334","500","250","pog","","","","","139","121",""
"","psychophysics","29","270531","0.0-29.0","5cec5f7afdd26c00193ba64b","62573bfba530234055809e91","","","","","3920","key"," "," ","16.651459574468056","500","250","pog","","","","","180","181",""
"","psychophysics","30","275049","0.0-30.0","5cec5f7afdd26c00193ba64b","62573bfba530234055809e91","","","","","4515","key"," "," ","16.652281481481623","500","250","pog","","","","","188","191",""
"","psychophysics","31","276542","0.0-31.0","5cec5f7afdd26c00193ba64b","62573bfba530234055809e91","","","","","1490","key"," "," ","16.651033707864954","500","250","pog","","","","","160","135",""
"","psychophysics","32","278349","0.0-32.0","5cec5f7afdd26c00193ba64b","62573bfba530234055809e91","","","","","1803","key"," "," ","16.652093457944243","500","250","pog","","","","","159","124",""
"","psychophysics","33","284685","0.0-33.0","5cec5f7afdd26c00193ba64b","62573bfba530234055809e91","","","","","6334","key"," "," ","16.65179473684203","500","250","pog","","","","","171","142",""
"","psychophysics","34","289537","0.0-34.0","5cec5f7afdd26c00193ba64b","62573bfba530234055809e91","","","","","4849","key"," "," ","16.65210689655164","500","250","pog","","","","","213","179",""
"","psychophysics","35","293246","0.0-35.0","5cec5f7afdd26c00193ba64b","62573bfba530234055809e91","","","","","3706","key"," "," ","16.65159009009005","500","250","pog","","","","","190","165",""
"","psychophysics","36","296331","0.0-36.0","5cec5f7afdd26c00193ba64b","62573bfba530234055809e91","","","","","3082","key"," "," ","16.652336956521573","500","250","pog","","","","","173","160",""
"","psychophysics","37","302304","0.0-37.0","5cec5f7afdd26c00193ba64b","62573bfba530234055809e91","","","","","5970","key"," "," ","16.65203072625689","500","250","pog","","","","","191","168",""
"","psychophysics","38","306076","0.0-38.0","5cec5f7afdd26c00193ba64b","62573bfba530234055809e91","","","","","3769","key"," "," ","16.651537777777865","500","250","pog","","","","","196","168",""
"","psychophysics","39","313137","0.0-39.0","5cec5f7afdd26c00193ba64b","62573bfba530234055809e91","","","","","7059","key"," "," ","16.69186018957352","500","250","pog","","","","","179","166",""
"","psychophysics","40","314392","0.0-40.0","5cec5f7afdd26c00193ba64b","62573bfba530234055809e91","","","","","1252","key"," "," ","16.64998666666681","500","250","pog","","","","","159","149",""
"","psychophysics","41","317291","0.0-41.0","5cec5f7afdd26c00193ba64b","62573bfba530234055809e91","","","","","2895","key"," "," ","16.65234104046232","500","250","pog","","","","","145","126",""
"","psychophysics","42","318863","0.0-42.0","5cec5f7afdd26c00193ba64b","62573bfba530234055809e91","","","","","1569","key"," "," ","16.652666666666395","500","250","inst","","","","","","",""
"","psychophysics","43","321797","0.0-43.0","5cec5f7afdd26c00193ba64b","62573bfba530234055809e91","","","","","2929","key"," "," ","16.652319999999765","500","250","instTilt","","","","","NaN","0","0"
"","psychophysics","44","325765","0.0-44.0","5cec5f7afdd26c00193ba64b","62573bfba530234055809e91","","","","","3963","key"," "," ","16.72268220338989","500","250","instTilt","","","","","0","0","0"
"","psychophysics","45","340185","0.0-45.0","5cec5f7afdd26c00193ba64b","62573bfba530234055809e91","","","","","14413","key"," "," ","16.65210289017343","500","250","instTilt","","","","","2","0","0"
"","psychophysics","46","344943","0.0-46.0","5cec5f7afdd26c00193ba64b","62573bfba530234055809e91","","","","","4754","key"," "," ","16.651445614035126","500","250","inst","","","","","","",""
"","psychophysics","47","350181","0.0-47.0","5cec5f7afdd26c00193ba64b","62573bfba530234055809e91","","","","","5233","key"," "," ","16.651853503184807","500","250","tilt","","","","","2","-1","0"
"","psychophysics","48","353535","0.0-48.0","5cec5f7afdd26c00193ba64b","62573bfba530234055809e91","","","","","3350","key"," "," ","16.652705000000132","500","250","tilt","","","","","5","8","1"
"","psychophysics","49","356024","0.0-49.0","5cec5f7afdd26c00193ba64b","62573bfba530234055809e91","","","","","2483","key"," "," ","16.651906040268592","500","250","tilt","","","","","-8","-7","1"
"","psychophysics","50","359343","0.0-50.0","5cec5f7afdd26c00193ba64b","62573bfba530234055809e91","","","","","3315","key"," "," ","16.652929292929436","500","250","tilt","","","","","-1","-3","0"
"","psychophysics","51","362394","0.0-51.0","5cec5f7afdd26c00193ba64b","62573bfba530234055809e91","","","","","3048","key"," "," ","16.651835164835276","500","250","tilt","","","","","6","9","0"
"","psychophysics","52","365268","0.0-52.0","5cec5f7afdd26c00193ba64b","62573bfba530234055809e91","","","","","2869","key"," "," ","16.652151162790602","500","250","tilt","","","","","1","0","0"
"","psychophysics","53","365768","0.0-53.0","5cec5f7afdd26c00193ba64b","62573bfba530234055809e91","","","","","497","key"," "," ","16.654178571427888","500","250","tilt","","","","","0","0","0"
"","psychophysics","54","369279","0.0-54.0","5cec5f7afdd26c00193ba64b","62573bfba530234055809e91","","","","","3503","key"," "," ","16.652194312796265","500","250","tilt","","","","","-6","-7","0"
"","psychophysics","55","371514","0.0-55.0","5cec5f7afdd26c00193ba64b","62573bfba530234055809e91","","","","","2232","key"," "," ","16.65208270676702","500","250","tilt","","","","","8","9","0"
"","psychophysics","56","373378","0.0-56.0","5cec5f7afdd26c00193ba64b","62573bfba530234055809e91","","","","","1861","key"," "," ","16.652126126126113","500","250","tilt","","","","","5","2","0"
"","psychophysics","57","376112","0.0-57.0","5cec5f7afdd26c00193ba64b","62573bfba530234055809e91","","","","","2731","key"," "," ","16.652361963190312","500","250","tilt","","","","","12","10","0"
"","psychophysics","58","379283","0.0-58.0","5cec5f7afdd26c00193ba64b","62573bfba530234055809e91","","","","","3168","key"," "," ","16.652682539682637","500","250","tilt","","","","","10","8","1"
"","psychophysics","59","381629","0.0-59.0","5cec5f7afdd26c00193ba64b","62573bfba530234055809e91","","","","","2341","key"," "," ","16.652028571428463","500","250","tilt","","","","","0","-2","0"
"","psychophysics","60","384419","0.0-60.0","5cec5f7afdd26c00193ba64b","62573bfba530234055809e91","","","","","2784","key"," "," ","16.652275449101754","500","250","tilt","","","","","2","6","1"
"","psychophysics","61","386285","0.0-61.0","5cec5f7afdd26c00193ba64b","62573bfba530234055809e91","","","","","1862","key"," "," ","16.652072072072112","500","250","tilt","","","","","-4","-8","0"
"","psychophysics","62","388226","0.0-62.0","5cec5f7afdd26c00193ba64b","62573bfba530234055809e91","","","","","1938","key"," "," ","16.652147826087237","500","250","tilt","","","","","6","8","0"
"","psychophysics","63","391250","0.0-63.0","5cec5f7afdd26c00193ba64b","62573bfba530234055809e91","","","","","3018","key"," "," ","16.652066298342728","500","250","tilt","","","","","-7","-6","1"
"","psychophysics","64","393979","0.0-64.0","5cec5f7afdd26c00193ba64b","62573bfba530234055809e91","","","","","2726","key"," "," ","16.651558282208754","500","250","tilt","","","","","4","5","1"
"","psychophysics","65","397873","0.0-65.0","5cec5f7afdd26c00193ba64b","62573bfba530234055809e91","","","","","3891","key"," "," ","16.652206008583597","500","250","tilt","","","","","-4","-3","0"
"","psychophysics","66","405662","0.0-66.0","5cec5f7afdd26c00193ba64b","62573bfba530234055809e91","","","","","7786","key"," "," ","16.652158458244152","500","250","tilt","","","","","-1","0","1"
"","psychophysics","67","407771","0.0-67.0","5cec5f7afdd26c00193ba64b","62573bfba530234055809e91","","","","","2105","key"," "," ","16.652328000000214","500","250","tilt","","","","","5","4","0"
"","psychophysics","68","409895","0.0-68.0","5cec5f7afdd26c00193ba64b","62573bfba530234055809e91","","","","","2117","key"," "," ","16.650440944882117","500","250","tilt","","","","","1","3","1"
"","psychophysics","69","415297","0.0-69.0","5cec5f7afdd26c00193ba64b","62573bfba530234055809e91","","","","","5399","key"," "," ","16.652656346749104","500","250","tilt","","","","","4","6","0"
"","psychophysics","70","416914","0.0-70.0","5cec5f7afdd26c00193ba64b","62573bfba530234055809e91","","","","","1614","key"," "," ","16.65204166666687","500","250","tilt","","","","","-4","-5","1"
"","psychophysics","71","421770","0.0-71.0","5cec5f7afdd26c00193ba64b","62573bfba530234055809e91","","","","","4850","key"," "," ","16.652371134020505","500","250","tilt","","","","","-4","-8","0"
"","psychophysics","72","423503","0.0-72.0","5cec5f7afdd26c00193ba64b","62573bfba530234055809e91","","","","","1731","key"," "," ","16.65314563106829","500","250","tilt","","","","","5","9","1"
"","psychophysics","73","426072","0.0-73.0","5cec5f7afdd26c00193ba64b","62573bfba530234055809e91","","","","","2565","key"," "," ","16.652124183006688","500","250","tilt","","","","","2","-2","0"
"","psychophysics","74","427296","0.0-74.0","5cec5f7afdd26c00193ba64b","62573bfba530234055809e91","","","","","1219","key"," "," ","16.649794520547914","500","250","tilt","","","","","0","2","0"
"","psychophysics","75","428969","0.0-75.0","5cec5f7afdd26c00193ba64b","62573bfba530234055809e91","","","","","1670","key"," "," ","16.653888888888748","500","250","tilt","","","","","-4","-1","1"
"","psychophysics","76","430862","0.0-76.0","5cec5f7afdd26c00193ba64b","62573bfba530234055809e91","","","","","1888","key"," "," ","16.650433628318165","500","250","tilt","","","","","0","6","1"
"","psychophysics","77","431924","0.0-77.0","5cec5f7afdd26c00193ba64b","62573bfba530234055809e91","","","","","1059","key"," "," ","16.6505079365073","500","250","inst","","","","","","",""
"","psychophysics","78","435715","0.0-78.0","5cec5f7afdd26c00193ba64b","62573bfba530234055809e91","","","","","3788","key"," "," ","16.652274336283398","500","250","instPz","","","","","27","50",""
"","psychophysics","79","438957","0.0-79.0","5cec5f7afdd26c00193ba64b","62573bfba530234055809e91","","","","","3237","key"," "," ","16.651505154639135","500","250","instPz","","","","","14","50",""
"","psychophysics","80","448492","0.0-80.0","5cec5f7afdd26c00193ba64b","62573bfba530234055809e91","","","","","9531","key"," "," ","16.65200699300705","500","250","instPz","","","","","30","30",""
"","psychophysics","81","456289","0.0-81.0","5cec5f7afdd26c00193ba64b","62573bfba530234055809e91","","","","","7794","key"," "," ","16.652209850107056","500","250","instPz","","","","","15","40",""
"","psychophysics","82","459676","0.0-82.0","5cec5f7afdd26c00193ba64b","62573bfba530234055809e91","","","","","3385","key"," "," ","16.652089108910936","500","250","inst","","","","","","",""
"","psychophysics","83","465353","0.0-83.0","5cec5f7afdd26c00193ba64b","62573bfba530234055809e91","","","","","5670","key"," "," ","16.6522470588236","500","250","pz","","","","","44","37",""
"","psychophysics","84","471148","0.0-84.0","5cec5f7afdd26c00193ba64b","62573bfba530234055809e91","","","","","5792","key"," "," ","16.65208933717586","500","250","pz","","","","","62","60",""
"","psychophysics","85","477677","0.0-85.0","5cec5f7afdd26c00193ba64b","62573bfba530234055809e91","","","","","6526","key"," "," ","16.65221227621487","500","250","pz","","","","","61","52",""
"","psychophysics","86","480945","0.0-86.0","5cec5f7afdd26c00193ba64b","62573bfba530234055809e91","","","","","3263","key"," "," ","16.651712820512685","500","250","pz","","","","","37","27",""
"","psychophysics","87","485161","0.0-87.0","5cec5f7afdd26c00193ba64b","62573bfba530234055809e91","","","","","4211","key"," "," ","16.65228853754956","500","250","pz","","","","","61","56",""
"","psychophysics","88","488677","0.0-88.0","5cec5f7afdd26c00193ba64b","62573bfba530234055809e91","","","","","3513","key"," "," ","16.652776190476114","500","250","pz","","","","","62","55",""
"","psychophysics","89","491525","0.0-89.0","5cec5f7afdd26c00193ba64b","62573bfba530234055809e91","","","","","2845","key"," "," ","16.65208823529435","500","250","pz","","","","","65","57",""
"","psychophysics","90","495318","0.0-90.0","5cec5f7afdd26c00193ba64b","62573bfba530234055809e91","","","","","3790","key"," "," ","16.651515418502076","500","250","pz","","","","","58","48",""
"","psychophysics","91","499278","0.0-91.0","5cec5f7afdd26c00193ba64b","62573bfba530234055809e91","","","","","3956","key"," "," ","16.652347457627233","500","250","pz","","","","","53","36",""
"","psychophysics","92","501268","0.0-92.0","5cec5f7afdd26c00193ba64b","62573bfba530234055809e91","","","","","1986","key"," "," ","16.652226890756225","500","250","pz","","","","","31","20",""
"","psychophysics","93","503014","0.0-93.0","5cec5f7afdd26c00193ba64b","62573bfba530234055809e91","","","","","1742","key"," "," ","16.651221153846283","500","250","pz","","","","","42","48",""
"","psychophysics","94","504670","0.0-94.0","5cec5f7afdd26c00193ba64b","62573bfba530234055809e91","","","","","1653","key"," "," ","16.6511836734693","500","250","pz","","","","","40","39",""
"","psychophysics","95","511777","0.0-95.0","5cec5f7afdd26c00193ba64b","62573bfba530234055809e91","","","","","7101","key"," "," ","16.652161971830978","500","250","pz","","","","","52","49",""
"","psychophysics","96","513336","0.0-96.0","5cec5f7afdd26c00193ba64b","62573bfba530234055809e91","","","","","1556","key"," "," ","16.653064516128882","500","250","pz","","","","","38","42",""
"","psychophysics","97","515533","0.0-97.0","5cec5f7afdd26c00193ba64b","62573bfba530234055809e91","","","","","2194","key"," "," ","16.652274809160115","500","250","pz","","","","","59","57",""
"","psychophysics","98","517649","0.0-98.0","5cec5f7afdd26c00193ba64b","62573bfba530234055809e91","","","","","2112","key"," "," ","16.651976190476","500","250","inst","","","","","","",""
"","psychophysics","99","519492","0.0-99.0","5cec5f7afdd26c00193ba64b","62573bfba530234055809e91","","","","","1840","key"," "," ","16.65268807339433","500","250","inst","","","","","","",""
"","psychophysics","100","522390","0.0-100.0","5cec5f7afdd26c00193ba64b","62573bfba530234055809e91","","","","","2891","key"," "," ","16.6521445086705","500","250","instFlank","","","","","0.5","0.3","1"
"","psychophysics","101","527126","0.0-101.0","5cec5f7afdd26c00193ba64b","62573bfba530234055809e91","","","","","4731","key"," "," ","16.65186619718291","500","250","inst","","","","","","",""
"","psychophysics","102","531191","0.0-102.0","5cec5f7afdd26c00193ba64b","62573bfba530234055809e91","","","","","4062","key"," "," ","16.651456790123472","500","250","instFlank","","","","","0.4099999999999999","0.3","1"
"","psychophysics","103","535824","0.0-103.0","5cec5f7afdd26c00193ba64b","62573bfba530234055809e91","","","","","4630","key"," "," ","16.651985559567123","500","250","inst","","","","","","",""
"","psychophysics","104","539718","0.0-104.0","5cec5f7afdd26c00193ba64b","62573bfba530234055809e91","","","","","3890","key"," "," ","16.652124463519094","500","250","instFlank","","","","","0.019999999999999796","0.3","0"
"","psychophysics","105","541161","0.0-105.0","5cec5f7afdd26c00193ba64b","62573bfba530234055809e91","","","","","1440","key"," "," ","16.651302325581256","500","250","inst","","","","","","",""
"","psychophysics","106","545441","0.0-106.0","5cec5f7afdd26c00193ba64b","62573bfba530234055809e91","","","","","4276","key"," "," ","16.6520585937501","500","250","flank","","","","","0.8000000000000003","0.68","0"
"","psychophysics","107","548928","0.0-107.0","5cec5f7afdd26c00193ba64b","62573bfba530234055809e91","","","","","3483","key"," "," ","16.652134615384476","500","250","flank","","","","","0.53","0.46","0"
"","psychophysics","108","553103","0.0-108.0","5cec5f7afdd26c00193ba64b","62573bfba530234055809e91","","","","","4172","key"," "," ","16.652148000000043","500","250","flank","","","","","0.7100000000000002","0.7","1"
"","psychophysics","109","555697","0.0-109.0","5cec5f7afdd26c00193ba64b","62573bfba530234055809e91","","","","","2591","key"," "," ","16.760973684210178","500","250","flank","","","","","0.4099999999999999","0.32","1"
"","psychophysics","110","559057","0.0-110.0","5cec5f7afdd26c00193ba64b","62573bfba530234055809e91","","","","","3354","key"," "," ","16.65209900990064","500","250","flank","","","","","0.53","0.34","0"
"","psychophysics","111","561645","0.0-111.0","5cec5f7afdd26c00193ba64b","62573bfba530234055809e91","","","","","2583","key"," "," ","16.652109677418917","500","250","flank","","","","","0.43999999999999995","0.3","0"
"","psychophysics","112","564991","0.0-112.0","5cec5f7afdd26c00193ba64b","62573bfba530234055809e91","","","","","3341","key"," "," ","16.65207999999984","500","250","flank","","","","","0.6800000000000002","0.58","0"
"","psychophysics","113","568755","0.0-113.0","5cec5f7afdd26c00193ba64b","62573bfba530234055809e91","","","","","3760","key"," "," ","16.65205333333359","500","250","flank","","","","","0.53","0.6","1"
"","psychophysics","114","572660","0.0-114.0","5cec5f7afdd26c00193ba64b","62573bfba530234055809e91","","","","","3902","key"," "," ","16.652051502145735","500","250","flank","","","","","0.7100000000000002","0.78","1"
"","psychophysics","115","575331","0.0-115.0","5cec5f7afdd26c00193ba64b","62573bfba530234055809e91","","","","","2666","key"," "," ","16.65101250000007","500","250","flank","","","","","0.47","0.22","1"
"","psychophysics","116","577930","0.0-116.0","5cec5f7afdd26c00193ba64b","62573bfba530234055809e91","","","","","2594","key"," "," ","16.652399999999833","500","250","flank","","","","","0.5900000000000001","0.56","1"
"","psychophysics","117","581015","0.0-117.0","5cec5f7afdd26c00193ba64b","62573bfba530234055809e91","","","","","3081","key"," "," ","16.652228260869617","500","250","flank","","","","","0.7100000000000002","0.8","0"
"","psychophysics","118","583486","0.0-118.0","5cec5f7afdd26c00193ba64b","62573bfba530234055809e91","","","","","2468","key"," "," ","16.65147619047614","500","250","flank","","","","","0.5","0.4","0"
"","psychophysics","119","586272","0.0-119.0","5cec5f7afdd26c00193ba64b","62573bfba530234055809e91","","","","","2781","key"," "," ","16.652227544910303","500","250","flank","","","","","0.5","0.28","0"
"","psychophysics","120","588842","0.0-120.0","5cec5f7afdd26c00193ba64b","62573bfba530234055809e91","","","","","2565","key"," "," ","16.652058823529504","500","250","flank","","","","","0.47","0.38","1"
"","psychophysics","121","592378","0.0-121.0","5cec5f7afdd26c00193ba64b","62573bfba530234055809e91","","","","","3533","key"," "," ","16.65149289099566","500","250","flank","","","","","0.8000000000000003","0.8","0"
"","psychophysics","122","594784","0.0-122.0","5cec5f7afdd26c00193ba64b","62573bfba530234055809e91","","","","","2400","key"," "," ","16.652166666666744","500","250","flank","","","","","0.43999999999999995","0.28","1"
"","psychophysics","123","597196","0.0-123.0","5cec5f7afdd26c00193ba64b","62573bfba530234055809e91","","","","","2409","key"," "," ","16.6532500000006","500","250","flank","","","","","0.56","0.4","0"
"","psychophysics","124","600360","0.0-124.0","5cec5f7afdd26c00193ba64b","62573bfba530234055809e91","","","","","3160","key"," "," ","16.652984126984073","500","250","flank","","","","","0.6200000000000001","0.58","0"
"","psychophysics","125","603741","0.0-125.0","5cec5f7afdd26c00193ba64b","62573bfba530234055809e91","","","","","3378","key"," "," ","16.651881188119066","500","250","flank","","","","","0.7100000000000002","0.72","0"
"","psychophysics","126","606256","0.0-126.0","5cec5f7afdd26c00193ba64b","62573bfba530234055809e91","","","","","2511","key"," "," ","16.65206666666704","500","250","flank","","","","","0.43999999999999995","0.24","0"
"","psychophysics","127","609511","0.0-127.0","5cec5f7afdd26c00193ba64b","62573bfba530234055809e91","","","","","3251","key"," "," ","16.65191752577294","500","250","flank","","","","","0.4099999999999999","0.38","1"
"","psychophysics","128","612491","0.0-128.0","5cec5f7afdd26c00193ba64b","62573bfba530234055809e91","","","","","2977","key"," "," ","16.651640449438684","500","250","flank","","","","","0.43999999999999995","0.52","1"
"","psychophysics","129","615030","0.0-129.0","5cec5f7afdd26c00193ba64b","62573bfba530234055809e91","","","","","2535","key"," "," ","16.65265789473702","500","250","flank","","","","","0.4099999999999999","0.4","1"
"","psychophysics","130","617978","0.0-130.0","5cec5f7afdd26c00193ba64b","62573bfba530234055809e91","","","","","2944","key"," "," ","16.652153409091458","500","250","flank","","","","","0.6500000000000001","0.56","0"
"","psychophysics","131","622677","0.0-131.0","5cec5f7afdd26c00193ba64b","62573bfba530234055809e91","","","","","4696","key"," "," ","16.651473309608587","500","250","flank","","","","","0.7400000000000002","0.78","0"
"","psychophysics","132","625906","0.0-132.0","5cec5f7afdd26c00193ba64b","62573bfba530234055809e91","","","","","3226","key"," "," ","16.652782383419506","500","250","flank","","","","","0.6800000000000002","0.74","0"
"","psychophysics","133","628827","0.0-133.0","5cec5f7afdd26c00193ba64b","62573bfba530234055809e91","","","","","2918","key"," "," ","16.65205747126428","500","250","flank","","","","","0.4099999999999999","0.36","0"
"","psychophysics","134","631729","0.0-134.0","5cec5f7afdd26c00193ba64b","62573bfba530234055809e91","","","","","2898","key"," "," ","16.653231213873283","500","250","flank","","","","","0.31999999999999984","0.22","0"
"","psychophysics","135","634185","0.0-135.0","5cec5f7afdd26c00193ba64b","62573bfba530234055809e91","","","","","2450","key"," "," ","16.652469387755502","500","250","flank","","","","","0.5900000000000001","0.52","0"
"true","fullscreen","136","634187","0.0-136.0","5cec5f7afdd26c00193ba64b","62573bfba530234055809e91","","","","","","","","","","","","","","","","","","",""
