"success","trial_type","trial_index","time_elapsed","internal_node_id","pid","sid","timeout","failed_images","failed_audio","failed_video","rt","response_type","key_press","response","avg_frame_time","center_x","center_y","task","ml_len","ml_start","ml_x","ml_y","resp","targ","back"
"true","fullscreen","0","2891","0.0-0.0","5d1653de3935ca001b87ff71","6257531f322e3f5570f570f0","","","","","","","","","","","","","","","","","","",""
"true","preload","1","2895","0.0-1.0","5d1653de3935ca001b87ff71","6257531f322e3f5570f570f0","false","[]","[]","[]","","","","","","","","","","","","","","",""
"","psychophysics","2","6106","0.0-2.0","5d1653de3935ca001b87ff71","6257531f322e3f5570f570f0","","","","","3197","key"," "," ","16.918730158730156","500","250","inst","","","","","","",""
"","psychophysics","3","7281","0.0-3.0","5d1653de3935ca001b87ff71","6257531f322e3f5570f570f0","","","","","1167","key"," "," ","16.692571428571423","500","250","inst","","","","","","",""
"","psychophysics","4","18977","0.0-4.0","5d1653de3935ca001b87ff71","6257531f322e3f5570f570f0","","","","","11691","key"," "," ","16.69793991416309","500","250","instMl","244","-40.666666666666664","17","-9","-16.666666666666742","",""
"","psychophysics","5","26856","0.0-5.0","5d1653de3935ca001b87ff71","6257531f322e3f5570f570f0","","","","","7870","key"," "," ","16.698131634819532","500","250","instMl","190","-31.666666666666668","20","20","-13.666666666666742","",""
"","psychophysics","6","29945","0.0-6.0","5d1653de3935ca001b87ff71","6257531f322e3f5570f570f0","","","","","3083","key"," "," ","16.69608695652173","500","250","inst","","","","","","",""
"","psychophysics","7","35809","0.0-7.0","5d1653de3935ca001b87ff71","6257531f322e3f5570f570f0","","","","","5858","key"," "," ","16.698228571428583","500","250","ml","216","-14","4","0","-12","",""
"","psychophysics","8","48848","0.0-8.0","5d1653de3935ca001b87ff71","6257531f322e3f5570f570f0","","","","","13032","key"," "," ","16.699384615384613","500","250","ml","164","-25","0","21","-3","",""
"","psychophysics","9","55321","0.0-9.0","5d1653de3935ca001b87ff71","6257531f322e3f5570f570f0","","","","","6469","key"," "," ","16.696020671834628","500","250","ml","200","-4","22","-27","-5","",""
"","psychophysics","10","61473","0.0-10.0","5d1653de3935ca001b87ff71","6257531f322e3f5570f570f0","","","","","6147","key"," "," ","16.70054495912808","500","250","ml","156","20","25","-17","-2","",""
"","psychophysics","11","65233","0.0-11.0","5d1653de3935ca001b87ff71","6257531f322e3f5570f570f0","","","","","3756","key"," "," ","16.69107142857141","500","250","ml","194","-5","12","-15","-6","",""
"","psychophysics","12","70474","0.0-12.0","5d1653de3935ca001b87ff71","6257531f322e3f5570f570f0","","","","","5231","key"," "," ","16.70345047923325","500","250","ml","182","23","-22","28","-2","",""
"","psychophysics","13","77616","0.0-13.0","5d1653de3935ca001b87ff71","6257531f322e3f5570f570f0","","","","","7134","key"," "," ","16.69658079625293","500","250","ml","198","-30","0","-24","-6","",""
"","psychophysics","14","82089","0.0-14.0","5d1653de3935ca001b87ff71","6257531f322e3f5570f570f0","","","","","4467","key"," "," ","16.701123595505607","500","250","ml","174","16","-7","-11","-7","",""
"","psychophysics","15","94184","0.0-15.0","5d1653de3935ca001b87ff71","6257531f322e3f5570f570f0","","","","","12092","key"," "," ","16.696735822959877","500","250","ml","222","-46","-2","7","-10","",""
"","psychophysics","16","100809","0.0-16.0","5d1653de3935ca001b87ff71","6257531f322e3f5570f570f0","","","","","6619","key"," "," ","16.698484848484863","500","250","ml","176","14","19","0","-7","",""
"","psychophysics","17","106576","0.0-17.0","5d1653de3935ca001b87ff71","6257531f322e3f5570f570f0","","","","","5763","key"," "," ","16.698255813953523","500","250","ml","224","44","6","-4","-9","",""
"","psychophysics","18","112032","0.0-18.0","5d1653de3935ca001b87ff71","6257531f322e3f5570f570f0","","","","","5449","key"," "," ","16.700061349693254","500","250","ml","156","14","25","-28","-11","",""
"","psychophysics","19","117472","0.0-19.0","5d1653de3935ca001b87ff71","6257531f322e3f5570f570f0","","","","","5436","key"," "," ","16.694399999999977","500","250","ml","250","-23","0","17","-13","",""
"","psychophysics","20","122313","0.0-20.0","5d1653de3935ca001b87ff71","6257531f322e3f5570f570f0","","","","","4835","key"," "," ","16.69778546712799","500","250","ml","204","-3","-15","-11","-5","",""
"","psychophysics","21","127993","0.0-21.0","5d1653de3935ca001b87ff71","6257531f322e3f5570f570f0","","","","","5674","key"," "," ","16.698643067846596","500","250","ml","156","-20","4","8","-8","",""
"","psychophysics","22","129368","0.0-22.0","5d1653de3935ca001b87ff71","6257531f322e3f5570f570f0","","","","","1372","key"," "," ","16.71209876543219","500","250","inst","","","","","","",""
"","psychophysics","23","139537","0.0-23.0","5d1653de3935ca001b87ff71","6257531f322e3f5570f570f0","","","","","10160","key"," "," ","16.697072368421065","500","250","instPog","","","","","131","130",""
"","psychophysics","24","149665","0.0-24.0","5d1653de3935ca001b87ff71","6257531f322e3f5570f570f0","","","","","10125","key"," "," ","16.69689768976899","500","250","instPog","","","","","136","130",""
"","psychophysics","25","159561","0.0-25.0","5d1653de3935ca001b87ff71","6257531f322e3f5570f570f0","","","","","9892","key"," "," ","16.701049069373955","500","250","instPog","","","","","158","130",""
"","psychophysics","26","161104","0.0-26.0","5d1653de3935ca001b87ff71","6257531f322e3f5570f570f0","","","","","1536","key"," "," ","16.68695652173926","500","250","inst","","","","","","",""
"","psychophysics","27","170249","0.0-27.0","5d1653de3935ca001b87ff71","6257531f322e3f5570f570f0","","","","","9140","key"," "," ","16.69985347985347","500","250","pog","","","","","137","123",""
"","psychophysics","28","176530","0.0-28.0","5d1653de3935ca001b87ff71","6257531f322e3f5570f570f0","","","","","6275","key"," "," ","16.69478723404253","500","250","pog","","","","","151","136",""
"","psychophysics","29","186673","0.0-29.0","5d1653de3935ca001b87ff71","6257531f322e3f5570f570f0","","","","","10139","key"," "," ","16.699405940594055","500","250","pog","","","","","211","192",""
"","psychophysics","30","194432","0.0-30.0","5d1653de3935ca001b87ff71","6257531f322e3f5570f570f0","","","","","7756","key"," "," ","16.698060344827574","500","250","pog","","","","","168","153",""
"","psychophysics","31","201128","0.0-31.0","5d1653de3935ca001b87ff71","6257531f322e3f5570f570f0","","","","","6690","key"," "," ","16.696699999999982","500","250","pog","","","","","140","124",""
"","psychophysics","32","208457","0.0-32.0","5d1653de3935ca001b87ff71","6257531f322e3f5570f570f0","","","","","7324","key"," "," ","16.699452054794488","500","250","pog","","","","","152","138",""
"","psychophysics","33","214913","0.0-33.0","5d1653de3935ca001b87ff71","6257531f322e3f5570f570f0","","","","","6451","key"," "," ","16.699688311688323","500","250","pog","","","","","169","156",""
"","psychophysics","34","219793","0.0-34.0","5d1653de3935ca001b87ff71","6257531f322e3f5570f570f0","","","","","4877","key"," "," ","16.69800687285222","500","250","pog","","","","","163","152",""
"","psychophysics","35","226521","0.0-35.0","5d1653de3935ca001b87ff71","6257531f322e3f5570f570f0","","","","","6722","key"," "," ","16.698557213930364","500","250","pog","","","","","164","151",""
"","psychophysics","36","233785","0.0-36.0","5d1653de3935ca001b87ff71","6257531f322e3f5570f570f0","","","","","7257","key"," "," ","16.698248847926287","500","250","pog","","","","","202","188",""
"","psychophysics","37","240408","0.0-37.0","5d1653de3935ca001b87ff71","6257531f322e3f5570f570f0","","","","","6617","key"," "," ","16.694494949494924","500","250","pog","","","","","171","160",""
"","psychophysics","38","248465","0.0-38.0","5d1653de3935ca001b87ff71","6257531f322e3f5570f570f0","","","","","8053","key"," "," ","16.70087136929462","500","250","pog","","","","","207","200",""
"","psychophysics","39","255816","0.0-39.0","5d1653de3935ca001b87ff71","6257531f322e3f5570f570f0","","","","","7347","key"," "," ","16.69548974943054","500","250","pog","","","","","198","195",""
"","psychophysics","40","263888","0.0-40.0","5d1653de3935ca001b87ff71","6257531f322e3f5570f570f0","","","","","8069","key"," "," ","16.699958506224014","500","250","pog","","","","","133","123",""
"","psychophysics","41","269944","0.0-41.0","5d1653de3935ca001b87ff71","6257531f322e3f5570f570f0","","","","","6052","key"," "," ","16.697237569060675","500","250","pog","","","","","135","124",""
"","psychophysics","42","270904","0.0-42.0","5d1653de3935ca001b87ff71","6257531f322e3f5570f570f0","","","","","957","key"," "," ","16.70071428571412","500","250","inst","","","","","","",""
"","psychophysics","43","274977","0.0-43.0","5d1653de3935ca001b87ff71","6257531f322e3f5570f570f0","","","","","4062","key"," "," ","16.697448559670946","500","250","instTilt","","","","","NaN","0","0"
"","psychophysics","44","277616","0.0-44.0","5d1653de3935ca001b87ff71","6257531f322e3f5570f570f0","","","","","2633","key"," "," ","16.70165605095525","500","250","instTilt","","","","","0","0","0"
"","psychophysics","45","288353","0.0-45.0","5d1653de3935ca001b87ff71","6257531f322e3f5570f570f0","","","","","10729","key"," "," ","16.69785046728966","500","250","instTilt","","","","","1","0","0"
"","psychophysics","46","290584","0.0-46.0","5d1653de3935ca001b87ff71","6257531f322e3f5570f570f0","","","","","2225","key"," "," ","16.693684210526385","500","250","inst","","","","","","",""
"","psychophysics","47","303824","0.0-47.0","5d1653de3935ca001b87ff71","6257531f322e3f5570f570f0","","","","","13235","key"," "," ","16.698838383838435","500","250","tilt","","","","","5","9","1"
"","psychophysics","48","309881","0.0-48.0","5d1653de3935ca001b87ff71","6257531f322e3f5570f570f0","","","","","6052","key"," "," ","16.696353591160268","500","250","tilt","","","","","2","2","0"
"","psychophysics","49","315144","0.0-49.0","5d1653de3935ca001b87ff71","6257531f322e3f5570f570f0","","","","","5259","key"," "," ","16.701464968152894","500","250","tilt","","","","","-4","-2","1"
"","psychophysics","50","325784","0.0-50.0","5d1653de3935ca001b87ff71","6257531f322e3f5570f570f0","","","","","10636","key"," "," ","16.697924528301893","500","250","tilt","","","","","1","3","1"
"","psychophysics","51","332849","0.0-51.0","5d1653de3935ca001b87ff71","6257531f322e3f5570f570f0","","","","","7060","key"," "," ","16.73491686460813","500","250","tilt","","","","","4","3","0"
"","psychophysics","52","335889","0.0-52.0","5d1653de3935ca001b87ff71","6257531f322e3f5570f570f0","","","","","3036","key"," "," ","16.697679558011203","500","250","tilt","","","","","2","7","1"
"","psychophysics","53","341977","0.0-53.0","5d1653de3935ca001b87ff71","6257531f322e3f5570f570f0","","","","","6083","key"," "," ","16.70115384615377","500","250","tilt","","","","","4","10","1"
"","psychophysics","54","351049","0.0-54.0","5d1653de3935ca001b87ff71","6257531f322e3f5570f570f0","","","","","9067","key"," "," ","16.697306273062736","500","250","tilt","","","","","5","6","0"
"","psychophysics","55","358689","0.0-55.0","5d1653de3935ca001b87ff71","6257531f322e3f5570f570f0","","","","","7637","key"," "," ","16.698074398249492","500","250","tilt","","","","","-5","-9","0"
"","psychophysics","56","366040","0.0-56.0","5d1653de3935ca001b87ff71","6257531f322e3f5570f570f0","","","","","7347","key"," "," ","16.69927107061499","500","250","tilt","","","","","-1","3","1"
"","psychophysics","57","369329","0.0-57.0","5d1653de3935ca001b87ff71","6257531f322e3f5570f570f0","","","","","3285","key"," "," ","16.695510204081668","500","250","tilt","","","","","2","2","0"
"","psychophysics","58","375369","0.0-58.0","5d1653de3935ca001b87ff71","6257531f322e3f5570f570f0","","","","","6036","key"," "," ","16.696777777777687","500","250","tilt","","","","","-13","-10","1"
"","psychophysics","59","379625","0.0-59.0","5d1653de3935ca001b87ff71","6257531f322e3f5570f570f0","","","","","4249","key"," "," ","16.70299212598424","500","250","tilt","","","","","-6","-3","1"
"","psychophysics","60","385360","0.0-60.0","5d1653de3935ca001b87ff71","6257531f322e3f5570f570f0","","","","","5728","key"," "," ","16.698600583090364","500","250","tilt","","","","","-5","-7","0"
"","psychophysics","61","389497","0.0-61.0","5d1653de3935ca001b87ff71","6257531f322e3f5570f570f0","","","","","4133","key"," "," ","16.69659919028339","500","250","tilt","","","","","2","6","1"
"","psychophysics","62","395688","0.0-62.0","5d1653de3935ca001b87ff71","6257531f322e3f5570f570f0","","","","","6187","key"," "," ","16.696639566395657","500","250","tilt","","","","","4","6","0"
"","psychophysics","63","400481","0.0-63.0","5d1653de3935ca001b87ff71","6257531f322e3f5570f570f0","","","","","4783","key"," "," ","16.698741258741347","500","250","tilt","","","","","-8","-7","1"
"","psychophysics","64","404112","0.0-64.0","5d1653de3935ca001b87ff71","6257531f322e3f5570f570f0","","","","","3623","key"," "," ","16.699539170507126","500","250","tilt","","","","","1","5","1"
"","psychophysics","65","412457","0.0-65.0","5d1653de3935ca001b87ff71","6257531f322e3f5570f570f0","","","","","8342","key"," "," ","16.696192384769585","500","250","tilt","","","","","7","9","0"
"","psychophysics","66","418113","0.0-66.0","5d1653de3935ca001b87ff71","6257531f322e3f5570f570f0","","","","","5651","key"," "," ","16.70005934718096","500","250","tilt","","","","","-6","-3","1"
"","psychophysics","67","423088","0.0-67.0","5d1653de3935ca001b87ff71","6257531f322e3f5570f570f0","","","","","4968","key"," "," ","16.696094276094243","500","250","tilt","","","","","8","8","0"
"","psychophysics","68","428056","0.0-68.0","5d1653de3935ca001b87ff71","6257531f322e3f5570f570f0","","","","","4961","key"," "," ","16.703569023569095","500","250","tilt","","","","","-8","-8","1"
"","psychophysics","69","432985","0.0-69.0","5d1653de3935ca001b87ff71","6257531f322e3f5570f570f0","","","","","4924","key"," "," ","16.697346938775574","500","250","tilt","","","","","5","9","1"
"","psychophysics","70","441352","0.0-70.0","5d1653de3935ca001b87ff71","6257531f322e3f5570f570f0","","","","","8363","key"," "," ","16.696199999999955","500","250","tilt","","","","","-9","-8","1"
"","psychophysics","71","446624","0.0-71.0","5d1653de3935ca001b87ff71","6257531f322e3f5570f570f0","","","","","5268","key"," "," ","16.701587301587303","500","250","tilt","","","","","-4","-7","0"
"","psychophysics","72","449400","0.0-72.0","5d1653de3935ca001b87ff71","6257531f322e3f5570f570f0","","","","","2772","key"," "," ","16.688606060606034","500","250","tilt","","","","","2","6","1"
"","psychophysics","73","453528","0.0-73.0","5d1653de3935ca001b87ff71","6257531f322e3f5570f570f0","","","","","4124","key"," "," ","16.70463414634157","500","250","tilt","","","","","3","10","1"
"","psychophysics","74","458129","0.0-74.0","5d1653de3935ca001b87ff71","6257531f322e3f5570f570f0","","","","","4596","key"," "," ","16.693018181818243","500","250","tilt","","","","","1","-2","0"
"","psychophysics","75","462113","0.0-75.0","5d1653de3935ca001b87ff71","6257531f322e3f5570f570f0","","","","","3979","key"," "," ","16.697130801687646","500","250","tilt","","","","","-3","-7","0"
"","psychophysics","76","467673","0.0-76.0","5d1653de3935ca001b87ff71","6257531f322e3f5570f570f0","","","","","5552","key"," "," ","16.699518072289127","500","250","tilt","","","","","3","10","1"
"","psychophysics","77","468920","0.0-77.0","5d1653de3935ca001b87ff71","6257531f322e3f5570f570f0","","","","","1239","key"," "," ","16.69216216216257","500","250","inst","","","","","","",""
"","psychophysics","78","471233","0.0-78.0","5d1653de3935ca001b87ff71","6257531f322e3f5570f570f0","","","","","2307","key"," "," ","16.707737226277526","500","250","instPz","","","","","50","50",""
"","psychophysics","79","477832","0.0-79.0","5d1653de3935ca001b87ff71","6257531f322e3f5570f570f0","","","","","6593","key"," "," ","16.69873417721519","500","250","instPz","","","","","49","50",""
"","psychophysics","80","486521","0.0-80.0","5d1653de3935ca001b87ff71","6257531f322e3f5570f570f0","","","","","8684","key"," "," ","16.69560693641611","500","250","instPz","","","","","29","30",""
"","psychophysics","81","495552","0.0-81.0","5d1653de3935ca001b87ff71","6257531f322e3f5570f570f0","","","","","9028","key"," "," ","16.700888888888855","500","250","instPz","","","","","37","40",""
"","psychophysics","82","496872","0.0-82.0","5d1653de3935ca001b87ff71","6257531f322e3f5570f570f0","","","","","1315","key"," "," ","16.688205128205784","500","250","inst","","","","","","",""
"","psychophysics","83","512552","0.0-83.0","5d1653de3935ca001b87ff71","6257531f322e3f5570f570f0","","","","","15675","key"," "," ","16.697484008528775","500","250","pz","","","","","60","60",""
"","psychophysics","84","519593","0.0-84.0","5d1653de3935ca001b87ff71","6257531f322e3f5570f570f0","","","","","7036","key"," "," ","16.70123515439437","500","250","pz","","","","","32","31",""
"","psychophysics","85","527593","0.0-85.0","5d1653de3935ca001b87ff71","6257531f322e3f5570f570f0","","","","","7995","key"," "," ","16.697071129707258","500","250","pz","","","","","37","35",""
"","psychophysics","86","533776","0.0-86.0","5d1653de3935ca001b87ff71","6257531f322e3f5570f570f0","","","","","6179","key"," "," ","16.700433604336258","500","250","pz","","","","","49","46",""
"","psychophysics","87","541441","0.0-87.0","5d1653de3935ca001b87ff71","6257531f322e3f5570f570f0","","","","","7660","key"," "," ","16.69467248908304","500","250","pz","","","","","50","49",""
"","psychophysics","88","547921","0.0-88.0","5d1653de3935ca001b87ff71","6257531f322e3f5570f570f0","","","","","6476","key"," "," ","16.69912144702827","500","250","pz","","","","","46","40",""
"","psychophysics","89","554985","0.0-89.0","5d1653de3935ca001b87ff71","6257531f322e3f5570f570f0","","","","","7060","key"," "," ","16.700710900473823","500","250","pz","","","","","40","37",""
"","psychophysics","90","559849","0.0-90.0","5d1653de3935ca001b87ff71","6257531f322e3f5570f570f0","","","","","4860","key"," "," ","16.698000000000146","500","250","pz","","","","","29","24",""
"","psychophysics","91","563753","0.0-91.0","5d1653de3935ca001b87ff71","6257531f322e3f5570f570f0","","","","","3898","key"," "," ","16.69793991416307","500","250","pz","","","","","32","28",""
"","psychophysics","92","567688","0.0-92.0","5d1653de3935ca001b87ff71","6257531f322e3f5570f570f0","","","","","3927","key"," "," ","16.696595744680653","500","250","pz","","","","","39","35",""
"","psychophysics","93","571912","0.0-93.0","5d1653de3935ca001b87ff71","6257531f322e3f5570f570f0","","","","","4219","key"," "," ","16.695158730158933","500","250","pz","","","","","33","29",""
"","psychophysics","94","578913","0.0-94.0","5d1653de3935ca001b87ff71","6257531f322e3f5570f570f0","","","","","6996","key"," "," ","16.700669856459342","500","250","pz","","","","","49","43",""
"","psychophysics","95","582792","0.0-95.0","5d1653de3935ca001b87ff71","6257531f322e3f5570f570f0","","","","","3877","key"," "," ","16.697835497835296","500","250","pz","","","","","31","26",""
"","psychophysics","96","591784","0.0-96.0","5d1653de3935ca001b87ff71","6257531f322e3f5570f570f0","","","","","8986","key"," "," ","16.696133828996317","500","250","pz","","","","","65","57",""
"","psychophysics","97","598569","0.0-97.0","5d1653de3935ca001b87ff71","6257531f322e3f5570f570f0","","","","","6780","key"," "," ","16.7018765432099","500","250","pz","","","","","61","53",""
"","psychophysics","98","599873","0.0-98.0","5d1653de3935ca001b87ff71","6257531f322e3f5570f570f0","","","","","1297","key"," "," ","16.69142857142845","500","250","inst","","","","","","",""
"","psychophysics","99","602217","0.0-99.0","5d1653de3935ca001b87ff71","6257531f322e3f5570f570f0","","","","","2335","key"," "," ","16.692714285714153","500","250","inst","","","","","","",""
"","psychophysics","100","605393","0.0-100.0","5d1653de3935ca001b87ff71","6257531f322e3f5570f570f0","","","","","3170","key"," "," ","16.70539682539717","500","250","instFlank","","","","","0.5","0.3","1"
"","psychophysics","101","607033","0.0-101.0","5d1653de3935ca001b87ff71","6257531f322e3f5570f570f0","","","","","1635","key"," "," ","16.684536082474466","500","250","inst","","","","","","",""
"","psychophysics","102","618563","0.0-102.0","5d1653de3935ca001b87ff71","6257531f322e3f5570f570f0","","","","","11518","key"," "," ","16.6986376811595","500","250","instFlank","","","","","0.4099999999999999","0.3","1"
"","psychophysics","103","620232","0.0-103.0","5d1653de3935ca001b87ff71","6257531f322e3f5570f570f0","","","","","1665","key"," "," ","16.70282828282786","500","250","inst","","","","","","",""
"","psychophysics","104","625705","0.0-104.0","5d1653de3935ca001b87ff71","6257531f322e3f5570f570f0","","","","","5464","key"," "," ","16.695092024539807","500","250","instFlank","","","","","0.5","0.3","0"
"","psychophysics","105","626697","0.0-105.0","5d1653de3935ca001b87ff71","6257531f322e3f5570f570f0","","","","","984","key"," "," ","16.69661016949113","500","250","inst","","","","","","",""
"","psychophysics","106","630472","0.0-106.0","5d1653de3935ca001b87ff71","6257531f322e3f5570f570f0","","","","","3770","key"," "," ","16.699644444444115","500","250","flank","","","","","0.53","0.46","0"
"","psychophysics","107","634777","0.0-107.0","5d1653de3935ca001b87ff71","6257531f322e3f5570f570f0","","","","","4297","key"," "," ","16.70225680933845","500","250","flank","","","","","0.7100000000000002","0.76","1"
"","psychophysics","108","638793","0.0-108.0","5d1653de3935ca001b87ff71","6257531f322e3f5570f570f0","","","","","4010","key"," "," ","16.697573221757207","500","250","flank","","","","","0.5","0.36","0"
"","psychophysics","109","643497","0.0-109.0","5d1653de3935ca001b87ff71","6257531f322e3f5570f570f0","","","","","4691","key"," "," ","16.699501779359217","500","250","flank","","","","","0.7100000000000002","0.66","1"
"","psychophysics","110","649648","0.0-110.0","5d1653de3935ca001b87ff71","6257531f322e3f5570f570f0","","","","","6148","key"," "," ","16.69596730245243","500","250","flank","","","","","0.7100000000000002","0.6","1"
"","psychophysics","111","655688","0.0-111.0","5d1653de3935ca001b87ff71","6257531f322e3f5570f570f0","","","","","6033","key"," "," ","16.69739612188368","500","250","flank","","","","","0.7400000000000002","0.62","0"
"","psychophysics","112","660337","0.0-112.0","5d1653de3935ca001b87ff71","6257531f322e3f5570f570f0","","","","","4643","key"," "," ","16.69992779783395","500","250","flank","","","","","0.8000000000000003","0.8","0"
"","psychophysics","113","664665","0.0-113.0","5d1653de3935ca001b87ff71","6257531f322e3f5570f570f0","","","","","4319","key"," "," ","16.69552123552129","500","250","flank","","","","","0.6200000000000001","0.58","1"
"","psychophysics","114","668073","0.0-114.0","5d1653de3935ca001b87ff71","6257531f322e3f5570f570f0","","","","","3401","key"," "," ","16.702561576354658","500","250","flank","","","","","0.53","0.32","0"
"","psychophysics","115","671448","0.0-115.0","5d1653de3935ca001b87ff71","6257531f322e3f5570f570f0","","","","","3371","key"," "," ","16.69462686567162","500","250","flank","","","","","0.5900000000000001","0.5","0"
"","psychophysics","116","674801","0.0-116.0","5d1653de3935ca001b87ff71","6257531f322e3f5570f570f0","","","","","3348","key"," "," ","16.702200000000303","500","250","flank","","","","","0.56","0.5","1"
"","psychophysics","117","678505","0.0-117.0","5d1653de3935ca001b87ff71","6257531f322e3f5570f570f0","","","","","3700","key"," "," ","16.70018181818199","500","250","flank","","","","","0.47","0.26","0"
"","psychophysics","118","682113","0.0-118.0","5d1653de3935ca001b87ff71","6257531f322e3f5570f570f0","","","","","3601","key"," "," ","16.691906976744228","500","250","flank","","","","","0.5900000000000001","0.52","0"
"","psychophysics","119","685104","0.0-119.0","5d1653de3935ca001b87ff71","6257531f322e3f5570f570f0","","","","","2985","key"," "," ","16.697653631284943","500","250","flank","","","","","0.53","0.48","1"
"","psychophysics","120","689952","0.0-120.0","5d1653de3935ca001b87ff71","6257531f322e3f5570f570f0","","","","","4843","key"," "," ","16.69840830449816","500","250","flank","","","","","0.8000000000000003","0.8","1"
"","psychophysics","121","693754","0.0-121.0","5d1653de3935ca001b87ff71","6257531f322e3f5570f570f0","","","","","3797","key"," "," ","16.698766519823767","500","250","flank","","","","","0.6200000000000001","0.52","0"
"","psychophysics","122","698120","0.0-122.0","5d1653de3935ca001b87ff71","6257531f322e3f5570f570f0","","","","","4362","key"," "," ","16.7016153846151","500","250","flank","","","","","0.7400000000000002","0.68","1"
"","psychophysics","123","701985","0.0-123.0","5d1653de3935ca001b87ff71","6257531f322e3f5570f570f0","","","","","3860","key"," "," ","16.69922077922086","500","250","flank","","","","","0.7400000000000002","0.68","0"
"","psychophysics","124","705897","0.0-124.0","5d1653de3935ca001b87ff71","6257531f322e3f5570f570f0","","","","","3907","key"," "," ","16.698197424892424","500","250","flank","","","","","0.6200000000000001","0.48","0"
"","psychophysics","125","711472","0.0-125.0","5d1653de3935ca001b87ff71","6257531f322e3f5570f570f0","","","","","5571","key"," "," ","16.693573573573463","500","250","flank","","","","","0.7100000000000002","0.56","0"
"","psychophysics","126","715272","0.0-126.0","5d1653de3935ca001b87ff71","6257531f322e3f5570f570f0","","","","","3795","key"," "," ","16.69876106194709","500","250","flank","","","","","0.43999999999999995","0.22","0"
"","psychophysics","127","719864","0.0-127.0","5d1653de3935ca001b87ff71","6257531f322e3f5570f570f0","","","","","4585","key"," "," ","16.699343065693412","500","250","flank","","","","","0.56","0.38","0"
"","psychophysics","128","723473","0.0-128.0","5d1653de3935ca001b87ff71","6257531f322e3f5570f570f0","","","","","3602","key"," "," ","16.700651162790763","500","250","flank","","","","","0.6200000000000001","0.5","0"
"","psychophysics","129","727713","0.0-129.0","5d1653de3935ca001b87ff71","6257531f322e3f5570f570f0","","","","","4233","key"," "," ","16.695494071146097","500","250","flank","","","","","0.7400000000000002","0.66","0"
"","psychophysics","130","731216","0.0-130.0","5d1653de3935ca001b87ff71","6257531f322e3f5570f570f0","","","","","3497","key"," "," ","16.701531100478448","500","250","flank","","","","","0.4099999999999999","0.32","1"
"","psychophysics","131","735514","0.0-131.0","5d1653de3935ca001b87ff71","6257531f322e3f5570f570f0","","","","","4291","key"," "," ","16.695937500000127","500","250","flank","","","","","0.47","0.32","1"
"","psychophysics","132","739552","0.0-132.0","5d1653de3935ca001b87ff71","6257531f322e3f5570f570f0","","","","","4034","key"," "," ","16.697510373443887","500","250","flank","","","","","0.53","0.28","0"
"","psychophysics","133","744057","0.0-133.0","5d1653de3935ca001b87ff71","6257531f322e3f5570f570f0","","","","","4497","key"," "," ","16.699256505576123","500","250","flank","","","","","0.5","0.4","1"
"","psychophysics","134","749200","0.0-134.0","5d1653de3935ca001b87ff71","6257531f322e3f5570f570f0","","","","","5139","key"," "," ","16.69654723127025","500","250","flank","","","","","0.7100000000000002","0.58","0"
"","psychophysics","135","753025","0.0-135.0","5d1653de3935ca001b87ff71","6257531f322e3f5570f570f0","","","","","3819","key"," "," ","16.698421052631538","500","250","flank","","","","","0.34999999999999987","0.2","0"
"true","fullscreen","136","753026","0.0-136.0","5d1653de3935ca001b87ff71","6257531f322e3f5570f570f0","","","","","","","","","","","","","","","","","","",""
