"success","trial_type","trial_index","time_elapsed","internal_node_id","pid","sid","timeout","failed_images","failed_audio","failed_video","rt","response_type","key_press","response","avg_frame_time","center_x","center_y","task","ml_len","ml_start","ml_x","ml_y","resp","targ","back"
"true","fullscreen","0","4431","0.0-0.0","5b7aefd06c1ccb000178b710","6257519117f4d4c06af83f27","","","","","","","","","","","","","","","","","","",""
"true","preload","1","4434","0.0-1.0","5b7aefd06c1ccb000178b710","6257519117f4d4c06af83f27","false","[]","[]","[]","","","","","","","","","","","","","","",""
"","psychophysics","2","15744","0.0-2.0","5b7aefd06c1ccb000178b710","6257519117f4d4c06af83f27","","","","","11298","key"," "," ","16.662772861356935","500","250","inst","","","","","","",""
"","psychophysics","3","19599","0.0-3.0","5b7aefd06c1ccb000178b710","6257519117f4d4c06af83f27","","","","","3850","key"," "," ","16.669264069264077","500","250","inst","","","","","","",""
"","psychophysics","4","41911","0.0-4.0","5b7aefd06c1ccb000178b710","6257519117f4d4c06af83f27","","","","","22308","key"," "," ","16.666656694091248","500","250","instMl","236","-39.333333333333336","26","-22","-23.333333333333258","",""
"","psychophysics","5","66382","0.0-5.0","5b7aefd06c1ccb000178b710","6257519117f4d4c06af83f27","","","","","24466","key"," "," ","16.66636239782016","500","250","instMl","152","-25.333333333333332","-2","28","-14.333333333333314","",""
"","psychophysics","6","75895","0.0-6.0","5b7aefd06c1ccb000178b710","6257519117f4d4c06af83f27","","","","","9508","key"," "," ","16.66586994727593","500","250","inst","","","","","","",""
"","psychophysics","7","87758","0.0-7.0","5b7aefd06c1ccb000178b710","6257519117f4d4c06af83f27","","","","","11857","key"," "," ","16.667819971870614","500","250","ml","182","-29","-12","-4","-18","",""
"","psychophysics","8","105334","0.0-8.0","5b7aefd06c1ccb000178b710","6257519117f4d4c06af83f27","","","","","17573","key"," "," ","16.666755218216313","500","250","ml","192","-8","-17","-20","-19","",""
"","psychophysics","9","121941","0.0-9.0","5b7aefd06c1ccb000178b710","6257519117f4d4c06af83f27","","","","","16604","key"," "," ","16.66665326633165","500","250","ml","160","39","11","4","-15","",""
"","psychophysics","10","136325","0.0-10.0","5b7aefd06c1ccb000178b710","6257519117f4d4c06af83f27","","","","","14380","key"," "," ","16.666658932714604","500","250","ml","214","-45","-20","-28","-18","",""
"","psychophysics","11","156717","0.0-11.0","5b7aefd06c1ccb000178b710","6257519117f4d4c06af83f27","","","","","20390","key"," "," ","16.66690106295993","500","250","ml","218","-37","-26","-20","-20","",""
"","psychophysics","12","172397","0.0-12.0","5b7aefd06c1ccb000178b710","6257519117f4d4c06af83f27","","","","","15677","key"," "," ","16.666148936170206","500","250","ml","250","0","14","27","-18","",""
"","psychophysics","13","185036","0.0-13.0","5b7aefd06c1ccb000178b710","6257519117f4d4c06af83f27","","","","","12636","key"," "," ","16.666737120211362","500","250","ml","152","7","23","4","-14","",""
"","psychophysics","14","208972","0.0-14.0","5b7aefd06c1ccb000178b710","6257519117f4d4c06af83f27","","","","","23934","key"," "," ","16.667372822299647","500","250","ml","228","55","-19","-29","-19","",""
"","psychophysics","15","223900","0.0-15.0","5b7aefd06c1ccb000178b710","6257519117f4d4c06af83f27","","","","","14927","key"," "," ","16.665877094972057","500","250","ml","160","-19","-11","-20","-14","",""
"","psychophysics","16","242251","0.0-16.0","5b7aefd06c1ccb000178b710","6257519117f4d4c06af83f27","","","","","18347","key"," "," ","16.666709090909094","500","250","ml","248","-37","-11","-5","-17","",""
"","psychophysics","17","266795","0.0-17.0","5b7aefd06c1ccb000178b710","6257519117f4d4c06af83f27","","","","","24541","key"," "," ","16.6670516304348","500","250","ml","240","13","-29","5","-18","",""
"","psychophysics","18","288010","0.0-18.0","5b7aefd06c1ccb000178b710","6257519117f4d4c06af83f27","","","","","21214","key"," "," ","16.666289308176115","500","250","ml","184","41","-2","-20","-14","",""
"","psychophysics","19","320395","0.0-19.0","5b7aefd06c1ccb000178b710","6257519117f4d4c06af83f27","","","","","32382","key"," "," ","16.666642636457258","500","250","ml","184","43","-20","-30","-13","",""
"","psychophysics","20","338345","0.0-20.0","5b7aefd06c1ccb000178b710","6257519117f4d4c06af83f27","","","","","17949","key"," "," ","16.666171003717462","500","250","ml","202","21","-4","-12","-13","",""
"","psychophysics","21","359290","0.0-21.0","5b7aefd06c1ccb000178b710","6257519117f4d4c06af83f27","","","","","20942","key"," "," ","16.666533864541833","500","250","ml","150","37","13","13","-11","",""
"","psychophysics","22","367010","0.0-22.0","5b7aefd06c1ccb000178b710","6257519117f4d4c06af83f27","","","","","7716","key"," "," ","16.666047516198713","500","250","inst","","","","","","",""
"","psychophysics","23","398217","0.0-23.0","5b7aefd06c1ccb000178b710","6257519117f4d4c06af83f27","","","","","31206","key"," "," ","16.66643506146447","500","250","instPog","","","","","129","130",""
"","psychophysics","24","437273","0.0-24.0","5b7aefd06c1ccb000178b710","6257519117f4d4c06af83f27","","","","","39053","key"," "," ","16.666532877882133","500","250","instPog","","","","","131","130",""
"","psychophysics","25","463634","0.0-25.0","5b7aefd06c1ccb000178b710","6257519117f4d4c06af83f27","","","","","26358","key"," "," ","16.666578115117044","500","250","instPog","","","","","137","130",""
"","psychophysics","26","470272","0.0-26.0","5b7aefd06c1ccb000178b710","6257519117f4d4c06af83f27","","","","","6636","key"," "," ","16.665088161209162","500","250","inst","","","","","","",""
"","psychophysics","27","489128","0.0-27.0","5b7aefd06c1ccb000178b710","6257519117f4d4c06af83f27","","","","","18852","key"," "," ","16.66677276746242","500","250","pog","","","","","177","169",""
"","psychophysics","28","506896","0.0-28.0","5b7aefd06c1ccb000178b710","6257519117f4d4c06af83f27","","","","","17766","key"," "," ","16.666685446009406","500","250","pog","","","","","172","164",""
"","psychophysics","29","533359","0.0-29.0","5b7aefd06c1ccb000178b710","6257519117f4d4c06af83f27","","","","","26460","key"," "," ","16.666679269061135","500","250","pog","","","","","130","122",""
"","psychophysics","30","544424","0.0-30.0","5b7aefd06c1ccb000178b710","6257519117f4d4c06af83f27","","","","","11063","key"," "," ","16.666425339366466","500","250","pog","","","","","160","154",""
"","psychophysics","31","570727","0.0-31.0","5b7aefd06c1ccb000178b710","6257519117f4d4c06af83f27","","","","","26300","key"," "," ","16.66662016487001","500","250","pog","","","","","207","199",""
"","psychophysics","32","580801","0.0-32.0","5b7aefd06c1ccb000178b710","6257519117f4d4c06af83f27","","","","","10073","key"," "," ","16.668126036484253","500","250","pog","","","","","173","167",""
"","psychophysics","33","609141","0.0-33.0","5b7aefd06c1ccb000178b710","6257519117f4d4c06af83f27","","","","","28339","key"," "," ","16.666235294117634","500","250","pog","","","","","182","175",""
"","psychophysics","34","628150","0.0-34.0","5b7aefd06c1ccb000178b710","6257519117f4d4c06af83f27","","","","","19006","key"," "," ","16.665952589991235","500","250","pog","","","","","199","193",""
"","psychophysics","35","646030","0.0-35.0","5b7aefd06c1ccb000178b710","6257519117f4d4c06af83f27","","","","","17876","key"," "," ","16.666828358208924","500","250","pog","","","","","141","135",""
"","psychophysics","36","661942","0.0-36.0","5b7aefd06c1ccb000178b710","6257519117f4d4c06af83f27","","","","","15909","key"," "," ","16.66687631027261","500","250","pog","","","","","164","158",""
"","psychophysics","37","687773","0.0-37.0","5b7aefd06c1ccb000178b710","6257519117f4d4c06af83f27","","","","","25828","key"," "," ","16.66649451258878","500","250","pog","","","","","126","120",""
"","psychophysics","38","712365","0.0-38.0","5b7aefd06c1ccb000178b710","6257519117f4d4c06af83f27","","","","","24587","key"," "," ","16.666675712347388","500","250","pog","","","","","142","135",""
"","psychophysics","39","736686","0.0-39.0","5b7aefd06c1ccb000178b710","6257519117f4d4c06af83f27","","","","","24319","key"," "," ","16.666145404663915","500","250","pog","","","","","137","126",""
"","psychophysics","40","764988","0.0-40.0","5b7aefd06c1ccb000178b710","6257519117f4d4c06af83f27","","","","","28298","key"," "," ","16.667137809187306","500","250","pog","","","","","146","140",""
"","psychophysics","41","788620","0.0-41.0","5b7aefd06c1ccb000178b710","6257519117f4d4c06af83f27","","","","","23629","key"," "," ","16.666422018348587","500","250","pog","","","","","179","168",""
"","psychophysics","42","791972","0.0-42.0","5b7aefd06c1ccb000178b710","6257519117f4d4c06af83f27","","","","","3349","key"," "," ","16.66719999999972","500","250","inst","","","","","","",""
"","psychophysics","43","796924","0.0-43.0","5b7aefd06c1ccb000178b710","6257519117f4d4c06af83f27","","","","","4949","key"," "," ","16.667635135135512","500","250","instTilt","","","","","NaN","0","0"
"","psychophysics","44","801324","0.0-44.0","5b7aefd06c1ccb000178b710","6257519117f4d4c06af83f27","","","","","4397","key"," "," ","16.66722433460069","500","250","instTilt","","","","","0","0","0"
"","psychophysics","45","827221","0.0-45.0","5b7aefd06c1ccb000178b710","6257519117f4d4c06af83f27","","","","","25895","key"," "," ","16.66633612363165","500","250","instTilt","","","","","2","0","0"
"","psychophysics","46","834740","0.0-46.0","5b7aefd06c1ccb000178b710","6257519117f4d4c06af83f27","","","","","7516","key"," "," ","16.66626666666681","500","250","inst","","","","","","",""
"","psychophysics","47","851260","0.0-47.0","5b7aefd06c1ccb000178b710","6257519117f4d4c06af83f27","","","","","16516","key"," "," ","16.667313131313147","500","250","tilt","","","","","7","7","0"
"","psychophysics","48","864667","0.0-48.0","5b7aefd06c1ccb000178b710","6257519117f4d4c06af83f27","","","","","13406","key"," "," ","16.666475716064674","500","250","tilt","","","","","-3","-2","1"
"","psychophysics","49","884796","0.0-49.0","5b7aefd06c1ccb000178b710","6257519117f4d4c06af83f27","","","","","20125","key"," "," ","16.66601491300746","500","250","tilt","","","","","6","9","1"
"","psychophysics","50","900243","0.0-50.0","5b7aefd06c1ccb000178b710","6257519117f4d4c06af83f27","","","","","15444","key"," "," ","16.666004319654398","500","250","tilt","","","","","-6","-8","0"
"","psychophysics","51","914658","0.0-51.0","5b7aefd06c1ccb000178b710","6257519117f4d4c06af83f27","","","","","14413","key"," "," ","16.665856481481537","500","250","tilt","","","","","7","10","1"
"","psychophysics","52","927419","0.0-52.0","5b7aefd06c1ccb000178b710","6257519117f4d4c06af83f27","","","","","12758","key"," "," ","16.665620915032772","500","250","tilt","","","","","-5","-4","1"
"","psychophysics","53","950914","0.0-53.0","5b7aefd06c1ccb000178b710","6257519117f4d4c06af83f27","","","","","23492","key"," "," ","16.667073863636357","500","250","tilt","","","","","-1","1","1"
"","psychophysics","54","965627","0.0-54.0","5b7aefd06c1ccb000178b710","6257519117f4d4c06af83f27","","","","","14709","key"," "," ","16.667664399092974","500","250","tilt","","","","","2","6","1"
"","psychophysics","55","991712","0.0-55.0","5b7aefd06c1ccb000178b710","6257519117f4d4c06af83f27","","","","","26082","key"," "," ","16.666457800511488","500","250","tilt","","","","","-3","-6","0"
"","psychophysics","56","1011769","0.0-56.0","5b7aefd06c1ccb000178b710","6257519117f4d4c06af83f27","","","","","20052","key"," "," ","16.667381546134653","500","250","tilt","","","","","2","4","1"
"","psychophysics","57","1028889","0.0-57.0","5b7aefd06c1ccb000178b710","6257519117f4d4c06af83f27","","","","","17118","key"," "," ","16.66703703703704","500","250","tilt","","","","","-1","1","1"
"","psychophysics","58","1043385","0.0-58.0","5b7aefd06c1ccb000178b710","6257519117f4d4c06af83f27","","","","","14493","key"," "," ","16.66655926352128","500","250","tilt","","","","","10","10","0"
"","psychophysics","59","1058826","0.0-59.0","5b7aefd06c1ccb000178b710","6257519117f4d4c06af83f27","","","","","15438","key"," "," ","16.666681081081137","500","250","tilt","","","","","1","0","0"
"","psychophysics","60","1077816","0.0-60.0","5b7aefd06c1ccb000178b710","6257519117f4d4c06af83f27","","","","","18989","key"," "," ","16.66676031606688","500","250","tilt","","","","","-6","-9","0"
"","psychophysics","61","1096281","0.0-61.0","5b7aefd06c1ccb000178b710","6257519117f4d4c06af83f27","","","","","18461","key"," "," ","16.666112115732343","500","250","tilt","","","","","-6","-8","0"
"","psychophysics","62","1113095","0.0-62.0","5b7aefd06c1ccb000178b710","6257519117f4d4c06af83f27","","","","","16811","key"," "," ","16.66765873015873","500","250","tilt","","","","","6","8","1"
"","psychophysics","63","1125248","0.0-63.0","5b7aefd06c1ccb000178b710","6257519117f4d4c06af83f27","","","","","12148","key"," "," ","16.66796703296707","500","250","tilt","","","","","-3","-1","1"
"","psychophysics","64","1140920","0.0-64.0","5b7aefd06c1ccb000178b710","6257519117f4d4c06af83f27","","","","","15667","key"," "," ","16.66627659574473","500","250","tilt","","","","","9","10","0"
"","psychophysics","65","1161063","0.0-65.0","5b7aefd06c1ccb000178b710","6257519117f4d4c06af83f27","","","","","20140","key"," "," ","16.666594863297494","500","250","tilt","","","","","8","9","0"
"","psychophysics","66","1178800","0.0-66.0","5b7aefd06c1ccb000178b710","6257519117f4d4c06af83f27","","","","","17734","key"," "," ","16.666898496240673","500","250","tilt","","","","","0","2","1"
"","psychophysics","67","1193143","0.0-67.0","5b7aefd06c1ccb000178b710","6257519117f4d4c06af83f27","","","","","14339","key"," "," ","16.666612339930012","500","250","tilt","","","","","2","2","0"
"","psychophysics","68","1209400","0.0-68.0","5b7aefd06c1ccb000178b710","6257519117f4d4c06af83f27","","","","","16254","key"," "," ","16.666728205128262","500","250","tilt","","","","","-1","-3","0"
"","psychophysics","69","1225024","0.0-69.0","5b7aefd06c1ccb000178b710","6257519117f4d4c06af83f27","","","","","15621","key"," "," ","16.66568376068384","500","250","tilt","","","","","7","10","1"
"","psychophysics","70","1245102","0.0-70.0","5b7aefd06c1ccb000178b710","6257519117f4d4c06af83f27","","","","","20074","key"," "," ","16.666877076411897","500","250","tilt","","","","","6","7","0"
"","psychophysics","71","1266182","0.0-71.0","5b7aefd06c1ccb000178b710","6257519117f4d4c06af83f27","","","","","21076","key"," "," ","16.6672151898735","500","250","tilt","","","","","-6","-9","0"
"","psychophysics","72","1282102","0.0-72.0","5b7aefd06c1ccb000178b710","6257519117f4d4c06af83f27","","","","","15916","key"," "," ","16.66651991614242","500","250","tilt","","","","","3","4","0"
"","psychophysics","73","1292149","0.0-73.0","5b7aefd06c1ccb000178b710","6257519117f4d4c06af83f27","","","","","10045","key"," "," ","16.666677740863925","500","250","tilt","","","","","-4","-4","1"
"","psychophysics","74","1303437","0.0-74.0","5b7aefd06c1ccb000178b710","6257519117f4d4c06af83f27","","","","","11285","key"," "," ","16.6669526627217","500","250","tilt","","","","","3","4","0"
"","psychophysics","75","1322013","0.0-75.0","5b7aefd06c1ccb000178b710","6257519117f4d4c06af83f27","","","","","18573","key"," "," ","16.666086175942358","500","250","tilt","","","","","9","10","0"
"","psychophysics","76","1351140","0.0-76.0","5b7aefd06c1ccb000178b710","6257519117f4d4c06af83f27","","","","","29124","key"," "," ","16.666609392898","500","250","tilt","","","","","1","-1","0"
"","psychophysics","77","1354612","0.0-77.0","5b7aefd06c1ccb000178b710","6257519117f4d4c06af83f27","","","","","3469","key"," "," ","16.664615384615338","500","250","inst","","","","","","",""
"","psychophysics","78","1360460","0.0-78.0","5b7aefd06c1ccb000178b710","6257519117f4d4c06af83f27","","","","","5843","key"," "," ","16.666532951289717","500","250","instPz","","","","","50","50",""
"","psychophysics","79","1395852","0.0-79.0","5b7aefd06c1ccb000178b710","6257519117f4d4c06af83f27","","","","","35388","key"," "," ","16.667037211493113","500","250","instPz","","","","","48","50",""
"","psychophysics","80","1413909","0.0-80.0","5b7aefd06c1ccb000178b710","6257519117f4d4c06af83f27","","","","","18055","key"," "," ","16.666506469500845","500","250","instPz","","","","","30","30",""
"","psychophysics","81","1444428","0.0-81.0","5b7aefd06c1ccb000178b710","6257519117f4d4c06af83f27","","","","","30515","key"," "," ","16.666630256690382","500","250","instPz","","","","","42","40",""
"","psychophysics","82","1451996","0.0-82.0","5b7aefd06c1ccb000178b710","6257519117f4d4c06af83f27","","","","","7565","key"," "," ","16.66476821192082","500","250","inst","","","","","","",""
"","psychophysics","83","1478395","0.0-83.0","5b7aefd06c1ccb000178b710","6257519117f4d4c06af83f27","","","","","26398","key"," "," ","16.66620341124453","500","250","pz","","","","","64","58",""
"","psychophysics","84","1501851","0.0-84.0","5b7aefd06c1ccb000178b710","6257519117f4d4c06af83f27","","","","","23452","key"," "," ","16.66674253200565","500","250","pz","","","","","54","50",""
"","psychophysics","85","1518411","0.0-85.0","5b7aefd06c1ccb000178b710","6257519117f4d4c06af83f27","","","","","16559","key"," "," ","16.665699899295102","500","250","pz","","","","","31","29",""
"","psychophysics","86","1549369","0.0-86.0","5b7aefd06c1ccb000178b710","6257519117f4d4c06af83f27","","","","","30955","key"," "," ","16.666724137931006","500","250","pz","","","","","61","54",""
"","psychophysics","87","1582953","0.0-87.0","5b7aefd06c1ccb000178b710","6257519117f4d4c06af83f27","","","","","33582","key"," "," ","16.666305858987062","500","250","pz","","","","","66","58",""
"","psychophysics","88","1616465","0.0-88.0","5b7aefd06c1ccb000178b710","6257519117f4d4c06af83f27","","","","","33509","key"," "," ","16.667054726368175","500","250","pz","","","","","46","36",""
"","psychophysics","89","1649128","0.0-89.0","5b7aefd06c1ccb000178b710","6257519117f4d4c06af83f27","","","","","32661","key"," "," ","16.666758550280722","500","250","pz","","","","","69","53",""
"","psychophysics","90","1663784","0.0-90.0","5b7aefd06c1ccb000178b710","6257519117f4d4c06af83f27","","","","","14655","key"," "," ","16.66665148063789","500","250","pz","","","","","29","23",""
"","psychophysics","91","1686655","0.0-91.0","5b7aefd06c1ccb000178b710","6257519117f4d4c06af83f27","","","","","22868","key"," "," ","16.666666666666668","500","250","pz","","","","","42","35",""
"","psychophysics","92","1715783","0.0-92.0","5b7aefd06c1ccb000178b710","6257519117f4d4c06af83f27","","","","","29126","key"," "," ","16.666662850600982","500","250","pz","","","","","58","48",""
"","psychophysics","93","1751215","0.0-93.0","5b7aefd06c1ccb000178b710","6257519117f4d4c06af83f27","","","","","35429","key"," "," ","16.666362352941075","500","250","pz","","","","","65","55",""
"","psychophysics","94","1779573","0.0-94.0","5b7aefd06c1ccb000178b710","6257519117f4d4c06af83f27","","","","","28357","key"," "," ","16.666948853615647","500","250","pz","","","","","63","51",""
"","psychophysics","95","1801052","0.0-95.0","5b7aefd06c1ccb000178b710","6257519117f4d4c06af83f27","","","","","21477","key"," "," ","16.666744366744258","500","250","pz","","","","","33","28",""
"","psychophysics","96","1818614","0.0-96.0","5b7aefd06c1ccb000178b710","6257519117f4d4c06af83f27","","","","","17557","key"," "," ","16.667502374168933","500","250","pz","","","","","28","24",""
"","psychophysics","97","1843325","0.0-97.0","5b7aefd06c1ccb000178b710","6257519117f4d4c06af83f27","","","","","24708","key"," "," ","16.666909581646337","500","250","pz","","","","","55","46",""
"","psychophysics","98","1848157","0.0-98.0","5b7aefd06c1ccb000178b710","6257519117f4d4c06af83f27","","","","","4830","key"," "," ","16.666712802768746","500","250","inst","","","","","","",""
"","psychophysics","99","1854653","0.0-99.0","5b7aefd06c1ccb000178b710","6257519117f4d4c06af83f27","","","","","6492","key"," "," ","16.666649484535867","500","250","inst","","","","","","",""
"","psychophysics","100","1859045","0.0-100.0","5b7aefd06c1ccb000178b710","6257519117f4d4c06af83f27","","","","","4385","key"," "," ","16.666844106463454","500","250","instFlank","","","","","0.5","0.3","1"
"","psychophysics","101","1872701","0.0-101.0","5b7aefd06c1ccb000178b710","6257519117f4d4c06af83f27","","","","","13652","key"," "," ","16.667775061124683","500","250","inst","","","","","","",""
"","psychophysics","102","1902123","0.0-102.0","5b7aefd06c1ccb000178b710","6257519117f4d4c06af83f27","","","","","29417","key"," "," ","16.667093484419222","500","250","instFlank","","","","","0.4099999999999999","0.3","1"
"","psychophysics","103","1911973","0.0-103.0","5b7aefd06c1ccb000178b710","6257519117f4d4c06af83f27","","","","","9847","key"," "," ","16.6664067796613","500","250","inst","","","","","","",""
"","psychophysics","104","1919572","0.0-104.0","5b7aefd06c1ccb000178b710","6257519117f4d4c06af83f27","","","","","7594","key"," "," ","16.665230769231137","500","250","instFlank","","","","","0.5","0.3","0"
"","psychophysics","105","1926628","0.0-105.0","5b7aefd06c1ccb000178b710","6257519117f4d4c06af83f27","","","","","7051","key"," "," ","16.667962085307792","500","250","inst","","","","","","",""
"","psychophysics","106","1936131","0.0-106.0","5b7aefd06c1ccb000178b710","6257519117f4d4c06af83f27","","","","","9500","key"," "," ","16.666678383128442","500","250","flank","","","","","0.3799999999999999","0.36","1"
"","psychophysics","107","1945090","0.0-107.0","5b7aefd06c1ccb000178b710","6257519117f4d4c06af83f27","","","","","8955","key"," "," ","16.66659217877088","500","250","flank","","","","","0.31999999999999984","0.28","1"
"","psychophysics","108","1953699","0.0-108.0","5b7aefd06c1ccb000178b710","6257519117f4d4c06af83f27","","","","","8605","key"," "," ","16.66788349514601","500","250","flank","","","","","0.6200000000000001","0.6","1"
"","psychophysics","109","1960171","0.0-109.0","5b7aefd06c1ccb000178b710","6257519117f4d4c06af83f27","","","","","6468","key"," "," ","16.668350515464084","500","250","flank","","","","","0.3799999999999999","0.26","0"
"","psychophysics","110","1967180","0.0-110.0","5b7aefd06c1ccb000178b710","6257519117f4d4c06af83f27","","","","","7005","key"," "," ","16.66835322195713","500","250","flank","","","","","0.34999999999999987","0.26","1"
"","psychophysics","111","1975659","0.0-111.0","5b7aefd06c1ccb000178b710","6257519117f4d4c06af83f27","","","","","8477","key"," "," ","16.666850393700805","500","250","flank","","","","","0.47","0.34","1"
"","psychophysics","112","1980866","0.0-112.0","5b7aefd06c1ccb000178b710","6257519117f4d4c06af83f27","","","","","5205","key"," "," ","16.664501607716772","500","250","flank","","","","","0.53","0.4","0"
"","psychophysics","113","1988164","0.0-113.0","5b7aefd06c1ccb000178b710","6257519117f4d4c06af83f27","","","","","7293","key"," "," ","16.66864988558395","500","250","flank","","","","","0.7700000000000002","0.78","0"
"","psychophysics","114","1992819","0.0-114.0","5b7aefd06c1ccb000178b710","6257519117f4d4c06af83f27","","","","","4653","key"," "," ","16.663297491038794","500","250","flank","","","","","0.5","0.38","1"
"","psychophysics","115","1996689","0.0-115.0","5b7aefd06c1ccb000178b710","6257519117f4d4c06af83f27","","","","","3867","key"," "," ","16.663290043289923","500","250","flank","","","","","0.53","0.42","0"
"","psychophysics","116","2002099","0.0-116.0","5b7aefd06c1ccb000178b710","6257519117f4d4c06af83f27","","","","","5406","key"," "," ","16.666749226005788","500","250","flank","","","","","0.7400000000000002","0.76","1"
"","psychophysics","117","2007850","0.0-117.0","5b7aefd06c1ccb000178b710","6257519117f4d4c06af83f27","","","","","5748","key"," "," ","16.66581395348848","500","250","flank","","","","","0.8000000000000003","0.8","0"
"","psychophysics","118","2012802","0.0-118.0","5b7aefd06c1ccb000178b710","6257519117f4d4c06af83f27","","","","","4949","key"," "," ","16.66734006733991","500","250","flank","","","","","0.43999999999999995","0.28","1"
"","psychophysics","119","2018626","0.0-119.0","5b7aefd06c1ccb000178b710","6257519117f4d4c06af83f27","","","","","5821","key"," "," ","16.668218390804704","500","250","flank","","","","","0.7700000000000002","0.74","0"
"","psychophysics","120","2024073","0.0-120.0","5b7aefd06c1ccb000178b710","6257519117f4d4c06af83f27","","","","","5444","key"," "," ","16.6668711656446","500","250","flank","","","","","0.53","0.48","1"
"","psychophysics","121","2028426","0.0-121.0","5b7aefd06c1ccb000178b710","6257519117f4d4c06af83f27","","","","","4350","key"," "," ","16.66684615384662","500","250","flank","","","","","0.5900000000000001","0.52","1"
"","psychophysics","122","2035153","0.0-122.0","5b7aefd06c1ccb000178b710","6257519117f4d4c06af83f27","","","","","6725","key"," "," ","16.66630272952858","500","250","flank","","","","","0.5","0.34","0"
"","psychophysics","123","2041146","0.0-123.0","5b7aefd06c1ccb000178b710","6257519117f4d4c06af83f27","","","","","5989","key"," "," ","16.6672067039109","500","250","flank","","","","","0.4099999999999999","0.24","0"
"","psychophysics","124","2045506","0.0-124.0","5b7aefd06c1ccb000178b710","6257519117f4d4c06af83f27","","","","","4357","key"," "," ","16.664291187739035","500","250","flank","","","","","0.56","0.44","0"
"","psychophysics","125","2054080","0.0-125.0","5b7aefd06c1ccb000178b710","6257519117f4d4c06af83f27","","","","","8573","key"," "," ","16.666627680311855","500","250","flank","","","","","0.6800000000000002","0.7","1"
"","psychophysics","126","2059033","0.0-126.0","5b7aefd06c1ccb000178b710","6257519117f4d4c06af83f27","","","","","4950","key"," "," ","16.666891891891577","500","250","flank","","","","","0.6200000000000001","0.5","0"
"","psychophysics","127","2063425","0.0-127.0","5b7aefd06c1ccb000178b710","6257519117f4d4c06af83f27","","","","","4388","key"," "," ","16.669505703422338","500","250","flank","","","","","0.6500000000000001","0.56","0"
"","psychophysics","128","2067410","0.0-128.0","5b7aefd06c1ccb000178b710","6257519117f4d4c06af83f27","","","","","3983","key"," "," ","16.666302521008717","500","250","flank","","","","","0.4099999999999999","0.28","1"
"","psychophysics","129","2073065","0.0-129.0","5b7aefd06c1ccb000178b710","6257519117f4d4c06af83f27","","","","","5652","key"," "," ","16.66816568047293","500","250","flank","","","","","0.5900000000000001","0.58","0"
"","psychophysics","130","2080232","0.0-130.0","5b7aefd06c1ccb000178b710","6257519117f4d4c06af83f27","","","","","7163","key"," "," ","16.668857808857677","500","250","flank","","","","","0.7400000000000002","0.76","0"
"","psychophysics","131","2087281","0.0-131.0","5b7aefd06c1ccb000178b710","6257519117f4d4c06af83f27","","","","","7045","key"," "," ","16.668293838862603","500","250","flank","","","","","0.6500000000000001","0.56","0"
"","psychophysics","132","2093529","0.0-132.0","5b7aefd06c1ccb000178b710","6257519117f4d4c06af83f27","","","","","6241","key"," "," ","16.66684491978585","500","250","flank","","","","","0.43999999999999995","0.34","1"
"","psychophysics","133","2102825","0.0-133.0","5b7aefd06c1ccb000178b710","6257519117f4d4c06af83f27","","","","","9291","key"," "," ","16.667755834829762","500","250","flank","","","","","0.7100000000000002","0.74","1"
"","psychophysics","134","2106497","0.0-134.0","5b7aefd06c1ccb000178b710","6257519117f4d4c06af83f27","","","","","3668","key"," "," ","16.670776255707338","500","250","flank","","","","","0.56","0.4","0"
"","psychophysics","135","2113712","0.0-135.0","5b7aefd06c1ccb000178b710","6257519117f4d4c06af83f27","","","","","7210","key"," "," ","16.666712962963008","500","250","flank","","","","","0.43999999999999995","0.24","0"
"true","fullscreen","136","2113714","0.0-136.0","5b7aefd06c1ccb000178b710","6257519117f4d4c06af83f27","","","","","","","","","","","","","","","","","","",""
