"success","trial_type","trial_index","time_elapsed","internal_node_id","pid","sid","timeout","failed_images","failed_audio","failed_video","rt","response_type","key_press","response","avg_frame_time","center_x","center_y","task","ml_len","ml_start","ml_x","ml_y","resp","targ","back"
"true","fullscreen","0","2733","0.0-0.0","60e5d47e17c05633eef565e3","62574df909ab30a0a18bc94d","","","","","","","","","","","","","","","","","","",""
"true","preload","1","2738","0.0-1.0","60e5d47e17c05633eef565e3","62574df909ab30a0a18bc94d","false","[]","[]","[]","","","","","","","","","","","","","","",""
"","psychophysics","2","6594","0.0-2.0","60e5d47e17c05633eef565e3","62574df909ab30a0a18bc94d","","","","","3840","key"," "," ","16.67316883116883","500","250","inst","","","","","","",""
"","psychophysics","3","7531","0.0-3.0","60e5d47e17c05633eef565e3","62574df909ab30a0a18bc94d","","","","","934","key"," "," ","16.67327272727272","500","250","inst","","","","","","",""
"","psychophysics","4","32089","0.0-4.0","60e5d47e17c05633eef565e3","62574df909ab30a0a18bc94d","","","","","24553","key"," "," ","16.673020380434785","500","250","instMl","194","-32.333333333333336","-18","-2","-11.333333333333314","",""
"","psychophysics","5","43118","0.0-5.0","60e5d47e17c05633eef565e3","62574df909ab30a0a18bc94d","","","","","11023","key"," "," ","16.67303636363636","500","250","instMl","204","-34","-3","-7","-7","",""
"","psychophysics","6","45701","0.0-6.0","60e5d47e17c05633eef565e3","62574df909ab30a0a18bc94d","","","","","2568","key"," "," ","16.673123376623376","500","250","inst","","","","","","",""
"","psychophysics","7","48792","0.0-7.0","60e5d47e17c05633eef565e3","62574df909ab30a0a18bc94d","","","","","3088","key"," "," ","16.673156756756754","500","250","ml","162","10","-2","30","-5","",""
"","psychophysics","8","54548","0.0-8.0","60e5d47e17c05633eef565e3","62574df909ab30a0a18bc94d","","","","","5750","key"," "," ","16.673037790697677","500","250","ml","162","22","29","14","-6","",""
"","psychophysics","9","59730","0.0-9.0","60e5d47e17c05633eef565e3","62574df909ab30a0a18bc94d","","","","","5180","key"," "," ","16.67302258064517","500","250","ml","204","2","15","12","-12","",""
"","psychophysics","10","64693","0.0-10.0","60e5d47e17c05633eef565e3","62574df909ab30a0a18bc94d","","","","","4957","key"," "," ","16.672996621621653","500","250","ml","160","-40","-23","-5","-13","",""
"","psychophysics","11","70407","0.0-11.0","60e5d47e17c05633eef565e3","62574df909ab30a0a18bc94d","","","","","5705","key"," "," ","16.67301169590643","500","250","ml","180","15","5","-23","-10","",""
"","psychophysics","12","75156","0.0-12.0","60e5d47e17c05633eef565e3","62574df909ab30a0a18bc94d","","","","","4746","key"," "," ","16.67299999999999","500","250","ml","190","46","1","-16","-7","",""
"","psychophysics","13","79573","0.0-13.0","60e5d47e17c05633eef565e3","62574df909ab30a0a18bc94d","","","","","4415","key"," "," ","16.67302651515153","500","250","ml","230","31","16","-6","-10","",""
"","psychophysics","14","82752","0.0-14.0","60e5d47e17c05633eef565e3","62574df909ab30a0a18bc94d","","","","","3174","key"," "," ","16.67295238095243","500","250","ml","200","-29","20","-17","-6","",""
"","psychophysics","15","87558","0.0-15.0","60e5d47e17c05633eef565e3","62574df909ab30a0a18bc94d","","","","","4797","key"," "," ","16.67302083333334","500","250","ml","192","45","-27","-27","-8","",""
"","psychophysics","16","91685","0.0-16.0","60e5d47e17c05633eef565e3","62574df909ab30a0a18bc94d","","","","","4120","key"," "," ","16.67308536585371","500","250","ml","234","-32","-7","12","-10","",""
"","psychophysics","17","95147","0.0-17.0","60e5d47e17c05633eef565e3","62574df909ab30a0a18bc94d","","","","","3454","key"," "," ","16.67303864734301","500","250","ml","176","-24","24","-20","-8","",""
"","psychophysics","18","100558","0.0-18.0","60e5d47e17c05633eef565e3","62574df909ab30a0a18bc94d","","","","","5405","key"," "," ","16.67298761609907","500","250","ml","208","48","23","-25","-17","",""
"","psychophysics","19","105470","0.0-19.0","60e5d47e17c05633eef565e3","62574df909ab30a0a18bc94d","","","","","4905","key"," "," ","16.6731700680272","500","250","ml","170","-29","-7","22","-9","",""
"","psychophysics","20","110603","0.0-20.0","60e5d47e17c05633eef565e3","62574df909ab30a0a18bc94d","","","","","5123","key"," "," ","16.672931596091242","500","250","ml","212","45","10","2","-11","",""
"","psychophysics","21","114019","0.0-21.0","60e5d47e17c05633eef565e3","62574df909ab30a0a18bc94d","","","","","3413","key"," "," ","16.673063725490234","500","250","ml","178","20","-14","-7","-10","",""
"","psychophysics","22","116418","0.0-22.0","60e5d47e17c05633eef565e3","62574df909ab30a0a18bc94d","","","","","2394","key"," "," ","16.672566433566406","500","250","inst","","","","","","",""
"","psychophysics","23","129817","0.0-23.0","60e5d47e17c05633eef565e3","62574df909ab30a0a18bc94d","","","","","13396","key"," "," ","16.673041147132164","500","250","instPog","","","","","130","130",""
"","psychophysics","24","160542","0.0-24.0","60e5d47e17c05633eef565e3","62574df909ab30a0a18bc94d","","","","","30716","key"," "," ","16.673019001085777","500","250","instPog","","","","","143","130",""
"","psychophysics","25","173629","0.0-25.0","60e5d47e17c05633eef565e3","62574df909ab30a0a18bc94d","","","","","13085","key"," "," ","16.673015306122448","500","250","instPog","","","","","142","130",""
"","psychophysics","26","177251","0.0-26.0","60e5d47e17c05633eef565e3","62574df909ab30a0a18bc94d","","","","","3615","key"," "," ","16.673018518518532","500","250","inst","","","","","","",""
"","psychophysics","27","181810","0.0-27.0","60e5d47e17c05633eef565e3","62574df909ab30a0a18bc94d","","","","","4553","key"," "," ","16.672860805860775","500","250","pog","","","","","185","184",""
"","psychophysics","28","189930","0.0-28.0","60e5d47e17c05633eef565e3","62574df909ab30a0a18bc94d","","","","","8115","key"," "," ","16.673002057613164","500","250","pog","","","","","151","139",""
"","psychophysics","29","196582","0.0-29.0","60e5d47e17c05633eef565e3","62574df909ab30a0a18bc94d","","","","","6646","key"," "," ","16.673005025125626","500","250","pog","","","","","148","136",""
"","psychophysics","30","204674","0.0-30.0","60e5d47e17c05633eef565e3","62574df909ab30a0a18bc94d","","","","","8087","key"," "," ","16.672987603305774","500","250","pog","","","","","199","196",""
"","psychophysics","31","211198","0.0-31.0","60e5d47e17c05633eef565e3","62574df909ab30a0a18bc94d","","","","","6519","key"," "," ","16.67311538461542","500","250","pog","","","","","151","145",""
"","psychophysics","32","217638","0.0-32.0","60e5d47e17c05633eef565e3","62574df909ab30a0a18bc94d","","","","","6433","key"," "," ","16.672940414507785","500","250","pog","","","","","162","159",""
"","psychophysics","33","226011","0.0-33.0","60e5d47e17c05633eef565e3","62574df909ab30a0a18bc94d","","","","","8371","key"," "," ","16.673019960079877","500","250","pog","","","","","187","184",""
"","psychophysics","34","230334","0.0-34.0","60e5d47e17c05633eef565e3","62574df909ab30a0a18bc94d","","","","","4319","key"," "," ","16.67312403100774","500","250","pog","","","","","168","164",""
"","psychophysics","35","236634","0.0-35.0","60e5d47e17c05633eef565e3","62574df909ab30a0a18bc94d","","","","","6296","key"," "," ","16.673167108753276","500","250","pog","","","","","180","175",""
"","psychophysics","36","242679","0.0-36.0","60e5d47e17c05633eef565e3","62574df909ab30a0a18bc94d","","","","","6041","key"," "," ","16.67304986149582","500","250","pog","","","","","134","124",""
"","psychophysics","37","249623","0.0-37.0","60e5d47e17c05633eef565e3","62574df909ab30a0a18bc94d","","","","","6939","key"," "," ","16.673007211538508","500","250","pog","","","","","193","184",""
"","psychophysics","38","261123","0.0-38.0","60e5d47e17c05633eef565e3","62574df909ab30a0a18bc94d","","","","","11494","key"," "," ","16.673029027576202","500","250","pog","","","","","129","120",""
"","psychophysics","39","268266","0.0-39.0","60e5d47e17c05633eef565e3","62574df909ab30a0a18bc94d","","","","","7137","key"," "," ","16.673037470725966","500","250","pog","","","","","198","187",""
"","psychophysics","40","271558","0.0-40.0","60e5d47e17c05633eef565e3","62574df909ab30a0a18bc94d","","","","","3285","key"," "," ","16.673035532994867","500","250","pog","","","","","174","165",""
"","psychophysics","41","276785","0.0-41.0","60e5d47e17c05633eef565e3","62574df909ab30a0a18bc94d","","","","","5223","key"," "," ","16.672958333333483","500","250","pog","","","","","166","158",""
"","psychophysics","42","277756","0.0-42.0","60e5d47e17c05633eef565e3","62574df909ab30a0a18bc94d","","","","","968","key"," "," ","16.67303508771849","500","250","inst","","","","","","",""
"","psychophysics","43","280517","0.0-43.0","60e5d47e17c05633eef565e3","62574df909ab30a0a18bc94d","","","","","2753","key"," "," ","16.673181818181888","500","250","instTilt","","","","","NaN","0","0"
"","psychophysics","44","282075","0.0-44.0","60e5d47e17c05633eef565e3","62574df909ab30a0a18bc94d","","","","","1552","key"," "," ","16.673065217391528","500","250","instTilt","","","","","0","0","0"
"","psychophysics","45","292420","0.0-45.0","60e5d47e17c05633eef565e3","62574df909ab30a0a18bc94d","","","","","10335","key"," "," ","16.673020967741913","500","250","instTilt","","","","","0","0","0"
"","psychophysics","46","297710","0.0-46.0","60e5d47e17c05633eef565e3","62574df909ab30a0a18bc94d","","","","","5286","key"," "," ","16.67307594936703","500","250","inst","","","","","","",""
"","psychophysics","47","301848","0.0-47.0","60e5d47e17c05633eef565e3","62574df909ab30a0a18bc94d","","","","","4133","key"," "," ","16.673113360323967","500","250","tilt","","","","","-2","0","1"
"","psychophysics","48","305670","0.0-48.0","60e5d47e17c05633eef565e3","62574df909ab30a0a18bc94d","","","","","3813","key"," "," ","16.672964912280644","500","250","tilt","","","","","2","2","0"
"","psychophysics","49","313611","0.0-49.0","60e5d47e17c05633eef565e3","62574df909ab30a0a18bc94d","","","","","7934","key"," "," ","16.672997899159682","500","250","tilt","","","","","-13","-10","1"
"","psychophysics","50","318840","0.0-50.0","60e5d47e17c05633eef565e3","62574df909ab30a0a18bc94d","","","","","5223","key"," "," ","16.673019230769288","500","250","tilt","","","","","-8","-8","0"
"","psychophysics","51","323444","0.0-51.0","60e5d47e17c05633eef565e3","62574df909ab30a0a18bc94d","","","","","4599","key"," "," ","16.672989130434765","500","250","tilt","","","","","-6","-8","0"
"","psychophysics","52","326599","0.0-52.0","60e5d47e17c05633eef565e3","62574df909ab30a0a18bc94d","","","","","3152","key"," "," ","16.673111702127574","500","250","tilt","","","","","8","6","0"
"","psychophysics","53","331575","0.0-53.0","60e5d47e17c05633eef565e3","62574df909ab30a0a18bc94d","","","","","4970","key"," "," ","16.67299326599312","500","250","tilt","","","","","9","9","1"
"","psychophysics","54","341591","0.0-54.0","60e5d47e17c05633eef565e3","62574df909ab30a0a18bc94d","","","","","10014","key"," "," ","16.673063333333314","500","250","tilt","","","","","-7","-8","0"
"","psychophysics","55","346023","0.0-55.0","60e5d47e17c05633eef565e3","62574df909ab30a0a18bc94d","","","","","4429","key"," "," ","16.673158490565992","500","250","tilt","","","","","2","2","0"
"","psychophysics","56","351934","0.0-56.0","60e5d47e17c05633eef565e3","62574df909ab30a0a18bc94d","","","","","5906","key"," "," ","16.673002832861208","500","250","tilt","","","","","2","3","1"
"","psychophysics","57","357195","0.0-57.0","60e5d47e17c05633eef565e3","62574df909ab30a0a18bc94d","","","","","5251","key"," "," ","16.67303809523804","500","250","tilt","","","","","-6","-7","0"
"","psychophysics","58","361322","0.0-58.0","60e5d47e17c05633eef565e3","62574df909ab30a0a18bc94d","","","","","4120","key"," "," ","16.673016260162505","500","250","tilt","","","","","4","4","0"
"","psychophysics","59","365574","0.0-59.0","60e5d47e17c05633eef565e3","62574df909ab30a0a18bc94d","","","","","4243","key"," "," ","16.67298425196837","500","250","tilt","","","","","3","6","1"
"","psychophysics","60","370189","0.0-60.0","60e5d47e17c05633eef565e3","62574df909ab30a0a18bc94d","","","","","4610","key"," "," ","16.673130434782554","500","250","tilt","","","","","7","10","0"
"","psychophysics","61","374935","0.0-61.0","60e5d47e17c05633eef565e3","62574df909ab30a0a18bc94d","","","","","4741","key"," "," ","16.67296126760558","500","250","tilt","","","","","-6","-4","1"
"","psychophysics","62","379502","0.0-62.0","60e5d47e17c05633eef565e3","62574df909ab30a0a18bc94d","","","","","4564","key"," "," ","16.673043956043884","500","250","tilt","","","","","4","6","1"
"","psychophysics","63","388572","0.0-63.0","60e5d47e17c05633eef565e3","62574df909ab30a0a18bc94d","","","","","9064","key"," "," ","16.67301104972377","500","250","tilt","","","","","-1","-1","0"
"","psychophysics","64","391591","0.0-64.0","60e5d47e17c05633eef565e3","62574df909ab30a0a18bc94d","","","","","3013","key"," "," ","16.672966666666778","500","250","tilt","","","","","-1","-1","0"
"","psychophysics","65","396108","0.0-65.0","60e5d47e17c05633eef565e3","62574df909ab30a0a18bc94d","","","","","4509","key"," "," ","16.672970370370333","500","250","tilt","","","","","-11","-8","1"
"","psychophysics","66","400914","0.0-66.0","60e5d47e17c05633eef565e3","62574df909ab30a0a18bc94d","","","","","4800","key"," "," ","16.672923344947584","500","250","tilt","","","","","-11","-10","0"
"","psychophysics","67","405717","0.0-67.0","60e5d47e17c05633eef565e3","62574df909ab30a0a18bc94d","","","","","4799","key"," "," ","16.67303832752617","500","250","tilt","","","","","-10","-6","1"
"","psychophysics","68","409866","0.0-68.0","60e5d47e17c05633eef565e3","62574df909ab30a0a18bc94d","","","","","4147","key"," "," ","16.673024193548518","500","250","tilt","","","","","6","7","0"
"","psychophysics","69","414040","0.0-69.0","60e5d47e17c05633eef565e3","62574df909ab30a0a18bc94d","","","","","4153","key"," "," ","16.673012048192604","500","250","tilt","","","","","2","5","1"
"","psychophysics","70","419762","0.0-70.0","60e5d47e17c05633eef565e3","62574df909ab30a0a18bc94d","","","","","5720","key"," "," ","16.672994152046755","500","250","tilt","","","","","-6","-8","0"
"","psychophysics","71","423502","0.0-71.0","60e5d47e17c05633eef565e3","62574df909ab30a0a18bc94d","","","","","3731","key"," "," ","16.673107142857198","500","250","tilt","","","","","-7","-8","0"
"","psychophysics","72","427106","0.0-72.0","60e5d47e17c05633eef565e3","62574df909ab30a0a18bc94d","","","","","3597","key"," "," ","16.672925581395095","500","250","tilt","","","","","-5","-2","1"
"","psychophysics","73","432023","0.0-73.0","60e5d47e17c05633eef565e3","62574df909ab30a0a18bc94d","","","","","4910","key"," "," ","16.67302040816332","500","250","tilt","","","","","3","5","0"
"","psychophysics","74","436009","0.0-74.0","60e5d47e17c05633eef565e3","62574df909ab30a0a18bc94d","","","","","3980","key"," "," ","16.67294537815111","500","250","tilt","","","","","2","2","0"
"","psychophysics","75","439892","0.0-75.0","60e5d47e17c05633eef565e3","62574df909ab30a0a18bc94d","","","","","3878","key"," "," ","16.672995689655213","500","250","tilt","","","","","-12","-10","1"
"","psychophysics","76","446530","0.0-76.0","60e5d47e17c05633eef565e3","62574df909ab30a0a18bc94d","","","","","6633","key"," "," ","16.672997481108293","500","250","tilt","","","","","0","1","1"
"","psychophysics","77","447454","0.0-77.0","60e5d47e17c05633eef565e3","62574df909ab30a0a18bc94d","","","","","919","key"," "," ","16.672907407407397","500","250","inst","","","","","","",""
"","psychophysics","78","449788","0.0-78.0","60e5d47e17c05633eef565e3","62574df909ab30a0a18bc94d","","","","","2331","key"," "," ","16.673050359712256","500","250","instPz","","","","","50","50",""
"","psychophysics","79","463821","0.0-79.0","60e5d47e17c05633eef565e3","62574df909ab30a0a18bc94d","","","","","14026","key"," "," ","16.673009512485123","500","250","instPz","","","","","45","50",""
"","psychophysics","80","473664","0.0-80.0","60e5d47e17c05633eef565e3","62574df909ab30a0a18bc94d","","","","","9840","key"," "," ","16.673037351443114","500","250","instPz","","","","","30","30",""
"","psychophysics","81","484243","0.0-81.0","60e5d47e17c05633eef565e3","62574df909ab30a0a18bc94d","","","","","10571","key"," "," ","16.673003154574147","500","250","instPz","","","","","41","40",""
"","psychophysics","82","486107","0.0-82.0","60e5d47e17c05633eef565e3","62574df909ab30a0a18bc94d","","","","","1860","key"," "," ","16.672810810810557","500","250","inst","","","","","","",""
"","psychophysics","83","491595","0.0-83.0","60e5d47e17c05633eef565e3","62574df909ab30a0a18bc94d","","","","","5485","key"," "," ","16.673067073170742","500","250","pz","","","","","49","53",""
"","psychophysics","84","495248","0.0-84.0","60e5d47e17c05633eef565e3","62574df909ab30a0a18bc94d","","","","","3650","key"," "," ","16.673041284403663","500","250","pz","","","","","30","31",""
"","psychophysics","85","499844","0.0-85.0","60e5d47e17c05633eef565e3","62574df909ab30a0a18bc94d","","","","","4594","key"," "," ","16.672974545454437","500","250","pz","","","","","24","20",""
"","psychophysics","86","505124","0.0-86.0","60e5d47e17c05633eef565e3","62574df909ab30a0a18bc94d","","","","","5270","key"," "," ","16.673146031746118","500","250","pz","","","","","27","27",""
"","psychophysics","87","511420","0.0-87.0","60e5d47e17c05633eef565e3","62574df909ab30a0a18bc94d","","","","","6289","key"," "," ","16.672981432360686","500","250","pz","","","","","49","49",""
"","psychophysics","88","516037","0.0-88.0","60e5d47e17c05633eef565e3","62574df909ab30a0a18bc94d","","","","","4612","key"," "," ","16.67302173913049","500","250","pz","","","","","35","36",""
"","psychophysics","89","520996","0.0-89.0","60e5d47e17c05633eef565e3","62574df909ab30a0a18bc94d","","","","","4955","key"," "," ","16.672956081081104","500","250","pz","","","","","54","53",""
"","psychophysics","90","527015","0.0-90.0","60e5d47e17c05633eef565e3","62574df909ab30a0a18bc94d","","","","","6016","key"," "," ","16.673016666666726","500","250","pz","","","","","50","52",""
"","psychophysics","91","532511","0.0-91.0","60e5d47e17c05633eef565e3","62574df909ab30a0a18bc94d","","","","","5492","key"," "," ","16.67304863221908","500","250","pz","","","","","53","51",""
"","psychophysics","92","535912","0.0-92.0","60e5d47e17c05633eef565e3","62574df909ab30a0a18bc94d","","","","","3395","key"," "," ","16.672965517241206","500","250","pz","","","","","37","36",""
"","psychophysics","93","539043","0.0-93.0","60e5d47e17c05633eef565e3","62574df909ab30a0a18bc94d","","","","","3129","key"," "," ","16.67302139037423","500","250","pz","","","","","29","30",""
"","psychophysics","94","543898","0.0-94.0","60e5d47e17c05633eef565e3","62574df909ab30a0a18bc94d","","","","","4852","key"," "," ","16.673131034482704","500","250","pz","","","","","50","47",""
"","psychophysics","95","548573","0.0-95.0","60e5d47e17c05633eef565e3","62574df909ab30a0a18bc94d","","","","","4668","key"," "," ","16.67301075268824","500","250","pz","","","","","47","44",""
"","psychophysics","96","553158","0.0-96.0","60e5d47e17c05633eef565e3","62574df909ab30a0a18bc94d","","","","","4580","key"," "," ","16.673032846715195","500","250","pz","","","","","50","50",""
"","psychophysics","97","558546","0.0-97.0","60e5d47e17c05633eef565e3","62574df909ab30a0a18bc94d","","","","","5379","key"," "," ","16.672996894409806","500","250","pz","","","","","42","41",""
"","psychophysics","98","559538","0.0-98.0","60e5d47e17c05633eef565e3","62574df909ab30a0a18bc94d","","","","","984","key"," "," ","16.67355932203374","500","250","inst","","","","","","",""
"","psychophysics","99","563697","0.0-99.0","60e5d47e17c05633eef565e3","62574df909ab30a0a18bc94d","","","","","4154","key"," "," ","16.67282661290289","500","250","inst","","","","","","",""
"","psychophysics","100","574060","0.0-100.0","60e5d47e17c05633eef565e3","62574df909ab30a0a18bc94d","","","","","10353","key"," "," ","16.67301288244765","500","250","instFlank","","","","","0.5","0.3","1"
"","psychophysics","101","580737","0.0-101.0","60e5d47e17c05633eef565e3","62574df909ab30a0a18bc94d","","","","","6675","key"," "," ","16.67296491228079","500","250","inst","","","","","","",""
"","psychophysics","102","585713","0.0-102.0","60e5d47e17c05633eef565e3","62574df909ab30a0a18bc94d","","","","","4968","key"," "," ","16.673053691274998","500","250","instFlank","","","","","0.2599999999999998","0.3","1"
"","psychophysics","103","588283","0.0-103.0","60e5d47e17c05633eef565e3","62574df909ab30a0a18bc94d","","","","","2567","key"," "," ","16.67319607843106","500","250","inst","","","","","","",""
"","psychophysics","104","592894","0.0-104.0","60e5d47e17c05633eef565e3","62574df909ab30a0a18bc94d","","","","","4602","key"," "," ","16.673043636363424","500","250","instFlank","","","","","0.43999999999999995","0.3","0"
"","psychophysics","105","593992","0.0-105.0","60e5d47e17c05633eef565e3","62574df909ab30a0a18bc94d","","","","","1091","key"," "," ","16.673307692307908","500","250","inst","","","","","","",""
"","psychophysics","106","596979","0.0-106.0","60e5d47e17c05633eef565e3","62574df909ab30a0a18bc94d","","","","","2976","key"," "," ","16.672915730336967","500","250","flank","","","","","0.5","0.48","1"
"","psychophysics","107","600379","0.0-107.0","60e5d47e17c05633eef565e3","62574df909ab30a0a18bc94d","","","","","3390","key"," "," ","16.67299507389171","500","250","flank","","","","","0.6200000000000001","0.6","1"
"","psychophysics","108","604034","0.0-108.0","60e5d47e17c05633eef565e3","62574df909ab30a0a18bc94d","","","","","3649","key"," "," ","16.673100456620936","500","250","flank","","","","","0.47","0.34","0"
"","psychophysics","109","607141","0.0-109.0","60e5d47e17c05633eef565e3","62574df909ab30a0a18bc94d","","","","","3105","key"," "," ","16.67320540540575","500","250","flank","","","","","0.6200000000000001","0.64","1"
"","psychophysics","110","610469","0.0-110.0","60e5d47e17c05633eef565e3","62574df909ab30a0a18bc94d","","","","","3319","key"," "," ","16.67307575757561","500","250","flank","","","","","0.6500000000000001","0.56","1"
"","psychophysics","111","613225","0.0-111.0","60e5d47e17c05633eef565e3","62574df909ab30a0a18bc94d","","","","","2748","key"," "," ","16.673018181817888","500","250","flank","","","","","0.5900000000000001","0.5","0"
"","psychophysics","112","616475","0.0-112.0","60e5d47e17c05633eef565e3","62574df909ab30a0a18bc94d","","","","","3247","key"," "," ","16.672814432990055","500","250","flank","","","","","0.7700000000000002","0.74","0"
"","psychophysics","113","619180","0.0-113.0","60e5d47e17c05633eef565e3","62574df909ab30a0a18bc94d","","","","","2698","key"," "," ","16.6729875776399","500","250","flank","","","","","0.56","0.38","0"
"","psychophysics","114","622184","0.0-114.0","60e5d47e17c05633eef565e3","62574df909ab30a0a18bc94d","","","","","2999","key"," "," ","16.673050279329743","500","250","flank","","","","","0.6500000000000001","0.58","0"
"","psychophysics","115","625196","0.0-115.0","60e5d47e17c05633eef565e3","62574df909ab30a0a18bc94d","","","","","3007","key"," "," ","16.67301111111107","500","250","flank","","","","","0.6500000000000001","0.58","0"
"","psychophysics","116","627966","0.0-116.0","60e5d47e17c05633eef565e3","62574df909ab30a0a18bc94d","","","","","2765","key"," "," ","16.673157575757553","500","250","flank","","","","","0.5900000000000001","0.4","1"
"","psychophysics","117","632107","0.0-117.0","60e5d47e17c05633eef565e3","62574df909ab30a0a18bc94d","","","","","4137","key"," "," ","16.673157894736445","500","250","flank","","","","","0.8000000000000003","0.78","1"
"","psychophysics","118","635976","0.0-118.0","60e5d47e17c05633eef565e3","62574df909ab30a0a18bc94d","","","","","3863","key"," "," ","16.67285281385283","500","250","flank","","","","","0.7400000000000002","0.6","0"
"","psychophysics","119","639566","0.0-119.0","60e5d47e17c05633eef565e3","62574df909ab30a0a18bc94d","","","","","3584","key"," "," ","16.67290232558139","500","250","flank","","","","","0.7400000000000002","0.68","0"
"","psychophysics","120","642127","0.0-120.0","60e5d47e17c05633eef565e3","62574df909ab30a0a18bc94d","","","","","2560","key"," "," ","16.673046052632056","500","250","flank","","","","","0.53","0.34","0"
"","psychophysics","121","645779","0.0-121.0","60e5d47e17c05633eef565e3","62574df909ab30a0a18bc94d","","","","","3640","key"," "," ","16.673068807339146","500","250","flank","","","","","0.34999999999999987","0.34","1"
"","psychophysics","122","649337","0.0-122.0","60e5d47e17c05633eef565e3","62574df909ab30a0a18bc94d","","","","","3553","key"," "," ","16.673065727699587","500","250","flank","","","","","0.31999999999999984","0.34","1"
"","psychophysics","123","652498","0.0-123.0","60e5d47e17c05633eef565e3","62574df909ab30a0a18bc94d","","","","","3154","key"," "," ","16.6729946808513","500","250","flank","","","","","0.3799999999999999","0.36","1"
"","psychophysics","124","654990","0.0-124.0","60e5d47e17c05633eef565e3","62574df909ab30a0a18bc94d","","","","","2485","key"," "," ","16.67307382550375","500","250","flank","","","","","0.56","0.46","0"
"","psychophysics","125","658814","0.0-125.0","60e5d47e17c05633eef565e3","62574df909ab30a0a18bc94d","","","","","3818","key"," "," ","16.67302192982466","500","250","flank","","","","","0.7700000000000002","0.8","0"
"","psychophysics","126","663609","0.0-126.0","60e5d47e17c05633eef565e3","62574df909ab30a0a18bc94d","","","","","4791","key"," "," ","16.673174216027878","500","250","flank","","","","","0.31999999999999984","0.22","0"
"","psychophysics","127","666728","0.0-127.0","60e5d47e17c05633eef565e3","62574df909ab30a0a18bc94d","","","","","3114","key"," "," ","16.673080645161757","500","250","flank","","","","","0.47","0.44","0"
"","psychophysics","128","669455","0.0-128.0","60e5d47e17c05633eef565e3","62574df909ab30a0a18bc94d","","","","","2720","key"," "," ","16.672993827159917","500","250","flank","","","","","0.6200000000000001","0.62","0"
"","psychophysics","129","672536","0.0-129.0","60e5d47e17c05633eef565e3","62574df909ab30a0a18bc94d","","","","","3070","key"," "," ","16.672978260869453","500","250","flank","","","","","0.7400000000000002","0.78","1"
"","psychophysics","130","676339","0.0-130.0","60e5d47e17c05633eef565e3","62574df909ab30a0a18bc94d","","","","","3798","key"," "," ","16.67312775330417","500","250","flank","","","","","0.7400000000000002","0.76","1"
"","psychophysics","131","679227","0.0-131.0","60e5d47e17c05633eef565e3","62574df909ab30a0a18bc94d","","","","","2878","key"," "," ","16.673017441860242","500","250","flank","","","","","0.56","0.62","1"
"","psychophysics","132","682774","0.0-132.0","60e5d47e17c05633eef565e3","62574df909ab30a0a18bc94d","","","","","3545","key"," "," ","16.673188679245353","500","250","flank","","","","","0.7700000000000002","0.8","0"
"","psychophysics","133","688112","0.0-133.0","60e5d47e17c05633eef565e3","62574df909ab30a0a18bc94d","","","","","5334","key"," "," ","16.672981191222515","500","250","flank","","","","","0.7700000000000002","0.78","0"
"","psychophysics","134","691428","0.0-134.0","60e5d47e17c05633eef565e3","62574df909ab30a0a18bc94d","","","","","3308","key"," "," ","16.672878787878695","500","250","flank","","","","","0.4099999999999999","0.34","0"
"","psychophysics","135","694889","0.0-135.0","60e5d47e17c05633eef565e3","62574df909ab30a0a18bc94d","","","","","3451","key"," "," ","16.67318840579699","500","250","flank","","","","","0.2899999999999998","0.2","0"
"true","fullscreen","136","694893","0.0-136.0","60e5d47e17c05633eef565e3","62574df909ab30a0a18bc94d","","","","","","","","","","","","","","","","","","",""
