"success","trial_type","trial_index","time_elapsed","internal_node_id","pid","sid","timeout","failed_images","failed_audio","failed_video","rt","response_type","key_press","response","avg_frame_time","center_x","center_y","task","ml_len","ml_start","ml_x","ml_y","resp","targ","back"
"true","fullscreen","0","6617","0.0-0.0","59a88f5b321f870001d16d68","62575734e86340921f11ffe1","","","","","","","","","","","","","","","","","","",""
"true","preload","1","6619","0.0-1.0","59a88f5b321f870001d16d68","62575734e86340921f11ffe1","false","[]","[]","[]","","","","","","","","","","","","","","",""
"","psychophysics","2","21871","0.0-2.0","59a88f5b321f870001d16d68","62575734e86340921f11ffe1","","","","","15237","key"," "," ","8.338465281574631","499.84","249.92","inst","","","","","","",""
"","psychophysics","3","24246","0.0-3.0","59a88f5b321f870001d16d68","62575734e86340921f11ffe1","","","","","2372","key"," "," ","8.33386619718311","499.84","249.92","inst","","","","","","",""
"","psychophysics","4","49494","0.0-4.0","59a88f5b321f870001d16d68","62575734e86340921f11ffe1","","","","","25245","key"," "," ","8.333923051519154","499.84","249.92","instMl","172","-28.666666666666668","-29","24","-11.666666666666686","",""
"","psychophysics","5","66646","0.0-5.0","59a88f5b321f870001d16d68","62575734e86340921f11ffe1","","","","","17147","key"," "," ","8.333627126883812","499.84","249.92","instMl","226","-37.666666666666664","-1","12","-11.666666666666686","",""
"","psychophysics","6","89438","0.0-6.0","59a88f5b321f870001d16d68","62575734e86340921f11ffe1","","","","","22786","key"," "," ","8.333905632772495","499.84","249.92","inst","","","","","","",""
"","psychophysics","7","96150","0.0-7.0","59a88f5b321f870001d16d68","62575734e86340921f11ffe1","","","","","6710","key"," "," ","8.333908074534145","499.84","249.92","ml","186","-23","-28","-14","-16","",""
"","psychophysics","8","104566","0.0-8.0","59a88f5b321f870001d16d68","62575734e86340921f11ffe1","","","","","8413","key"," "," ","8.333924603174609","499.84","249.92","ml","162","13","-1","29","-16","",""
"","psychophysics","9","113389","0.0-9.0","59a88f5b321f870001d16d68","62575734e86340921f11ffe1","","","","","8822","key"," "," ","8.333919659735347","499.84","249.92","ml","184","36","-3","-2","-11","",""
"","psychophysics","10","120245","0.0-10.0","59a88f5b321f870001d16d68","62575734e86340921f11ffe1","","","","","6853","key"," "," ","8.333883211678838","499.84","249.92","ml","228","24","-26","-1","-14","",""
"","psychophysics","11","124510","0.0-11.0","59a88f5b321f870001d16d68","62575734e86340921f11ffe1","","","","","4262","key"," "," ","8.33389628180039","499.84","249.92","ml","170","15","19","22","-17","",""
"","psychophysics","12","128589","0.0-12.0","59a88f5b321f870001d16d68","62575734e86340921f11ffe1","","","","","4076","key"," "," ","8.333807377049183","499.84","249.92","ml","220","32","-2","-13","-13","",""
"","psychophysics","13","134821","0.0-13.0","59a88f5b321f870001d16d68","62575734e86340921f11ffe1","","","","","6230","key"," "," ","8.333919678714853","499.84","249.92","ml","250","-37","-5","-22","-15","",""
"","psychophysics","14","140677","0.0-14.0","59a88f5b321f870001d16d68","62575734e86340921f11ffe1","","","","","5854","key"," "," ","8.333905982905986","499.84","249.92","ml","208","33","7","-13","-15","",""
"","psychophysics","15","149565","0.0-15.0","59a88f5b321f870001d16d68","62575734e86340921f11ffe1","","","","","8885","key"," "," ","8.333908920187804","499.84","249.92","ml","212","36","19","-6","-14","",""
"","psychophysics","16","156925","0.0-16.0","59a88f5b321f870001d16d68","62575734e86340921f11ffe1","","","","","7358","key"," "," ","8.333895691609992","499.84","249.92","ml","176","5","-17","3","-10","",""
"","psychophysics","17","160893","0.0-17.0","59a88f5b321f870001d16d68","62575734e86340921f11ffe1","","","","","3965","key"," "," ","8.333957894736852","499.84","249.92","ml","194","-26","-9","28","-15","",""
"","psychophysics","18","175278","0.0-18.0","59a88f5b321f870001d16d68","62575734e86340921f11ffe1","","","","","14382","key"," "," ","8.333914202898555","499.84","249.92","ml","250","34","25","-13","-14","",""
"","psychophysics","19","179478","0.0-19.0","59a88f5b321f870001d16d68","62575734e86340921f11ffe1","","","","","4197","key"," "," ","8.333908548707706","499.84","249.92","ml","184","9","20","21","-13","",""
"","psychophysics","20","184662","0.0-20.0","59a88f5b321f870001d16d68","62575734e86340921f11ffe1","","","","","5182","key"," "," ","8.333916264090167","499.84","249.92","ml","188","26","-9","24","-12","",""
"","psychophysics","21","194774","0.0-21.0","59a88f5b321f870001d16d68","62575734e86340921f11ffe1","","","","","10110","key"," "," ","8.333915910964558","499.84","249.92","ml","154","-8","-25","-19","-10","",""
"","psychophysics","22","197726","0.0-22.0","59a88f5b321f870001d16d68","62575734e86340921f11ffe1","","","","","2950","key"," "," ","8.333912181303155","499.84","249.92","inst","","","","","","",""
"","psychophysics","23","221926","0.0-23.0","59a88f5b321f870001d16d68","62575734e86340921f11ffe1","","","","","24197","key"," "," ","8.333905959352393","499.84","249.92","instPog","","","","","130","130",""
"","psychophysics","24","228334","0.0-24.0","59a88f5b321f870001d16d68","62575734e86340921f11ffe1","","","","","6406","key"," "," ","8.33390755208336","499.84","249.92","instPog","","","","","141","130",""
"","psychophysics","25","280941","0.0-25.0","59a88f5b321f870001d16d68","62575734e86340921f11ffe1","","","","","52605","key"," "," ","8.333916495008717","499.84","249.92","instPog","","","","","130","130",""
"","psychophysics","26","282709","0.0-26.0","59a88f5b321f870001d16d68","62575734e86340921f11ffe1","","","","","1766","key"," "," ","8.333777251184953","499.84","249.92","inst","","","","","","",""
"","psychophysics","27","296222","0.0-27.0","59a88f5b321f870001d16d68","62575734e86340921f11ffe1","","","","","13510","key"," "," ","8.333911165946958","499.84","249.92","pog","","","","","188","186",""
"","psychophysics","28","307998","0.0-28.0","59a88f5b321f870001d16d68","62575734e86340921f11ffe1","","","","","11773","key"," "," ","8.333919263456094","499.84","249.92","pog","","","","","128","125",""
"","psychophysics","29","314774","0.0-29.0","59a88f5b321f870001d16d68","62575734e86340921f11ffe1","","","","","6773","key"," "," ","8.333918719211814","499.84","249.92","pog","","","","","134","122",""
"","psychophysics","30","326022","0.0-30.0","59a88f5b321f870001d16d68","62575734e86340921f11ffe1","","","","","11245","key"," "," ","8.333895400593482","499.84","249.92","pog","","","","","179","175",""
"","psychophysics","31","339638","0.0-31.0","59a88f5b321f870001d16d68","62575734e86340921f11ffe1","","","","","13615","key"," "," ","8.33393631353339","499.84","249.92","pog","","","","","157","158",""
"","psychophysics","32","356903","0.0-32.0","59a88f5b321f870001d16d68","62575734e86340921f11ffe1","","","","","17262","key"," "," ","8.333897151134712","499.84","249.92","pog","","","","","139","138",""
"","psychophysics","33","370711","0.0-33.0","59a88f5b321f870001d16d68","62575734e86340921f11ffe1","","","","","13805","key"," "," ","8.333909365558945","499.84","249.92","pog","","","","","162","166",""
"","psychophysics","34","388031","0.0-34.0","59a88f5b321f870001d16d68","62575734e86340921f11ffe1","","","","","17319","key"," "," ","8.333928777670828","499.84","249.92","pog","","","","","125","123",""
"","psychophysics","35","405726","0.0-35.0","59a88f5b321f870001d16d68","62575734e86340921f11ffe1","","","","","17692","key"," "," ","8.333901979264835","499.84","249.92","pog","","","","","166","170",""
"","psychophysics","36","424126","0.0-36.0","59a88f5b321f870001d16d68","62575734e86340921f11ffe1","","","","","18398","key"," "," ","8.333913910285444","499.84","249.92","pog","","","","","179","178",""
"","psychophysics","37","436294","0.0-37.0","59a88f5b321f870001d16d68","62575734e86340921f11ffe1","","","","","12166","key"," "," ","8.333886223440722","499.84","249.92","pog","","","","","182","186",""
"","psychophysics","38","448414","0.0-38.0","59a88f5b321f870001d16d68","62575734e86340921f11ffe1","","","","","12116","key"," "," ","8.333906400550564","499.84","249.92","pog","","","","","140","137",""
"","psychophysics","39","458334","0.0-39.0","59a88f5b321f870001d16d68","62575734e86340921f11ffe1","","","","","9918","key"," "," ","8.333936974789923","499.84","249.92","pog","","","","","148","134",""
"","psychophysics","40","472126","0.0-40.0","59a88f5b321f870001d16d68","62575734e86340921f11ffe1","","","","","13789","key"," "," ","8.333914147521158","499.84","249.92","pog","","","","","140","141",""
"","psychophysics","41","477982","0.0-41.0","59a88f5b321f870001d16d68","62575734e86340921f11ffe1","","","","","5853","key"," "," ","8.333967189729007","499.84","249.92","pog","","","","","134","130",""
"","psychophysics","42","480927","0.0-42.0","59a88f5b321f870001d16d68","62575734e86340921f11ffe1","","","","","2943","key"," "," ","8.333898016997276","499.84","249.92","inst","","","","","","",""
"","psychophysics","43","497574","0.0-43.0","59a88f5b321f870001d16d68","62575734e86340921f11ffe1","","","","","16646","key"," "," ","8.333896793587167","499.84","249.92","instTilt","","","","","NaN","0","0"
"","psychophysics","44","513358","0.0-44.0","59a88f5b321f870001d16d68","62575734e86340921f11ffe1","","","","","15781","key"," "," ","8.33391706286317","499.84","249.92","instTilt","","","","","-1","0","0"
"","psychophysics","45","532366","0.0-45.0","59a88f5b321f870001d16d68","62575734e86340921f11ffe1","","","","","19005","key"," "," ","8.333918859649106","499.84","249.92","instTilt","","","","","2","0","0"
"","psychophysics","46","545367","0.0-46.0","59a88f5b321f870001d16d68","62575734e86340921f11ffe1","","","","","12998","key"," "," ","8.333914047466278","499.84","249.92","inst","","","","","","",""
"","psychophysics","47","552262","0.0-47.0","59a88f5b321f870001d16d68","62575734e86340921f11ffe1","","","","","6894","key"," "," ","8.333927360774846","499.84","249.92","tilt","","","","","5","9","1"
"","psychophysics","48","561022","0.0-48.0","59a88f5b321f870001d16d68","62575734e86340921f11ffe1","","","","","8757","key"," "," ","8.33390095238097","499.84","249.92","tilt","","","","","-9","-9","1"
"","psychophysics","49","571198","0.0-49.0","59a88f5b321f870001d16d68","62575734e86340921f11ffe1","","","","","10174","key"," "," ","8.333922131147549","499.84","249.92","tilt","","","","","3","-1","0"
"","psychophysics","50","588222","0.0-50.0","59a88f5b321f870001d16d68","62575734e86340921f11ffe1","","","","","17021","key"," "," ","8.33388344760041","499.84","249.92","tilt","","","","","0","1","1"
"","psychophysics","51","599502","0.0-51.0","59a88f5b321f870001d16d68","62575734e86340921f11ffe1","","","","","11277","key"," "," ","8.333929046563266","499.84","249.92","tilt","","","","","1","-3","0"
"","psychophysics","52","610911","0.0-52.0","59a88f5b321f870001d16d68","62575734e86340921f11ffe1","","","","","11406","key"," "," ","8.33391008771929","499.84","249.92","tilt","","","","","-1","-1","1"
"","psychophysics","53","615214","0.0-53.0","59a88f5b321f870001d16d68","62575734e86340921f11ffe1","","","","","4300","key"," "," ","8.333864077669794","499.84","249.92","tilt","","","","","-3","-4","1"
"","psychophysics","54","620663","0.0-54.0","59a88f5b321f870001d16d68","62575734e86340921f11ffe1","","","","","5447","key"," "," ","8.333909647779576","499.84","249.92","tilt","","","","","2","3","0"
"","psychophysics","55","630982","0.0-55.0","59a88f5b321f870001d16d68","62575734e86340921f11ffe1","","","","","10317","key"," "," ","8.333871463217518","499.84","249.92","tilt","","","","","-13","-10","1"
"","psychophysics","56","637447","0.0-56.0","59a88f5b321f870001d16d68","62575734e86340921f11ffe1","","","","","6462","key"," "," ","8.333922580645059","499.84","249.92","tilt","","","","","2","2","0"
"","psychophysics","57","648151","0.0-57.0","59a88f5b321f870001d16d68","62575734e86340921f11ffe1","","","","","10702","key"," "," ","8.333910366328922","499.84","249.92","tilt","","","","","-1","0","1"
"","psychophysics","58","677542","0.0-58.0","59a88f5b321f870001d16d68","62575734e86340921f11ffe1","","","","","29389","key"," "," ","8.333912648893945","499.84","249.92","tilt","","","","","-4","-10","0"
"","psychophysics","59","685230","0.0-59.0","59a88f5b321f870001d16d68","62575734e86340921f11ffe1","","","","","7685","key"," "," ","8.333893593919719","499.84","249.92","tilt","","","","","6","6","0"
"","psychophysics","60","689126","0.0-60.0","59a88f5b321f870001d16d68","62575734e86340921f11ffe1","","","","","3894","key"," "," ","8.333897216274199","499.84","249.92","tilt","","","","","9","10","0"
"","psychophysics","61","694638","0.0-61.0","59a88f5b321f870001d16d68","62575734e86340921f11ffe1","","","","","5510","key"," "," ","8.333916666666681","499.84","249.92","tilt","","","","","-4","-6","0"
"","psychophysics","62","702934","0.0-62.0","59a88f5b321f870001d16d68","62575734e86340921f11ffe1","","","","","8294","key"," "," ","8.333907537688454","499.84","249.92","tilt","","","","","-10","-8","1"
"","psychophysics","63","718551","0.0-63.0","59a88f5b321f870001d16d68","62575734e86340921f11ffe1","","","","","15613","key"," "," ","8.33391559829058","499.84","249.92","tilt","","","","","-1","-4","0"
"","psychophysics","64","730831","0.0-64.0","59a88f5b321f870001d16d68","62575734e86340921f11ffe1","","","","","12278","key"," "," ","8.333915139171731","499.84","249.92","tilt","","","","","3","5","1"
"","psychophysics","65","740983","0.0-65.0","59a88f5b321f870001d16d68","62575734e86340921f11ffe1","","","","","10150","key"," "," ","8.333911257189808","499.84","249.92","tilt","","","","","-3","0","1"
"","psychophysics","66","745359","0.0-66.0","59a88f5b321f870001d16d68","62575734e86340921f11ffe1","","","","","4372","key"," "," ","8.333879770992327","499.84","249.92","tilt","","","","","5","4","0"
"","psychophysics","67","750927","0.0-67.0","59a88f5b321f870001d16d68","62575734e86340921f11ffe1","","","","","5565","key"," "," ","8.333913043478393","499.84","249.92","tilt","","","","","-2","-1","1"
"","psychophysics","68","753447","0.0-68.0","59a88f5b321f870001d16d68","62575734e86340921f11ffe1","","","","","2517","key"," "," ","8.333903973510054","499.84","249.92","tilt","","","","","4","0","0"
"","psychophysics","69","759135","0.0-69.0","59a88f5b321f870001d16d68","62575734e86340921f11ffe1","","","","","5687","key"," "," ","8.33390161527164","499.84","249.92","tilt","","","","","4","9","1"
"","psychophysics","70","765423","0.0-70.0","59a88f5b321f870001d16d68","62575734e86340921f11ffe1","","","","","6285","key"," "," ","8.333885941644562","499.84","249.92","tilt","","","","","-8","-7","1"
"","psychophysics","71","776374","0.0-71.0","59a88f5b321f870001d16d68","62575734e86340921f11ffe1","","","","","10949","key"," "," ","8.33389870525513","499.84","249.92","tilt","","","","","2","4","1"
"","psychophysics","72","787974","0.0-72.0","59a88f5b321f870001d16d68","62575734e86340921f11ffe1","","","","","11597","key"," "," ","8.333941768511803","499.84","249.92","tilt","","","","","2","7","1"
"","psychophysics","73","794262","0.0-73.0","59a88f5b321f870001d16d68","62575734e86340921f11ffe1","","","","","6285","key"," "," ","8.3338645418327","499.84","249.92","tilt","","","","","-3","1","1"
"","psychophysics","74","801822","0.0-74.0","59a88f5b321f870001d16d68","62575734e86340921f11ffe1","","","","","7557","key"," "," ","8.333908388521044","499.84","249.92","tilt","","","","","4","3","0"
"","psychophysics","75","809694","0.0-75.0","59a88f5b321f870001d16d68","62575734e86340921f11ffe1","","","","","7870","key"," "," ","8.333841101694862","499.84","249.92","tilt","","","","","2","2","1"
"","psychophysics","76","814278","0.0-76.0","59a88f5b321f870001d16d68","62575734e86340921f11ffe1","","","","","4580","key"," "," ","8.333746812386075","499.84","249.92","tilt","","","","","5","6","0"
"","psychophysics","77","820486","0.0-77.0","59a88f5b321f870001d16d68","62575734e86340921f11ffe1","","","","","6206","key"," "," ","8.333897849462423","499.84","249.92","inst","","","","","","",""
"","psychophysics","78","831358","0.0-78.0","59a88f5b321f870001d16d68","62575734e86340921f11ffe1","","","","","10869","key"," "," ","8.333918649270927","499.84","249.92","instPz","","","","","50","50",""
"","psychophysics","79","854631","0.0-79.0","59a88f5b321f870001d16d68","62575734e86340921f11ffe1","","","","","23269","key"," "," ","8.33392299426937","499.84","249.92","instPz","","","","","50","50",""
"","psychophysics","80","860039","0.0-80.0","59a88f5b321f870001d16d68","62575734e86340921f11ffe1","","","","","5406","key"," "," ","8.333922839506148","499.84","249.92","instPz","","","","","31","30",""
"","psychophysics","81","888743","0.0-81.0","59a88f5b321f870001d16d68","62575734e86340921f11ffe1","","","","","28703","key"," "," ","8.333925355794353","499.84","249.92","instPz","","","","","17","40",""
"","psychophysics","82","890759","0.0-82.0","59a88f5b321f870001d16d68","62575734e86340921f11ffe1","","","","","2013","key"," "," ","8.333912863070532","499.84","249.92","inst","","","","","","",""
"","psychophysics","83","905190","0.0-83.0","59a88f5b321f870001d16d68","62575734e86340921f11ffe1","","","","","14431","key"," "," ","8.333934719815185","499.84","249.92","pz","","","","","91","50",""
"","psychophysics","84","913278","0.0-84.0","59a88f5b321f870001d16d68","62575734e86340921f11ffe1","","","","","8085","key"," "," ","8.33395975232206","499.84","249.92","pz","","","","","93","35",""
"","psychophysics","85","930535","0.0-85.0","59a88f5b321f870001d16d68","62575734e86340921f11ffe1","","","","","17254","key"," "," ","8.333900483091787","499.84","249.92","pz","","","","","137","59",""
"","psychophysics","86","931406","0.0-86.0","59a88f5b321f870001d16d68","62575734e86340921f11ffe1","","","","","868","key"," "," ","8.333941747573457","499.84","249.92","pz","","","","","15","31",""
"","psychophysics","87","932638","0.0-87.0","59a88f5b321f870001d16d68","62575734e86340921f11ffe1","","","","","1230","key"," "," ","8.333721088434785","499.84","249.92","pz","","","","","15","55",""
"","psychophysics","88","944438","0.0-88.0","59a88f5b321f870001d16d68","62575734e86340921f11ffe1","","","","","11798","key"," "," ","8.333896113074196","499.84","249.92","pz","","","","","100","30",""
"","psychophysics","89","950566","0.0-89.0","59a88f5b321f870001d16d68","62575734e86340921f11ffe1","","","","","6125","key"," "," ","8.333903269754876","499.84","249.92","pz","","","","","107","45",""
"","psychophysics","90","955519","0.0-90.0","59a88f5b321f870001d16d68","62575734e86340921f11ffe1","","","","","4949","key"," "," ","8.333910774410763","499.84","249.92","pz","","","","","93","24",""
"","psychophysics","91","965847","0.0-91.0","59a88f5b321f870001d16d68","62575734e86340921f11ffe1","","","","","10325","key"," "," ","8.333907108239078","499.84","249.92","pz","","","","","117","38",""
"","psychophysics","92","970959","0.0-92.0","59a88f5b321f870001d16d68","62575734e86340921f11ffe1","","","","","5109","key"," "," ","8.333906862745138","499.84","249.92","pz","","","","","114","45",""
"","psychophysics","93","977767","0.0-93.0","59a88f5b321f870001d16d68","62575734e86340921f11ffe1","","","","","6806","key"," "," ","8.333894607843117","499.84","249.92","pz","","","","","106","30",""
"","psychophysics","94","996823","0.0-94.0","59a88f5b321f870001d16d68","62575734e86340921f11ffe1","","","","","19054","key"," "," ","8.333920822397248","499.84","249.92","pz","","","","","105","53",""
"","psychophysics","95","1003159","0.0-95.0","59a88f5b321f870001d16d68","62575734e86340921f11ffe1","","","","","6333","key"," "," ","8.333893280632319","499.84","249.92","pz","","","","","95","37",""
"","psychophysics","96","1013839","0.0-96.0","59a88f5b321f870001d16d68","62575734e86340921f11ffe1","","","","","10677","key"," "," ","8.333886807181914","499.84","249.92","pz","","","","","100","31",""
"","psychophysics","97","1021494","0.0-97.0","59a88f5b321f870001d16d68","62575734e86340921f11ffe1","","","","","7652","key"," "," ","8.333978189749216","499.84","249.92","pz","","","","","111","36",""
"","psychophysics","98","1023750","0.0-98.0","59a88f5b321f870001d16d68","62575734e86340921f11ffe1","","","","","2254","key"," "," ","8.333811111110952","499.84","249.92","inst","","","","","","",""
"","psychophysics","99","1026399","0.0-99.0","59a88f5b321f870001d16d68","62575734e86340921f11ffe1","","","","","2645","key"," "," ","8.333892744479625","499.84","249.92","inst","","","","","","",""
"","psychophysics","100","1040654","0.0-100.0","59a88f5b321f870001d16d68","62575734e86340921f11ffe1","","","","","14254","key"," "," ","8.333916910473956","499.84","249.92","instFlank","","","","","0.97","0.3","1"
"","psychophysics","101","1052607","0.0-101.0","59a88f5b321f870001d16d68","62575734e86340921f11ffe1","","","","","11951","key"," "," ","8.333907187718035","499.84","249.92","inst","","","","","","",""
"","psychophysics","102","1064711","0.0-102.0","59a88f5b321f870001d16d68","62575734e86340921f11ffe1","","","","","12102","key"," "," ","8.333926308539969","499.84","249.92","instFlank","","","","","0.2899999999999998","0.3","1"
"","psychophysics","103","1074287","0.0-103.0","59a88f5b321f870001d16d68","62575734e86340921f11ffe1","","","","","9572","key"," "," ","8.333938153310134","499.84","249.92","inst","","","","","","",""
"","psychophysics","104","1081063","0.0-104.0","59a88f5b321f870001d16d68","62575734e86340921f11ffe1","","","","","6773","key"," "," ","8.333897783251231","499.84","249.92","instFlank","","","","","0.3799999999999999","0.3","0"
"","psychophysics","105","1084703","0.0-105.0","59a88f5b321f870001d16d68","62575734e86340921f11ffe1","","","","","3638","key"," "," ","8.333938073394116","499.84","249.92","inst","","","","","","",""
"","psychophysics","106","1092039","0.0-106.0","59a88f5b321f870001d16d68","62575734e86340921f11ffe1","","","","","7334","key"," "," ","8.333918088737164","499.84","249.92","flank","","","","","0.31999999999999984","0.22","0"
"","psychophysics","107","1099127","0.0-107.0","59a88f5b321f870001d16d68","62575734e86340921f11ffe1","","","","","7087","key"," "," ","8.333875147232268","499.84","249.92","flank","","","","","0.31999999999999984","0.32","1"
"","psychophysics","108","1103823","0.0-108.0","59a88f5b321f870001d16d68","62575734e86340921f11ffe1","","","","","4693","key"," "," ","8.333911190053024","499.84","249.92","flank","","","","","0.4099999999999999","0.48","1"
"","psychophysics","109","1108671","0.0-109.0","59a88f5b321f870001d16d68","62575734e86340921f11ffe1","","","","","4845","key"," "," ","8.33389500860588","499.84","249.92","flank","","","","","0.6800000000000002","0.5","0"
"","psychophysics","110","1113999","0.0-110.0","59a88f5b321f870001d16d68","62575734e86340921f11ffe1","","","","","5326","key"," "," ","8.33389811912226","499.84","249.92","flank","","","","","0.43999999999999995","0.34","0"
"","psychophysics","111","1120079","0.0-111.0","59a88f5b321f870001d16d68","62575734e86340921f11ffe1","","","","","6077","key"," "," ","8.333885989011174","499.84","249.92","flank","","","","","0.56","0.42","0"
"","psychophysics","112","1125215","0.0-112.0","59a88f5b321f870001d16d68","62575734e86340921f11ffe1","","","","","5134","key"," "," ","8.333930194805008","499.84","249.92","flank","","","","","0.6800000000000002","0.58","0"
"","psychophysics","113","1130247","0.0-113.0","59a88f5b321f870001d16d68","62575734e86340921f11ffe1","","","","","5030","key"," "," ","8.33389883913767","499.84","249.92","flank","","","","","0.43999999999999995","0.42","0"
"","psychophysics","114","1135134","0.0-114.0","59a88f5b321f870001d16d68","62575734e86340921f11ffe1","","","","","4886","key"," "," ","8.334000000000223","499.84","249.92","flank","","","","","0.7700000000000002","0.68","0"
"","psychophysics","115","1139639","0.0-115.0","59a88f5b321f870001d16d68","62575734e86340921f11ffe1","","","","","4503","key"," "," ","8.334018518518294","499.84","249.92","flank","","","","","0.6500000000000001","0.6","1"
"","psychophysics","116","1143575","0.0-116.0","59a88f5b321f870001d16d68","62575734e86340921f11ffe1","","","","","3934","key"," "," ","8.333891719745298","499.84","249.92","flank","","","","","0.31999999999999984","0.34","0"
"","psychophysics","117","1148894","0.0-117.0","59a88f5b321f870001d16d68","62575734e86340921f11ffe1","","","","","5316","key"," "," ","8.333857142856985","499.84","249.92","flank","","","","","0.1699999999999998","0.2","1"
"","psychophysics","118","1154286","0.0-118.0","59a88f5b321f870001d16d68","62575734e86340921f11ffe1","","","","","5390","key"," "," ","8.333910216718275","499.84","249.92","flank","","","","","0.6200000000000001","0.46","1"
"","psychophysics","119","1162038","0.0-119.0","59a88f5b321f870001d16d68","62575734e86340921f11ffe1","","","","","7750","key"," "," ","8.333920344456466","499.84","249.92","flank","","","","","0.8300000000000003","0.76","1"
"","psychophysics","120","1167646","0.0-120.0","59a88f5b321f870001d16d68","62575734e86340921f11ffe1","","","","","5606","key"," "," ","8.33391220238125","499.84","249.92","flank","","","","","0.6800000000000002","0.54","1"
"","psychophysics","121","1173638","0.0-121.0","59a88f5b321f870001d16d68","62575734e86340921f11ffe1","","","","","5989","key"," "," ","8.333906685236924","499.84","249.92","flank","","","","","0.7700000000000002","0.38","0"
"","psychophysics","122","1178078","0.0-122.0","59a88f5b321f870001d16d68","62575734e86340921f11ffe1","","","","","4438","key"," "," ","8.33391729323281","499.84","249.92","flank","","","","","0.7700000000000002","0.74","1"
"","psychophysics","123","1182150","0.0-123.0","59a88f5b321f870001d16d68","62575734e86340921f11ffe1","","","","","4069","key"," "," ","8.333920081967172","499.84","249.92","flank","","","","","0.7700000000000002","0.7","1"
"","psychophysics","124","1186255","0.0-124.0","59a88f5b321f870001d16d68","62575734e86340921f11ffe1","","","","","4102","key"," "," ","8.333967413442197","499.84","249.92","flank","","","","","0.7100000000000002","0.66","1"
"","psychophysics","125","1189862","0.0-125.0","59a88f5b321f870001d16d68","62575734e86340921f11ffe1","","","","","3604","key"," "," ","8.333810185185198","499.84","249.92","flank","","","","","0.34999999999999987","0.34","1"
"","psychophysics","126","1193567","0.0-126.0","59a88f5b321f870001d16d68","62575734e86340921f11ffe1","","","","","3701","key"," "," ","8.334002257336317","499.84","249.92","flank","","","","","0.6200000000000001","0.52","1"
"","psychophysics","127","1197455","0.0-127.0","59a88f5b321f870001d16d68","62575734e86340921f11ffe1","","","","","3886","key"," "," ","8.333849785407773","499.84","249.92","flank","","","","","0.56","0.48","0"
"","psychophysics","128","1201495","0.0-128.0","59a88f5b321f870001d16d68","62575734e86340921f11ffe1","","","","","4038","key"," "," ","8.333880165289253","499.84","249.92","flank","","","","","0.56","0.52","0"
"","psychophysics","129","1216167","0.0-129.0","59a88f5b321f870001d16d68","62575734e86340921f11ffe1","","","","","14671","key"," "," ","8.333908470721985","499.84","249.92","flank","","","","","0.53","0.42","0"
"","psychophysics","130","1221063","0.0-130.0","59a88f5b321f870001d16d68","62575734e86340921f11ffe1","","","","","4893","key"," "," ","8.334001703577725","499.84","249.92","flank","","","","","0.31999999999999984","0.32","1"
"","psychophysics","131","1226031","0.0-131.0","59a88f5b321f870001d16d68","62575734e86340921f11ffe1","","","","","4965","key"," "," ","8.333915966386446","499.84","249.92","flank","","","","","0.43999999999999995","0.58","1"
"","psychophysics","132","1233311","0.0-132.0","59a88f5b321f870001d16d68","62575734e86340921f11ffe1","","","","","7278","key"," "," ","8.333954128440482","499.84","249.92","flank","","","","","0.53","0.48","0"
"","psychophysics","133","1237711","0.0-133.0","59a88f5b321f870001d16d68","62575734e86340921f11ffe1","","","","","4397","key"," "," ","8.333912713472612","499.84","249.92","flank","","","","","0.4099999999999999","0.44","1"
"","psychophysics","134","1242151","0.0-134.0","59a88f5b321f870001d16d68","62575734e86340921f11ffe1","","","","","4438","key"," "," ","8.333909774436336","499.84","249.92","flank","","","","","0.6500000000000001","0.56","0"
"","psychophysics","135","1245671","0.0-135.0","59a88f5b321f870001d16d68","62575734e86340921f11ffe1","","","","","3517","key"," "," ","8.333914489311116","499.84","249.92","flank","","","","","0.2299999999999998","0.22","0"
"true","fullscreen","136","1245674","0.0-136.0","59a88f5b321f870001d16d68","62575734e86340921f11ffe1","","","","","","","","","","","","","","","","","","",""
