"success","trial_type","trial_index","time_elapsed","internal_node_id","pid","sid","timeout","failed_images","failed_audio","failed_video","rt","response_type","key_press","response","avg_frame_time","center_x","center_y","task","ml_len","ml_start","ml_x","ml_y","resp","targ","back"
"true","fullscreen","0","3236","0.0-0.0","5be3237a3193e90001798302","62575792b8c0cad7d9a8d44a","","","","","","","","","","","","","","","","","","",""
"true","preload","1","3238","0.0-1.0","5be3237a3193e90001798302","62575792b8c0cad7d9a8d44a","false","[]","[]","[]","","","","","","","","","","","","","","",""
"","psychophysics","2","4640","0.0-2.0","5be3237a3193e90001798302","62575792b8c0cad7d9a8d44a","","","","","1397","key"," "," ","16.686746987951807","500","250","inst","","","","","","",""
"","psychophysics","3","6074","0.0-3.0","5be3237a3193e90001798302","62575792b8c0cad7d9a8d44a","","","","","1432","key"," "," ","16.68235294117647","500","250","inst","","","","","","",""
"","psychophysics","4","19776","0.0-4.0","5be3237a3193e90001798302","62575792b8c0cad7d9a8d44a","","","","","13699","key"," "," ","16.66626065773447","500","250","instMl","150","-25","18","-2","-24","",""
"","psychophysics","5","24344","0.0-5.0","5be3237a3193e90001798302","62575792b8c0cad7d9a8d44a","","","","","4566","key"," "," ","16.67032967032967","500","250","instMl","186","-31","-27","-12","-29","",""
"","psychophysics","6","28928","0.0-6.0","5be3237a3193e90001798302","62575792b8c0cad7d9a8d44a","","","","","4575","key"," "," ","16.66788321167883","500","250","inst","","","","","","",""
"","psychophysics","7","31955","0.0-7.0","5be3237a3193e90001798302","62575792b8c0cad7d9a8d44a","","","","","3020","key"," "," ","16.65745856353591","500","250","ml","202","-21","23","24","-22","",""
"","psychophysics","8","33320","0.0-8.0","5be3237a3193e90001798302","62575792b8c0cad7d9a8d44a","","","","","1362","key"," "," ","16.679012345679013","500","250","ml","170","-29","9","11","-28","",""
"","psychophysics","9","38615","0.0-9.0","5be3237a3193e90001798302","62575792b8c0cad7d9a8d44a","","","","","5293","key"," "," ","16.662460567823345","500","250","ml","226","-55","-9","-16","-29","",""
"","psychophysics","10","46755","0.0-10.0","5be3237a3193e90001798302","62575792b8c0cad7d9a8d44a","","","","","8137","key"," "," ","16.66735112936345","500","250","ml","238","44","14","2","-17","",""
"","psychophysics","11","50501","0.0-11.0","5be3237a3193e90001798302","62575792b8c0cad7d9a8d44a","","","","","3744","key"," "," ","16.669642857142858","500","250","ml","224","-42","-3","-1","-28","",""
"","psychophysics","12","57666","0.0-12.0","5be3237a3193e90001798302","62575792b8c0cad7d9a8d44a","","","","","7160","key"," "," ","16.666666666666668","500","250","ml","174","23","8","21","-18","",""
"","psychophysics","13","63419","0.0-13.0","5be3237a3193e90001798302","62575792b8c0cad7d9a8d44a","","","","","5751","key"," "," ","16.662790697674417","500","250","ml","242","3","-24","17","-25","",""
"","psychophysics","14","69371","0.0-14.0","5be3237a3193e90001798302","62575792b8c0cad7d9a8d44a","","","","","5950","key"," "," ","16.662921348314608","500","250","ml","228","20","-22","4","-21","",""
"","psychophysics","15","73599","0.0-15.0","5be3237a3193e90001798302","62575792b8c0cad7d9a8d44a","","","","","4224","key"," "," ","16.66403162055336","500","250","ml","196","4","-4","-5","-18","",""
"","psychophysics","16","76616","0.0-16.0","5be3237a3193e90001798302","62575792b8c0cad7d9a8d44a","","","","","3015","key"," "," ","16.666666666666668","500","250","ml","186","-9","22","26","-18","",""
"","psychophysics","17","83173","0.0-17.0","5be3237a3193e90001798302","62575792b8c0cad7d9a8d44a","","","","","6555","key"," "," ","16.665816326530614","500","250","ml","182","10","-24","-14","-19","",""
"","psychophysics","18","91286","0.0-18.0","5be3237a3193e90001798302","62575792b8c0cad7d9a8d44a","","","","","8111","key"," "," ","16.66460905349794","500","250","ml","210","39","8","5","-15","",""
"","psychophysics","19","96898","0.0-19.0","5be3237a3193e90001798302","62575792b8c0cad7d9a8d44a","","","","","5610","key"," "," ","16.663690476190474","500","250","ml","194","30","-30","-30","-15","",""
"","psychophysics","20","98741","0.0-20.0","5be3237a3193e90001798302","62575792b8c0cad7d9a8d44a","","","","","1841","key"," "," ","16.6697247706422","500","250","ml","208","-15","-2","14","-18","",""
"","psychophysics","21","100540","0.0-21.0","5be3237a3193e90001798302","62575792b8c0cad7d9a8d44a","","","","","1797","key"," "," ","16.66355140186916","500","250","ml","224","-28","-25","10","-24","",""
"","psychophysics","22","102115","0.0-22.0","5be3237a3193e90001798302","62575792b8c0cad7d9a8d44a","","","","","1573","key"," "," ","16.670212765957448","500","250","inst","","","","","","",""
"","psychophysics","23","112935","0.0-23.0","5be3237a3193e90001798302","62575792b8c0cad7d9a8d44a","","","","","10818","key"," "," ","16.666666666666668","500","250","instPog","","","","","130","130",""
"","psychophysics","24","117905","0.0-24.0","5be3237a3193e90001798302","62575792b8c0cad7d9a8d44a","","","","","4967","key"," "," ","16.666666666666668","500","250","instPog","","","","","143","130",""
"","psychophysics","25","120900","0.0-25.0","5be3237a3193e90001798302","62575792b8c0cad7d9a8d44a","","","","","2993","key"," "," ","16.670391061452513","500","250","instPog","","","","","159","130",""
"","psychophysics","26","121876","0.0-26.0","5be3237a3193e90001798302","62575792b8c0cad7d9a8d44a","","","","","973","key"," "," ","16.666666666666668","500","250","inst","","","","","","",""
"","psychophysics","27","126196","0.0-27.0","5be3237a3193e90001798302","62575792b8c0cad7d9a8d44a","","","","","4313","key"," "," ","16.664092664092664","500","250","pog","","","","","180","168",""
"","psychophysics","28","129709","0.0-28.0","5be3237a3193e90001798302","62575792b8c0cad7d9a8d44a","","","","","3509","key"," "," ","16.660287081339714","500","250","pog","","","","","147","127",""
"","psychophysics","29","131136","0.0-29.0","5be3237a3193e90001798302","62575792b8c0cad7d9a8d44a","","","","","1421","key"," "," ","16.67058823529412","500","250","pog","","","","","161","150",""
"","psychophysics","30","152630","0.0-30.0","5be3237a3193e90001798302","62575792b8c0cad7d9a8d44a","","","","","21491","key"," "," ","16.666408068269977","500","250","pog","","","","","204","193",""
"","psychophysics","31","156920","0.0-31.0","5be3237a3193e90001798302","62575792b8c0cad7d9a8d44a","","","","","4286","key"," "," ","16.66796875","500","250","pog","","","","","183","168",""
"","psychophysics","32","160703","0.0-32.0","5be3237a3193e90001798302","62575792b8c0cad7d9a8d44a","","","","","3779","key"," "," ","16.663716814159294","500","250","pog","","","","","153","129",""
"","psychophysics","33","172562","0.0-33.0","5be3237a3193e90001798302","62575792b8c0cad7d9a8d44a","","","","","11857","key"," "," ","16.665260196905766","500","250","pog","","","","","157","124",""
"","psychophysics","34","178646","0.0-34.0","5be3237a3193e90001798302","62575792b8c0cad7d9a8d44a","","","","","6081","key"," "," ","16.664835164835164","500","250","pog","","","","","204","193",""
"","psychophysics","35","183276","0.0-35.0","5be3237a3193e90001798302","62575792b8c0cad7d9a8d44a","","","","","4627","key"," "," ","16.66304347826087","500","250","pog","","","","","187","173",""
"","psychophysics","36","185555","0.0-36.0","5be3237a3193e90001798302","62575792b8c0cad7d9a8d44a","","","","","2271","key"," "," ","16.654411764705884","500","250","pog","","","","","149","131",""
"","psychophysics","37","189162","0.0-37.0","5be3237a3193e90001798302","62575792b8c0cad7d9a8d44a","","","","","3597","key"," "," ","16.662037037037038","500","250","pog","","","","","167","150",""
"","psychophysics","38","192382","0.0-38.0","5be3237a3193e90001798302","62575792b8c0cad7d9a8d44a","","","","","3217","key"," "," ","16.661458333333332","500","250","pog","","","","","169","146",""
"","psychophysics","39","195952","0.0-39.0","5be3237a3193e90001798302","62575792b8c0cad7d9a8d44a","","","","","3568","key"," "," ","16.666666666666668","500","250","pog","","","","","171","152",""
"","psychophysics","40","198719","0.0-40.0","5be3237a3193e90001798302","62575792b8c0cad7d9a8d44a","","","","","2764","key"," "," ","16.666666666666668","500","250","pog","","","","","150","127",""
"","psychophysics","41","204894","0.0-41.0","5be3237a3193e90001798302","62575792b8c0cad7d9a8d44a","","","","","6174","key"," "," ","16.66216216216216","500","250","pog","","","","","205","199",""
"","psychophysics","42","205954","0.0-42.0","5be3237a3193e90001798302","62575792b8c0cad7d9a8d44a","","","","","1057","key"," "," ","16.661290322580644","500","250","inst","","","","","","",""
"","psychophysics","43","209820","0.0-43.0","5be3237a3193e90001798302","62575792b8c0cad7d9a8d44a","","","","","3864","key"," "," ","16.67099567099567","500","250","instTilt","","","","","NaN","0","0"
"","psychophysics","44","212381","0.0-44.0","5be3237a3193e90001798302","62575792b8c0cad7d9a8d44a","","","","","2559","key"," "," ","16.666666666666668","500","250","instTilt","","","","","0","0","0"
"","psychophysics","45","220232","0.0-45.0","5be3237a3193e90001798302","62575792b8c0cad7d9a8d44a","","","","","7848","key"," "," ","16.66595744680851","500","250","instTilt","","","","","1","0","0"
"","psychophysics","46","222150","0.0-46.0","5be3237a3193e90001798302","62575792b8c0cad7d9a8d44a","","","","","1916","key"," "," ","16.666666666666668","500","250","inst","","","","","","",""
"","psychophysics","47","224834","0.0-47.0","5be3237a3193e90001798302","62575792b8c0cad7d9a8d44a","","","","","2680","key"," "," ","16.6625","500","250","tilt","","","","","-9","-5","1"
"","psychophysics","48","227405","0.0-48.0","5be3237a3193e90001798302","62575792b8c0cad7d9a8d44a","","","","","2569","key"," "," ","16.666666666666668","500","250","tilt","","","","","8","9","0"
"","psychophysics","49","228941","0.0-49.0","5be3237a3193e90001798302","62575792b8c0cad7d9a8d44a","","","","","1531","key"," "," ","16.64835164835165","500","250","tilt","","","","","4","0","0"
"","psychophysics","50","230229","0.0-50.0","5be3237a3193e90001798302","62575792b8c0cad7d9a8d44a","","","","","1279","key"," "," ","16.649350649350648","500","250","tilt","","","","","-2","-2","1"
"","psychophysics","51","232048","0.0-51.0","5be3237a3193e90001798302","62575792b8c0cad7d9a8d44a","","","","","1817","key"," "," ","16.666666666666668","500","250","tilt","","","","","-4","-10","0"
"","psychophysics","52","234614","0.0-52.0","5be3237a3193e90001798302","62575792b8c0cad7d9a8d44a","","","","","2563","key"," "," ","16.666666666666668","500","250","tilt","","","","","-9","-6","1"
"","psychophysics","53","236416","0.0-53.0","5be3237a3193e90001798302","62575792b8c0cad7d9a8d44a","","","","","1800","key"," "," ","16.672897196261683","500","250","tilt","","","","","5","-1","0"
"","psychophysics","54","237955","0.0-54.0","5be3237a3193e90001798302","62575792b8c0cad7d9a8d44a","","","","","1536","key"," "," ","16.67032967032967","500","250","tilt","","","","","-5","-6","1"
"","psychophysics","55","239613","0.0-55.0","5be3237a3193e90001798302","62575792b8c0cad7d9a8d44a","","","","","1654","key"," "," ","16.666666666666668","500","250","tilt","","","","","6","2","0"
"","psychophysics","56","242401","0.0-56.0","5be3237a3193e90001798302","62575792b8c0cad7d9a8d44a","","","","","2786","key"," "," ","16.662650602409638","500","250","tilt","","","","","-10","-9","1"
"","psychophysics","57","244191","0.0-57.0","5be3237a3193e90001798302","62575792b8c0cad7d9a8d44a","","","","","1788","key"," "," ","16.660377358490567","500","250","tilt","","","","","0","2","1"
"","psychophysics","58","246014","0.0-58.0","5be3237a3193e90001798302","62575792b8c0cad7d9a8d44a","","","","","1817","key"," "," ","16.623853211009173","500","250","tilt","","","","","6","7","0"
"","psychophysics","59","247681","0.0-59.0","5be3237a3193e90001798302","62575792b8c0cad7d9a8d44a","","","","","1665","key"," "," ","16.666666666666668","500","250","tilt","","","","","-5","-5","0"
"","psychophysics","60","249079","0.0-60.0","5be3237a3193e90001798302","62575792b8c0cad7d9a8d44a","","","","","1395","key"," "," ","16.662650602409638","500","250","tilt","","","","","-4","-7","1"
"","psychophysics","61","250352","0.0-61.0","5be3237a3193e90001798302","62575792b8c0cad7d9a8d44a","","","","","1271","key"," "," ","16.666666666666668","500","250","tilt","","","","","2","-2","0"
"","psychophysics","62","251633","0.0-62.0","5be3237a3193e90001798302","62575792b8c0cad7d9a8d44a","","","","","1278","key"," "," ","16.67105263157895","500","250","tilt","","","","","1","-1","0"
"","psychophysics","63","253212","0.0-63.0","5be3237a3193e90001798302","62575792b8c0cad7d9a8d44a","","","","","1576","key"," "," ","16.659574468085108","500","250","tilt","","","","","-4","-9","0"
"","psychophysics","64","254952","0.0-64.0","5be3237a3193e90001798302","62575792b8c0cad7d9a8d44a","","","","","1737","key"," "," ","16.66990291262136","500","250","tilt","","","","","6","9","1"
"","psychophysics","65","256595","0.0-65.0","5be3237a3193e90001798302","62575792b8c0cad7d9a8d44a","","","","","1641","key"," "," ","16.6734693877551","500","250","tilt","","","","","2","1","0"
"","psychophysics","66","258696","0.0-66.0","5be3237a3193e90001798302","62575792b8c0cad7d9a8d44a","","","","","2096","key"," "," ","16.664","500","250","tilt","","","","","-8","-9","1"
"","psychophysics","67","260850","0.0-67.0","5be3237a3193e90001798302","62575792b8c0cad7d9a8d44a","","","","","2153","key"," "," ","16.6640625","500","250","tilt","","","","","7","4","0"
"","psychophysics","68","262369","0.0-68.0","5be3237a3193e90001798302","62575792b8c0cad7d9a8d44a","","","","","1516","key"," "," ","16.666666666666668","500","250","tilt","","","","","-3","-6","0"
"","psychophysics","69","263461","0.0-69.0","5be3237a3193e90001798302","62575792b8c0cad7d9a8d44a","","","","","1090","key"," "," ","16.661538461538463","500","250","tilt","","","","","-2","-2","1"
"","psychophysics","70","264805","0.0-70.0","5be3237a3193e90001798302","62575792b8c0cad7d9a8d44a","","","","","1342","key"," "," ","16.670886075949365","500","250","tilt","","","","","-5","-9","0"
"","psychophysics","71","266315","0.0-71.0","5be3237a3193e90001798302","62575792b8c0cad7d9a8d44a","","","","","1507","key"," "," ","16.655555555555555","500","250","tilt","","","","","-2","-1","1"
"","psychophysics","72","267762","0.0-72.0","5be3237a3193e90001798302","62575792b8c0cad7d9a8d44a","","","","","1444","key"," "," ","16.662790697674417","500","250","tilt","","","","","-5","-9","1"
"","psychophysics","73","268948","0.0-73.0","5be3237a3193e90001798302","62575792b8c0cad7d9a8d44a","","","","","1184","key"," "," ","16.642857142857142","500","250","tilt","","","","","2","4","1"
"","psychophysics","74","270145","0.0-74.0","5be3237a3193e90001798302","62575792b8c0cad7d9a8d44a","","","","","1195","key"," "," ","16.661971830985916","500","250","tilt","","","","","-1","-9","0"
"","psychophysics","75","271412","0.0-75.0","5be3237a3193e90001798302","62575792b8c0cad7d9a8d44a","","","","","1263","key"," "," ","16.653333333333332","500","250","tilt","","","","","4","9","1"
"","psychophysics","76","272695","0.0-76.0","5be3237a3193e90001798302","62575792b8c0cad7d9a8d44a","","","","","1279","key"," "," ","16.67105263157895","500","250","tilt","","","","","-5","-7","1"
"","psychophysics","77","273853","0.0-77.0","5be3237a3193e90001798302","62575792b8c0cad7d9a8d44a","","","","","1156","key"," "," ","16.676470588235293","500","250","inst","","","","","","",""
"","psychophysics","78","276752","0.0-78.0","5be3237a3193e90001798302","62575792b8c0cad7d9a8d44a","","","","","2897","key"," "," ","16.664739884393065","500","250","instPz","","","","","50","50",""
"","psychophysics","79","285680","0.0-79.0","5be3237a3193e90001798302","62575792b8c0cad7d9a8d44a","","","","","8926","key"," "," ","16.66728971962617","500","250","instPz","","","","","41","50",""
"","psychophysics","80","287799","0.0-80.0","5be3237a3193e90001798302","62575792b8c0cad7d9a8d44a","","","","","2116","key"," "," ","16.658730158730158","500","250","instPz","","","","","26","30",""
"","psychophysics","81","289584","0.0-81.0","5be3237a3193e90001798302","62575792b8c0cad7d9a8d44a","","","","","1781","key"," "," ","16.669811320754718","500","250","instPz","","","","","15","40",""
"","psychophysics","82","290852","0.0-82.0","5be3237a3193e90001798302","62575792b8c0cad7d9a8d44a","","","","","1267","key"," "," ","16.666666666666668","500","250","inst","","","","","","",""
"","psychophysics","83","295979","0.0-83.0","5be3237a3193e90001798302","62575792b8c0cad7d9a8d44a","","","","","5123","key"," "," ","16.667752442996743","500","250","pz","","","","","34","30",""
"","psychophysics","84","301065","0.0-84.0","5be3237a3193e90001798302","62575792b8c0cad7d9a8d44a","","","","","5084","key"," "," ","16.67105263157895","500","250","pz","","","","","49","55",""
"","psychophysics","85","304927","0.0-85.0","5be3237a3193e90001798302","62575792b8c0cad7d9a8d44a","","","","","3861","key"," "," ","16.666666666666668","500","250","pz","","","","","49","48",""
"","psychophysics","86","308121","0.0-86.0","5be3237a3193e90001798302","62575792b8c0cad7d9a8d44a","","","","","3190","key"," "," ","16.66842105263158","500","250","pz","","","","","42","36",""
"","psychophysics","87","312604","0.0-87.0","5be3237a3193e90001798302","62575792b8c0cad7d9a8d44a","","","","","4474","key"," "," ","16.66417910447761","500","250","pz","","","","","51","45",""
"","psychophysics","88","317296","0.0-88.0","5be3237a3193e90001798302","62575792b8c0cad7d9a8d44a","","","","","4681","key"," "," ","16.661921708185055","500","250","pz","","","","","57","50",""
"","psychophysics","89","323480","0.0-89.0","5be3237a3193e90001798302","62575792b8c0cad7d9a8d44a","","","","","6182","key"," "," ","16.664864864864864","500","250","pz","","","","","52","43",""
"","psychophysics","90","328505","0.0-90.0","5be3237a3193e90001798302","62575792b8c0cad7d9a8d44a","","","","","5023","key"," "," ","16.66","500","250","pz","","","","","54","52",""
"","psychophysics","91","332310","0.0-91.0","5be3237a3193e90001798302","62575792b8c0cad7d9a8d44a","","","","","3797","key"," "," ","16.662280701754387","500","250","pz","","","","","47","42",""
"","psychophysics","92","336676","0.0-92.0","5be3237a3193e90001798302","62575792b8c0cad7d9a8d44a","","","","","4363","key"," "," ","16.666666666666668","500","250","pz","","","","","49","45",""
"","psychophysics","93","342143","0.0-93.0","5be3237a3193e90001798302","62575792b8c0cad7d9a8d44a","","","","","5463","key"," "," ","16.666666666666668","500","250","pz","","","","","66","59",""
"","psychophysics","94","345910","0.0-94.0","5be3237a3193e90001798302","62575792b8c0cad7d9a8d44a","","","","","3764","key"," "," ","16.666666666666668","500","250","pz","","","","","38","30",""
"","psychophysics","95","348765","0.0-95.0","5be3237a3193e90001798302","62575792b8c0cad7d9a8d44a","","","","","2852","key"," "," ","16.67058823529412","500","250","pz","","","","","38","34",""
"","psychophysics","96","352044","0.0-96.0","5be3237a3193e90001798302","62575792b8c0cad7d9a8d44a","","","","","3275","key"," "," ","16.668367346938776","500","250","pz","","","","","43","43",""
"","psychophysics","97","354209","0.0-97.0","5be3237a3193e90001798302","62575792b8c0cad7d9a8d44a","","","","","2163","key"," "," ","16.666666666666668","500","250","pz","","","","","26","21",""
"","psychophysics","98","355371","0.0-98.0","5be3237a3193e90001798302","62575792b8c0cad7d9a8d44a","","","","","1159","key"," "," ","16.676470588235293","500","250","inst","","","","","","",""
"","psychophysics","99","356551","0.0-99.0","5be3237a3193e90001798302","62575792b8c0cad7d9a8d44a","","","","","1177","key"," "," ","16.642857142857142","500","250","inst","","","","","","",""
"","psychophysics","100","358044","0.0-100.0","5be3237a3193e90001798302","62575792b8c0cad7d9a8d44a","","","","","1489","key"," "," ","16.674157303370787","500","250","instFlank","","","","","0.5","0.3","1"
"","psychophysics","101","359959","0.0-101.0","5be3237a3193e90001798302","62575792b8c0cad7d9a8d44a","","","","","1913","key"," "," ","16.666666666666668","500","250","inst","","","","","","",""
"","psychophysics","102","366678","0.0-102.0","5be3237a3193e90001798302","62575792b8c0cad7d9a8d44a","","","","","6715","key"," "," ","16.66417910447761","500","250","instFlank","","","","","0.47","0.3","1"
"","psychophysics","103","367321","0.0-103.0","5be3237a3193e90001798302","62575792b8c0cad7d9a8d44a","","","","","638","key"," "," ","16.675675675675677","500","250","inst","","","","","","",""
"","psychophysics","104","370894","0.0-104.0","5be3237a3193e90001798302","62575792b8c0cad7d9a8d44a","","","","","3565","key"," "," ","16.6588785046729","500","250","instFlank","","","","","0.47","0.3","0"
"","psychophysics","105","371904","0.0-105.0","5be3237a3193e90001798302","62575792b8c0cad7d9a8d44a","","","","","1008","key"," "," ","16.661016949152543","500","250","inst","","","","","","",""
"","psychophysics","106","376820","0.0-106.0","5be3237a3193e90001798302","62575792b8c0cad7d9a8d44a","","","","","4908","key"," "," ","16.666666666666668","500","250","flank","","","","","0.6500000000000001","0.76","1"
"","psychophysics","107","381175","0.0-107.0","5be3237a3193e90001798302","62575792b8c0cad7d9a8d44a","","","","","4351","key"," "," ","16.659003831417625","500","250","flank","","","","","0.31999999999999984","0.38","0"
"","psychophysics","108","384376","0.0-108.0","5be3237a3193e90001798302","62575792b8c0cad7d9a8d44a","","","","","3197","key"," "," ","16.670157068062828","500","250","flank","","","","","0.7400000000000002","0.68","1"
"","psychophysics","109","387252","0.0-109.0","5be3237a3193e90001798302","62575792b8c0cad7d9a8d44a","","","","","2874","key"," "," ","16.666666666666668","500","250","flank","","","","","0.6500000000000001","0.7","1"
"","psychophysics","110","390202","0.0-110.0","5be3237a3193e90001798302","62575792b8c0cad7d9a8d44a","","","","","2942","key"," "," ","16.664772727272727","500","250","flank","","","","","0.6200000000000001","0.54","0"
"","psychophysics","111","392688","0.0-111.0","5be3237a3193e90001798302","62575792b8c0cad7d9a8d44a","","","","","2482","key"," "," ","16.66216216216216","500","250","flank","","","","","0.47","0.5","1"
"","psychophysics","112","395374","0.0-112.0","5be3237a3193e90001798302","62575792b8c0cad7d9a8d44a","","","","","2680","key"," "," ","16.652173913043477","500","250","flank","","","","","0.43999999999999995","0.46","1"
"","psychophysics","113","398984","0.0-113.0","5be3237a3193e90001798302","62575792b8c0cad7d9a8d44a","","","","","3608","key"," "," ","16.669767441860465","500","250","flank","","","","","0.8600000000000003","0.8","1"
"","psychophysics","114","402600","0.0-114.0","5be3237a3193e90001798302","62575792b8c0cad7d9a8d44a","","","","","3614","key"," "," ","16.666666666666668","500","250","flank","","","","","0.7100000000000002","0.72","0"
"","psychophysics","115","405685","0.0-115.0","5be3237a3193e90001798302","62575792b8c0cad7d9a8d44a","","","","","3083","key"," "," ","16.657608695652176","500","250","flank","","","","","0.7400000000000002","0.76","0"
"","psychophysics","116","408187","0.0-116.0","5be3237a3193e90001798302","62575792b8c0cad7d9a8d44a","","","","","2499","key"," "," ","16.65771812080537","500","250","flank","","","","","0.6500000000000001","0.62","1"
"","psychophysics","117","410597","0.0-117.0","5be3237a3193e90001798302","62575792b8c0cad7d9a8d44a","","","","","2406","key"," "," ","16.63888888888889","500","250","flank","","","","","0.43999999999999995","0.24","0"
"","psychophysics","118","413217","0.0-118.0","5be3237a3193e90001798302","62575792b8c0cad7d9a8d44a","","","","","2618","key"," "," ","16.666666666666668","500","250","flank","","","","","0.43999999999999995","0.38","1"
"","psychophysics","119","417124","0.0-119.0","5be3237a3193e90001798302","62575792b8c0cad7d9a8d44a","","","","","3905","key"," "," ","16.662393162393162","500","250","flank","","","","","0.8000000000000003","0.74","1"
"","psychophysics","120","423576","0.0-120.0","5be3237a3193e90001798302","62575792b8c0cad7d9a8d44a","","","","","6450","key"," "," ","16.66839378238342","500","250","flank","","","","","0.3799999999999999","0.22","1"
"","psychophysics","121","425751","0.0-121.0","5be3237a3193e90001798302","62575792b8c0cad7d9a8d44a","","","","","2171","key"," "," ","16.65891472868217","500","250","flank","","","","","0.53","0.3","0"
"","psychophysics","122","427743","0.0-122.0","5be3237a3193e90001798302","62575792b8c0cad7d9a8d44a","","","","","1989","key"," "," ","16.66386554621849","500","250","flank","","","","","0.53","0.44","0"
"","psychophysics","123","431007","0.0-123.0","5be3237a3193e90001798302","62575792b8c0cad7d9a8d44a","","","","","3262","key"," "," ","16.661538461538463","500","250","flank","","","","","0.7400000000000002","0.78","1"
"","psychophysics","124","433344","0.0-124.0","5be3237a3193e90001798302","62575792b8c0cad7d9a8d44a","","","","","2334","key"," "," ","16.66906474820144","500","250","flank","","","","","0.5","0.38","0"
"","psychophysics","125","436216","0.0-125.0","5be3237a3193e90001798302","62575792b8c0cad7d9a8d44a","","","","","2870","key"," "," ","16.672514619883042","500","250","flank","","","","","0.2299999999999998","0.3","1"
"","psychophysics","126","438797","0.0-126.0","5be3237a3193e90001798302","62575792b8c0cad7d9a8d44a","","","","","2577","key"," "," ","16.66883116883117","500","250","flank","","","","","0.47","0.42","0"
"","psychophysics","127","441615","0.0-127.0","5be3237a3193e90001798302","62575792b8c0cad7d9a8d44a","","","","","2816","key"," "," ","16.666666666666668","500","250","flank","","","","","0.2899999999999998","0.3","1"
"","psychophysics","128","444382","0.0-128.0","5be3237a3193e90001798302","62575792b8c0cad7d9a8d44a","","","","","2765","key"," "," ","16.66060606060606","500","250","flank","","","","","0.3799999999999999","0.48","1"
"","psychophysics","129","446880","0.0-129.0","5be3237a3193e90001798302","62575792b8c0cad7d9a8d44a","","","","","2496","key"," "," ","16.671140939597315","500","250","flank","","","","","0.47","0.4","0"
"","psychophysics","130","448962","0.0-130.0","5be3237a3193e90001798302","62575792b8c0cad7d9a8d44a","","","","","2076","key"," "," ","16.669354838709676","500","250","flank","","","","","0.5","0.38","0"
"","psychophysics","131","451459","0.0-131.0","5be3237a3193e90001798302","62575792b8c0cad7d9a8d44a","","","","","2494","key"," "," ","16.664429530201343","500","250","flank","","","","","0.56","0.6","1"
"","psychophysics","132","454278","0.0-132.0","5be3237a3193e90001798302","62575792b8c0cad7d9a8d44a","","","","","2816","key"," "," ","16.660714285714285","500","250","flank","","","","","0.34999999999999987","0.36","1"
"","psychophysics","133","457707","0.0-133.0","5be3237a3193e90001798302","62575792b8c0cad7d9a8d44a","","","","","3427","key"," "," ","16.663414634146342","500","250","flank","","","","","0.7700000000000002","0.76","1"
"","psychophysics","134","461007","0.0-134.0","5be3237a3193e90001798302","62575792b8c0cad7d9a8d44a","","","","","3298","key"," "," ","16.66497461928934","500","250","flank","","","","","0.6500000000000001","0.68","1"
"","psychophysics","135","463849","0.0-135.0","5be3237a3193e90001798302","62575792b8c0cad7d9a8d44a","","","","","2839","key"," "," ","16.662721893491124","500","250","flank","","","","","0.3799999999999999","0.34","0"
"true","fullscreen","136","463852","0.0-136.0","5be3237a3193e90001798302","62575792b8c0cad7d9a8d44a","","","","","","","","","","","","","","","","","","",""
