"success","trial_type","trial_index","time_elapsed","internal_node_id","pid","sid","timeout","failed_images","failed_audio","failed_video","rt","response_type","key_press","response","avg_frame_time","center_x","center_y","task","ml_len","ml_start","ml_x","ml_y","resp","targ","back"
"true","fullscreen","0","2760","0.0-0.0","6129781ecb8007ce6248a915","625756f67b8018e08576e808","","","","","","","","","","","","","","","","","","",""
"true","preload","1","2763","0.0-1.0","6129781ecb8007ce6248a915","625756f67b8018e08576e808","false","[]","[]","[]","","","","","","","","","","","","","","",""
"","psychophysics","2","8273","0.0-2.0","6129781ecb8007ce6248a915","625756f67b8018e08576e808","","","","","5476","key"," "," ","16.74740548780488","499.6997111483671","249.84985557418355","inst","","","","","","",""
"","psychophysics","3","10599","0.0-3.0","6129781ecb8007ce6248a915","625756f67b8018e08576e808","","","","","2321","key"," "," ","16.69590647482014","499.6997111483671","249.84985557418355","inst","","","","","","",""
"","psychophysics","4","41285","0.0-4.0","6129781ecb8007ce6248a915","625756f67b8018e08576e808","","","","","30682","key"," "," ","16.695686445291237","499.6997111483671","249.84985557418355","instMl","156","-26","20","-11","-16","",""
"","psychophysics","5","58658","0.0-5.0","6129781ecb8007ce6248a915","625756f67b8018e08576e808","","","","","17374","key"," "," ","16.69560288461538","499.6997111483671","249.84985557418355","instMl","180","-30","10","-16","-19","",""
"","psychophysics","6","63768","0.0-6.0","6129781ecb8007ce6248a915","625756f67b8018e08576e808","","","","","5108","key"," "," ","16.695521311475403","499.6997111483671","249.84985557418355","inst","","","","","","",""
"","psychophysics","7","80038","0.0-7.0","6129781ecb8007ce6248a915","625756f67b8018e08576e808","","","","","16266","key"," "," ","16.695719424460428","499.6997111483671","249.84985557418355","ml","204","-40","-22","5","-21","",""
"","psychophysics","8","91441","0.0-8.0","6129781ecb8007ce6248a915","625756f67b8018e08576e808","","","","","11400","key"," "," ","16.696004398826982","499.6997111483671","249.84985557418355","ml","220","22","-24","-16","-19","",""
"","psychophysics","9","100600","0.0-9.0","6129781ecb8007ce6248a915","625756f67b8018e08576e808","","","","","9152","key"," "," ","16.69567700729927","499.6997111483671","249.84985557418355","ml","190","-3","0","-20","-21","",""
"","psychophysics","10","108245","0.0-10.0","6129781ecb8007ce6248a915","625756f67b8018e08576e808","","","","","7642","key"," "," ","16.695551422319472","499.6997111483671","249.84985557418355","ml","182","11","19","-6","-16","",""
"","psychophysics","11","120542","0.0-11.0","6129781ecb8007ce6248a915","625756f67b8018e08576e808","","","","","12296","key"," "," ","16.69573605442176","499.6997111483671","249.84985557418355","ml","224","-53","26","29","-27","",""
"","psychophysics","12","128894","0.0-12.0","6129781ecb8007ce6248a915","625756f67b8018e08576e808","","","","","8347","key"," "," ","16.696061999999976","499.6997111483671","249.84985557418355","ml","204","37","-27","6","-17","",""
"","psychophysics","13","136215","0.0-13.0","6129781ecb8007ce6248a915","625756f67b8018e08576e808","","","","","7318","key"," "," ","16.69626086956519","499.6997111483671","249.84985557418355","ml","180","10","21","23","-14","",""
"","psychophysics","14","142451","0.0-14.0","6129781ecb8007ce6248a915","625756f67b8018e08576e808","","","","","6233","key"," "," ","16.695833780160864","499.6997111483671","249.84985557418355","ml","198","-9","6","11","-19","",""
"","psychophysics","15","148378","0.0-15.0","6129781ecb8007ce6248a915","625756f67b8018e08576e808","","","","","5924","key"," "," ","16.69449717514128","499.6997111483671","249.84985557418355","ml","164","8","7","6","-13","",""
"","psychophysics","16","156363","0.0-16.0","6129781ecb8007ce6248a915","625756f67b8018e08576e808","","","","","7982","key"," "," ","16.695624737945483","499.6997111483671","249.84985557418355","ml","160","22","-14","29","-13","",""
"","psychophysics","17","165385","0.0-17.0","6129781ecb8007ce6248a915","625756f67b8018e08576e808","","","","","9019","key"," "," ","16.695771799628904","499.6997111483671","249.84985557418355","ml","224","45","-7","14","-12","",""
"","psychophysics","18","173105","0.0-18.0","6129781ecb8007ce6248a915","625756f67b8018e08576e808","","","","","7717","key"," "," ","16.695913419913392","499.6997111483671","249.84985557418355","ml","162","12","-23","22","-13","",""
"","psychophysics","19","181372","0.0-19.0","6129781ecb8007ce6248a915","625756f67b8018e08576e808","","","","","8264","key"," "," ","16.69571255060729","499.6997111483671","249.84985557418355","ml","152","-30","7","21","-19","",""
"","psychophysics","20","190006","0.0-20.0","6129781ecb8007ce6248a915","625756f67b8018e08576e808","","","","","8631","key"," "," ","16.696075581395327","499.6997111483671","249.84985557418355","ml","208","33","-30","-12","-18","",""
"","psychophysics","21","195304","0.0-21.0","6129781ecb8007ce6248a915","625756f67b8018e08576e808","","","","","5295","key"," "," ","16.695870253164617","499.6997111483671","249.84985557418355","ml","212","-27","27","-11","-23","",""
"","psychophysics","22","197677","0.0-22.0","6129781ecb8007ce6248a915","625756f67b8018e08576e808","","","","","2370","key"," "," ","16.695673758865222","499.6997111483671","249.84985557418355","inst","","","","","","",""
"","psychophysics","23","221025","0.0-23.0","6129781ecb8007ce6248a915","625756f67b8018e08576e808","","","","","23342","key"," "," ","16.695851931330477","499.6997111483671","249.84985557418355","instPog","","","","","130","130",""
"","psychophysics","24","252631","0.0-24.0","6129781ecb8007ce6248a915","625756f67b8018e08576e808","","","","","31602","key"," "," ","16.695836152219872","499.6997111483671","249.84985557418355","instPog","","","","","147","130",""
"","psychophysics","25","270087","0.0-25.0","6129781ecb8007ce6248a915","625756f67b8018e08576e808","","","","","17453","key"," "," ","16.695799808429125","499.6997111483671","249.84985557418355","instPog","","","","","158","130",""
"","psychophysics","26","272042","0.0-26.0","6129781ecb8007ce6248a915","625756f67b8018e08576e808","","","","","1953","key"," "," ","16.69665517241359","499.6997111483671","249.84985557418355","inst","","","","","","",""
"","psychophysics","27","282419","0.0-27.0","6129781ecb8007ce6248a915","625756f67b8018e08576e808","","","","","10365","key"," "," ","16.69593719806758","499.6997111483671","249.84985557418355","pog","","","","","191","178",""
"","psychophysics","28","291980","0.0-28.0","6129781ecb8007ce6248a915","625756f67b8018e08576e808","","","","","9559","key"," "," ","16.695776223776218","499.6997111483671","249.84985557418355","pog","","","","","190","166",""
"","psychophysics","29","298658","0.0-29.0","6129781ecb8007ce6248a915","625756f67b8018e08576e808","","","","","6676","key"," "," ","16.69563408521308","499.6997111483671","249.84985557418355","pog","","","","","192","167",""
"","psychophysics","30","310326","0.0-30.0","6129781ecb8007ce6248a915","625756f67b8018e08576e808","","","","","11665","key"," "," ","16.69563127690098","499.6997111483671","249.84985557418355","pog","","","","","215","194",""
"","psychophysics","31","322233","0.0-31.0","6129781ecb8007ce6248a915","625756f67b8018e08576e808","","","","","11902","key"," "," ","16.695809256661942","499.6997111483671","249.84985557418355","pog","","","","","193","173",""
"","psychophysics","32","333011","0.0-32.0","6129781ecb8007ce6248a915","625756f67b8018e08576e808","","","","","10775","key"," "," ","16.695658385093193","499.6997111483671","249.84985557418355","pog","","","","","142","121",""
"","psychophysics","33","338721","0.0-33.0","6129781ecb8007ce6248a915","625756f67b8018e08576e808","","","","","5708","key"," "," ","16.69574780058651","499.6997111483671","249.84985557418355","pog","","","","","156","134",""
"","psychophysics","34","350992","0.0-34.0","6129781ecb8007ce6248a915","625756f67b8018e08576e808","","","","","12269","key"," "," ","16.695756130790187","499.6997111483671","249.84985557418355","pog","","","","","208","190",""
"","psychophysics","35","358645","0.0-35.0","6129781ecb8007ce6248a915","625756f67b8018e08576e808","","","","","7645","key"," "," ","16.695078774616967","499.6997111483671","249.84985557418355","pog","","","","","213","194",""
"","psychophysics","36","364921","0.0-36.0","6129781ecb8007ce6248a915","625756f67b8018e08576e808","","","","","6274","key"," "," ","16.696386666666715","499.6997111483671","249.84985557418355","pog","","","","","201","179",""
"","psychophysics","37","372795","0.0-37.0","6129781ecb8007ce6248a915","625756f67b8018e08576e808","","","","","7871","key"," "," ","16.6953864118896","499.6997111483671","249.84985557418355","pog","","","","","216","191",""
"","psychophysics","38","380116","0.0-38.0","6129781ecb8007ce6248a915","625756f67b8018e08576e808","","","","","7319","key"," "," ","16.69574599542327","499.6997111483671","249.84985557418355","pog","","","","","200","176",""
"","psychophysics","39","387771","0.0-39.0","6129781ecb8007ce6248a915","625756f67b8018e08576e808","","","","","7652","key"," "," ","16.69594541484707","499.6997111483671","249.84985557418355","pog","","","","","210","192",""
"","psychophysics","40","397001","0.0-40.0","6129781ecb8007ce6248a915","625756f67b8018e08576e808","","","","","9226","key"," "," ","16.695872958257777","499.6997111483671","249.84985557418355","pog","","","","","194","173",""
"","psychophysics","41","402623","0.0-41.0","6129781ecb8007ce6248a915","625756f67b8018e08576e808","","","","","5619","key"," "," ","16.696059523809666","499.6997111483671","249.84985557418355","pog","","","","","193","165",""
"","psychophysics","42","404242","0.0-42.0","6129781ecb8007ce6248a915","625756f67b8018e08576e808","","","","","1612","key"," "," ","16.69556249999975","499.6997111483671","249.84985557418355","inst","","","","","","",""
"","psychophysics","43","408725","0.0-43.0","6129781ecb8007ce6248a915","625756f67b8018e08576e808","","","","","4476","key"," "," ","16.69590671641801","499.6997111483671","249.84985557418355","instTilt","","","","","NaN","0","0"
"","psychophysics","44","412065","0.0-44.0","6129781ecb8007ce6248a915","625756f67b8018e08576e808","","","","","3336","key"," "," ","16.695422110552887","499.6997111483671","249.84985557418355","instTilt","","","","","0","0","0"
"","psychophysics","45","423885","0.0-45.0","6129781ecb8007ce6248a915","625756f67b8018e08576e808","","","","","11824","key"," "," ","16.695739745403163","499.6997111483671","249.84985557418355","instTilt","","","","","0","0","0"
"","psychophysics","46","425545","0.0-46.0","6129781ecb8007ce6248a915","625756f67b8018e08576e808","","","","","1658","key"," "," ","16.69676767676749","499.6997111483671","249.84985557418355","inst","","","","","","",""
"","psychophysics","47","437198","0.0-47.0","6129781ecb8007ce6248a915","625756f67b8018e08576e808","","","","","11649","key"," "," ","16.695742816091986","499.6997111483671","249.84985557418355","tilt","","","","","4","4","0"
"","psychophysics","48","445154","0.0-48.0","6129781ecb8007ce6248a915","625756f67b8018e08576e808","","","","","7952","key"," "," ","16.69587394957978","499.6997111483671","249.84985557418355","tilt","","","","","-13","-9","1"
"","psychophysics","49","452659","0.0-49.0","6129781ecb8007ce6248a915","625756f67b8018e08576e808","","","","","7501","key"," "," ","16.695906250000007","499.6997111483671","249.84985557418355","tilt","","","","","-6","-10","0"
"","psychophysics","50","460960","0.0-50.0","6129781ecb8007ce6248a915","625756f67b8018e08576e808","","","","","8297","key"," "," ","16.695682092555362","499.6997111483671","249.84985557418355","tilt","","","","","4","2","0"
"","psychophysics","51","468160","0.0-51.0","6129781ecb8007ce6248a915","625756f67b8018e08576e808","","","","","7197","key"," "," ","16.69568837209304","499.6997111483671","249.84985557418355","tilt","","","","","7","7","0"
"","psychophysics","52","479732","0.0-52.0","6129781ecb8007ce6248a915","625756f67b8018e08576e808","","","","","11562","key"," "," ","16.69580780346814","499.6997111483671","249.84985557418355","tilt","","","","","-12","-9","1"
"","psychophysics","53","488322","0.0-53.0","6129781ecb8007ce6248a915","625756f67b8018e08576e808","","","","","8586","key"," "," ","16.6957407407407","499.6997111483671","249.84985557418355","tilt","","","","","3","9","1"
"","psychophysics","54","494264","0.0-54.0","6129781ecb8007ce6248a915","625756f67b8018e08576e808","","","","","5937","key"," "," ","16.69601971830986","499.6997111483671","249.84985557418355","tilt","","","","","5","3","0"
"","psychophysics","55","500628","0.0-55.0","6129781ecb8007ce6248a915","625756f67b8018e08576e808","","","","","6361","key"," "," ","16.69681052631579","499.6997111483671","249.84985557418355","tilt","","","","","-3","-5","0"
"","psychophysics","56","505942","0.0-56.0","6129781ecb8007ce6248a915","625756f67b8018e08576e808","","","","","5308","key"," "," ","16.6960094339621","499.6997111483671","249.84985557418355","tilt","","","","","-4","-3","1"
"","psychophysics","57","513006","0.0-57.0","6129781ecb8007ce6248a915","625756f67b8018e08576e808","","","","","7061","key"," "," ","16.69566350710902","499.6997111483671","249.84985557418355","tilt","","","","","1","4","1"
"","psychophysics","58","520952","0.0-58.0","6129781ecb8007ce6248a915","625756f67b8018e08576e808","","","","","7943","key"," "," ","16.69567789473681","499.6997111483671","249.84985557418355","tilt","","","","","-7","-7","1"
"","psychophysics","59","527084","0.0-59.0","6129781ecb8007ce6248a915","625756f67b8018e08576e808","","","","","6128","key"," "," ","16.695467213114828","499.6997111483671","249.84985557418355","tilt","","","","","-1","-2","0"
"","psychophysics","60","537208","0.0-60.0","6129781ecb8007ce6248a915","625756f67b8018e08576e808","","","","","10128","key"," "," ","16.695831683168315","499.6997111483671","249.84985557418355","tilt","","","","","2","8","1"
"","psychophysics","61","543072","0.0-61.0","6129781ecb8007ce6248a915","625756f67b8018e08576e808","","","","","5860","key"," "," ","16.695811428571385","499.6997111483671","249.84985557418355","tilt","","","","","3","2","0"
"","psychophysics","62","548761","0.0-62.0","6129781ecb8007ce6248a915","625756f67b8018e08576e808","","","","","5685","key"," "," ","16.69557352941175","499.6997111483671","249.84985557418355","tilt","","","","","-4","-10","0"
"","psychophysics","63","552366","0.0-63.0","6129781ecb8007ce6248a915","625756f67b8018e08576e808","","","","","3602","key"," "," ","16.69584651162772","499.6997111483671","249.84985557418355","tilt","","","","","-1","-5","0"
"","psychophysics","64","560045","0.0-64.0","6129781ecb8007ce6248a915","625756f67b8018e08576e808","","","","","7676","key"," "," ","16.695853711790395","499.6997111483671","249.84985557418355","tilt","","","","","3","7","1"
"","psychophysics","65","563419","0.0-65.0","6129781ecb8007ce6248a915","625756f67b8018e08576e808","","","","","3369","key"," "," ","16.695584158415993","499.6997111483671","249.84985557418355","tilt","","","","","-2","-5","0"
"","psychophysics","66","569468","0.0-66.0","6129781ecb8007ce6248a915","625756f67b8018e08576e808","","","","","6046","key"," "," ","16.69581163434926","499.6997111483671","249.84985557418355","tilt","","","","","-2","-5","0"
"","psychophysics","67","574410","0.0-67.0","6129781ecb8007ce6248a915","625756f67b8018e08576e808","","","","","4939","key"," "," ","16.696088135593286","499.6997111483671","249.84985557418355","tilt","","","","","-5","-9","0"
"","psychophysics","68","578924","0.0-68.0","6129781ecb8007ce6248a915","625756f67b8018e08576e808","","","","","4510","key"," "," ","16.69585873605943","499.6997111483671","249.84985557418355","tilt","","","","","-2","-6","0"
"","psychophysics","69","591029","0.0-69.0","6129781ecb8007ce6248a915","625756f67b8018e08576e808","","","","","12100","key"," "," ","16.696219613259622","499.6997111483671","249.84985557418355","tilt","","","","","1","4","1"
"","psychophysics","70","596061","0.0-70.0","6129781ecb8007ce6248a915","625756f67b8018e08576e808","","","","","5026","key"," "," ","16.696647840531533","499.6997111483671","249.84985557418355","tilt","","","","","-1","3","1"
"","psychophysics","71","602385","0.0-71.0","6129781ecb8007ce6248a915","625756f67b8018e08576e808","","","","","6320","key"," "," ","16.69566047745349","499.6997111483671","249.84985557418355","tilt","","","","","-6","-9","1"
"","psychophysics","72","609555","0.0-72.0","6129781ecb8007ce6248a915","625756f67b8018e08576e808","","","","","7166","key"," "," ","16.69587412587419","499.6997111483671","249.84985557418355","tilt","","","","","2","1","0"
"","psychophysics","73","618259","0.0-73.0","6129781ecb8007ce6248a915","625756f67b8018e08576e808","","","","","8700","key"," "," ","16.696369230769164","499.6997111483671","249.84985557418355","tilt","","","","","2","8","1"
"","psychophysics","74","624435","0.0-74.0","6129781ecb8007ce6248a915","625756f67b8018e08576e808","","","","","6169","key"," "," ","16.695777777777696","499.6997111483671","249.84985557418355","tilt","","","","","-7","-6","1"
"","psychophysics","75","631282","0.0-75.0","6129781ecb8007ce6248a915","625756f67b8018e08576e808","","","","","6844","key"," "," ","16.695863080684614","499.6997111483671","249.84985557418355","tilt","","","","","-4","0","1"
"","psychophysics","76","640390","0.0-76.0","6129781ecb8007ce6248a915","625756f67b8018e08576e808","","","","","9103","key"," "," ","16.695829357798083","499.6997111483671","249.84985557418355","tilt","","","","","-4","-6","0"
"","psychophysics","77","642830","0.0-77.0","6129781ecb8007ce6248a915","625756f67b8018e08576e808","","","","","2437","key"," "," ","16.695317241379286","499.6997111483671","249.84985557418355","inst","","","","","","",""
"","psychophysics","78","646382","0.0-78.0","6129781ecb8007ce6248a915","625756f67b8018e08576e808","","","","","3550","key"," "," ","16.695655660377597","499.6997111483671","249.84985557418355","instPz","","","","","50","50",""
"","psychophysics","79","666288","0.0-79.0","6129781ecb8007ce6248a915","625756f67b8018e08576e808","","","","","19895","key"," "," ","16.695804366078907","499.6997111483671","249.84985557418355","instPz","","","","","47","50",""
"","psychophysics","80","674373","0.0-80.0","6129781ecb8007ce6248a915","625756f67b8018e08576e808","","","","","8082","key"," "," ","16.695790890269233","499.6997111483671","249.84985557418355","instPz","","","","","30","30",""
"","psychophysics","81","693294","0.0-81.0","6129781ecb8007ce6248a915","625756f67b8018e08576e808","","","","","18917","key"," "," ","16.695818021201386","499.6997111483671","249.84985557418355","instPz","","","","","16","40",""
"","psychophysics","82","695219","0.0-82.0","6129781ecb8007ce6248a915","625756f67b8018e08576e808","","","","","1922","key"," "," ","16.695236842105118","499.6997111483671","249.84985557418355","inst","","","","","","",""
"","psychophysics","83","731321","0.0-83.0","6129781ecb8007ce6248a915","625756f67b8018e08576e808","","","","","36101","key"," "," ","16.69580249768736","499.6997111483671","249.84985557418355","pz","","","","","141","48",""
"","psychophysics","84","742214","0.0-84.0","6129781ecb8007ce6248a915","625756f67b8018e08576e808","","","","","10890","key"," "," ","16.695701996927806","499.6997111483671","249.84985557418355","pz","","","","","56","27",""
"","psychophysics","85","758352","0.0-85.0","6129781ecb8007ce6248a915","625756f67b8018e08576e808","","","","","16133","key"," "," ","16.695798136646026","499.6997111483671","249.84985557418355","pz","","","","","199","51",""
"","psychophysics","86","770504","0.0-86.0","6129781ecb8007ce6248a915","625756f67b8018e08576e808","","","","","12150","key"," "," ","16.69582668500693","499.6997111483671","249.84985557418355","pz","","","","","191","52",""
"","psychophysics","87","783706","0.0-87.0","6129781ecb8007ce6248a915","625756f67b8018e08576e808","","","","","13199","key"," "," ","16.69572658227842","499.6997111483671","249.84985557418355","pz","","","","","85","31",""
"","psychophysics","88","798451","0.0-88.0","6129781ecb8007ce6248a915","625756f67b8018e08576e808","","","","","14742","key"," "," ","16.695670068027216","499.6997111483671","249.84985557418355","pz","","","","","237","56",""
"","psychophysics","89","811237","0.0-89.0","6129781ecb8007ce6248a915","625756f67b8018e08576e808","","","","","12782","key"," "," ","16.695760471204323","499.6997111483671","249.84985557418355","pz","","","","","209","60",""
"","psychophysics","90","820269","0.0-90.0","6129781ecb8007ce6248a915","625756f67b8018e08576e808","","","","","9028","key"," "," ","16.69560185185185","499.6997111483671","249.84985557418355","pz","","","","","107","29",""
"","psychophysics","91","835321","0.0-91.0","6129781ecb8007ce6248a915","625756f67b8018e08576e808","","","","","15047","key"," "," ","16.695832408435017","499.6997111483671","249.84985557418355","pz","","","","","257","48",""
"","psychophysics","92","843705","0.0-92.0","6129781ecb8007ce6248a915","625756f67b8018e08576e808","","","","","8382","key"," "," ","16.696465069860288","499.6997111483671","249.84985557418355","pz","","","","","77","24",""
"","psychophysics","93","858919","0.0-93.0","6129781ecb8007ce6248a915","625756f67b8018e08576e808","","","","","15208","key"," "," ","16.69639626783756","499.6997111483671","249.84985557418355","pz","","","","","214","49",""
"","psychophysics","94","874549","0.0-94.0","6129781ecb8007ce6248a915","625756f67b8018e08576e808","","","","","15627","key"," "," ","16.69580534759356","499.6997111483671","249.84985557418355","pz","","","","","224","50",""
"","psychophysics","95","895933","0.0-95.0","6129781ecb8007ce6248a915","625756f67b8018e08576e808","","","","","21380","key"," "," ","16.695776387803004","499.6997111483671","249.84985557418355","pz","","","","","309","56",""
"","psychophysics","96","908223","0.0-96.0","6129781ecb8007ce6248a915","625756f67b8018e08576e808","","","","","12286","key"," "," ","16.6959320652174","499.6997111483671","249.84985557418355","pz","","","","","235","48",""
"","psychophysics","97","920820","0.0-97.0","6129781ecb8007ce6248a915","625756f67b8018e08576e808","","","","","12594","key"," "," ","16.6957091633467","499.6997111483671","249.84985557418355","pz","","","","","253","49",""
"","psychophysics","98","923770","0.0-98.0","6129781ecb8007ce6248a915","625756f67b8018e08576e808","","","","","2947","key"," "," ","16.69619886363613","499.6997111483671","249.84985557418355","inst","","","","","","",""
"","psychophysics","99","927506","0.0-99.0","6129781ecb8007ce6248a915","625756f67b8018e08576e808","","","","","3734","key"," "," ","16.695529147982075","499.6997111483671","249.84985557418355","inst","","","","","","",""
"","psychophysics","100","932807","0.0-100.0","6129781ecb8007ce6248a915","625756f67b8018e08576e808","","","","","5296","key"," "," ","16.695677215189605","499.6997111483671","249.84985557418355","instFlank","","","","","0.5","0.3","1"
"","psychophysics","101","938266","0.0-101.0","6129781ecb8007ce6248a915","625756f67b8018e08576e808","","","","","5457","key"," "," ","16.696377300613765","499.6997111483671","249.84985557418355","inst","","","","","","",""
"","psychophysics","102","947155","0.0-102.0","6129781ecb8007ce6248a915","625756f67b8018e08576e808","","","","","8884","key"," "," ","16.695789077212876","499.6997111483671","249.84985557418355","instFlank","","","","","0.3799999999999999","0.3","1"
"","psychophysics","103","956582","0.0-103.0","6129781ecb8007ce6248a915","625756f67b8018e08576e808","","","","","9420","key"," "," ","16.695741134751852","499.6997111483671","249.84985557418355","inst","","","","","","",""
"","psychophysics","104","963621","0.0-104.0","6129781ecb8007ce6248a915","625756f67b8018e08576e808","","","","","7034","key"," "," ","16.695711904761957","499.6997111483671","249.84985557418355","instFlank","","","","","0.4099999999999999","0.3","0"
"","psychophysics","105","965636","0.0-105.0","6129781ecb8007ce6248a915","625756f67b8018e08576e808","","","","","2012","key"," "," ","16.695241666666696","499.6997111483671","249.84985557418355","inst","","","","","","",""
"","psychophysics","106","971502","0.0-106.0","6129781ecb8007ce6248a915","625756f67b8018e08576e808","","","","","5859","key"," "," ","16.695922857142786","499.6997111483671","249.84985557418355","flank","","","","","0.4099999999999999","0.42","1"
"","psychophysics","107","976628","0.0-107.0","6129781ecb8007ce6248a915","625756f67b8018e08576e808","","","","","5122","key"," "," ","16.695641693811186","499.6997111483671","249.84985557418355","flank","","","","","0.56","0.44","0"
"","psychophysics","108","981057","0.0-108.0","6129781ecb8007ce6248a915","625756f67b8018e08576e808","","","","","4425","key"," "," ","16.6953750000001","499.6997111483671","249.84985557418355","flank","","","","","0.47","0.36","0"
"","psychophysics","109","985747","0.0-109.0","6129781ecb8007ce6248a915","625756f67b8018e08576e808","","","","","4686","key"," "," ","16.69584642857122","499.6997111483671","249.84985557418355","flank","","","","","0.56","0.44","0"
"","psychophysics","110","991453","0.0-110.0","6129781ecb8007ce6248a915","625756f67b8018e08576e808","","","","","5702","key"," "," ","16.694571847507124","499.6997111483671","249.84985557418355","flank","","","","","0.6800000000000002","0.56","0"
"","psychophysics","111","997422","0.0-111.0","6129781ecb8007ce6248a915","625756f67b8018e08576e808","","","","","5966","key"," "," ","16.696334269662973","499.6997111483671","249.84985557418355","flank","","","","","0.7700000000000002","0.66","0"
"","psychophysics","112","1005856","0.0-112.0","6129781ecb8007ce6248a915","625756f67b8018e08576e808","","","","","8431","key"," "," ","16.694942460317556","499.6997111483671","249.84985557418355","flank","","","","","0.1399999999999998","0.24","1"
"","psychophysics","113","1012628","0.0-113.0","6129781ecb8007ce6248a915","625756f67b8018e08576e808","","","","","6766","key"," "," ","16.695738271604878","499.6997111483671","249.84985557418355","flank","","","","","0.7400000000000002","0.62","0"
"","psychophysics","114","1019350","0.0-114.0","6129781ecb8007ce6248a915","625756f67b8018e08576e808","","","","","6715","key"," "," ","16.695802992518686","499.6997111483671","249.84985557418355","flank","","","","","0.8600000000000003","0.72","1"
"","psychophysics","115","1027779","0.0-115.0","6129781ecb8007ce6248a915","625756f67b8018e08576e808","","","","","8424","key"," "," ","16.69596031746025","499.6997111483671","249.84985557418355","flank","","","","","0.8900000000000003","0.8","0"
"","psychophysics","116","1033680","0.0-116.0","6129781ecb8007ce6248a915","625756f67b8018e08576e808","","","","","5896","key"," "," ","16.696070821530043","499.6997111483671","249.84985557418355","flank","","","","","0.56","0.52","1"
"","psychophysics","117","1039780","0.0-117.0","6129781ecb8007ce6248a915","625756f67b8018e08576e808","","","","","6096","key"," "," ","16.695810439560503","499.6997111483671","249.84985557418355","flank","","","","","0.8300000000000003","0.74","0"
"","psychophysics","118","1045862","0.0-118.0","6129781ecb8007ce6248a915","625756f67b8018e08576e808","","","","","6077","key"," "," ","16.695289256198386","499.6997111483671","249.84985557418355","flank","","","","","0.7700000000000002","0.68","1"
"","psychophysics","119","1051335","0.0-119.0","6129781ecb8007ce6248a915","625756f67b8018e08576e808","","","","","5466","key"," "," ","16.696079510703417","499.6997111483671","249.84985557418355","flank","","","","","0.4099999999999999","0.26","0"
"","psychophysics","120","1056284","0.0-120.0","6129781ecb8007ce6248a915","625756f67b8018e08576e808","","","","","4945","key"," "," ","16.695864406779755","499.6997111483671","249.84985557418355","flank","","","","","0.7100000000000002","0.64","0"
"","psychophysics","121","1061861","0.0-121.0","6129781ecb8007ce6248a915","625756f67b8018e08576e808","","","","","5572","key"," "," ","16.695395209580454","499.6997111483671","249.84985557418355","flank","","","","","0.6500000000000001","0.56","1"
"","psychophysics","122","1066487","0.0-122.0","6129781ecb8007ce6248a915","625756f67b8018e08576e808","","","","","4622","key"," "," ","16.69585507246328","499.6997111483671","249.84985557418355","flank","","","","","0.34999999999999987","0.2","0"
"","psychophysics","123","1071800","0.0-123.0","6129781ecb8007ce6248a915","625756f67b8018e08576e808","","","","","5310","key"," "," ","16.69584858044174","499.6997111483671","249.84985557418355","flank","","","","","0.47","0.42","0"
"","psychophysics","124","1078810","0.0-124.0","6129781ecb8007ce6248a915","625756f67b8018e08576e808","","","","","7010","key"," "," ","16.695668257756807","499.6997111483671","249.84985557418355","flank","","","","","0.8300000000000003","0.72","1"
"","psychophysics","125","1083063","0.0-125.0","6129781ecb8007ce6248a915","625756f67b8018e08576e808","","","","","4249","key"," "," ","16.695622047244417","499.6997111483671","249.84985557418355","flank","","","","","0.5900000000000001","0.56","1"
"","psychophysics","126","1089101","0.0-126.0","6129781ecb8007ce6248a915","625756f67b8018e08576e808","","","","","6035","key"," "," ","16.69518055555592","499.6997111483671","249.84985557418355","flank","","","","","0.8600000000000003","0.8","1"
"","psychophysics","127","1093232","0.0-127.0","6129781ecb8007ce6248a915","625756f67b8018e08576e808","","","","","4125","key"," "," ","16.69604858299642","499.6997111483671","249.84985557418355","flank","","","","","0.53","0.36","0"
"","psychophysics","128","1099360","0.0-128.0","6129781ecb8007ce6248a915","625756f67b8018e08576e808","","","","","6125","key"," "," ","16.69562295081967","499.6997111483671","249.84985557418355","flank","","","","","0.2599999999999998","0.22","1"
"","psychophysics","129","1104443","0.0-129.0","6129781ecb8007ce6248a915","625756f67b8018e08576e808","","","","","5079","key"," "," ","16.695323432343873","499.6997111483671","249.84985557418355","flank","","","","","0.56","0.36","0"
"","psychophysics","130","1108745","0.0-130.0","6129781ecb8007ce6248a915","625756f67b8018e08576e808","","","","","4297","key"," "," ","16.696171206225557","499.6997111483671","249.84985557418355","flank","","","","","0.53","0.44","1"
"","psychophysics","131","1113491","0.0-131.0","6129781ecb8007ce6248a915","625756f67b8018e08576e808","","","","","4742","key"," "," ","16.69576325088282","499.6997111483671","249.84985557418355","flank","","","","","0.31999999999999984","0.24","1"
"","psychophysics","132","1119114","0.0-132.0","6129781ecb8007ce6248a915","625756f67b8018e08576e808","","","","","5618","key"," "," ","16.69607738095233","499.6997111483671","249.84985557418355","flank","","","","","0.7700000000000002","0.72","0"
"","psychophysics","133","1124194","0.0-133.0","6129781ecb8007ce6248a915","625756f67b8018e08576e808","","","","","5076","key"," "," ","16.696108910890615","499.6997111483671","249.84985557418355","flank","","","","","0.31999999999999984","0.26","1"
"","psychophysics","134","1129302","0.0-134.0","6129781ecb8007ce6248a915","625756f67b8018e08576e808","","","","","5102","key"," "," ","16.69610163934422","499.6997111483671","249.84985557418355","flank","","","","","0.2899999999999998","0.3","1"
"","psychophysics","135","1135775","0.0-135.0","6129781ecb8007ce6248a915","625756f67b8018e08576e808","","","","","6465","key"," "," ","16.695881136950558","499.6997111483671","249.84985557418355","flank","","","","","0.1699999999999998","0.22","1"
"true","fullscreen","136","1135778","0.0-136.0","6129781ecb8007ce6248a915","625756f67b8018e08576e808","","","","","","","","","","","","","","","","","","",""
