"success","trial_type","trial_index","time_elapsed","internal_node_id","pid","sid","timeout","failed_images","failed_audio","failed_video","rt","response_type","key_press","response","avg_frame_time","center_x","center_y","task","ml_len","ml_start","ml_x","ml_y","resp","targ","back"
"true","fullscreen","0","3482","0.0-0.0","5e6e47d4bd8f7d3f6b956611","62574fc839070e64553d0408","","","","","","","","","","","","","","","","","","",""
"true","preload","1","3487","0.0-1.0","5e6e47d4bd8f7d3f6b956611","62574fc839070e64553d0408","false","[]","[]","[]","","","","","","","","","","","","","","",""
"","psychophysics","2","7602","0.0-2.0","5e6e47d4bd8f7d3f6b956611","62574fc839070e64553d0408","","","","","4076","key"," "," ","16.80858775510204","500","250","inst","","","","","","",""
"","psychophysics","3","9230","0.0-3.0","5e6e47d4bd8f7d3f6b956611","62574fc839070e64553d0408","","","","","1623","key"," "," ","16.671958762886593","500","250","inst","","","","","","",""
"","psychophysics","4","23502","0.0-4.0","5e6e47d4bd8f7d3f6b956611","62574fc839070e64553d0408","","","","","14267","key"," "," ","16.671893567251463","500","250","instMl","182","-30.333333333333332","-6","-8","-17.333333333333314","",""
"","psychophysics","5","30109","0.0-5.0","5e6e47d4bd8f7d3f6b956611","62574fc839070e64553d0408","","","","","6603","key"," "," ","16.67190632911392","500","250","instMl","238","-39.666666666666664","25","-11","-19.666666666666742","",""
"","psychophysics","6","32277","0.0-6.0","5e6e47d4bd8f7d3f6b956611","62574fc839070e64553d0408","","","","","2165","key"," "," ","16.671945736434083","500","250","inst","","","","","","",""
"","psychophysics","7","35735","0.0-7.0","5e6e47d4bd8f7d3f6b956611","62574fc839070e64553d0408","","","","","3452","key"," "," ","16.672043689320382","500","250","ml","162","-20","15","-19","-19","",""
"","psychophysics","8","38165","0.0-8.0","5e6e47d4bd8f7d3f6b956611","62574fc839070e64553d0408","","","","","2425","key"," "," ","16.67220689655173","500","250","ml","220","-6","-28","27","-13","",""
"","psychophysics","9","46326","0.0-9.0","5e6e47d4bd8f7d3f6b956611","62574fc839070e64553d0408","","","","","8153","key"," "," ","16.6719836400818","500","250","ml","208","-36","16","-16","-15","",""
"","psychophysics","10","51109","0.0-10.0","5e6e47d4bd8f7d3f6b956611","62574fc839070e64553d0408","","","","","4779","key"," "," ","16.671979020979002","500","250","ml","178","0","16","14","-14","",""
"","psychophysics","11","59975","0.0-11.0","5e6e47d4bd8f7d3f6b956611","62574fc839070e64553d0408","","","","","8840","key"," "," ","16.672016981132064","500","250","ml","212","-48","-4","11","-15","",""
"","psychophysics","12","61997","0.0-12.0","5e6e47d4bd8f7d3f6b956611","62574fc839070e64553d0408","","","","","2016","key"," "," ","16.67141322314045","500","250","ml","212","-2","-19","28","-11","",""
"","psychophysics","13","67220","0.0-13.0","5e6e47d4bd8f7d3f6b956611","62574fc839070e64553d0408","","","","","5219","key"," "," ","16.72500964630226","500","250","ml","248","60","9","4","-17","",""
"","psychophysics","14","74782","0.0-14.0","5e6e47d4bd8f7d3f6b956611","62574fc839070e64553d0408","","","","","7559","key"," "," ","16.708845132743367","500","250","ml","194","-48","21","-19","-15","",""
"","psychophysics","15","80477","0.0-15.0","5e6e47d4bd8f7d3f6b956611","62574fc839070e64553d0408","","","","","5692","key"," "," ","16.671838235294125","500","250","ml","150","6","9","16","-15","",""
"","psychophysics","16","86173","0.0-16.0","5e6e47d4bd8f7d3f6b956611","62574fc839070e64553d0408","","","","","5688","key"," "," ","16.67208211143697","500","250","ml","172","-36","16","-5","-16","",""
"","psychophysics","17","89844","0.0-17.0","5e6e47d4bd8f7d3f6b956611","62574fc839070e64553d0408","","","","","3668","key"," "," ","16.67183105022828","500","250","ml","192","0","-8","-8","-15","",""
"","psychophysics","18","96964","0.0-18.0","5e6e47d4bd8f7d3f6b956611","62574fc839070e64553d0408","","","","","7111","key"," "," ","16.672049295774627","500","250","ml","232","48","10","-23","-15","",""
"","psychophysics","19","102691","0.0-19.0","5e6e47d4bd8f7d3f6b956611","62574fc839070e64553d0408","","","","","5720","key"," "," ","16.720318713450297","500","250","ml","200","32","-23","-14","-10","",""
"","psychophysics","20","105140","0.0-20.0","5e6e47d4bd8f7d3f6b956611","62574fc839070e64553d0408","","","","","2447","key"," "," ","16.67277397260278","500","250","ml","228","-18","-26","20","-19","",""
"","psychophysics","21","110508","0.0-21.0","5e6e47d4bd8f7d3f6b956611","62574fc839070e64553d0408","","","","","5364","key"," "," ","16.67165420560746","500","250","ml","246","2","29","-10","-16","",""
"","psychophysics","22","111991","0.0-22.0","5e6e47d4bd8f7d3f6b956611","62574fc839070e64553d0408","","","","","1479","key"," "," ","16.672137931034428","500","250","inst","","","","","","",""
"","psychophysics","23","122564","0.0-23.0","5e6e47d4bd8f7d3f6b956611","62574fc839070e64553d0408","","","","","10567","key"," "," ","16.69802685624012","500","250","instPog","","","","","130","130",""
"","psychophysics","24","132060","0.0-24.0","5e6e47d4bd8f7d3f6b956611","62574fc839070e64553d0408","","","","","9492","key"," "," ","16.671806338028162","500","250","instPog","","","","","144","130",""
"","psychophysics","25","140317","0.0-25.0","5e6e47d4bd8f7d3f6b956611","62574fc839070e64553d0408","","","","","8250","key"," "," ","16.671969696969697","500","250","instPog","","","","","159","130",""
"","psychophysics","26","143230","0.0-26.0","5e6e47d4bd8f7d3f6b956611","62574fc839070e64553d0408","","","","","2910","key"," "," ","16.671774566474014","500","250","inst","","","","","","",""
"","psychophysics","27","147364","0.0-27.0","5e6e47d4bd8f7d3f6b956611","62574fc839070e64553d0408","","","","","4127","key"," "," ","16.67189878542511","500","250","pog","","","","","154","120",""
"","psychophysics","28","155260","0.0-28.0","5e6e47d4bd8f7d3f6b956611","62574fc839070e64553d0408","","","","","7889","key"," "," ","16.671991543340408","500","250","pog","","","","","221","197",""
"","psychophysics","29","157700","0.0-29.0","5e6e47d4bd8f7d3f6b956611","62574fc839070e64553d0408","","","","","2436","key"," "," ","16.671613793103585","500","250","pog","","","","","159","134",""
"","psychophysics","30","167884","0.0-30.0","5e6e47d4bd8f7d3f6b956611","62574fc839070e64553d0408","","","","","10178","key"," "," ","16.67194918032786","500","250","pog","","","","","182","167",""
"","psychophysics","31","175948","0.0-31.0","5e6e47d4bd8f7d3f6b956611","62574fc839070e64553d0408","","","","","8060","key"," "," ","16.671828157349932","500","250","pog","","","","","225","200",""
"","psychophysics","32","184204","0.0-32.0","5e6e47d4bd8f7d3f6b956611","62574fc839070e64553d0408","","","","","8253","key"," "," ","16.671852226720627","500","250","pog","","","","","182","163",""
"","psychophysics","33","194540","0.0-33.0","5e6e47d4bd8f7d3f6b956611","62574fc839070e64553d0408","","","","","10333","key"," "," ","16.67188045234249","500","250","pog","","","","","170","145",""
"","psychophysics","34","206076","0.0-34.0","5e6e47d4bd8f7d3f6b956611","62574fc839070e64553d0408","","","","","11533","key"," "," ","16.67194066570186","500","250","pog","","","","","187","166",""
"","psychophysics","35","211117","0.0-35.0","5e6e47d4bd8f7d3f6b956611","62574fc839070e64553d0408","","","","","5039","key"," "," ","16.672325581395334","500","250","pog","","","","","224","190",""
"","psychophysics","36","213683","0.0-36.0","5e6e47d4bd8f7d3f6b956611","62574fc839070e64553d0408","","","","","2560","key"," "," ","16.67211764705884","500","250","pog","","","","","146","128",""
"","psychophysics","37","218291","0.0-37.0","5e6e47d4bd8f7d3f6b956611","62574fc839070e64553d0408","","","","","4600","key"," "," ","16.671956521739208","500","250","pog","","","","","206","186",""
"","psychophysics","38","223731","0.0-38.0","5e6e47d4bd8f7d3f6b956611","62574fc839070e64553d0408","","","","","5437","key"," "," ","16.67191692307699","500","250","pog","","","","","177","155",""
"","psychophysics","39","224876","0.0-39.0","5e6e47d4bd8f7d3f6b956611","62574fc839070e64553d0408","","","","","1142","key"," "," ","16.672397058823503","500","250","pog","","","","","160","133",""
"","psychophysics","40","232403","0.0-40.0","5e6e47d4bd8f7d3f6b956611","62574fc839070e64553d0408","","","","","7525","key"," "," ","16.672004444444447","500","250","pog","","","","","199","172",""
"","psychophysics","41","234451","0.0-41.0","5e6e47d4bd8f7d3f6b956611","62574fc839070e64553d0408","","","","","2045","key"," "," ","16.672083333333283","500","250","pog","","","","","160","138",""
"","psychophysics","42","235939","0.0-42.0","5e6e47d4bd8f7d3f6b956611","62574fc839070e64553d0408","","","","","1475","key"," "," ","16.860235955056034","500","250","inst","","","","","","",""
"","psychophysics","43","239315","0.0-43.0","5e6e47d4bd8f7d3f6b956611","62574fc839070e64553d0408","","","","","3366","key"," "," ","16.755134328358242","500","250","instTilt","","","","","NaN","0","0"
"","psychophysics","44","241675","0.0-44.0","5e6e47d4bd8f7d3f6b956611","62574fc839070e64553d0408","","","","","2356","key"," "," ","16.671714285714135","500","250","instTilt","","","","","0","0","0"
"","psychophysics","45","252291","0.0-45.0","5e6e47d4bd8f7d3f6b956611","62574fc839070e64553d0408","","","","","10608","key"," "," ","16.671927672956006","500","250","instTilt","","","","","0","0","0"
"","psychophysics","46","254443","0.0-46.0","5e6e47d4bd8f7d3f6b956611","62574fc839070e64553d0408","","","","","2149","key"," "," ","16.67184374999988","500","250","inst","","","","","","",""
"","psychophysics","47","259010","0.0-47.0","5e6e47d4bd8f7d3f6b956611","62574fc839070e64553d0408","","","","","4564","key"," "," ","16.671571428571454","500","250","tilt","","","","","-6","-2","0"
"","psychophysics","48","263772","0.0-48.0","5e6e47d4bd8f7d3f6b956611","62574fc839070e64553d0408","","","","","4759","key"," "," ","16.672375438596518","500","250","tilt","","","","","-9","-5","1"
"","psychophysics","49","266693","0.0-49.0","5e6e47d4bd8f7d3f6b956611","62574fc839070e64553d0408","","","","","2918","key"," "," ","16.671804597701318","500","250","tilt","","","","","-8","-1","1"
"","psychophysics","50","267939","0.0-50.0","5e6e47d4bd8f7d3f6b956611","62574fc839070e64553d0408","","","","","1242","key"," "," ","16.67294594594608","500","250","tilt","","","","","0","-1","0"
"","psychophysics","51","272235","0.0-51.0","5e6e47d4bd8f7d3f6b956611","62574fc839070e64553d0408","","","","","4293","key"," "," ","16.671800781250113","500","250","tilt","","","","","-13","-9","1"
"","psychophysics","52","275314","0.0-52.0","5e6e47d4bd8f7d3f6b956611","62574fc839070e64553d0408","","","","","3072","key"," "," ","16.671722826087006","500","250","tilt","","","","","2","5","1"
"","psychophysics","53","276610","0.0-53.0","5e6e47d4bd8f7d3f6b956611","62574fc839070e64553d0408","","","","","1292","key"," "," ","16.671103896103745","500","250","tilt","","","","","0","3","1"
"","psychophysics","54","282394","0.0-54.0","5e6e47d4bd8f7d3f6b956611","62574fc839070e64553d0408","","","","","5781","key"," "," ","16.671797687861385","500","250","tilt","","","","","-12","-5","0"
"","psychophysics","55","290963","0.0-55.0","5e6e47d4bd8f7d3f6b956611","62574fc839070e64553d0408","","","","","8565","key"," "," ","16.67197465886939","500","250","tilt","","","","","-8","-6","0"
"","psychophysics","56","293666","0.0-56.0","5e6e47d4bd8f7d3f6b956611","62574fc839070e64553d0408","","","","","2700","key"," "," ","16.671397515527776","500","250","tilt","","","","","13","8","0"
"","psychophysics","57","296258","0.0-57.0","5e6e47d4bd8f7d3f6b956611","62574fc839070e64553d0408","","","","","2589","key"," "," ","16.671753246753322","500","250","tilt","","","","","-1","-5","0"
"","psychophysics","58","298490","0.0-58.0","5e6e47d4bd8f7d3f6b956611","62574fc839070e64553d0408","","","","","2224","key"," "," ","16.672045112781827","500","250","tilt","","","","","-13","-6","1"
"","psychophysics","59","300970","0.0-59.0","5e6e47d4bd8f7d3f6b956611","62574fc839070e64553d0408","","","","","2477","key"," "," ","16.785591836734817","500","250","tilt","","","","","-12","-6","1"
"","psychophysics","60","302133","0.0-60.0","5e6e47d4bd8f7d3f6b956611","62574fc839070e64553d0408","","","","","1158","key"," "," ","16.673231884057675","500","250","tilt","","","","","0","-6","0"
"","psychophysics","61","303178","0.0-61.0","5e6e47d4bd8f7d3f6b956611","62574fc839070e64553d0408","","","","","1042","key"," "," ","16.672295081967366","500","250","tilt","","","","","0","5","1"
"","psychophysics","62","303810","0.0-62.0","5e6e47d4bd8f7d3f6b956611","62574fc839070e64553d0408","","","","","625","key"," "," ","16.674243243242852","500","250","tilt","","","","","0","-1","1"
"","psychophysics","63","306635","0.0-63.0","5e6e47d4bd8f7d3f6b956611","62574fc839070e64553d0408","","","","","2817","key"," "," ","16.67193491124278","500","250","tilt","","","","","3","4","1"
"","psychophysics","64","312436","0.0-64.0","5e6e47d4bd8f7d3f6b956611","62574fc839070e64553d0408","","","","","5798","key"," "," ","16.719971098265855","500","250","tilt","","","","","-10","-10","0"
"","psychophysics","65","313538","0.0-65.0","5e6e47d4bd8f7d3f6b956611","62574fc839070e64553d0408","","","","","1099","key"," "," ","16.671523076922703","500","250","tilt","","","","","0","5","1"
"","psychophysics","66","316106","0.0-66.0","5e6e47d4bd8f7d3f6b956611","62574fc839070e64553d0408","","","","","2565","key"," "," ","16.672215686274427","500","250","tilt","","","","","-19","-9","1"
"","psychophysics","67","318882","0.0-67.0","5e6e47d4bd8f7d3f6b956611","62574fc839070e64553d0408","","","","","2772","key"," "," ","16.6720484848487","500","250","tilt","","","","","8","3","0"
"","psychophysics","68","322107","0.0-68.0","5e6e47d4bd8f7d3f6b956611","62574fc839070e64553d0408","","","","","3217","key"," "," ","16.672150259067237","500","250","tilt","","","","","8","4","0"
"","psychophysics","69","325874","0.0-69.0","5e6e47d4bd8f7d3f6b956611","62574fc839070e64553d0408","","","","","3764","key"," "," ","16.67160888888873","500","250","tilt","","","","","-9","-3","1"
"","psychophysics","70","328194","0.0-70.0","5e6e47d4bd8f7d3f6b956611","62574fc839070e64553d0408","","","","","2316","key"," "," ","16.672369565217473","500","250","tilt","","","","","-13","-10","0"
"","psychophysics","71","329170","0.0-71.0","5e6e47d4bd8f7d3f6b956611","62574fc839070e64553d0408","","","","","972","key"," "," ","16.67364912280678","500","250","tilt","","","","","0","-1","0"
"","psychophysics","72","332986","0.0-72.0","5e6e47d4bd8f7d3f6b956611","62574fc839070e64553d0408","","","","","3809","key"," "," ","16.672140350877033","500","250","tilt","","","","","-4","-6","0"
"","psychophysics","73","333946","0.0-73.0","5e6e47d4bd8f7d3f6b956611","62574fc839070e64553d0408","","","","","953","key"," "," ","16.673350877192878","500","250","tilt","","","","","0","-3","1"
"","psychophysics","74","335411","0.0-74.0","5e6e47d4bd8f7d3f6b956611","62574fc839070e64553d0408","","","","","1461","key"," "," ","16.67164367816047","500","250","tilt","","","","","0","-7","0"
"","psychophysics","75","337754","0.0-75.0","5e6e47d4bd8f7d3f6b956611","62574fc839070e64553d0408","","","","","2340","key"," "," ","16.672230215827355","500","250","tilt","","","","","6","3","1"
"","psychophysics","76","339795","0.0-76.0","5e6e47d4bd8f7d3f6b956611","62574fc839070e64553d0408","","","","","2033","key"," "," ","16.672368852458856","500","250","tilt","","","","","-20","-6","1"
"","psychophysics","77","340997","0.0-77.0","5e6e47d4bd8f7d3f6b956611","62574fc839070e64553d0408","","","","","1199","key"," "," ","16.670394366197158","500","250","inst","","","","","","",""
"","psychophysics","78","342834","0.0-78.0","5e6e47d4bd8f7d3f6b956611","62574fc839070e64553d0408","","","","","1834","key"," "," ","16.672385321100727","500","250","instPz","","","","","50","50",""
"","psychophysics","79","351876","0.0-79.0","5e6e47d4bd8f7d3f6b956611","62574fc839070e64553d0408","","","","","9038","key"," "," ","16.671857670979623","500","250","instPz","","","","","59","50",""
"","psychophysics","80","355370","0.0-80.0","5e6e47d4bd8f7d3f6b956611","62574fc839070e64553d0408","","","","","3488","key"," "," ","16.67167942583729","500","250","instPz","","","","","35","30",""
"","psychophysics","81","363884","0.0-81.0","5e6e47d4bd8f7d3f6b956611","62574fc839070e64553d0408","","","","","8510","key"," "," ","16.672017681728825","500","250","instPz","","","","","54","40",""
"","psychophysics","82","366082","0.0-82.0","5e6e47d4bd8f7d3f6b956611","62574fc839070e64553d0408","","","","","2192","key"," "," ","16.66931297709918","500","250","inst","","","","","","",""
"","psychophysics","83","373666","0.0-83.0","5e6e47d4bd8f7d3f6b956611","62574fc839070e64553d0408","","","","","7581","key"," "," ","16.672140969163","500","250","pz","","","","","48","28",""
"","psychophysics","84","379772","0.0-84.0","5e6e47d4bd8f7d3f6b956611","62574fc839070e64553d0408","","","","","6098","key"," "," ","16.67211506849311","500","250","pz","","","","","69","47",""
"","psychophysics","85","384595","0.0-85.0","5e6e47d4bd8f7d3f6b956611","62574fc839070e64553d0408","","","","","4802","key"," "," ","16.671692041522512","500","250","pz","","","","","64","54",""
"","psychophysics","86","389866","0.0-86.0","5e6e47d4bd8f7d3f6b956611","62574fc839070e64553d0408","","","","","5267","key"," "," ","16.67181269841265","500","250","pz","","","","","75","48",""
"","psychophysics","87","394043","0.0-87.0","5e6e47d4bd8f7d3f6b956611","62574fc839070e64553d0408","","","","","4174","key"," "," ","16.671672000000022","500","250","pz","","","","","68","57",""
"","psychophysics","88","398412","0.0-88.0","5e6e47d4bd8f7d3f6b956611","62574fc839070e64553d0408","","","","","4367","key"," "," ","16.672681992337193","500","250","pz","","","","","38","23",""
"","psychophysics","89","401876","0.0-89.0","5e6e47d4bd8f7d3f6b956611","62574fc839070e64553d0408","","","","","3460","key"," "," ","16.67152912621341","500","250","pz","","","","","64","38",""
"","psychophysics","90","404842","0.0-90.0","5e6e47d4bd8f7d3f6b956611","62574fc839070e64553d0408","","","","","2958","key"," "," ","16.671141242937942","500","250","pz","","","","","45","25",""
"","psychophysics","91","410178","0.0-91.0","5e6e47d4bd8f7d3f6b956611","62574fc839070e64553d0408","","","","","5329","key"," "," ","16.671915360501615","500","250","pz","","","","","72","47",""
"","psychophysics","92","412849","0.0-92.0","5e6e47d4bd8f7d3f6b956611","62574fc839070e64553d0408","","","","","2663","key"," "," ","16.672259493670545","500","250","pz","","","","","60","43",""
"","psychophysics","93","416035","0.0-93.0","5e6e47d4bd8f7d3f6b956611","62574fc839070e64553d0408","","","","","3177","key"," "," ","16.672359374999967","500","250","pz","","","","","67","49",""
"","psychophysics","94","419986","0.0-94.0","5e6e47d4bd8f7d3f6b956611","62574fc839070e64553d0408","","","","","3947","key"," "," ","16.74282978723405","500","250","pz","","","","","67","41",""
"","psychophysics","95","424754","0.0-95.0","5e6e47d4bd8f7d3f6b956611","62574fc839070e64553d0408","","","","","4764","key"," "," ","16.671736842105286","500","250","pz","","","","","74","42",""
"","psychophysics","96","429138","0.0-96.0","5e6e47d4bd8f7d3f6b956611","62574fc839070e64553d0408","","","","","4381","key"," "," ","16.671648854961866","500","250","pz","","","","","85","58",""
"","psychophysics","97","433370","0.0-97.0","5e6e47d4bd8f7d3f6b956611","62574fc839070e64553d0408","","","","","4228","key"," "," ","16.672115079365163","500","250","pz","","","","","43","28",""
"","psychophysics","98","434674","0.0-98.0","5e6e47d4bd8f7d3f6b956611","62574fc839070e64553d0408","","","","","1298","key"," "," ","16.671910256410065","500","250","inst","","","","","","",""
"","psychophysics","99","436250","0.0-99.0","5e6e47d4bd8f7d3f6b956611","62574fc839070e64553d0408","","","","","1573","key"," "," ","16.67048387096754","500","250","inst","","","","","","",""
"","psychophysics","100","437746","0.0-100.0","5e6e47d4bd8f7d3f6b956611","62574fc839070e64553d0408","","","","","1485","key"," "," ","16.672584269662764","500","250","instFlank","","","","","0.5","0.3","1"
"","psychophysics","101","441762","0.0-101.0","5e6e47d4bd8f7d3f6b956611","62574fc839070e64553d0408","","","","","4013","key"," "," ","16.671816666666565","500","250","inst","","","","","","",""
"","psychophysics","102","444964","0.0-102.0","5e6e47d4bd8f7d3f6b956611","62574fc839070e64553d0408","","","","","3197","key"," "," ","16.75966842105263","500","250","instFlank","","","","","0.5","0.3","1"
"","psychophysics","103","447802","0.0-103.0","5e6e47d4bd8f7d3f6b956611","62574fc839070e64553d0408","","","","","2835","key"," "," ","16.671781065088858","500","250","inst","","","","","","",""
"","psychophysics","104","451705","0.0-104.0","5e6e47d4bd8f7d3f6b956611","62574fc839070e64553d0408","","","","","3895","key"," "," ","16.743952586206934","500","250","instFlank","","","","","0.5","0.3","0"
"","psychophysics","105","454810","0.0-105.0","5e6e47d4bd8f7d3f6b956611","62574fc839070e64553d0408","","","","","3098","key"," "," ","16.672005405405386","500","250","inst","","","","","","",""
"","psychophysics","106","457899","0.0-106.0","5e6e47d4bd8f7d3f6b956611","62574fc839070e64553d0408","","","","","3082","key"," "," ","16.671486486486362","500","250","flank","","","","","0.5","0.68","0"
"","psychophysics","107","462297","0.0-107.0","5e6e47d4bd8f7d3f6b956611","62574fc839070e64553d0408","","","","","4392","key"," "," ","16.671897338403163","500","250","flank","","","","","0.53","0.48","1"
"","psychophysics","108","467369","0.0-108.0","5e6e47d4bd8f7d3f6b956611","62574fc839070e64553d0408","","","","","5067","key"," "," ","16.672102310231015","500","250","flank","","","","","0.7700000000000002","0.36","0"
"","psychophysics","109","470329","0.0-109.0","5e6e47d4bd8f7d3f6b956611","62574fc839070e64553d0408","","","","","2954","key"," "," ","16.672346590909","500","250","flank","","","","","0.56","0.56","0"
"","psychophysics","110","474305","0.0-110.0","5e6e47d4bd8f7d3f6b956611","62574fc839070e64553d0408","","","","","3969","key"," "," ","16.67210504201685","500","250","flank","","","","","0.53","0.5","0"
"","psychophysics","111","476802","0.0-111.0","5e6e47d4bd8f7d3f6b956611","62574fc839070e64553d0408","","","","","2491","key"," "," ","16.671771812080422","500","250","flank","","","","","0.5","0.4","1"
"","psychophysics","112","480089","0.0-112.0","5e6e47d4bd8f7d3f6b956611","62574fc839070e64553d0408","","","","","3281","key"," "," ","16.757092307692165","500","250","flank","","","","","0.7100000000000002","0.58","0"
"","psychophysics","113","483008","0.0-113.0","5e6e47d4bd8f7d3f6b956611","62574fc839070e64553d0408","","","","","2914","key"," "," ","16.671988505747","500","250","flank","","","","","0.7700000000000002","0.64","1"
"","psychophysics","114","488513","0.0-114.0","5e6e47d4bd8f7d3f6b956611","62574fc839070e64553d0408","","","","","5502","key"," "," ","16.67211854103337","500","250","flank","","","","","0.53","0.26","0"
"","psychophysics","115","495513","0.0-115.0","5e6e47d4bd8f7d3f6b956611","62574fc839070e64553d0408","","","","","6995","key"," "," ","16.671823389021494","500","250","flank","","","","","0.5","0.78","1"
"","psychophysics","116","497681","0.0-116.0","5e6e47d4bd8f7d3f6b956611","62574fc839070e64553d0408","","","","","2163","key"," "," ","16.67179844961249","500","250","flank","","","","","0.5","0.4","0"
"","psychophysics","117","500001","0.0-117.0","5e6e47d4bd8f7d3f6b956611","62574fc839070e64553d0408","","","","","2315","key"," "," ","16.671818840579785","500","250","flank","","","","","0.5","0.2","0"
"","psychophysics","118","503164","0.0-118.0","5e6e47d4bd8f7d3f6b956611","62574fc839070e64553d0408","","","","","3158","key"," "," ","16.671920634920724","500","250","flank","","","","","0.5","0.22","1"
"","psychophysics","119","506545","0.0-119.0","5e6e47d4bd8f7d3f6b956611","62574fc839070e64553d0408","","","","","3376","key"," "," ","16.671891089108954","500","250","flank","","","","","0.5","0.54","0"
"","psychophysics","120","508520","0.0-120.0","5e6e47d4bd8f7d3f6b956611","62574fc839070e64553d0408","","","","","1970","key"," "," ","16.671940170940406","500","250","flank","","","","","0.5","0.58","0"
"","psychophysics","121","515752","0.0-121.0","5e6e47d4bd8f7d3f6b956611","62574fc839070e64553d0408","","","","","7224","key"," "," ","16.671988452655935","500","250","flank","","","","","0.5","0.8","0"
"","psychophysics","122","517681","0.0-122.0","5e6e47d4bd8f7d3f6b956611","62574fc839070e64553d0408","","","","","1923","key"," "," ","16.671878260869594","500","250","flank","","","","","0.5","0.54","1"
"","psychophysics","123","526752","0.0-123.0","5e6e47d4bd8f7d3f6b956611","62574fc839070e64553d0408","","","","","9066","key"," "," ","16.671725598526656","500","250","flank","","","","","0.6000000000000003","0.56","1"
"","psychophysics","124","529176","0.0-124.0","5e6e47d4bd8f7d3f6b956611","62574fc839070e64553d0408","","","","","2419","key"," "," ","16.672375000000304","500","250","flank","","","","","0.53","0.4","1"
"","psychophysics","125","531656","0.0-125.0","5e6e47d4bd8f7d3f6b956611","62574fc839070e64553d0408","","","","","2470","key"," "," ","16.672304054054376","500","250","flank","","","","","0.6200000000000001","0.5","1"
"","psychophysics","126","534489","0.0-126.0","5e6e47d4bd8f7d3f6b956611","62574fc839070e64553d0408","","","","","2828","key"," "," ","16.671804733728003","500","250","flank","","","","","0.9500000000000004","0.8","0"
"","psychophysics","127","537424","0.0-127.0","5e6e47d4bd8f7d3f6b956611","62574fc839070e64553d0408","","","","","2930","key"," "," ","16.671679999999967","500","250","flank","","","","","0.8600000000000003","0.62","1"
"","psychophysics","128","540160","0.0-128.0","5e6e47d4bd8f7d3f6b956611","62574fc839070e64553d0408","","","","","2731","key"," "," ","16.672012269938296","500","250","flank","","","","","0.8600000000000003","0.54","0"
"","psychophysics","129","542800","0.0-129.0","5e6e47d4bd8f7d3f6b956611","62574fc839070e64553d0408","","","","","2633","key"," "," ","16.672426751592333","500","250","flank","","","","","0.7100000000000002","0.74","0"
"","psychophysics","130","545184","0.0-130.0","5e6e47d4bd8f7d3f6b956611","62574fc839070e64553d0408","","","","","2376","key"," "," ","16.67166197183132","500","250","flank","","","","","0.56","0.38","1"
"","psychophysics","131","547464","0.0-131.0","5e6e47d4bd8f7d3f6b956611","62574fc839070e64553d0408","","","","","2272","key"," "," ","16.672022058823668","500","250","flank","","","","","0.6200000000000001","0.56","0"
"","psychophysics","132","550329","0.0-132.0","5e6e47d4bd8f7d3f6b956611","62574fc839070e64553d0408","","","","","2860","key"," "," ","16.67200584795356","500","250","flank","","","","","0.6500000000000001","0.68","0"
"","psychophysics","133","552359","0.0-133.0","5e6e47d4bd8f7d3f6b956611","62574fc839070e64553d0408","","","","","2026","key"," "," ","16.67063636363634","500","250","flank","","","","","0.5","0.56","1"
"","psychophysics","134","554763","0.0-134.0","5e6e47d4bd8f7d3f6b956611","62574fc839070e64553d0408","","","","","2401","key"," "," ","16.672860139859612","500","250","flank","","","","","0.56","0.42","0"
"","psychophysics","135","557480","0.0-135.0","5e6e47d4bd8f7d3f6b956611","62574fc839070e64553d0408","","","","","2712","key"," "," ","16.67190123456789","500","250","flank","","","","","0.8300000000000003","0.78","1"
"true","fullscreen","136","557484","0.0-136.0","5e6e47d4bd8f7d3f6b956611","62574fc839070e64553d0408","","","","","","","","","","","","","","","","","","",""
