"success","trial_type","trial_index","time_elapsed","internal_node_id","pid","sid","timeout","failed_images","failed_audio","failed_video","rt","response_type","key_press","response","avg_frame_time","center_x","center_y","task","ml_len","ml_start","ml_x","ml_y","resp","targ","back"
"true","fullscreen","0","2997","0.0-0.0","5bf3761862e1bc0001f15cb2","6257558b69c774a289a61d4d","","","","","","","","","","","","","","","","","","",""
"true","preload","1","2998","0.0-1.0","5bf3761862e1bc0001f15cb2","6257558b69c774a289a61d4d","false","[]","[]","[]","","","","","","","","","","","","","","",""
"","psychophysics","2","7536","0.0-2.0","5bf3761862e1bc0001f15cb2","6257558b69c774a289a61d4d","","","","","4530","key"," "," ","16.85203333333334","500","250","inst","","","","","","",""
"","psychophysics","3","7607","0.0-3.0","5bf3761862e1bc0001f15cb2","6257558b69c774a289a61d4d","","","","","68","key"," "," ","16.66600000000047","500","250","inst","","","","","","",""
"","psychophysics","4","23289","0.0-4.0","5bf3761862e1bc0001f15cb2","6257558b69c774a289a61d4d","","","","","15679","key"," "," ","16.666728723404255","500","250","instMl","240","-40","25","-18","-21","",""
"","psychophysics","5","37507","0.0-5.0","5bf3761862e1bc0001f15cb2","6257558b69c774a289a61d4d","","","","","14215","key"," "," ","16.666920187793423","500","250","instMl","212","-35.333333333333336","-26","-20","-23.333333333333314","",""
"","psychophysics","6","41475","0.0-6.0","5bf3761862e1bc0001f15cb2","6257558b69c774a289a61d4d","","","","","3966","key"," "," ","16.66674683544304","500","250","inst","","","","","","",""
"","psychophysics","7","47428","0.0-7.0","5bf3761862e1bc0001f15cb2","6257558b69c774a289a61d4d","","","","","5950","key"," "," ","16.66670505617978","500","250","ml","210","51","-13","19","-19","",""
"","psychophysics","8","51869","0.0-8.0","5bf3761862e1bc0001f15cb2","6257558b69c774a289a61d4d","","","","","4438","key"," "," ","16.666710526315793","500","250","ml","180","27","4","-11","-14","",""
"","psychophysics","9","56661","0.0-9.0","5bf3761862e1bc0001f15cb2","6257558b69c774a289a61d4d","","","","","4790","key"," "," ","16.66671328671329","500","250","ml","202","34","10","-7","-19","",""
"","psychophysics","10","62862","0.0-10.0","5bf3761862e1bc0001f15cb2","6257558b69c774a289a61d4d","","","","","6198","key"," "," ","16.666730458221036","500","250","ml","240","15","-10","-20","-20","",""
"","psychophysics","11","68855","0.0-11.0","5bf3761862e1bc0001f15cb2","6257558b69c774a289a61d4d","","","","","5990","key"," "," ","16.666757660167136","500","250","ml","186","-41","-25","10","-17","",""
"","psychophysics","12","75616","0.0-12.0","5bf3761862e1bc0001f15cb2","6257558b69c774a289a61d4d","","","","","6758","key"," "," ","16.666728395061714","500","250","ml","248","-52","22","-19","-16","",""
"","psychophysics","13","79560","0.0-13.0","5bf3761862e1bc0001f15cb2","6257558b69c774a289a61d4d","","","","","3942","key"," "," ","16.666740425531888","500","250","ml","154","-16","18","5","-18","",""
"","psychophysics","14","86641","0.0-14.0","5bf3761862e1bc0001f15cb2","6257558b69c774a289a61d4d","","","","","7078","key"," "," ","16.666742924528286","500","250","ml","244","-17","20","-27","-17","",""
"","psychophysics","15","93882","0.0-15.0","5bf3761862e1bc0001f15cb2","6257558b69c774a289a61d4d","","","","","7239","key"," "," ","16.666716589861743","500","250","ml","172","28","-5","24","-13","",""
"","psychophysics","16","99251","0.0-16.0","5bf3761862e1bc0001f15cb2","6257558b69c774a289a61d4d","","","","","5365","key"," "," ","16.666710280373863","500","250","ml","180","37","2","20","-12","",""
"","psychophysics","17","104628","0.0-17.0","5bf3761862e1bc0001f15cb2","6257558b69c774a289a61d4d","","","","","5374","key"," "," ","16.6667040498442","500","250","ml","162","21","-3","-26","-17","",""
"","psychophysics","18","109468","0.0-18.0","5bf3761862e1bc0001f15cb2","6257558b69c774a289a61d4d","","","","","4837","key"," "," ","16.666717241379303","500","250","ml","182","-8","14","21","-21","",""
"","psychophysics","19","113901","0.0-19.0","5bf3761862e1bc0001f15cb2","6257558b69c774a289a61d4d","","","","","4430","key"," "," ","16.666732075471675","500","250","ml","236","-16","-30","18","-18","",""
"","psychophysics","20","117973","0.0-20.0","5bf3761862e1bc0001f15cb2","6257558b69c774a289a61d4d","","","","","4070","key"," "," ","16.66674897119343","500","250","ml","168","23","-11","28","-16","",""
"","psychophysics","21","122014","0.0-21.0","5bf3761862e1bc0001f15cb2","6257558b69c774a289a61d4d","","","","","4038","key"," "," ","16.666734439834045","500","250","ml","156","-21","24","-23","-18","",""
"","psychophysics","22","124230","0.0-22.0","5bf3761862e1bc0001f15cb2","6257558b69c774a289a61d4d","","","","","2215","key"," "," ","16.666643939393964","500","250","inst","","","","","","",""
"","psychophysics","23","137224","0.0-23.0","5bf3761862e1bc0001f15cb2","6257558b69c774a289a61d4d","","","","","12989","key"," "," ","16.688137532133673","500","250","instPog","","","","","130","130",""
"","psychophysics","24","146409","0.0-24.0","5bf3761862e1bc0001f15cb2","6257558b69c774a289a61d4d","","","","","9183","key"," "," ","16.66673999999999","500","250","instPog","","","","","152","130",""
"","psychophysics","25","159354","0.0-25.0","5bf3761862e1bc0001f15cb2","6257558b69c774a289a61d4d","","","","","12943","key"," "," ","16.666520618556703","500","250","instPog","","","","","152","130",""
"","psychophysics","26","161979","0.0-26.0","5bf3761862e1bc0001f15cb2","6257558b69c774a289a61d4d","","","","","2623","key"," "," ","16.666705128205276","500","250","inst","","","","","","",""
"","psychophysics","27","172836","0.0-27.0","5bf3761862e1bc0001f15cb2","6257558b69c774a289a61d4d","","","","","10855","key"," "," ","16.666725038402458","500","250","pog","","","","","150","122",""
"","psychophysics","28","184582","0.0-28.0","5bf3761862e1bc0001f15cb2","6257558b69c774a289a61d4d","","","","","11743","key"," "," ","16.666725462304427","500","250","pog","","","","","193","174",""
"","psychophysics","29","190727","0.0-29.0","5bf3761862e1bc0001f15cb2","6257558b69c774a289a61d4d","","","","","6142","key"," "," ","16.666692934782592","500","250","pog","","","","","158","140",""
"","psychophysics","30","195463","0.0-30.0","5bf3761862e1bc0001f15cb2","6257558b69c774a289a61d4d","","","","","4734","key"," "," ","16.666749116607782","500","250","pog","","","","","212","188",""
"","psychophysics","31","199576","0.0-31.0","5bf3761862e1bc0001f15cb2","6257558b69c774a289a61d4d","","","","","4110","key"," "," ","16.666743902439027","500","250","pog","","","","","180","167",""
"","psychophysics","32","203064","0.0-32.0","5bf3761862e1bc0001f15cb2","6257558b69c774a289a61d4d","","","","","3486","key"," "," ","16.666692307692266","500","250","pog","","","","","188","161",""
"","psychophysics","33","208681","0.0-33.0","5bf3761862e1bc0001f15cb2","6257558b69c774a289a61d4d","","","","","5615","key"," "," ","16.66671130952385","500","250","pog","","","","","216","191",""
"","psychophysics","34","212161","0.0-34.0","5bf3761862e1bc0001f15cb2","6257558b69c774a289a61d4d","","","","","3479","key"," "," ","16.666740384615387","500","250","pog","","","","","156","129",""
"","psychophysics","35","216138","0.0-35.0","5bf3761862e1bc0001f15cb2","6257558b69c774a289a61d4d","","","","","3974","key"," "," ","16.66668487394959","500","250","pog","","","","","193","176",""
"","psychophysics","36","219034","0.0-36.0","5bf3761862e1bc0001f15cb2","6257558b69c774a289a61d4d","","","","","2895","key"," "," ","16.666676300577986","500","250","pog","","","","","158","129",""
"","psychophysics","37","224187","0.0-37.0","5bf3761862e1bc0001f15cb2","6257558b69c774a289a61d4d","","","","","5151","key"," "," ","16.66670454545455","500","250","pog","","","","","219","195",""
"","psychophysics","38","228083","0.0-38.0","5bf3761862e1bc0001f15cb2","6257558b69c774a289a61d4d","","","","","3894","key"," "," ","16.666751072961386","500","250","pog","","","","","190","168",""
"","psychophysics","39","233652","0.0-39.0","5bf3761862e1bc0001f15cb2","6257558b69c774a289a61d4d","","","","","5567","key"," "," ","16.666714714714725","500","250","pog","","","","","222","200",""
"","psychophysics","40","238405","0.0-40.0","5bf3761862e1bc0001f15cb2","6257558b69c774a289a61d4d","","","","","4750","key"," "," ","16.666704225352053","500","250","pog","","","","","162","134",""
"","psychophysics","41","243701","0.0-41.0","5bf3761862e1bc0001f15cb2","6257558b69c774a289a61d4d","","","","","5295","key"," "," ","16.666722397476324","500","250","pog","","","","","229","197",""
"","psychophysics","42","245846","0.0-42.0","5bf3761862e1bc0001f15cb2","6257558b69c774a289a61d4d","","","","","2142","key"," "," ","16.66672440944881","500","250","inst","","","","","","",""
"","psychophysics","43","249670","0.0-43.0","5bf3761862e1bc0001f15cb2","6257558b69c774a289a61d4d","","","","","3823","key"," "," ","16.66668995633184","500","250","instTilt","","","","","NaN","0","0"
"","psychophysics","44","252975","0.0-44.0","5bf3761862e1bc0001f15cb2","6257558b69c774a289a61d4d","","","","","3302","key"," "," ","16.666670050761436","500","250","instTilt","","","","","0","0","0"
"","psychophysics","45","264608","0.0-45.0","5bf3761862e1bc0001f15cb2","6257558b69c774a289a61d4d","","","","","11632","key"," "," ","16.6667360114778","500","250","instTilt","","","","","1","0","0"
"","psychophysics","46","267937","0.0-46.0","5bf3761862e1bc0001f15cb2","6257558b69c774a289a61d4d","","","","","3327","key"," "," ","16.666713567839082","500","250","inst","","","","","","",""
"","psychophysics","47","273209","0.0-47.0","5bf3761862e1bc0001f15cb2","6257558b69c774a289a61d4d","","","","","5270","key"," "," ","16.6661904761904","500","250","tilt","","","","","-7","-8","1"
"","psychophysics","48","280874","0.0-48.0","5bf3761862e1bc0001f15cb2","6257558b69c774a289a61d4d","","","","","7662","key"," "," ","16.666723311546868","500","250","tilt","","","","","-4","-7","1"
"","psychophysics","49","285035","0.0-49.0","5bf3761862e1bc0001f15cb2","6257558b69c774a289a61d4d","","","","","4159","key"," "," ","16.66667068273088","500","250","tilt","","","","","-2","-2","1"
"","psychophysics","50","288779","0.0-50.0","5bf3761862e1bc0001f15cb2","6257558b69c774a289a61d4d","","","","","3743","key"," "," ","16.666686098654587","500","250","tilt","","","","","4","7","0"
"","psychophysics","51","291580","0.0-51.0","5bf3761862e1bc0001f15cb2","6257558b69c774a289a61d4d","","","","","2797","key"," "," ","16.66674251496983","500","250","tilt","","","","","-6","-8","1"
"","psychophysics","52","296844","0.0-52.0","5bf3761862e1bc0001f15cb2","6257558b69c774a289a61d4d","","","","","5263","key"," "," ","16.66671746031747","500","250","tilt","","","","","0","1","1"
"","psychophysics","53","300205","0.0-53.0","5bf3761862e1bc0001f15cb2","6257558b69c774a289a61d4d","","","","","3358","key"," "," ","16.666686567164255","500","250","tilt","","","","","1","-2","0"
"","psychophysics","54","305205","0.0-54.0","5bf3761862e1bc0001f15cb2","6257558b69c774a289a61d4d","","","","","4997","key"," "," ","16.6667090301004","500","250","tilt","","","","","4","9","1"
"","psychophysics","55","308654","0.0-55.0","5bf3761862e1bc0001f15cb2","6257558b69c774a289a61d4d","","","","","3447","key"," "," ","16.666684466019415","500","250","tilt","","","","","-2","-2","1"
"","psychophysics","56","311502","0.0-56.0","5bf3761862e1bc0001f15cb2","6257558b69c774a289a61d4d","","","","","2846","key"," "," ","16.666647058823624","500","250","tilt","","","","","3","8","1"
"","psychophysics","57","313630","0.0-57.0","5bf3761862e1bc0001f15cb2","6257558b69c774a289a61d4d","","","","","2127","key"," "," ","16.66671428571424","500","250","tilt","","","","","2","3","0"
"","psychophysics","58","316159","0.0-58.0","5bf3761862e1bc0001f15cb2","6257558b69c774a289a61d4d","","","","","2527","key"," "," ","16.666688741721746","500","250","tilt","","","","","3","6","0"
"","psychophysics","59","318271","0.0-59.0","5bf3761862e1bc0001f15cb2","6257558b69c774a289a61d4d","","","","","2110","key"," "," ","16.66796031746032","500","250","tilt","","","","","3","4","0"
"","psychophysics","60","320487","0.0-60.0","5bf3761862e1bc0001f15cb2","6257558b69c774a289a61d4d","","","","","2215","key"," "," ","16.666727272727066","500","250","tilt","","","","","2","6","1"
"","psychophysics","61","323207","0.0-61.0","5bf3761862e1bc0001f15cb2","6257558b69c774a289a61d4d","","","","","2719","key"," "," ","16.666709876543106","500","250","tilt","","","","","-3","-6","1"
"","psychophysics","62","327976","0.0-62.0","5bf3761862e1bc0001f15cb2","6257558b69c774a289a61d4d","","","","","4766","key"," "," ","16.666712280701674","500","250","tilt","","","","","-6","-9","1"
"","psychophysics","63","331321","0.0-63.0","5bf3761862e1bc0001f15cb2","6257558b69c774a289a61d4d","","","","","3343","key"," "," ","16.6675","500","250","tilt","","","","","-5","-1","1"
"","psychophysics","64","333401","0.0-64.0","5bf3761862e1bc0001f15cb2","6257558b69c774a289a61d4d","","","","","2078","key"," "," ","16.665387096773973","500","250","tilt","","","","","-2","-6","0"
"","psychophysics","65","335313","0.0-65.0","5bf3761862e1bc0001f15cb2","6257558b69c774a289a61d4d","","","","","1910","key"," "," ","16.66668141592939","500","250","tilt","","","","","2","4","0"
"","psychophysics","66","337657","0.0-66.0","5bf3761862e1bc0001f15cb2","6257558b69c774a289a61d4d","","","","","2342","key"," "," ","16.666792857142614","500","250","tilt","","","","","3","8","0"
"","psychophysics","67","339858","0.0-67.0","5bf3761862e1bc0001f15cb2","6257558b69c774a289a61d4d","","","","","2198","key"," "," ","16.66667175572543","500","250","tilt","","","","","4","9","1"
"","psychophysics","68","343714","0.0-68.0","5bf3761862e1bc0001f15cb2","6257558b69c774a289a61d4d","","","","","3855","key"," "," ","16.66671739130448","500","250","tilt","","","","","4","7","0"
"","psychophysics","69","348923","0.0-69.0","5bf3761862e1bc0001f15cb2","6257558b69c774a289a61d4d","","","","","5207","key"," "," ","16.6667243589743","500","250","tilt","","","","","4","8","0"
"","psychophysics","70","352523","0.0-70.0","5bf3761862e1bc0001f15cb2","6257558b69c774a289a61d4d","","","","","3598","key"," "," ","16.666711627906945","500","250","tilt","","","","","-2","-8","0"
"","psychophysics","71","354804","0.0-71.0","5bf3761862e1bc0001f15cb2","6257558b69c774a289a61d4d","","","","","2278","key"," "," ","16.66674264705858","500","250","tilt","","","","","-4","-6","1"
"","psychophysics","72","357900","0.0-72.0","5bf3761862e1bc0001f15cb2","6257558b69c774a289a61d4d","","","","","3094","key"," "," ","16.666745945945937","500","250","tilt","","","","","-2","-10","0"
"","psychophysics","73","361580","0.0-73.0","5bf3761862e1bc0001f15cb2","6257558b69c774a289a61d4d","","","","","3679","key"," "," ","16.666689497716916","500","250","tilt","","","","","-1","-2","1"
"","psychophysics","74","364405","0.0-74.0","5bf3761862e1bc0001f15cb2","6257558b69c774a289a61d4d","","","","","2823","key"," "," ","16.66573964497047","500","250","tilt","","","","","0","1","1"
"","psychophysics","75","369117","0.0-75.0","5bf3761862e1bc0001f15cb2","6257558b69c774a289a61d4d","","","","","4710","key"," "," ","16.66670567375886","500","250","tilt","","","","","-7","-10","1"
"","psychophysics","76","371198","0.0-76.0","5bf3761862e1bc0001f15cb2","6257558b69c774a289a61d4d","","","","","2078","key"," "," ","16.666723577235636","500","250","tilt","","","","","0","2","1"
"","psychophysics","77","373518","0.0-77.0","5bf3761862e1bc0001f15cb2","6257558b69c774a289a61d4d","","","","","2318","key"," "," ","16.666690647481897","500","250","inst","","","","","","",""
"","psychophysics","78","376246","0.0-78.0","5bf3761862e1bc0001f15cb2","6257558b69c774a289a61d4d","","","","","2726","key"," "," ","16.666777777777664","500","250","instPz","","","","","50","50",""
"","psychophysics","79","385968","0.0-79.0","5bf3761862e1bc0001f15cb2","6257558b69c774a289a61d4d","","","","","9719","key"," "," ","16.66671869639792","500","250","instPz","","","","","55","50",""
"","psychophysics","80","393017","0.0-80.0","5bf3761862e1bc0001f15cb2","6257558b69c774a289a61d4d","","","","","7047","key"," "," ","16.666744075829335","500","250","instPz","","","","","29","30",""
"","psychophysics","81","401298","0.0-81.0","5bf3761862e1bc0001f15cb2","6257558b69c774a289a61d4d","","","","","8278","key"," "," ","16.666725252525215","500","250","instPz","","","","","37","40",""
"","psychophysics","82","402490","0.0-82.0","5bf3761862e1bc0001f15cb2","6257558b69c774a289a61d4d","","","","","1190","key"," "," ","16.669028169013934","500","250","inst","","","","","","",""
"","psychophysics","83","406386","0.0-83.0","5bf3761862e1bc0001f15cb2","6257558b69c774a289a61d4d","","","","","3894","key"," "," ","16.666746781115936","500","250","pz","","","","","36","40",""
"","psychophysics","84","414363","0.0-84.0","5bf3761862e1bc0001f15cb2","6257558b69c774a289a61d4d","","","","","7974","key"," "," ","16.666725366876292","500","250","pz","","","","","47","50",""
"","psychophysics","85","418020","0.0-85.0","5bf3761862e1bc0001f15cb2","6257558b69c774a289a61d4d","","","","","3655","key"," "," ","16.66672146118716","500","250","pz","","","","","53","56",""
"","psychophysics","86","421556","0.0-86.0","5bf3761862e1bc0001f15cb2","6257558b69c774a289a61d4d","","","","","3534","key"," "," ","16.6667440758292","500","250","pz","","","","","44","49",""
"","psychophysics","87","424581","0.0-87.0","5bf3761862e1bc0001f15cb2","6257558b69c774a289a61d4d","","","","","3022","key"," "," ","16.666733333333266","500","250","pz","","","","","35","34",""
"","psychophysics","88","428493","0.0-88.0","5bf3761862e1bc0001f15cb2","6257558b69c774a289a61d4d","","","","","3910","key"," "," ","16.666730769230828","500","250","pz","","","","","36","28",""
"","psychophysics","89","432669","0.0-89.0","5bf3761862e1bc0001f15cb2","6257558b69c774a289a61d4d","","","","","4174","key"," "," ","16.66670399999991","500","250","pz","","","","","39","24",""
"","psychophysics","90","435198","0.0-90.0","5bf3761862e1bc0001f15cb2","6257558b69c774a289a61d4d","","","","","2526","key"," "," ","16.666706666666627","500","250","pz","","","","","30","21",""
"","psychophysics","91","438742","0.0-91.0","5bf3761862e1bc0001f15cb2","6257558b69c774a289a61d4d","","","","","3543","key"," "," ","16.666716981132268","500","250","pz","","","","","68","48",""
"","psychophysics","92","442431","0.0-92.0","5bf3761862e1bc0001f15cb2","6257558b69c774a289a61d4d","","","","","3686","key"," "," ","16.665963636363582","500","250","pz","","","","","50","38",""
"","psychophysics","93","447919","0.0-93.0","5bf3761862e1bc0001f15cb2","6257558b69c774a289a61d4d","","","","","5486","key"," "," ","16.666693009118553","500","250","pz","","","","","52","34",""
"","psychophysics","94","450992","0.0-94.0","5bf3761862e1bc0001f15cb2","6257558b69c774a289a61d4d","","","","","3070","key"," "," ","16.66671038251351","500","250","pz","","","","","36","21",""
"","psychophysics","95","454160","0.0-95.0","5bf3761862e1bc0001f15cb2","6257558b69c774a289a61d4d","","","","","3167","key"," "," ","16.666693121693147","500","250","pz","","","","","52","51",""
"","psychophysics","96","456441","0.0-96.0","5bf3761862e1bc0001f15cb2","6257558b69c774a289a61d4d","","","","","2278","key"," "," ","16.66671323529419","500","250","pz","","","","","28","20",""
"","psychophysics","97","459977","0.0-97.0","5bf3761862e1bc0001f15cb2","6257558b69c774a289a61d4d","","","","","3534","key"," "," ","16.666734597156314","500","250","pz","","","","","42","25",""
"","psychophysics","98","462217","0.0-98.0","5bf3761862e1bc0001f15cb2","6257558b69c774a289a61d4d","","","","","2238","key"," "," ","16.667873134328325","500","250","inst","","","","","","",""
"","psychophysics","99","469778","0.0-99.0","5bf3761862e1bc0001f15cb2","6257558b69c774a289a61d4d","","","","","7559","key"," "," ","16.666732300884984","500","250","inst","","","","","","",""
"","psychophysics","100","472523","0.0-100.0","5bf3761862e1bc0001f15cb2","6257558b69c774a289a61d4d","","","","","2742","key"," "," ","16.666676829268066","500","250","instFlank","","","","","0.5","0.3","1"
"","psychophysics","101","478875","0.0-101.0","5bf3761862e1bc0001f15cb2","6257558b69c774a289a61d4d","","","","","6351","key"," "," ","16.666742105263218","500","250","inst","","","","","","",""
"","psychophysics","102","486877","0.0-102.0","5bf3761862e1bc0001f15cb2","6257558b69c774a289a61d4d","","","","","7999","key"," "," ","16.66672860125251","500","250","instFlank","","","","","0.3799999999999999","0.3","1"
"","psychophysics","103","492693","0.0-103.0","5bf3761862e1bc0001f15cb2","6257558b69c774a289a61d4d","","","","","5814","key"," "," ","16.666729885057464","500","250","inst","","","","","","",""
"","psychophysics","104","500486","0.0-104.0","5bf3761862e1bc0001f15cb2","6257558b69c774a289a61d4d","","","","","7791","key"," "," ","16.666740899357638","500","250","instFlank","","","","","0.3799999999999999","0.3","0"
"","psychophysics","105","501398","0.0-105.0","5bf3761862e1bc0001f15cb2","6257558b69c774a289a61d4d","","","","","910","key"," "," ","16.66694339622638","500","250","inst","","","","","","",""
"","psychophysics","106","505687","0.0-106.0","5bf3761862e1bc0001f15cb2","6257558b69c774a289a61d4d","","","","","4287","key"," "," ","16.666700389105074","500","250","flank","","","","","0.56","0.44","1"
"","psychophysics","107","509488","0.0-107.0","5bf3761862e1bc0001f15cb2","6257558b69c774a289a61d4d","","","","","3798","key"," "," ","16.666718061673887","500","250","flank","","","","","0.3799999999999999","0.32","1"
"","psychophysics","108","513768","0.0-108.0","5bf3761862e1bc0001f15cb2","6257558b69c774a289a61d4d","","","","","4278","key"," "," ","16.666699218749955","500","250","flank","","","","","0.5","0.38","1"
"","psychophysics","109","519913","0.0-109.0","5bf3761862e1bc0001f15cb2","6257558b69c774a289a61d4d","","","","","6143","key"," "," ","16.666738419618447","500","250","flank","","","","","0.8300000000000003","0.78","1"
"","psychophysics","110","523697","0.0-110.0","5bf3761862e1bc0001f15cb2","6257558b69c774a289a61d4d","","","","","3783","key"," "," ","16.66605309734535","500","250","flank","","","","","0.3799999999999999","0.2","0"
"","psychophysics","111","527578","0.0-111.0","5bf3761862e1bc0001f15cb2","6257558b69c774a289a61d4d","","","","","3878","key"," "," ","16.666706896551627","500","250","flank","","","","","0.6200000000000001","0.54","1"
"","psychophysics","112","531306","0.0-112.0","5bf3761862e1bc0001f15cb2","6257558b69c774a289a61d4d","","","","","3726","key"," "," ","16.666766816143557","500","250","flank","","","","","0.5900000000000001","0.48","0"
"","psychophysics","113","535203","0.0-113.0","5bf3761862e1bc0001f15cb2","6257558b69c774a289a61d4d","","","","","3894","key"," "," ","16.666763948497977","500","250","flank","","","","","0.6500000000000001","0.52","0"
"","psychophysics","114","540508","0.0-114.0","5bf3761862e1bc0001f15cb2","6257558b69c774a289a61d4d","","","","","5302","key"," "," ","16.666760252365968","500","250","flank","","","","","0.5900000000000001","0.44","1"
"","psychophysics","115","544468","0.0-115.0","5bf3761862e1bc0001f15cb2","6257558b69c774a289a61d4d","","","","","3959","key"," "," ","16.666763713079867","500","250","flank","","","","","0.53","0.34","0"
"","psychophysics","116","547548","0.0-116.0","5bf3761862e1bc0001f15cb2","6257558b69c774a289a61d4d","","","","","3079","key"," "," ","16.666699453552198","500","250","flank","","","","","0.4099999999999999","0.38","1"
"","psychophysics","117","551589","0.0-117.0","5bf3761862e1bc0001f15cb2","6257558b69c774a289a61d4d","","","","","4039","key"," "," ","16.66668595041318","500","250","flank","","","","","0.5900000000000001","0.56","1"
"","psychophysics","118","555389","0.0-118.0","5bf3761862e1bc0001f15cb2","6257558b69c774a289a61d4d","","","","","3799","key"," "," ","16.66670925110129","500","250","flank","","","","","0.31999999999999984","0.22","0"
"","psychophysics","119","559358","0.0-119.0","5bf3761862e1bc0001f15cb2","6257558b69c774a289a61d4d","","","","","3966","key"," "," ","16.66670886075904","500","250","flank","","","","","0.2899999999999998","0.2","0"
"","psychophysics","120","563302","0.0-120.0","5bf3761862e1bc0001f15cb2","6257558b69c774a289a61d4d","","","","","3942","key"," "," ","16.666766949152866","500","250","flank","","","","","0.7700000000000002","0.7","1"
"","psychophysics","121","567815","0.0-121.0","5bf3761862e1bc0001f15cb2","6257558b69c774a289a61d4d","","","","","4510","key"," "," ","16.666736059479387","500","250","flank","","","","","0.7700000000000002","0.66","0"
"","psychophysics","122","572015","0.0-122.0","5bf3761862e1bc0001f15cb2","6257558b69c774a289a61d4d","","","","","4199","key"," "," ","16.666709163346777","500","250","flank","","","","","0.7700000000000002","0.68","1"
"","psychophysics","123","576424","0.0-123.0","5bf3761862e1bc0001f15cb2","6257558b69c774a289a61d4d","","","","","4407","key"," "," ","16.667378787878658","500","250","flank","","","","","0.6500000000000001","0.44","0"
"","psychophysics","124","579680","0.0-124.0","5bf3761862e1bc0001f15cb2","6257558b69c774a289a61d4d","","","","","3254","key"," "," ","16.66673711340241","500","250","flank","","","","","0.43999999999999995","0.42","1"
"","psychophysics","125","584297","0.0-125.0","5bf3761862e1bc0001f15cb2","6257558b69c774a289a61d4d","","","","","4614","key"," "," ","16.666710144927492","500","250","flank","","","","","0.8300000000000003","0.76","0"
"","psychophysics","126","589010","0.0-126.0","5bf3761862e1bc0001f15cb2","6257558b69c774a289a61d4d","","","","","4710","key"," "," ","16.66671276595716","500","250","flank","","","","","0.7400000000000002","0.62","0"
"","psychophysics","127","594186","0.0-127.0","5bf3761862e1bc0001f15cb2","6257558b69c774a289a61d4d","","","","","5175","key"," "," ","16.66671935483896","500","250","flank","","","","","0.8300000000000003","0.76","1"
"","psychophysics","128","598571","0.0-128.0","5bf3761862e1bc0001f15cb2","6257558b69c774a289a61d4d","","","","","4382","key"," "," ","16.666702290076252","500","250","flank","","","","","0.7400000000000002","0.58","1"
"","psychophysics","129","603932","0.0-129.0","5bf3761862e1bc0001f15cb2","6257558b69c774a289a61d4d","","","","","5358","key"," "," ","16.66670937500021","500","250","flank","","","","","0.6500000000000001","0.46","1"
"","psychophysics","130","608004","0.0-130.0","5bf3761862e1bc0001f15cb2","6257558b69c774a289a61d4d","","","","","4070","key"," "," ","16.66741803278679","500","250","flank","","","","","0.53","0.4","1"
"","psychophysics","131","611852","0.0-131.0","5bf3761862e1bc0001f15cb2","6257558b69c774a289a61d4d","","","","","3846","key"," "," ","16.666747826086763","500","250","flank","","","","","0.34999999999999987","0.24","0"
"","psychophysics","132","616445","0.0-132.0","5bf3761862e1bc0001f15cb2","6257558b69c774a289a61d4d","","","","","4591","key"," "," ","16.66675182481774","500","250","flank","","","","","0.7700000000000002","0.72","1"
"","psychophysics","133","620789","0.0-133.0","5bf3761862e1bc0001f15cb2","6257558b69c774a289a61d4d","","","","","4342","key"," "," ","16.666746153846347","500","250","flank","","","","","0.7700000000000002","0.68","1"
"","psychophysics","134","624534","0.0-134.0","5bf3761862e1bc0001f15cb2","6257558b69c774a289a61d4d","","","","","3743","key"," "," ","16.666758928571653","500","250","flank","","","","","0.5","0.4","0"
"","psychophysics","135","627246","0.0-135.0","5bf3761862e1bc0001f15cb2","6257558b69c774a289a61d4d","","","","","2709","key"," "," ","16.666757763975145","500","250","flank","","","","","0.5","0.44","1"
"true","fullscreen","136","627248","0.0-136.0","5bf3761862e1bc0001f15cb2","6257558b69c774a289a61d4d","","","","","","","","","","","","","","","","","","",""
