"success","trial_type","trial_index","time_elapsed","internal_node_id","pid","sid","timeout","failed_images","failed_audio","failed_video","rt","response_type","key_press","response","avg_frame_time","center_x","center_y","task","ml_len","ml_start","ml_x","ml_y","resp","targ","back"
"true","fullscreen","0","3772","0.0-0.0","6111b8b600b79655a5381437","625756587b8018e08576e800","","","","","","","","","","","","","","","","","","",""
"true","preload","1","3777","0.0-1.0","6111b8b600b79655a5381437","625756587b8018e08576e800","false","[]","[]","[]","","","","","","","","","","","","","","",""
"","psychophysics","2","6985","0.0-2.0","6111b8b600b79655a5381437","625756587b8018e08576e800","","","","","3193","key"," "," ","16.70860416666667","500","250","inst","","","","","","",""
"","psychophysics","3","8073","0.0-3.0","6111b8b600b79655a5381437","625756587b8018e08576e800","","","","","1085","key"," "," ","16.67001562499999","500","250","inst","","","","","","",""
"","psychophysics","4","20390","0.0-4.0","6111b8b600b79655a5381437","625756587b8018e08576e800","","","","","12309","key"," "," ","16.66621409214092","500","250","instMl","218","-36.333333333333336","-28","-18","-22.333333333333314","",""
"","psychophysics","5","30876","0.0-5.0","6111b8b600b79655a5381437","625756587b8018e08576e800","","","","","10478","key"," "," ","16.665968203497616","500","250","instMl","176","-29.333333333333332","13","-16","-17.333333333333314","",""
"","psychophysics","6","34281","0.0-6.0","6111b8b600b79655a5381437","625756587b8018e08576e800","","","","","3402","key"," "," ","16.66652709359606","500","250","inst","","","","","","",""
"","psychophysics","7","41267","0.0-7.0","6111b8b600b79655a5381437","625756587b8018e08576e800","","","","","6983","key"," "," ","16.666574162679417","500","250","ml","204","30","-1","12","-19","",""
"","psychophysics","8","44642","0.0-8.0","6111b8b600b79655a5381437","625756587b8018e08576e800","","","","","3372","key"," "," ","16.66753465346533","500","250","ml","160","-11","-2","2","-20","",""
"","psychophysics","9","48945","0.0-9.0","6111b8b600b79655a5381437","625756587b8018e08576e800","","","","","4298","key"," "," ","16.667035019455252","500","250","ml","172","30","-26","-3","-18","",""
"","psychophysics","10","55406","0.0-10.0","6111b8b600b79655a5381437","625756587b8018e08576e800","","","","","6459","key"," "," ","16.66549740932642","500","250","ml","194","-11","7","-14","-22","",""
"","psychophysics","11","60074","0.0-11.0","6111b8b600b79655a5381437","625756587b8018e08576e800","","","","","4663","key"," "," ","16.66639642857143","500","250","ml","220","24","2","-9","-23","",""
"","psychophysics","12","64429","0.0-12.0","6111b8b600b79655a5381437","625756587b8018e08576e800","","","","","4351","key"," "," ","16.666042307692287","500","250","ml","176","-1","-1","-29","-15","",""
"","psychophysics","13","68577","0.0-13.0","6111b8b600b79655a5381437","625756587b8018e08576e800","","","","","4146","key"," "," ","16.6664637096774","500","250","ml","178","-41","-22","11","-14","",""
"","psychophysics","14","73716","0.0-14.0","6111b8b600b79655a5381437","625756587b8018e08576e800","","","","","5137","key"," "," ","16.66652442996745","500","250","ml","152","20","28","19","-13","",""
"","psychophysics","15","79304","0.0-15.0","6111b8b600b79655a5381437","625756587b8018e08576e800","","","","","5585","key"," "," ","16.665476047904193","500","250","ml","226","52","13","15","-16","",""
"","psychophysics","16","84743","0.0-16.0","6111b8b600b79655a5381437","625756587b8018e08576e800","","","","","5434","key"," "," ","16.666420245398808","500","250","ml","216","42","-25","-16","-21","",""
"","psychophysics","17","90975","0.0-17.0","6111b8b600b79655a5381437","625756587b8018e08576e800","","","","","6229","key"," "," ","16.66596246648796","500","250","ml","178","-38","-13","-7","-19","",""
"","psychophysics","18","94146","0.0-18.0","6111b8b600b79655a5381437","625756587b8018e08576e800","","","","","3169","key"," "," ","16.664841269841265","500","250","ml","158","25","18","3","-16","",""
"","psychophysics","19","97490","0.0-19.0","6111b8b600b79655a5381437","625756587b8018e08576e800","","","","","3342","key"," "," ","16.667179999999934","500","250","ml","206","-16","20","-19","-17","",""
"","psychophysics","20","102398","0.0-20.0","6111b8b600b79655a5381437","625756587b8018e08576e800","","","","","4904","key"," "," ","16.666105802047763","500","250","ml","218","47","-21","29","-19","",""
"","psychophysics","21","104152","0.0-21.0","6111b8b600b79655a5381437","625756587b8018e08576e800","","","","","1752","key"," "," ","16.668490384615396","500","250","ml","210","-14","-28","-6","-15","",""
"","psychophysics","22","106739","0.0-22.0","6111b8b600b79655a5381437","625756587b8018e08576e800","","","","","2580","key"," "," ","16.66740645161293","500","250","inst","","","","","","",""
"","psychophysics","23","119664","0.0-23.0","6111b8b600b79655a5381437","625756587b8018e08576e800","","","","","12912","key"," "," ","16.666113695090438","500","250","instPog","","","","","130","130",""
"","psychophysics","24","131772","0.0-24.0","6111b8b600b79655a5381437","625756587b8018e08576e800","","","","","12105","key"," "," ","16.66592148760331","500","250","instPog","","","","","146","130",""
"","psychophysics","25","136642","0.0-25.0","6111b8b600b79655a5381437","625756587b8018e08576e800","","","","","4866","key"," "," ","16.6662302405498","500","250","instPog","","","","","160","130",""
"","psychophysics","26","138163","0.0-26.0","6111b8b600b79655a5381437","625756587b8018e08576e800","","","","","1519","key"," "," ","16.667099999999888","500","250","inst","","","","","","",""
"","psychophysics","27","142428","0.0-27.0","6111b8b600b79655a5381437","625756587b8018e08576e800","","","","","4263","key"," "," ","16.666031372548975","500","250","pog","","","","","222","199",""
"","psychophysics","28","145113","0.0-28.0","6111b8b600b79655a5381437","625756587b8018e08576e800","","","","","2682","key"," "," ","16.666218750000006","500","250","pog","","","","","160","131",""
"","psychophysics","29","153779","0.0-29.0","6111b8b600b79655a5381437","625756587b8018e08576e800","","","","","8664","key"," "," ","16.666000000000018","500","250","pog","","","","","177","160",""
"","psychophysics","30","160900","0.0-30.0","6111b8b600b79655a5381437","625756587b8018e08576e800","","","","","7119","key"," "," ","16.666039906103304","500","250","pog","","","","","188","170",""
"","psychophysics","31","163884","0.0-31.0","6111b8b600b79655a5381437","625756587b8018e08576e800","","","","","2980","key"," "," ","16.666073033707956","500","250","pog","","","","","197","176",""
"","psychophysics","32","165268","0.0-32.0","6111b8b600b79655a5381437","625756587b8018e08576e800","","","","","1379","key"," "," ","16.668231707316874","500","250","pog","","","","","160","130",""
"","psychophysics","33","177195","0.0-33.0","6111b8b600b79655a5381437","625756587b8018e08576e800","","","","","11923","key"," "," ","16.666062937062918","500","250","pog","","","","","203","184",""
"","psychophysics","34","180503","0.0-34.0","6111b8b600b79655a5381437","625756587b8018e08576e800","","","","","3307","key"," "," ","16.666984848484823","500","250","pog","","","","","163","146",""
"","psychophysics","35","189640","0.0-35.0","6111b8b600b79655a5381437","625756587b8018e08576e800","","","","","9133","key"," "," ","16.666098720292503","500","250","pog","","","","","208","189",""
"","psychophysics","36","193063","0.0-36.0","6111b8b600b79655a5381437","625756587b8018e08576e800","","","","","3421","key"," "," ","16.667063725490223","500","250","pog","","","","","188","172",""
"","psychophysics","37","197867","0.0-37.0","6111b8b600b79655a5381437","625756587b8018e08576e800","","","","","4802","key"," "," ","16.66627874564463","500","250","pog","","","","","197","174",""
"","psychophysics","38","201427","0.0-38.0","6111b8b600b79655a5381437","625756587b8018e08576e800","","","","","3555","key"," "," ","16.667281690140953","500","250","pog","","","","","214","194",""
"","psychophysics","39","203058","0.0-39.0","6111b8b600b79655a5381437","625756587b8018e08576e800","","","","","1629","key"," "," ","16.667340206185756","500","250","pog","","","","","175","155",""
"","psychophysics","40","204048","0.0-40.0","6111b8b600b79655a5381437","625756587b8018e08576e800","","","","","988","key"," "," ","16.666379310344727","500","250","pog","","","","","160","134",""
"","psychophysics","41","208043","0.0-41.0","6111b8b600b79655a5381437","625756587b8018e08576e800","","","","","3993","key"," "," ","16.66721757322174","500","250","pog","","","","","191","166",""
"","psychophysics","42","209308","0.0-42.0","6111b8b600b79655a5381437","625756587b8018e08576e800","","","","","1262","key"," "," ","16.66988000000012","500","250","inst","","","","","","",""
"","psychophysics","43","213464","0.0-43.0","6111b8b600b79655a5381437","625756587b8018e08576e800","","","","","4153","key"," "," ","16.666709677419284","500","250","instTilt","","","","","NaN","0","0"
"","psychophysics","44","215412","0.0-44.0","6111b8b600b79655a5381437","625756587b8018e08576e800","","","","","1942","key"," "," ","16.666931034482772","500","250","instTilt","","","","","0","0","0"
"","psychophysics","45","224678","0.0-45.0","6111b8b600b79655a5381437","625756587b8018e08576e800","","","","","9264","key"," "," ","16.665713513513495","500","250","instTilt","","","","","2","0","0"
"","psychophysics","46","227085","0.0-46.0","6111b8b600b79655a5381437","625756587b8018e08576e800","","","","","2405","key"," "," ","16.666486111111023","500","250","inst","","","","","","",""
"","psychophysics","47","229636","0.0-47.0","6111b8b600b79655a5381437","625756587b8018e08576e800","","","","","2549","key"," "," ","16.666539473684296","500","250","tilt","","","","","8","5","0"
"","psychophysics","48","231763","0.0-48.0","6111b8b600b79655a5381437","625756587b8018e08576e800","","","","","2125","key"," "," ","16.66553968253974","500","250","tilt","","","","","-1","2","1"
"","psychophysics","49","233974","0.0-49.0","6111b8b600b79655a5381437","625756587b8018e08576e800","","","","","2208","key"," "," ","16.66693939393934","500","250","tilt","","","","","5","8","0"
"","psychophysics","50","235986","0.0-50.0","6111b8b600b79655a5381437","625756587b8018e08576e800","","","","","2010","key"," "," ","16.665983333333376","500","250","tilt","","","","","6","10","1"
"","psychophysics","51","238455","0.0-51.0","6111b8b600b79655a5381437","625756587b8018e08576e800","","","","","2467","key"," "," ","16.66650340136051","500","250","tilt","","","","","-4","-3","0"
"","psychophysics","52","242180","0.0-52.0","6111b8b600b79655a5381437","625756587b8018e08576e800","","","","","3718","key"," "," ","16.665779279279214","500","250","tilt","","","","","-2","-1","1"
"","psychophysics","53","244975","0.0-53.0","6111b8b600b79655a5381437","625756587b8018e08576e800","","","","","2792","key"," "," ","16.666592814371235","500","250","tilt","","","","","9","4","0"
"","psychophysics","54","247285","0.0-54.0","6111b8b600b79655a5381437","625756587b8018e08576e800","","","","","2308","key"," "," ","16.669760869565188","500","250","tilt","","","","","-1","0","1"
"","psychophysics","55","250330","0.0-55.0","6111b8b600b79655a5381437","625756587b8018e08576e800","","","","","3042","key"," "," ","16.66500000000011","500","250","tilt","","","","","-14","-9","1"
"","psychophysics","56","253157","0.0-56.0","6111b8b600b79655a5381437","625756587b8018e08576e800","","","","","2821","key"," "," ","16.666189349112486","500","250","tilt","","","","","-7","-6","0"
"","psychophysics","57","255270","0.0-57.0","6111b8b600b79655a5381437","625756587b8018e08576e800","","","","","2112","key"," "," ","16.668079365079247","500","250","tilt","","","","","13","2","0"
"","psychophysics","58","258039","0.0-58.0","6111b8b600b79655a5381437","625756587b8018e08576e800","","","","","2767","key"," "," ","16.66644848484853","500","250","tilt","","","","","6","5","1"
"","psychophysics","59","261593","0.0-59.0","6111b8b600b79655a5381437","625756587b8018e08576e800","","","","","3551","key"," "," ","16.666551886792355","500","250","tilt","","","","","15","10","1"
"","psychophysics","60","263647","0.0-60.0","6111b8b600b79655a5381437","625756587b8018e08576e800","","","","","2052","key"," "," ","16.66770491803248","500","250","tilt","","","","","-15","-9","1"
"","psychophysics","61","266561","0.0-61.0","6111b8b600b79655a5381437","625756587b8018e08576e800","","","","","2905","key"," "," ","16.66716091954029","500","250","tilt","","","","","-18","-10","1"
"","psychophysics","62","268293","0.0-62.0","6111b8b600b79655a5381437","625756587b8018e08576e800","","","","","1728","key"," "," ","16.668650485437308","500","250","tilt","","","","","12","4","0"
"","psychophysics","63","270140","0.0-63.0","6111b8b600b79655a5381437","625756587b8018e08576e800","","","","","1844","key"," "," ","16.666245454545557","500","250","tilt","","","","","18","5","0"
"","psychophysics","64","272543","0.0-64.0","6111b8b600b79655a5381437","625756587b8018e08576e800","","","","","2401","key"," "," ","16.667167832168026","500","250","tilt","","","","","-15","-10","1"
"","psychophysics","65","274293","0.0-65.0","6111b8b600b79655a5381437","625756587b8018e08576e800","","","","","1747","key"," "," ","16.668615384615034","500","250","tilt","","","","","0","-2","0"
"","psychophysics","66","276601","0.0-66.0","6111b8b600b79655a5381437","625756587b8018e08576e800","","","","","2306","key"," "," ","16.667601449275473","500","250","tilt","","","","","0","0","0"
"","psychophysics","67","279664","0.0-67.0","6111b8b600b79655a5381437","625756587b8018e08576e800","","","","","3060","key"," "," ","16.66721428571407","500","250","tilt","","","","","-13","-8","0"
"","psychophysics","68","281812","0.0-68.0","6111b8b600b79655a5381437","625756587b8018e08576e800","","","","","2144","key"," "," ","16.666851562500142","500","250","tilt","","","","","-10","-10","0"
"","psychophysics","69","283452","0.0-69.0","6111b8b600b79655a5381437","625756587b8018e08576e800","","","","","1635","key"," "," ","16.668683673469562","500","250","tilt","","","","","0","-2","0"
"","psychophysics","70","286651","0.0-70.0","6111b8b600b79655a5381437","625756587b8018e08576e800","","","","","3186","key"," "," ","16.66681675392682","500","250","tilt","","","","","10","10","1"
"","psychophysics","71","290243","0.0-71.0","6111b8b600b79655a5381437","625756587b8018e08576e800","","","","","3589","key"," "," ","16.66707943925236","500","250","tilt","","","","","3","2","0"
"","psychophysics","72","292719","0.0-72.0","6111b8b600b79655a5381437","625756587b8018e08576e800","","","","","2473","key"," "," ","16.666385135135137","500","250","tilt","","","","","8","7","0"
"","psychophysics","73","294884","0.0-73.0","6111b8b600b79655a5381437","625756587b8018e08576e800","","","","","2163","key"," "," ","16.66507751938017","500","250","tilt","","","","","11","9","0"
"","psychophysics","74","297878","0.0-74.0","6111b8b600b79655a5381437","625756587b8018e08576e800","","","","","2991","key"," "," ","16.665825842696588","500","250","tilt","","","","","-8","-4","1"
"","psychophysics","75","300437","0.0-75.0","6111b8b600b79655a5381437","625756587b8018e08576e800","","","","","2556","key"," "," ","16.667104575163656","500","250","tilt","","","","","9","4","0"
"","psychophysics","76","302763","0.0-76.0","6111b8b600b79655a5381437","625756587b8018e08576e800","","","","","2324","key"," "," ","16.66776086956531","500","250","tilt","","","","","-10","-5","1"
"","psychophysics","77","303751","0.0-77.0","6111b8b600b79655a5381437","625756587b8018e08576e800","","","","","982","key"," "," ","16.667508474576792","500","250","inst","","","","","","",""
"","psychophysics","78","306533","0.0-78.0","6111b8b600b79655a5381437","625756587b8018e08576e800","","","","","2778","key"," "," ","16.666963855421777","500","250","instPz","","","","","50","50",""
"","psychophysics","79","315658","0.0-79.0","6111b8b600b79655a5381437","625756587b8018e08576e800","","","","","9123","key"," "," ","16.666005494505434","500","250","instPz","","","","","52","50",""
"","psychophysics","80","318152","0.0-80.0","6111b8b600b79655a5381437","625756587b8018e08576e800","","","","","2491","key"," "," ","16.665691275167944","500","250","instPz","","","","","30","30",""
"","psychophysics","81","327797","0.0-81.0","6111b8b600b79655a5381437","625756587b8018e08576e800","","","","","9641","key"," "," ","16.665963604852685","500","250","instPz","","","","","49","40",""
"","psychophysics","82","328688","0.0-82.0","6111b8b600b79655a5381437","625756587b8018e08576e800","","","","","886","key"," "," ","16.67088679245339","500","250","inst","","","","","","",""
"","psychophysics","83","335099","0.0-83.0","6111b8b600b79655a5381437","625756587b8018e08576e800","","","","","6400","key"," "," ","16.666213541666668","500","250","pz","","","","","69","52",""
"","psychophysics","84","338899","0.0-84.0","6111b8b600b79655a5381437","625756587b8018e08576e800","","","","","3797","key"," "," ","16.666101321585717","500","250","pz","","","","","47","38",""
"","psychophysics","85","344625","0.0-85.0","6111b8b600b79655a5381437","625756587b8018e08576e800","","","","","5724","key"," "," ","16.666324561403428","500","250","pz","","","","","60","58",""
"","psychophysics","86","348743","0.0-86.0","6111b8b600b79655a5381437","625756587b8018e08576e800","","","","","4115","key"," "," ","16.66676422764218","500","250","pz","","","","","62","59",""
"","psychophysics","87","351732","0.0-87.0","6111b8b600b79655a5381437","625756587b8018e08576e800","","","","","2984","key"," "," ","16.667340782122732","500","250","pz","","","","","34","26",""
"","psychophysics","88","355804","0.0-88.0","6111b8b600b79655a5381437","625756587b8018e08576e800","","","","","4069","key"," "," ","16.666823045267492","500","250","pz","","","","","32","29",""
"","psychophysics","89","360830","0.0-89.0","6111b8b600b79655a5381437","625756587b8018e08576e800","","","","","5024","key"," "," ","16.666644518272534","500","250","pz","","","","","59","51",""
"","psychophysics","90","365021","0.0-90.0","6111b8b600b79655a5381437","625756587b8018e08576e800","","","","","4188","key"," "," ","16.665648000000044","500","250","pz","","","","","73","60",""
"","psychophysics","91","369630","0.0-91.0","6111b8b600b79655a5381437","625756587b8018e08576e800","","","","","4606","key"," "," ","16.66603623188406","500","250","pz","","","","","74","56",""
"","psychophysics","92","372087","0.0-92.0","6111b8b600b79655a5381437","625756587b8018e08576e800","","","","","2455","key"," "," ","16.66686301369839","500","250","pz","","","","","27","22",""
"","psychophysics","93","375348","0.0-93.0","6111b8b600b79655a5381437","625756587b8018e08576e800","","","","","3258","key"," "," ","16.666271794871548","500","250","pz","","","","","58","53",""
"","psychophysics","94","377913","0.0-94.0","6111b8b600b79655a5381437","625756587b8018e08576e800","","","","","2562","key"," "," ","16.66533333333354","500","250","pz","","","","","68","58",""
"","psychophysics","95","380487","0.0-95.0","6111b8b600b79655a5381437","625756587b8018e08576e800","","","","","2571","key"," "," ","16.666052287581813","500","250","pz","","","","","45","38",""
"","psychophysics","96","383841","0.0-96.0","6111b8b600b79655a5381437","625756587b8018e08576e800","","","","","3351","key"," "," ","16.665544999999984","500","250","pz","","","","","59","51",""
"","psychophysics","97","387367","0.0-97.0","6111b8b600b79655a5381437","625756587b8018e08576e800","","","","","3521","key"," "," ","16.666853080568746","500","250","pz","","","","","62","51",""
"","psychophysics","98","388325","0.0-98.0","6111b8b600b79655a5381437","625756587b8018e08576e800","","","","","956","key"," "," ","16.663303571427864","500","250","inst","","","","","","",""
"","psychophysics","99","390334","0.0-99.0","6111b8b600b79655a5381437","625756587b8018e08576e800","","","","","2002","key"," "," ","16.655291666666745","500","250","inst","","","","","","",""
"","psychophysics","100","392829","0.0-100.0","6111b8b600b79655a5381437","625756587b8018e08576e800","","","","","2478","key"," "," ","16.666999999999817","500","250","instFlank","","","","","0.5","0.3","1"
"","psychophysics","101","396999","0.0-101.0","6111b8b600b79655a5381437","625756587b8018e08576e800","","","","","4168","key"," "," ","16.665742971887624","500","250","inst","","","","","","",""
"","psychophysics","102","399929","0.0-102.0","6111b8b600b79655a5381437","625756587b8018e08576e800","","","","","2926","key"," "," ","16.66685714285721","500","250","instFlank","","","","","0.31999999999999984","0.3","1"
"","psychophysics","103","403196","0.0-103.0","6111b8b600b79655a5381437","625756587b8018e08576e800","","","","","3265","key"," "," ","16.66580000000003","500","250","inst","","","","","","",""
"","psychophysics","104","406828","0.0-104.0","6111b8b600b79655a5381437","625756587b8018e08576e800","","","","","3628","key"," "," ","16.665576036866597","500","250","instFlank","","","","","0.34999999999999987","0.3","0"
"","psychophysics","105","411090","0.0-105.0","6111b8b600b79655a5381437","625756587b8018e08576e800","","","","","4259","key"," "," ","16.665496062991984","500","250","inst","","","","","","",""
"","psychophysics","106","413805","0.0-106.0","6111b8b600b79655a5381437","625756587b8018e08576e800","","","","","2709","key"," "," ","16.66643209876543","500","250","flank","","","","","0.47","0.26","0"
"","psychophysics","107","418020","0.0-107.0","6111b8b600b79655a5381437","625756587b8018e08576e800","","","","","4211","key"," "," ","16.66618650793657","500","250","flank","","","","","0.6200000000000001","0.58","1"
"","psychophysics","108","420824","0.0-108.0","6111b8b600b79655a5381437","625756587b8018e08576e800","","","","","2800","key"," "," ","16.666275449102038","500","250","flank","","","","","0.53","0.5","0"
"","psychophysics","109","424999","0.0-109.0","6111b8b600b79655a5381437","625756587b8018e08576e800","","","","","4170","key"," "," ","16.666091999999946","500","250","flank","","","","","0.2599999999999998","0.24","1"
"","psychophysics","110","428521","0.0-110.0","6111b8b600b79655a5381437","625756587b8018e08576e800","","","","","3519","key"," "," ","16.666061904762007","500","250","flank","","","","","0.6500000000000001","0.56","0"
"","psychophysics","111","431890","0.0-111.0","6111b8b600b79655a5381437","625756587b8018e08576e800","","","","","3366","key"," "," ","16.666054726368053","500","250","flank","","","","","0.7400000000000002","0.7","0"
"","psychophysics","112","434880","0.0-112.0","6111b8b600b79655a5381437","625756587b8018e08576e800","","","","","2985","key"," "," ","16.66555307262581","500","250","flank","","","","","0.2299999999999998","0.2","1"
"","psychophysics","113","438000","0.0-113.0","6111b8b600b79655a5381437","625756587b8018e08576e800","","","","","3116","key"," "," ","16.667661290322567","500","250","flank","","","","","0.8000000000000003","0.78","0"
"","psychophysics","114","440929","0.0-114.0","6111b8b600b79655a5381437","625756587b8018e08576e800","","","","","2926","key"," "," ","16.665274285714343","500","250","flank","","","","","0.1999999999999998","0.24","1"
"","psychophysics","115","443726","0.0-115.0","6111b8b600b79655a5381437","625756587b8018e08576e800","","","","","2793","key"," "," ","16.6647365269461","500","250","flank","","","","","0.6200000000000001","0.56","0"
"","psychophysics","116","446215","0.0-116.0","6111b8b600b79655a5381437","625756587b8018e08576e800","","","","","2476","key"," "," ","16.665202702702388","500","250","flank","","","","","0.34999999999999987","0.24","0"
"","psychophysics","117","449183","0.0-117.0","6111b8b600b79655a5381437","625756587b8018e08576e800","","","","","2964","key"," "," ","16.66554237288123","500","250","flank","","","","","0.7100000000000002","0.64","0"
"","psychophysics","118","451801","0.0-118.0","6111b8b600b79655a5381437","625756587b8018e08576e800","","","","","2614","key"," "," ","16.66416666666695","500","250","flank","","","","","0.47","0.5","1"
"","psychophysics","119","455363","0.0-119.0","6111b8b600b79655a5381437","625756587b8018e08576e800","","","","","3558","key"," "," ","16.66628169014087","500","250","flank","","","","","0.8000000000000003","0.8","0"
"","psychophysics","120","459659","0.0-120.0","6111b8b600b79655a5381437","625756587b8018e08576e800","","","","","4293","key"," "," ","16.66479766536966","500","250","flank","","","","","0.53","0.5","0"
"","psychophysics","121","462140","0.0-121.0","6111b8b600b79655a5381437","625756587b8018e08576e800","","","","","2475","key"," "," ","16.66422448979594","500","250","flank","","","","","0.4099999999999999","0.4","0"
"","psychophysics","122","464774","0.0-122.0","6111b8b600b79655a5381437","625756587b8018e08576e800","","","","","2628","key"," "," ","16.667006369426574","500","250","flank","","","","","0.6200000000000001","0.54","0"
"","psychophysics","123","467237","0.0-123.0","6111b8b600b79655a5381437","625756587b8018e08576e800","","","","","2457","key"," "," ","16.667578231292257","500","250","flank","","","","","0.4099999999999999","0.42","1"
"","psychophysics","124","470210","0.0-124.0","6111b8b600b79655a5381437","625756587b8018e08576e800","","","","","2969","key"," "," ","16.66639325842706","500","250","flank","","","","","0.7700000000000002","0.76","1"
"","psychophysics","125","473355","0.0-125.0","6111b8b600b79655a5381437","625756587b8018e08576e800","","","","","3142","key"," "," ","16.666064171123015","500","250","flank","","","","","0.7100000000000002","0.66","0"
"","psychophysics","126","476637","0.0-126.0","6111b8b600b79655a5381437","625756587b8018e08576e800","","","","","3276","key"," "," ","16.66621938775524","500","250","flank","","","","","0.8000000000000003","0.7","0"
"","psychophysics","127","480263","0.0-127.0","6111b8b600b79655a5381437","625756587b8018e08576e800","","","","","3619","key"," "," ","16.666788018433312","500","250","flank","","","","","0.6200000000000001","0.54","0"
"","psychophysics","128","482880","0.0-128.0","6111b8b600b79655a5381437","625756587b8018e08576e800","","","","","2614","key"," "," ","16.665416666666623","500","250","flank","","","","","0.5900000000000001","0.54","1"
"","psychophysics","129","485551","0.0-129.0","6111b8b600b79655a5381437","625756587b8018e08576e800","","","","","2667","key"," "," ","16.66623899371088","500","250","flank","","","","","0.43999999999999995","0.4","1"
"","psychophysics","130","488570","0.0-130.0","6111b8b600b79655a5381437","625756587b8018e08576e800","","","","","3016","key"," "," ","16.666116666666735","500","250","flank","","","","","0.6800000000000002","0.58","1"
"","psychophysics","131","490994","0.0-131.0","6111b8b600b79655a5381437","625756587b8018e08576e800","","","","","2419","key"," "," ","16.667772413793035","500","250","flank","","","","","0.4099999999999999","0.28","0"
"","psychophysics","132","493782","0.0-132.0","6111b8b600b79655a5381437","625756587b8018e08576e800","","","","","2786","key"," "," ","16.666174698795306","500","250","flank","","","","","0.6800000000000002","0.64","1"
"","psychophysics","133","496640","0.0-133.0","6111b8b600b79655a5381437","625756587b8018e08576e800","","","","","2854","key"," "," ","16.667464705882253","500","250","flank","","","","","0.6500000000000001","0.66","1"
"","psychophysics","134","499909","0.0-134.0","6111b8b600b79655a5381437","625756587b8018e08576e800","","","","","3263","key"," "," ","16.667198979591877","500","250","flank","","","","","0.7400000000000002","0.64","0"
"","psychophysics","135","502544","0.0-135.0","6111b8b600b79655a5381437","625756587b8018e08576e800","","","","","2631","key"," "," ","16.665999999999848","500","250","flank","","","","","0.34999999999999987","0.3","0"
"true","fullscreen","136","502547","0.0-136.0","6111b8b600b79655a5381437","625756587b8018e08576e800","","","","","","","","","","","","","","","","","","",""
