"success","trial_type","trial_index","time_elapsed","internal_node_id","pid","sid","timeout","failed_images","failed_audio","failed_video","rt","response_type","key_press","response","avg_frame_time","center_x","center_y","task","ml_len","ml_start","ml_x","ml_y","resp","targ","back"
"true","fullscreen","0","3154","0.0-0.0","60fc7d423aa600bbb01b7813","62574cb3c65c2ecb62cf6e33","","","","","","","","","","","","","","","","","","",""
"true","preload","1","3156","0.0-1.0","60fc7d423aa600bbb01b7813","62574cb3c65c2ecb62cf6e33","false","[]","[]","[]","","","","","","","","","","","","","","",""
"","psychophysics","2","7870","0.0-2.0","60fc7d423aa600bbb01b7813","62574cb3c65c2ecb62cf6e33","","","","","4700","key"," "," ","8.33349203539823","500","250","inst","","","","","","",""
"","psychophysics","3","8936","0.0-3.0","60fc7d423aa600bbb01b7813","62574cb3c65c2ecb62cf6e33","","","","","1062","key"," "," ","8.333393700787404","500","250","inst","","","","","","",""
"","psychophysics","4","26533","0.0-4.0","60fc7d423aa600bbb01b7813","62574cb3c65c2ecb62cf6e33","","","","","17594","key"," "," ","8.341305832147937","500","250","instMl","154","-25.666666666666668","-6","-29","-15.666666666666686","",""
"","psychophysics","5","42882","0.0-5.0","60fc7d423aa600bbb01b7813","62574cb3c65c2ecb62cf6e33","","","","","16347","key"," "," ","8.333409484956654","500","250","instMl","196","-32.666666666666664","-5","-2","-15.666666666666686","",""
"","psychophysics","6","51344","0.0-6.0","60fc7d423aa600bbb01b7813","62574cb3c65c2ecb62cf6e33","","","","","8460","key"," "," ","8.33340927021696","500","250","inst","","","","","","",""
"","psychophysics","7","62118","0.0-7.0","60fc7d423aa600bbb01b7813","62574cb3c65c2ecb62cf6e33","","","","","10772","key"," "," ","8.333409442724458","500","250","ml","174","-20","-8","3","-15","",""
"","psychophysics","8","68040","0.0-8.0","60fc7d423aa600bbb01b7813","62574cb3c65c2ecb62cf6e33","","","","","5920","key"," "," ","8.333409859154937","500","250","ml","174","-39","-18","16","-15","",""
"","psychophysics","9","78609","0.0-9.0","60fc7d423aa600bbb01b7813","62574cb3c65c2ecb62cf6e33","","","","","10567","key"," "," ","8.33343883188635","500","250","ml","180","-44","-24","10","-15","",""
"","psychophysics","10","95948","0.0-10.0","60fc7d423aa600bbb01b7813","62574cb3c65c2ecb62cf6e33","","","","","17337","key"," "," ","8.341421077959575","500","250","ml","204","37","19","-6","-18","",""
"","psychophysics","11","106717","0.0-11.0","60fc7d423aa600bbb01b7813","62574cb3c65c2ecb62cf6e33","","","","","10766","key"," "," ","8.346349883630715","500","250","ml","188","-16","10","20","-15","",""
"","psychophysics","12","116018","0.0-12.0","60fc7d423aa600bbb01b7813","62574cb3c65c2ecb62cf6e33","","","","","9299","key"," "," ","8.333454708520176","500","250","ml","194","9","-17","-2","-19","",""
"","psychophysics","13","122776","0.0-13.0","60fc7d423aa600bbb01b7813","62574cb3c65c2ecb62cf6e33","","","","","6756","key"," "," ","8.333403703703704","500","250","ml","152","0","-30","-21","-14","",""
"","psychophysics","14","130863","0.0-14.0","60fc7d423aa600bbb01b7813","62574cb3c65c2ecb62cf6e33","","","","","8084","key"," "," ","8.333459236326112","500","250","ml","186","-11","-29","-26","-17","",""
"","psychophysics","15","142034","0.0-15.0","60fc7d423aa600bbb01b7813","62574cb3c65c2ecb62cf6e33","","","","","11169","key"," "," ","8.345865470852026","500","250","ml","232","32","-13","-21","-18","",""
"","psychophysics","16","154426","0.0-16.0","60fc7d423aa600bbb01b7813","62574cb3c65c2ecb62cf6e33","","","","","12390","key"," "," ","8.333400403768499","500","250","ml","240","34","-23","9","-16","",""
"","psychophysics","17","163473","0.0-17.0","60fc7d423aa600bbb01b7813","62574cb3c65c2ecb62cf6e33","","","","","9045","key"," "," ","8.333391143911447","500","250","ml","240","13","19","-16","-18","",""
"","psychophysics","18","168114","0.0-18.0","60fc7d423aa600bbb01b7813","62574cb3c65c2ecb62cf6e33","","","","","4638","key"," "," ","8.333300359712235","500","250","ml","204","8","3","-16","-23","",""
"","psychophysics","19","178060","0.0-19.0","60fc7d423aa600bbb01b7813","62574cb3c65c2ecb62cf6e33","","","","","9944","key"," "," ","8.333417435037713","500","250","ml","248","23","-18","-15","-19","",""
"","psychophysics","20","190242","0.0-20.0","60fc7d423aa600bbb01b7813","62574cb3c65c2ecb62cf6e33","","","","","12180","key"," "," ","8.333400410677617","500","250","ml","240","27","-23","-21","-24","",""
"","psychophysics","21","197651","0.0-21.0","60fc7d423aa600bbb01b7813","62574cb3c65c2ecb62cf6e33","","","","","7407","key"," "," ","8.333397522522523","500","250","ml","248","-27","-16","-27","-21","",""
"","psychophysics","22","199164","0.0-22.0","60fc7d423aa600bbb01b7813","62574cb3c65c2ecb62cf6e33","","","","","1511","key"," "," ","8.33333888888899","500","250","inst","","","","","","",""
"","psychophysics","23","214046","0.0-23.0","60fc7d423aa600bbb01b7813","62574cb3c65c2ecb62cf6e33","","","","","14879","key"," "," ","8.333407843137255","500","250","instPog","","","","","130","130",""
"","psychophysics","24","232223","0.0-24.0","60fc7d423aa600bbb01b7813","62574cb3c65c2ecb62cf6e33","","","","","18175","key"," "," ","8.33339266055046","500","250","instPog","","","","","133","130",""
"","psychophysics","25","244494","0.0-25.0","60fc7d423aa600bbb01b7813","62574cb3c65c2ecb62cf6e33","","","","","12268","key"," "," ","8.333427989130442","500","250","instPog","","","","","142","130",""
"","psychophysics","26","248526","0.0-26.0","60fc7d423aa600bbb01b7813","62574cb3c65c2ecb62cf6e33","","","","","4028","key"," "," ","8.333546583850937","500","250","inst","","","","","","",""
"","psychophysics","27","259089","0.0-27.0","60fc7d423aa600bbb01b7813","62574cb3c65c2ecb62cf6e33","","","","","10559","key"," "," ","8.346590981012646","500","250","pog","","","","","207","186",""
"","psychophysics","28","266929","0.0-28.0","60fc7d423aa600bbb01b7813","62574cb3c65c2ecb62cf6e33","","","","","7837","key"," "," ","8.333455319148909","500","250","pog","","","","","204","182",""
"","psychophysics","29","279679","0.0-29.0","60fc7d423aa600bbb01b7813","62574cb3c65c2ecb62cf6e33","","","","","12748","key"," "," ","8.333403531720062","500","250","pog","","","","","164","148",""
"","psychophysics","30","288795","0.0-30.0","60fc7d423aa600bbb01b7813","62574cb3c65c2ecb62cf6e33","","","","","9114","key"," "," ","8.333388838060412","500","250","pog","","","","","160","144",""
"","psychophysics","31","305826","0.0-31.0","60fc7d423aa600bbb01b7813","62574cb3c65c2ecb62cf6e33","","","","","17028","key"," "," ","8.333408712677453","500","250","pog","","","","","176","159",""
"","psychophysics","32","315550","0.0-32.0","60fc7d423aa600bbb01b7813","62574cb3c65c2ecb62cf6e33","","","","","9722","key"," "," ","8.333400514579756","500","250","pog","","","","","194","168",""
"","psychophysics","33","337943","0.0-33.0","60fc7d423aa600bbb01b7813","62574cb3c65c2ecb62cf6e33","","","","","22391","key"," "," ","8.339635618479878","500","250","pog","","","","","185","169",""
"","psychophysics","34","351472","0.0-34.0","60fc7d423aa600bbb01b7813","62574cb3c65c2ecb62cf6e33","","","","","13526","key"," "," ","8.333403205918636","500","250","pog","","","","","204","185",""
"","psychophysics","35","367322","0.0-35.0","60fc7d423aa600bbb01b7813","62574cb3c65c2ecb62cf6e33","","","","","15847","key"," "," ","8.333410836401901","500","250","pog","","","","","203","185",""
"","psychophysics","36","396328","0.0-36.0","60fc7d423aa600bbb01b7813","62574cb3c65c2ecb62cf6e33","","","","","29004","key"," "," ","8.33340603448275","500","250","pog","","","","","177","162",""
"","psychophysics","37","401339","0.0-37.0","60fc7d423aa600bbb01b7813","62574cb3c65c2ecb62cf6e33","","","","","5009","key"," "," ","8.33340333333336","500","250","pog","","","","","156","139",""
"","psychophysics","38","409190","0.0-38.0","60fc7d423aa600bbb01b7813","62574cb3c65c2ecb62cf6e33","","","","","7849","key"," "," ","8.333394261424004","500","250","pog","","","","","144","121",""
"","psychophysics","39","416789","0.0-39.0","60fc7d423aa600bbb01b7813","62574cb3c65c2ecb62cf6e33","","","","","7596","key"," "," ","8.333465422612527","500","250","pog","","","","","174","156",""
"","psychophysics","40","422870","0.0-40.0","60fc7d423aa600bbb01b7813","62574cb3c65c2ecb62cf6e33","","","","","6080","key"," "," ","8.333368998628275","500","250","pog","","","","","153","129",""
"","psychophysics","41","444245","0.0-41.0","60fc7d423aa600bbb01b7813","62574cb3c65c2ecb62cf6e33","","","","","21372","key"," "," ","8.33343018720748","500","250","pog","","","","","194","184",""
"","psychophysics","42","445600","0.0-42.0","60fc7d423aa600bbb01b7813","62574cb3c65c2ecb62cf6e33","","","","","1353","key"," "," ","8.33362732919241","500","250","inst","","","","","","",""
"","psychophysics","43","451668","0.0-43.0","60fc7d423aa600bbb01b7813","62574cb3c65c2ecb62cf6e33","","","","","6065","key"," "," ","8.344825309491092","500","250","instTilt","","","","","NaN","0","0"
"","psychophysics","44","454957","0.0-44.0","60fc7d423aa600bbb01b7813","62574cb3c65c2ecb62cf6e33","","","","","3287","key"," "," ","8.333328244274863","500","250","instTilt","","","","","0","0","0"
"","psychophysics","45","469526","0.0-45.0","60fc7d423aa600bbb01b7813","62574cb3c65c2ecb62cf6e33","","","","","14566","key"," "," ","8.333409038901602","500","250","instTilt","","","","","2","0","0"
"","psychophysics","46","473556","0.0-46.0","60fc7d423aa600bbb01b7813","62574cb3c65c2ecb62cf6e33","","","","","4028","key"," "," ","8.333195020746839","500","250","inst","","","","","","",""
"","psychophysics","47","478785","0.0-47.0","60fc7d423aa600bbb01b7813","62574cb3c65c2ecb62cf6e33","","","","","5227","key"," "," ","8.333438596491307","500","250","tilt","","","","","6","5","0"
"","psychophysics","48","483531","0.0-48.0","60fc7d423aa600bbb01b7813","62574cb3c65c2ecb62cf6e33","","","","","4745","key"," "," ","8.333360915493039","500","250","tilt","","","","","-5","-2","1"
"","psychophysics","49","487399","0.0-49.0","60fc7d423aa600bbb01b7813","62574cb3c65c2ecb62cf6e33","","","","","3864","key"," "," ","8.333224622030228","500","250","tilt","","","","","-4","-7","0"
"","psychophysics","50","493496","0.0-50.0","60fc7d423aa600bbb01b7813","62574cb3c65c2ecb62cf6e33","","","","","6094","key"," "," ","8.333443228454216","500","250","tilt","","","","","2","4","1"
"","psychophysics","51","498643","0.0-51.0","60fc7d423aa600bbb01b7813","62574cb3c65c2ecb62cf6e33","","","","","5145","key"," "," ","8.333426256077775","500","250","tilt","","","","","3","1","0"
"","psychophysics","52","505313","0.0-52.0","60fc7d423aa600bbb01b7813","62574cb3c65c2ecb62cf6e33","","","","","6668","key"," "," ","8.333369211514421","500","250","tilt","","","","","10","8","0"
"","psychophysics","53","510796","0.0-53.0","60fc7d423aa600bbb01b7813","62574cb3c65c2ecb62cf6e33","","","","","5481","key"," "," ","8.333496194824901","500","250","tilt","","","","","-7","-6","1"
"","psychophysics","54","515568","0.0-54.0","60fc7d423aa600bbb01b7813","62574cb3c65c2ecb62cf6e33","","","","","4770","key"," "," ","8.333377622377588","500","250","tilt","","","","","-4","0","1"
"","psychophysics","55","520132","0.0-55.0","60fc7d423aa600bbb01b7813","62574cb3c65c2ecb62cf6e33","","","","","4561","key"," "," ","8.333364468864561","500","250","tilt","","","","","-5","-3","1"
"","psychophysics","56","524976","0.0-56.0","60fc7d423aa600bbb01b7813","62574cb3c65c2ecb62cf6e33","","","","","4842","key"," "," ","8.333394148020638","500","250","tilt","","","","","-14","-10","1"
"","psychophysics","57","528965","0.0-57.0","60fc7d423aa600bbb01b7813","62574cb3c65c2ecb62cf6e33","","","","","3987","key"," "," ","8.333364779874243","500","250","tilt","","","","","4","3","1"
"","psychophysics","58","533374","0.0-58.0","60fc7d423aa600bbb01b7813","62574cb3c65c2ecb62cf6e33","","","","","4406","key"," "," ","8.33334659090906","500","250","tilt","","","","","-6","-3","1"
"","psychophysics","59","536454","0.0-59.0","60fc7d423aa600bbb01b7813","62574cb3c65c2ecb62cf6e33","","","","","3077","key"," "," ","8.333414634146102","500","250","tilt","","","","","4","6","1"
"","psychophysics","60","542622","0.0-60.0","60fc7d423aa600bbb01b7813","62574cb3c65c2ecb62cf6e33","","","","","6166","key"," "," ","8.333376184032463","500","250","tilt","","","","","-8","-9","0"
"","psychophysics","61","546146","0.0-61.0","60fc7d423aa600bbb01b7813","62574cb3c65c2ecb62cf6e33","","","","","3522","key"," "," ","8.333360189573355","500","250","tilt","","","","","-6","-10","0"
"","psychophysics","62","550626","0.0-62.0","60fc7d423aa600bbb01b7813","62574cb3c65c2ecb62cf6e33","","","","","4478","key"," "," ","8.333359404096772","500","250","tilt","","","","","-6","-5","0"
"","psychophysics","63","553510","0.0-63.0","60fc7d423aa600bbb01b7813","62574cb3c65c2ecb62cf6e33","","","","","2882","key"," "," ","8.333376811594244","500","250","tilt","","","","","9","9","0"
"","psychophysics","64","561131","0.0-64.0","60fc7d423aa600bbb01b7813","62574cb3c65c2ecb62cf6e33","","","","","7619","key"," "," ","8.351676180021931","500","250","tilt","","","","","6","10","1"
"","psychophysics","65","565510","0.0-65.0","60fc7d423aa600bbb01b7813","62574cb3c65c2ecb62cf6e33","","","","","4376","key"," "," ","8.333346666666635","500","250","tilt","","","","","-4","-10","0"
"","psychophysics","66","569543","0.0-66.0","60fc7d423aa600bbb01b7813","62574cb3c65c2ecb62cf6e33","","","","","4030","key"," "," ","8.333341614906743","500","250","tilt","","","","","-7","-9","0"
"","psychophysics","67","574628","0.0-67.0","60fc7d423aa600bbb01b7813","62574cb3c65c2ecb62cf6e33","","","","","5083","key"," "," ","8.333407224959018","500","250","tilt","","","","","9","8","0"
"","psychophysics","68","579803","0.0-68.0","60fc7d423aa600bbb01b7813","62574cb3c65c2ecb62cf6e33","","","","","5173","key"," "," ","8.33345645161293","500","250","tilt","","","","","3","7","1"
"","psychophysics","69","583946","0.0-69.0","60fc7d423aa600bbb01b7813","62574cb3c65c2ecb62cf6e33","","","","","4141","key"," "," ","8.333360887096674","500","250","tilt","","","","","10","9","0"
"","psychophysics","70","589565","0.0-70.0","60fc7d423aa600bbb01b7813","62574cb3c65c2ecb62cf6e33","","","","","5617","key"," "," ","8.333367013373","500","250","tilt","","","","","-7","-10","0"
"","psychophysics","71","593179","0.0-71.0","60fc7d423aa600bbb01b7813","62574cb3c65c2ecb62cf6e33","","","","","3612","key"," "," ","8.333344110854478","500","250","tilt","","","","","7","8","1"
"","psychophysics","72","598559","0.0-72.0","60fc7d423aa600bbb01b7813","62574cb3c65c2ecb62cf6e33","","","","","5378","key"," "," ","8.33337111801241","500","250","tilt","","","","","2","5","1"
"","psychophysics","73","607857","0.0-73.0","60fc7d423aa600bbb01b7813","62574cb3c65c2ecb62cf6e33","","","","","9295","key"," "," ","8.3334448430493","500","250","tilt","","","","","-2","-2","0"
"","psychophysics","74","614031","0.0-74.0","60fc7d423aa600bbb01b7813","62574cb3c65c2ecb62cf6e33","","","","","6171","key"," "," ","8.333379729729732","500","250","tilt","","","","","-3","-6","0"
"","psychophysics","75","617672","0.0-75.0","60fc7d423aa600bbb01b7813","62574cb3c65c2ecb62cf6e33","","","","","3639","key"," "," ","8.333357798165231","500","250","tilt","","","","","3","1","0"
"","psychophysics","76","621153","0.0-76.0","60fc7d423aa600bbb01b7813","62574cb3c65c2ecb62cf6e33","","","","","3479","key"," "," ","8.333448441247166","500","250","tilt","","","","","8","7","0"
"","psychophysics","77","622182","0.0-77.0","60fc7d423aa600bbb01b7813","62574cb3c65c2ecb62cf6e33","","","","","1027","key"," "," ","8.33314754098337","500","250","inst","","","","","","",""
"","psychophysics","78","625284","0.0-78.0","60fc7d423aa600bbb01b7813","62574cb3c65c2ecb62cf6e33","","","","","3098","key"," "," ","8.33329919137461","500","250","instPz","","","","","50","50",""
"","psychophysics","79","636949","0.0-79.0","60fc7d423aa600bbb01b7813","62574cb3c65c2ecb62cf6e33","","","","","11663","key"," "," ","8.333398141529663","500","250","instPz","","","","","46","50",""
"","psychophysics","80","656949","0.0-80.0","60fc7d423aa600bbb01b7813","62574cb3c65c2ecb62cf6e33","","","","","19997","key"," "," ","8.333443934972918","500","250","instPz","","","","","30","30",""
"","psychophysics","81","677366","0.0-81.0","60fc7d423aa600bbb01b7813","62574cb3c65c2ecb62cf6e33","","","","","20414","key"," "," ","8.333434871376094","500","250","instPz","","","","","46","40",""
"","psychophysics","82","706140","0.0-82.0","60fc7d423aa600bbb01b7813","62574cb3c65c2ecb62cf6e33","","","","","28771","key"," "," ","8.33340324449596","500","250","inst","","","","","","",""
"","psychophysics","83","714448","0.0-83.0","60fc7d423aa600bbb01b7813","62574cb3c65c2ecb62cf6e33","","","","","8306","key"," "," ","8.333411646586324","500","250","pz","","","","","61","58",""
"","psychophysics","84","724678","0.0-84.0","60fc7d423aa600bbb01b7813","62574cb3c65c2ecb62cf6e33","","","","","10228","key"," "," ","8.333503667481688","500","250","pz","","","","","32","30",""
"","psychophysics","85","732473","0.0-85.0","60fc7d423aa600bbb01b7813","62574cb3c65c2ecb62cf6e33","","","","","7793","key"," "," ","8.333384368308407","500","250","pz","","","","","46","42",""
"","psychophysics","86","739860","0.0-86.0","60fc7d423aa600bbb01b7813","62574cb3c65c2ecb62cf6e33","","","","","7385","key"," "," ","8.333369491525431","500","250","pz","","","","","61","52",""
"","psychophysics","87","745420","0.0-87.0","60fc7d423aa600bbb01b7813","62574cb3c65c2ecb62cf6e33","","","","","5558","key"," "," ","8.33336281859071","500","250","pz","","","","","25","22",""
"","psychophysics","88","752750","0.0-88.0","60fc7d423aa600bbb01b7813","62574cb3c65c2ecb62cf6e33","","","","","7328","key"," "," ","8.333367881549025","500","250","pz","","","","","36","33",""
"","psychophysics","89","760203","0.0-89.0","60fc7d423aa600bbb01b7813","62574cb3c65c2ecb62cf6e33","","","","","7450","key"," "," ","8.33351118568231","500","250","pz","","","","","59","54",""
"","psychophysics","90","769587","0.0-90.0","60fc7d423aa600bbb01b7813","62574cb3c65c2ecb62cf6e33","","","","","9383","key"," "," ","8.333427555555478","500","250","pz","","","","","48","49",""
"","psychophysics","91","776742","0.0-91.0","60fc7d423aa600bbb01b7813","62574cb3c65c2ecb62cf6e33","","","","","7152","key"," "," ","8.333432905484223","500","250","pz","","","","","72","59",""
"","psychophysics","92","783575","0.0-92.0","60fc7d423aa600bbb01b7813","62574cb3c65c2ecb62cf6e33","","","","","6829","key"," "," ","8.3334590964591","500","250","pz","","","","","32","28",""
"","psychophysics","93","787996","0.0-93.0","60fc7d423aa600bbb01b7813","62574cb3c65c2ecb62cf6e33","","","","","4419","key"," "," ","8.333330188679316","500","250","pz","","","","","39","27",""
"","psychophysics","94","794568","0.0-94.0","60fc7d423aa600bbb01b7813","62574cb3c65c2ecb62cf6e33","","","","","6570","key"," "," ","8.333391359593486","500","250","pz","","","","","62","49",""
"","psychophysics","95","798219","0.0-95.0","60fc7d423aa600bbb01b7813","62574cb3c65c2ecb62cf6e33","","","","","3648","key"," "," ","8.333288329519444","500","250","pz","","","","","38","28",""
"","psychophysics","96","803638","0.0-96.0","60fc7d423aa600bbb01b7813","62574cb3c65c2ecb62cf6e33","","","","","5416","key"," "," ","8.333467692307627","500","250","pz","","","","","37","31",""
"","psychophysics","97","810343","0.0-97.0","60fc7d423aa600bbb01b7813","62574cb3c65c2ecb62cf6e33","","","","","6703","key"," "," ","8.333384806973829","500","250","pz","","","","","43","35",""
"","psychophysics","98","812720","0.0-98.0","60fc7d423aa600bbb01b7813","62574cb3c65c2ecb62cf6e33","","","","","2375","key"," "," ","8.333319298245355","500","250","inst","","","","","","",""
"","psychophysics","99","815089","0.0-99.0","60fc7d423aa600bbb01b7813","62574cb3c65c2ecb62cf6e33","","","","","2366","key"," "," ","8.333363957596982","500","250","inst","","","","","","",""
"","psychophysics","100","838951","0.0-100.0","60fc7d423aa600bbb01b7813","62574cb3c65c2ecb62cf6e33","","","","","23858","key"," "," ","8.333391334730946","500","250","instFlank","","","","","0.5","0.3","1"
"","psychophysics","101","847203","0.0-101.0","60fc7d423aa600bbb01b7813","62574cb3c65c2ecb62cf6e33","","","","","8250","key"," "," ","8.350257345491297","500","250","inst","","","","","","",""
"","psychophysics","102","855096","0.0-102.0","60fc7d423aa600bbb01b7813","62574cb3c65c2ecb62cf6e33","","","","","7890","key"," "," ","8.333368532207043","500","250","instFlank","","","","","0.43999999999999995","0.3","1"
"","psychophysics","103","859606","0.0-103.0","60fc7d423aa600bbb01b7813","62574cb3c65c2ecb62cf6e33","","","","","4506","key"," "," ","8.333346296296265","500","250","inst","","","","","","",""
"","psychophysics","104","865930","0.0-104.0","60fc7d423aa600bbb01b7813","62574cb3c65c2ecb62cf6e33","","","","","6321","key"," "," ","8.333366754617312","500","250","instFlank","","","","","0.4099999999999999","0.3","0"
"","psychophysics","105","867314","0.0-105.0","60fc7d423aa600bbb01b7813","62574cb3c65c2ecb62cf6e33","","","","","1381","key"," "," ","8.333460606060301","500","250","inst","","","","","","",""
"","psychophysics","106","871241","0.0-106.0","60fc7d423aa600bbb01b7813","62574cb3c65c2ecb62cf6e33","","","","","3925","key"," "," ","8.33338723404239","500","250","flank","","","","","0.5900000000000001","0.56","0"
"","psychophysics","107","875530","0.0-107.0","60fc7d423aa600bbb01b7813","62574cb3c65c2ecb62cf6e33","","","","","4287","key"," "," ","8.333385214007755","500","250","flank","","","","","0.6800000000000002","0.7","0"
"","psychophysics","108","878803","0.0-108.0","60fc7d423aa600bbb01b7813","62574cb3c65c2ecb62cf6e33","","","","","3271","key"," "," ","8.333378516624103","500","250","flank","","","","","0.56","0.5","1"
"","psychophysics","109","882818","0.0-109.0","60fc7d423aa600bbb01b7813","62574cb3c65c2ecb62cf6e33","","","","","4011","key"," "," ","8.333403326403262","500","250","flank","","","","","0.34999999999999987","0.36","0"
"","psychophysics","110","887040","0.0-110.0","60fc7d423aa600bbb01b7813","62574cb3c65c2ecb62cf6e33","","","","","4218","key"," "," ","8.333373517786399","500","250","flank","","","","","0.7100000000000002","0.68","0"
"","psychophysics","111","892307","0.0-111.0","60fc7d423aa600bbb01b7813","62574cb3c65c2ecb62cf6e33","","","","","5265","key"," "," ","8.333348652931845","500","250","flank","","","","","0.2599999999999998","0.34","0"
"","psychophysics","112","896652","0.0-112.0","60fc7d423aa600bbb01b7813","62574cb3c65c2ecb62cf6e33","","","","","4343","key"," "," ","8.333342307692286","500","250","flank","","","","","0.43999999999999995","0.48","0"
"","psychophysics","113","901992","0.0-113.0","60fc7d423aa600bbb01b7813","62574cb3c65c2ecb62cf6e33","","","","","5337","key"," "," ","8.333373437500086","500","250","flank","","","","","0.2899999999999998","0.22","0"
"","psychophysics","114","906127","0.0-114.0","60fc7d423aa600bbb01b7813","62574cb3c65c2ecb62cf6e33","","","","","4133","key"," "," ","8.333422222222211","500","250","flank","","","","","0.4099999999999999","0.4","0"
"","psychophysics","115","910458","0.0-115.0","60fc7d423aa600bbb01b7813","62574cb3c65c2ecb62cf6e33","","","","","4328","key"," "," ","8.333346820809217","500","250","flank","","","","","0.10999999999999979","0.2","1"
"","psychophysics","116","915577","0.0-116.0","60fc7d423aa600bbb01b7813","62574cb3c65c2ecb62cf6e33","","","","","5116","key"," "," ","8.333391517128788","500","250","flank","","","","","0.7100000000000002","0.66","0"
"","psychophysics","117","919465","0.0-117.0","60fc7d423aa600bbb01b7813","62574cb3c65c2ecb62cf6e33","","","","","3885","key"," "," ","8.3334506437769","500","250","flank","","","","","0.6800000000000002","0.7","0"
"","psychophysics","118","923391","0.0-118.0","60fc7d423aa600bbb01b7813","62574cb3c65c2ecb62cf6e33","","","","","3923","key"," "," ","8.33334893617021","500","250","flank","","","","","0.3799999999999999","0.34","0"
"","psychophysics","119","927144","0.0-119.0","60fc7d423aa600bbb01b7813","62574cb3c65c2ecb62cf6e33","","","","","3750","key"," "," ","8.333309576837324","500","250","flank","","","","","0.7100000000000002","0.72","0"
"","psychophysics","120","929822","0.0-120.0","60fc7d423aa600bbb01b7813","62574cb3c65c2ecb62cf6e33","","","","","2675","key"," "," ","8.333420560747454","500","250","flank","","","","","0.4099999999999999","0.28","0"
"","psychophysics","121","932966","0.0-121.0","60fc7d423aa600bbb01b7813","62574cb3c65c2ecb62cf6e33","","","","","3142","key"," "," ","8.333220744680768","500","250","flank","","","","","0.5900000000000001","0.56","0"
"","psychophysics","122","935760","0.0-122.0","60fc7d423aa600bbb01b7813","62574cb3c65c2ecb62cf6e33","","","","","2791","key"," "," ","8.333329341317176","500","250","flank","","","","","0.43999999999999995","0.4","1"
"","psychophysics","123","940367","0.0-123.0","60fc7d423aa600bbb01b7813","62574cb3c65c2ecb62cf6e33","","","","","4604","key"," "," ","8.333342391304356","500","250","flank","","","","","0.2599999999999998","0.24","1"
"","psychophysics","124","943330","0.0-124.0","60fc7d423aa600bbb01b7813","62574cb3c65c2ecb62cf6e33","","","","","2960","key"," "," ","8.333335211267695","500","250","flank","","","","","0.43999999999999995","0.36","0"
"","psychophysics","125","946295","0.0-125.0","60fc7d423aa600bbb01b7813","62574cb3c65c2ecb62cf6e33","","","","","2963","key"," "," ","8.333355932203148","500","250","flank","","","","","0.47","0.44","0"
"","psychophysics","126","949188","0.0-126.0","60fc7d423aa600bbb01b7813","62574cb3c65c2ecb62cf6e33","","","","","2889","key"," "," ","8.333279538904693","500","250","flank","","","","","0.56","0.52","0"
"","psychophysics","127","952230","0.0-127.0","60fc7d423aa600bbb01b7813","62574cb3c65c2ecb62cf6e33","","","","","3040","key"," "," ","8.33348901098873","500","250","flank","","","","","0.6500000000000001","0.64","0"
"","psychophysics","128","956111","0.0-128.0","60fc7d423aa600bbb01b7813","62574cb3c65c2ecb62cf6e33","","","","","3878","key"," "," ","8.333377155172489","500","250","flank","","","","","0.7700000000000002","0.74","1"
"","psychophysics","129","959054","0.0-129.0","60fc7d423aa600bbb01b7813","62574cb3c65c2ecb62cf6e33","","","","","2939","key"," "," ","8.333343749999834","500","250","flank","","","","","0.31999999999999984","0.34","0"
"","psychophysics","130","963558","0.0-130.0","60fc7d423aa600bbb01b7813","62574cb3c65c2ecb62cf6e33","","","","","4501","key"," "," ","8.33337777777795","500","250","flank","","","","","0.7400000000000002","0.74","0"
"","psychophysics","131","968364","0.0-131.0","60fc7d423aa600bbb01b7813","62574cb3c65c2ecb62cf6e33","","","","","4803","key"," "," ","8.333418402777776","500","250","flank","","","","","0.5900000000000001","0.56","1"
"","psychophysics","132","971118","0.0-132.0","60fc7d423aa600bbb01b7813","62574cb3c65c2ecb62cf6e33","","","","","2752","key"," "," ","8.333294832827042","500","250","flank","","","","","0.5900000000000001","0.52","0"
"","psychophysics","133","974969","0.0-133.0","60fc7d423aa600bbb01b7813","62574cb3c65c2ecb62cf6e33","","","","","3848","key"," "," ","8.333453362255858","500","250","flank","","","","","0.2299999999999998","0.2","0"
"","psychophysics","134","978549","0.0-134.0","60fc7d423aa600bbb01b7813","62574cb3c65c2ecb62cf6e33","","","","","3577","key"," "," ","8.333356643356394","500","250","flank","","","","","0.31999999999999984","0.42","1"
"","psychophysics","135","982157","0.0-135.0","60fc7d423aa600bbb01b7813","62574cb3c65c2ecb62cf6e33","","","","","3605","key"," "," ","8.333314814814743","500","250","flank","","","","","0.8300000000000003","0.78","0"
"true","fullscreen","136","982159","0.0-136.0","60fc7d423aa600bbb01b7813","62574cb3c65c2ecb62cf6e33","","","","","","","","","","","","","","","","","","",""
