"success","trial_type","trial_index","time_elapsed","internal_node_id","pid","sid","timeout","failed_images","failed_audio","failed_video","rt","response_type","key_press","response","avg_frame_time","center_x","center_y","task","ml_len","ml_start","ml_x","ml_y","resp","targ","back"
"true","fullscreen","0","2941","0.0-0.0","5e574010f269721002764a53","625754d40fe9618595e96d92","","","","","","","","","","","","","","","","","","",""
"true","preload","1","2946","0.0-1.0","5e574010f269721002764a53","625754d40fe9618595e96d92","false","[]","[]","[]","","","","","","","","","","","","","","",""
"","psychophysics","2","7531","0.0-2.0","5e574010f269721002764a53","625754d40fe9618595e96d92","","","","","4578","key"," "," ","0.38951036005434786","500","250","inst","","","","","","",""
"","psychophysics","3","8727","0.0-3.0","5e574010f269721002764a53","625754d40fe9618595e96d92","","","","","1193","key"," "," ","0.3645827996340344","500","250","inst","","","","","","",""
"","psychophysics","4","28492","0.0-4.0","5e574010f269721002764a53","625754d40fe9618595e96d92","","","","","19762","key"," "," ","0.36773686854591126","500","250","instMl","208","-34.666666666666664","10","22","-18.666666666666686","",""
"","psychophysics","5","36675","0.0-5.0","5e574010f269721002764a53","625754d40fe9618595e96d92","","","","","8180","key"," "," ","0.36694067796610164","500","250","instMl","242","-40.333333333333336","15","-13","-20.333333333333314","",""
"","psychophysics","6","39795","0.0-6.0","5e574010f269721002764a53","625754d40fe9618595e96d92","","","","","3118","key"," "," ","0.3586691573744111","500","250","inst","","","","","","",""
"","psychophysics","7","44139","0.0-7.0","5e574010f269721002764a53","625754d40fe9618595e96d92","","","","","4342","key"," "," ","0.36003738705131405","500","250","ml","150","-25","-24","-10","-13","",""
"","psychophysics","8","48751","0.0-8.0","5e574010f269721002764a53","625754d40fe9618595e96d92","","","","","4610","key"," "," ","0.3551873844731981","500","250","ml","162","-40","-15","-20","-15","",""
"","psychophysics","9","52915","0.0-9.0","5e574010f269721002764a53","625754d40fe9618595e96d92","","","","","4162","key"," "," ","0.35367167855929343","500","250","ml","154","-18","-5","-5","-19","",""
"","psychophysics","10","57671","0.0-10.0","5e574010f269721002764a53","625754d40fe9618595e96d92","","","","","4754","key"," "," ","0.3585292875989443","500","250","ml","160","21","-8","-22","-10","",""
"","psychophysics","11","63360","0.0-11.0","5e574010f269721002764a53","625754d40fe9618595e96d92","","","","","5686","key"," "," ","0.355780446612873","500","250","ml","204","20","-18","-14","-14","",""
"","psychophysics","12","67175","0.0-12.0","5e574010f269721002764a53","625754d40fe9618595e96d92","","","","","3814","key"," "," ","0.3635043826219516","500","250","ml","160","18","2","-6","-9","",""
"","psychophysics","13","75627","0.0-13.0","5e574010f269721002764a53","625754d40fe9618595e96d92","","","","","8450","key"," "," ","0.35825317904374365","500","250","ml","224","26","-1","-25","-13","",""
"","psychophysics","14","77843","0.0-14.0","5e574010f269721002764a53","625754d40fe9618595e96d92","","","","","2214","key"," "," ","0.3599559707554825","500","250","ml","182","-7","8","-8","-10","",""
"","psychophysics","15","83499","0.0-15.0","5e574010f269721002764a53","625754d40fe9618595e96d92","","","","","5654","key"," "," ","0.3578086290883782","500","250","ml","178","35","18","21","-16","",""
"","psychophysics","16","86752","0.0-16.0","5e574010f269721002764a53","625754d40fe9618595e96d92","","","","","3250","key"," "," ","0.35496736164174214","500","250","ml","188","-20","-17","1","-20","",""
"","psychophysics","17","89372","0.0-17.0","5e574010f269721002764a53","625754d40fe9618595e96d92","","","","","2618","key"," "," ","0.36555464061409737","500","250","ml","188","-19","23","9","-19","",""
"","psychophysics","18","91676","0.0-18.0","5e574010f269721002764a53","625754d40fe9618595e96d92","","","","","2302","key"," "," ","0.3581904539801008","500","250","ml","208","-9","-1","-2","-18","",""
"","psychophysics","19","97220","0.0-19.0","5e574010f269721002764a53","625754d40fe9618595e96d92","","","","","5543","key"," "," ","0.3587233725896205","500","250","ml","168","18","2","23","-15","",""
"","psychophysics","20","106144","0.0-20.0","5e574010f269721002764a53","625754d40fe9618595e96d92","","","","","8922","key"," "," ","0.35988989715668485","500","250","ml","154","27","11","17","-15","",""
"","psychophysics","21","113340","0.0-21.0","5e574010f269721002764a53","625754d40fe9618595e96d92","","","","","7194","key"," "," ","0.3612431848988397","500","250","ml","212","-35","13","-4","-19","",""
"","psychophysics","22","114988","0.0-22.0","5e574010f269721002764a53","625754d40fe9618595e96d92","","","","","1646","key"," "," ","0.3634872021182718","500","250","inst","","","","","","",""
"","psychophysics","23","129712","0.0-23.0","5e574010f269721002764a53","625754d40fe9618595e96d92","","","","","14722","key"," "," ","0.363881694387465","500","250","instPog","","","","","130","130",""
"","psychophysics","24","144689","0.0-24.0","5e574010f269721002764a53","625754d40fe9618595e96d92","","","","","14975","key"," "," ","0.3650766399336955","500","250","instPog","","","","","131","130",""
"","psychophysics","25","155925","0.0-25.0","5e574010f269721002764a53","625754d40fe9618595e96d92","","","","","11235","key"," "," ","0.3647515015746236","500","250","instPog","","","","","137","130",""
"","psychophysics","26","158240","0.0-26.0","5e574010f269721002764a53","625754d40fe9618595e96d92","","","","","2312","key"," "," ","0.3658811818612753","500","250","inst","","","","","","",""
"","psychophysics","27","163716","0.0-27.0","5e574010f269721002764a53","625754d40fe9618595e96d92","","","","","5475","key"," "," ","0.3590890550200001","500","250","pog","","","","","181","181",""
"","psychophysics","28","167456","0.0-28.0","5e574010f269721002764a53","625754d40fe9618595e96d92","","","","","3738","key"," "," ","0.3583381563817553","500","250","pog","","","","","151","138",""
"","psychophysics","29","171024","0.0-29.0","5e574010f269721002764a53","625754d40fe9618595e96d92","","","","","3566","key"," "," ","0.3605316289409859","500","250","pog","","","","","147","130",""
"","psychophysics","30","173148","0.0-30.0","5e574010f269721002764a53","625754d40fe9618595e96d92","","","","","2122","key"," "," ","0.3652177502580011","500","250","pog","","","","","155","138",""
"","psychophysics","31","182032","0.0-31.0","5e574010f269721002764a53","625754d40fe9618595e96d92","","","","","8882","key"," "," ","0.36570036636067893","500","250","pog","","","","","136","122",""
"","psychophysics","32","185677","0.0-32.0","5e574010f269721002764a53","625754d40fe9618595e96d92","","","","","3642","key"," "," ","0.36342738878914804","500","250","pog","","","","","160","152",""
"","psychophysics","33","190633","0.0-33.0","5e574010f269721002764a53","625754d40fe9618595e96d92","","","","","4954","key"," "," ","0.3611265758216148","500","250","pog","","","","","144","132",""
"","psychophysics","34","196293","0.0-34.0","5e574010f269721002764a53","625754d40fe9618595e96d92","","","","","5658","key"," "," ","0.36483130277831477","500","250","pog","","","","","157","147",""
"","psychophysics","35","198809","0.0-35.0","5e574010f269721002764a53","625754d40fe9618595e96d92","","","","","2514","key"," "," ","0.3638738790859159","500","250","pog","","","","","163","162",""
"","psychophysics","36","201137","0.0-36.0","5e574010f269721002764a53","625754d40fe9618595e96d92","","","","","2326","key"," "," ","0.36824446202531536","500","250","pog","","","","","161","161",""
"","psychophysics","37","209629","0.0-37.0","5e574010f269721002764a53","625754d40fe9618595e96d92","","","","","8491","key"," "," ","0.3655377297576514","500","250","pog","","","","","134","129",""
"","psychophysics","38","214397","0.0-38.0","5e574010f269721002764a53","625754d40fe9618595e96d92","","","","","4766","key"," "," ","0.3635210827296987","500","250","pog","","","","","190","184",""
"","psychophysics","39","221401","0.0-39.0","5e574010f269721002764a53","625754d40fe9618595e96d92","","","","","7002","key"," "," ","0.3619933322995806","500","250","pog","","","","","180","180",""
"","psychophysics","40","225041","0.0-40.0","5e574010f269721002764a53","625754d40fe9618595e96d92","","","","","3638","key"," "," ","0.364448783418444","500","250","pog","","","","","153","153",""
"","psychophysics","41","226493","0.0-41.0","5e574010f269721002764a53","625754d40fe9618595e96d92","","","","","1450","key"," "," ","0.3534626247869496","500","250","pog","","","","","161","160",""
"","psychophysics","42","227577","0.0-42.0","5e574010f269721002764a53","625754d40fe9618595e96d92","","","","","1082","key"," "," ","0.3645543222334366","500","250","inst","","","","","","",""
"","psychophysics","43","231789","0.0-43.0","5e574010f269721002764a53","625754d40fe9618595e96d92","","","","","4210","key"," "," ","0.36925065754865943","500","250","instTilt","","","","","NaN","0","0"
"","psychophysics","44","233933","0.0-44.0","5e574010f269721002764a53","625754d40fe9618595e96d92","","","","","2142","key"," "," ","0.37177085862966525","500","250","instTilt","","","","","0","0","0"
"","psychophysics","45","248525","0.0-45.0","5e574010f269721002764a53","625754d40fe9618595e96d92","","","","","14590","key"," "," ","0.37199719573752105","500","250","instTilt","","","","","2","0","0"
"","psychophysics","46","250009","0.0-46.0","5e574010f269721002764a53","625754d40fe9618595e96d92","","","","","1482","key"," "," ","0.3706570072445715","500","250","inst","","","","","","",""
"","psychophysics","47","252525","0.0-47.0","5e574010f269721002764a53","625754d40fe9618595e96d92","","","","","2513","key"," "," ","0.3687849288960547","500","250","tilt","","","","","4","5","0"
"","psychophysics","48","255594","0.0-48.0","5e574010f269721002764a53","625754d40fe9618595e96d92","","","","","3066","key"," "," ","0.36446222380612686","500","250","tilt","","","","","-3","-2","1"
"","psychophysics","49","258506","0.0-49.0","5e574010f269721002764a53","625754d40fe9618595e96d92","","","","","2910","key"," "," ","0.36786467020469904","500","250","tilt","","","","","8","9","0"
"","psychophysics","50","260325","0.0-50.0","5e574010f269721002764a53","625754d40fe9618595e96d92","","","","","1818","key"," "," ","0.3652897008632808","500","250","tilt","","","","","-7","-6","1"
"","psychophysics","51","263593","0.0-51.0","5e574010f269721002764a53","625754d40fe9618595e96d92","","","","","3266","key"," "," ","0.36722780400089505","500","250","tilt","","","","","3","6","1"
"","psychophysics","52","265766","0.0-52.0","5e574010f269721002764a53","625754d40fe9618595e96d92","","","","","2170","key"," "," ","0.36670043904087046","500","250","tilt","","","","","-3","-2","1"
"","psychophysics","53","269485","0.0-53.0","5e574010f269721002764a53","625754d40fe9618595e96d92","","","","","3718","key"," "," ","0.372795930640474","500","250","tilt","","","","","4","9","1"
"","psychophysics","54","272085","0.0-54.0","5e574010f269721002764a53","625754d40fe9618595e96d92","","","","","2598","key"," "," ","0.3714090584369152","500","250","tilt","","","","","5","9","1"
"","psychophysics","55","276358","0.0-55.0","5e574010f269721002764a53","625754d40fe9618595e96d92","","","","","4271","key"," "," ","0.36371832425067885","500","250","tilt","","","","","-9","-8","1"
"","psychophysics","56","279721","0.0-56.0","5e574010f269721002764a53","625754d40fe9618595e96d92","","","","","3362","key"," "," ","0.36429874350086716","500","250","tilt","","","","","-6","-6","0"
"","psychophysics","57","283686","0.0-57.0","5e574010f269721002764a53","625754d40fe9618595e96d92","","","","","3961","key"," "," ","0.36266858815993974","500","250","tilt","","","","","-9","-7","1"
"","psychophysics","58","286350","0.0-58.0","5e574010f269721002764a53","625754d40fe9618595e96d92","","","","","2662","key"," "," ","0.36616467353951865","500","250","tilt","","","","","5","3","0"
"","psychophysics","59","291638","0.0-59.0","5e574010f269721002764a53","625754d40fe9618595e96d92","","","","","5286","key"," "," ","0.36919243122469086","500","250","tilt","","","","","-7","-8","0"
"","psychophysics","60","295498","0.0-60.0","5e574010f269721002764a53","625754d40fe9618595e96d92","","","","","3858","key"," "," ","0.3680482502145522","500","250","tilt","","","","","-8","-7","1"
"","psychophysics","61","297906","0.0-61.0","5e574010f269721002764a53","625754d40fe9618595e96d92","","","","","2406","key"," "," ","0.36302849389416453","500","250","tilt","","","","","-4","-2","1"
"","psychophysics","62","302686","0.0-62.0","5e574010f269721002764a53","625754d40fe9618595e96d92","","","","","4778","key"," "," ","0.3671581009449153","500","250","tilt","","","","","7","8","0"
"","psychophysics","63","306270","0.0-63.0","5e574010f269721002764a53","625754d40fe9618595e96d92","","","","","3582","key"," "," ","0.37069049343126365","500","250","tilt","","","","","1","1","0"
"","psychophysics","64","308714","0.0-64.0","5e574010f269721002764a53","625754d40fe9618595e96d92","","","","","2442","key"," "," ","0.367326318953862","500","250","tilt","","","","","6","8","1"
"","psychophysics","65","312410","0.0-65.0","5e574010f269721002764a53","625754d40fe9618595e96d92","","","","","3694","key"," "," ","0.36489770932069593","500","250","tilt","","","","","-5","-5","1"
"","psychophysics","66","319246","0.0-66.0","5e574010f269721002764a53","625754d40fe9618595e96d92","","","","","6834","key"," "," ","0.3644523352527163","500","250","tilt","","","","","0","2","1"
"","psychophysics","67","321454","0.0-67.0","5e574010f269721002764a53","625754d40fe9618595e96d92","","","","","2206","key"," "," ","0.3633283410138223","500","250","tilt","","","","","1","3","1"
"","psychophysics","68","323198","0.0-68.0","5e574010f269721002764a53","625754d40fe9618595e96d92","","","","","1742","key"," "," ","0.3632233333333352","500","250","tilt","","","","","-5","-6","1"
"","psychophysics","69","324894","0.0-69.0","5e574010f269721002764a53","625754d40fe9618595e96d92","","","","","1694","key"," "," ","0.3671857947163252","500","250","tilt","","","","","1","0","0"
"","psychophysics","70","326958","0.0-70.0","5e574010f269721002764a53","625754d40fe9618595e96d92","","","","","2062","key"," "," ","0.3639837713882517","500","250","tilt","","","","","-5","-10","0"
"","psychophysics","71","328838","0.0-71.0","5e574010f269721002764a53","625754d40fe9618595e96d92","","","","","1878","key"," "," ","0.36531403031481097","500","250","tilt","","","","","-2","-4","0"
"","psychophysics","72","334646","0.0-72.0","5e574010f269721002764a53","625754d40fe9618595e96d92","","","","","5806","key"," "," ","0.3637474007265448","500","250","tilt","","","","","-7","-8","1"
"","psychophysics","73","336734","0.0-73.0","5e574010f269721002764a53","625754d40fe9618595e96d92","","","","","2086","key"," "," ","0.3620544571626727","500","250","tilt","","","","","3","4","1"
"","psychophysics","74","341114","0.0-74.0","5e574010f269721002764a53","625754d40fe9618595e96d92","","","","","4378","key"," "," ","0.37343417462482936","500","250","tilt","","","","","-5","-3","1"
"","psychophysics","75","343958","0.0-75.0","5e574010f269721002764a53","625754d40fe9618595e96d92","","","","","2842","key"," "," ","0.36328244762391715","500","250","tilt","","","","","4","6","1"
"","psychophysics","76","348822","0.0-76.0","5e574010f269721002764a53","625754d40fe9618595e96d92","","","","","4862","key"," "," ","0.36109792857672934","500","250","tilt","","","","","6","8","0"
"","psychophysics","77","349798","0.0-77.0","5e574010f269721002764a53","625754d40fe9618595e96d92","","","","","974","key"," "," ","0.3662608858858794","500","250","inst","","","","","","",""
"","psychophysics","78","352271","0.0-78.0","5e574010f269721002764a53","625754d40fe9618595e96d92","","","","","2470","key"," "," ","0.3642123176661328","500","250","instPz","","","","","50","50",""
"","psychophysics","79","362439","0.0-79.0","5e574010f269721002764a53","625754d40fe9618595e96d92","","","","","10166","key"," "," ","0.36491336491530274","500","250","instPz","","","","","49","50",""
"","psychophysics","80","365754","0.0-80.0","5e574010f269721002764a53","625754d40fe9618595e96d92","","","","","3314","key"," "," ","0.3608896146309647","500","250","instPz","","","","","30","30",""
"","psychophysics","81","374267","0.0-81.0","5e574010f269721002764a53","625754d40fe9618595e96d92","","","","","8510","key"," "," ","0.37846834148510305","500","250","instPz","","","","","39","40",""
"","psychophysics","82","375155","0.0-82.0","5e574010f269721002764a53","625754d40fe9618595e96d92","","","","","886","key"," "," ","0.368771915247204","500","250","inst","","","","","","",""
"","psychophysics","83","378395","0.0-83.0","5e574010f269721002764a53","625754d40fe9618595e96d92","","","","","3238","key"," "," ","0.36751860676197057","500","250","pz","","","","","53","58",""
"","psychophysics","84","382383","0.0-84.0","5e574010f269721002764a53","625754d40fe9618595e96d92","","","","","3986","key"," "," ","0.3764213705871266","500","250","pz","","","","","47","48",""
"","psychophysics","85","386339","0.0-85.0","5e574010f269721002764a53","625754d40fe9618595e96d92","","","","","3954","key"," "," ","0.36762685873605755","500","250","pz","","","","","59","58",""
"","psychophysics","86","390627","0.0-86.0","5e574010f269721002764a53","625754d40fe9618595e96d92","","","","","4286","key"," "," ","0.3728794572969227","500","250","pz","","","","","57","57",""
"","psychophysics","87","392895","0.0-87.0","5e574010f269721002764a53","625754d40fe9618595e96d92","","","","","2266","key"," "," ","0.370169903704906","500","250","pz","","","","","26","25",""
"","psychophysics","88","396487","0.0-88.0","5e574010f269721002764a53","625754d40fe9618595e96d92","","","","","3590","key"," "," ","0.3712690995554599","500","250","pz","","","","","42","40",""
"","psychophysics","89","399523","0.0-89.0","5e574010f269721002764a53","625754d40fe9618595e96d92","","","","","3034","key"," "," ","0.3686792567403469","500","250","pz","","","","","33","29",""
"","psychophysics","90","403411","0.0-90.0","5e574010f269721002764a53","625754d40fe9618595e96d92","","","","","3886","key"," "," ","0.36906161002467713","500","250","pz","","","","","55","55",""
"","psychophysics","91","406727","0.0-91.0","5e574010f269721002764a53","625754d40fe9618595e96d92","","","","","3314","key"," "," ","0.3781876354511231","500","250","pz","","","","","47","38",""
"","psychophysics","92","410023","0.0-92.0","5e574010f269721002764a53","625754d40fe9618595e96d92","","","","","3294","key"," "," ","0.3748206527919881","500","250","pz","","","","","48","46",""
"","psychophysics","93","412779","0.0-93.0","5e574010f269721002764a53","625754d40fe9618595e96d92","","","","","2754","key"," "," ","0.3697732456728812","500","250","pz","","","","","39","33",""
"","psychophysics","94","415835","0.0-94.0","5e574010f269721002764a53","625754d40fe9618595e96d92","","","","","3054","key"," "," ","0.3706466521106229","500","250","pz","","","","","43","40",""
"","psychophysics","95","418863","0.0-95.0","5e574010f269721002764a53","625754d40fe9618595e96d92","","","","","3026","key"," "," ","0.3692241463414606","500","250","pz","","","","","24","21",""
"","psychophysics","96","421903","0.0-96.0","5e574010f269721002764a53","625754d40fe9618595e96d92","","","","","3038","key"," "," ","0.3684486060606062","500","250","pz","","","","","41","37",""
"","psychophysics","97","425939","0.0-97.0","5e574010f269721002764a53","625754d40fe9618595e96d92","","","","","4034","key"," "," ","0.3696517677230269","500","250","pz","","","","","51","52",""
"","psychophysics","98","427523","0.0-98.0","5e574010f269721002764a53","625754d40fe9618595e96d92","","","","","1582","key"," "," ","0.384236350400394","500","250","inst","","","","","","",""
"","psychophysics","99","429899","0.0-99.0","5e574010f269721002764a53","625754d40fe9618595e96d92","","","","","2374","key"," "," ","0.35832458521870875","500","250","inst","","","","","","",""
"","psychophysics","100","431043","0.0-100.0","5e574010f269721002764a53","625754d40fe9618595e96d92","","","","","1141","key"," "," ","0.35520838509317015","500","250","instFlank","","","","","0.5","0.3","1"
"","psychophysics","101","437671","0.0-101.0","5e574010f269721002764a53","625754d40fe9618595e96d92","","","","","6627","key"," "," ","0.3627969237506177","500","250","inst","","","","","","",""
"","psychophysics","102","441887","0.0-102.0","5e574010f269721002764a53","625754d40fe9618595e96d92","","","","","4214","key"," "," ","0.36514267151767105","500","250","instFlank","","","","","0.43999999999999995","0.3","1"
"","psychophysics","103","447155","0.0-103.0","5e574010f269721002764a53","625754d40fe9618595e96d92","","","","","5266","key"," "," ","0.36327205020343156","500","250","inst","","","","","","",""
"","psychophysics","104","450859","0.0-104.0","5e574010f269721002764a53","625754d40fe9618595e96d92","","","","","3701","key"," "," ","0.364038824454489","500","250","instFlank","","","","","0.5","0.3","0"
"","psychophysics","105","452407","0.0-105.0","5e574010f269721002764a53","625754d40fe9618595e96d92","","","","","1546","key"," "," ","0.37212310651598324","500","250","inst","","","","","","",""
"","psychophysics","106","455511","0.0-106.0","5e574010f269721002764a53","625754d40fe9618595e96d92","","","","","3102","key"," "," ","0.3597886621840959","500","250","flank","","","","","0.7100000000000002","0.7","0"
"","psychophysics","107","458315","0.0-107.0","5e574010f269721002764a53","625754d40fe9618595e96d92","","","","","2802","key"," "," ","0.35972863741339195","500","250","flank","","","","","0.47","0.38","1"
"","psychophysics","108","461371","0.0-108.0","5e574010f269721002764a53","625754d40fe9618595e96d92","","","","","3054","key"," "," ","0.35762382958801503","500","250","flank","","","","","0.3799999999999999","0.24","1"
"","psychophysics","109","463719","0.0-109.0","5e574010f269721002764a53","625754d40fe9618595e96d92","","","","","2346","key"," "," ","0.3521031793641218","500","250","flank","","","","","0.56","0.4","0"
"","psychophysics","110","466616","0.0-110.0","5e574010f269721002764a53","625754d40fe9618595e96d92","","","","","2894","key"," "," ","0.3509806084111007","500","250","flank","","","","","0.7100000000000002","0.62","0"
"","psychophysics","111","469867","0.0-111.0","5e574010f269721002764a53","625754d40fe9618595e96d92","","","","","3249","key"," "," ","0.3524803772766674","500","250","flank","","","","","0.6800000000000002","0.58","0"
"","psychophysics","112","473152","0.0-112.0","5e574010f269721002764a53","625754d40fe9618595e96d92","","","","","3282","key"," "," ","0.36645407878584796","500","250","flank","","","","","0.7400000000000002","0.64","0"
"","psychophysics","113","475904","0.0-113.0","5e574010f269721002764a53","625754d40fe9618595e96d92","","","","","2750","key"," "," ","0.35683996887563135","500","250","flank","","","","","0.34999999999999987","0.26","0"
"","psychophysics","114","479072","0.0-114.0","5e574010f269721002764a53","625754d40fe9618595e96d92","","","","","3166","key"," "," ","0.35362413485153094","500","250","flank","","","","","0.6800000000000002","0.64","1"
"","psychophysics","115","481764","0.0-115.0","5e574010f269721002764a53","625754d40fe9618595e96d92","","","","","2690","key"," "," ","0.3569705609335604","500","250","flank","","","","","0.6500000000000001","0.62","1"
"","psychophysics","116","484888","0.0-116.0","5e574010f269721002764a53","625754d40fe9618595e96d92","","","","","3122","key"," "," ","0.35236507220216623","500","250","flank","","","","","0.6200000000000001","0.54","1"
"","psychophysics","117","487512","0.0-117.0","5e574010f269721002764a53","625754d40fe9618595e96d92","","","","","2622","key"," "," ","0.35234770346494837","500","250","flank","","","","","0.3799999999999999","0.26","1"
"","psychophysics","118","489900","0.0-118.0","5e574010f269721002764a53","625754d40fe9618595e96d92","","","","","2386","key"," "," ","0.3522058997050156","500","250","flank","","","","","0.6200000000000001","0.48","0"
"","psychophysics","119","492392","0.0-119.0","5e574010f269721002764a53","625754d40fe9618595e96d92","","","","","2490","key"," "," ","0.3545738684884679","500","250","flank","","","","","0.6200000000000001","0.5","1"
"","psychophysics","120","495404","0.0-120.0","5e574010f269721002764a53","625754d40fe9618595e96d92","","","","","3010","key"," "," ","0.36484130829800293","500","250","flank","","","","","0.43999999999999995","0.32","1"
"","psychophysics","121","497944","0.0-121.0","5e574010f269721002764a53","625754d40fe9618595e96d92","","","","","2538","key"," "," ","0.3564799999999977","500","250","flank","","","","","0.4099999999999999","0.26","1"
"","psychophysics","122","500576","0.0-122.0","5e574010f269721002764a53","625754d40fe9618595e96d92","","","","","2630","key"," "," ","0.3608203757027271","500","250","flank","","","","","0.6500000000000001","0.54","1"
"","psychophysics","123","504440","0.0-123.0","5e574010f269721002764a53","625754d40fe9618595e96d92","","","","","3862","key"," "," ","0.3577989442489329","500","250","flank","","","","","0.2899999999999998","0.2","0"
"","psychophysics","124","508108","0.0-124.0","5e574010f269721002764a53","625754d40fe9618595e96d92","","","","","3666","key"," "," ","0.3556579074953908","500","250","flank","","","","","0.8000000000000003","0.7","0"
"","psychophysics","125","510624","0.0-125.0","5e574010f269721002764a53","625754d40fe9618595e96d92","","","","","2514","key"," "," ","0.3580286080273216","500","250","flank","","","","","0.43999999999999995","0.38","1"
"","psychophysics","126","513688","0.0-126.0","5e574010f269721002764a53","625754d40fe9618595e96d92","","","","","3062","key"," "," ","0.353470004614671","500","250","flank","","","","","0.3799999999999999","0.24","0"
"","psychophysics","127","516964","0.0-127.0","5e574010f269721002764a53","625754d40fe9618595e96d92","","","","","3274","key"," "," ","0.3538215597321228","500","250","flank","","","","","0.8000000000000003","0.74","0"
"","psychophysics","128","520508","0.0-128.0","5e574010f269721002764a53","625754d40fe9618595e96d92","","","","","3542","key"," "," ","0.3631781285231156","500","250","flank","","","","","0.8600000000000003","0.8","1"
"","psychophysics","129","523432","0.0-129.0","5e574010f269721002764a53","625754d40fe9618595e96d92","","","","","2922","key"," "," ","0.3560835464620591","500","250","flank","","","","","0.47","0.4","1"
"","psychophysics","130","526692","0.0-130.0","5e574010f269721002764a53","625754d40fe9618595e96d92","","","","","3258","key"," "," ","0.3530695407278967","500","250","flank","","","","","0.8000000000000003","0.72","0"
"","psychophysics","131","529252","0.0-131.0","5e574010f269721002764a53","625754d40fe9618595e96d92","","","","","2558","key"," "," ","0.35738117844177786","500","250","flank","","","","","0.6200000000000001","0.44","1"
"","psychophysics","132","532228","0.0-132.0","5e574010f269721002764a53","625754d40fe9618595e96d92","","","","","2974","key"," "," ","0.3627179080824089","500","250","flank","","","","","0.7100000000000002","0.54","0"
"","psychophysics","133","534980","0.0-133.0","5e574010f269721002764a53","625754d40fe9618595e96d92","","","","","2750","key"," "," ","0.3571156241889386","500","250","flank","","","","","0.7100000000000002","0.54","1"
"","psychophysics","134","537556","0.0-134.0","5e574010f269721002764a53","625754d40fe9618595e96d92","","","","","2574","key"," "," ","0.35500317022742267","500","250","flank","","","","","0.6200000000000001","0.48","0"
"","psychophysics","135","540760","0.0-135.0","5e574010f269721002764a53","625754d40fe9618595e96d92","","","","","3202","key"," "," ","0.36709338833506006","500","250","flank","","","","","0.8000000000000003","0.74","1"
"true","fullscreen","136","540762","0.0-136.0","5e574010f269721002764a53","625754d40fe9618595e96d92","","","","","","","","","","","","","","","","","","",""
