"success","trial_type","trial_index","time_elapsed","internal_node_id","pid","sid","timeout","failed_images","failed_audio","failed_video","rt","response_type","key_press","response","avg_frame_time","center_x","center_y","task","ml_len","ml_start","ml_x","ml_y","resp","targ","back"
"true","fullscreen","0","13924","0.0-0.0","57a761c22fc0d400012c9656","625756f1493dd743d6c34895","","","","","","","","","","","","","","","","","","",""
"true","preload","1","13931","0.0-1.0","57a761c22fc0d400012c9656","625756f1493dd743d6c34895","false","[]","[]","[]","","","","","","","","","","","","","","",""
"","psychophysics","2","16427","0.0-2.0","57a761c22fc0d400012c9656","625756f1493dd743d6c34895","","","","","2421","key"," "," ","16.99819047619048","500","250","inst","","","","","","",""
"","psychophysics","3","129033","0.0-3.0","57a761c22fc0d400012c9656","625756f1493dd743d6c34895","","","","","112597","key"," "," ","16.685148828935667","500","250","inst","","","","","","",""
"","psychophysics","4","141101","0.0-4.0","57a761c22fc0d400012c9656","625756f1493dd743d6c34895","","","","","12023","key"," "," ","16.704138504155132","500","250","instMl","230","-38.333333333333336","14","-24","-23.333333333333314","",""
"","psychophysics","5","149724","0.0-5.0","57a761c22fc0d400012c9656","625756f1493dd743d6c34895","","","","","8609","key"," "," ","16.690259689922478","500","250","instMl","218","-36.333333333333336","-18","30","-26.333333333333314","",""
"","psychophysics","6","997982","0.0-6.0","57a761c22fc0d400012c9656","625756f1493dd743d6c34895","","","","","848242","key"," "," ","18.144619791221015","500","250","inst","","","","","","",""
"","psychophysics","7","1005497","0.0-7.0","57a761c22fc0d400012c9656","625756f1493dd743d6c34895","","","","","7483","key"," "," ","16.732204899777305","500","250","ml","204","34","-8","13","-15","",""
"","psychophysics","8","1008650","0.0-8.0","57a761c22fc0d400012c9656","625756f1493dd743d6c34895","","","","","3139","key"," "," ","16.657989361702384","500","250","ml","172","-4","8","3","-12","",""
"","psychophysics","9","1011632","0.0-9.0","57a761c22fc0d400012c9656","625756f1493dd743d6c34895","","","","","2971","key"," "," ","16.65800561797753","500","250","ml","218","7","1","6","-10","",""
"","psychophysics","10","1014421","0.0-10.0","57a761c22fc0d400012c9656","625756f1493dd743d6c34895","","","","","2776","key"," "," ","16.658041916167903","500","250","ml","232","8","-16","15","-10","",""
"","psychophysics","11","1018310","0.0-11.0","57a761c22fc0d400012c9656","625756f1493dd743d6c34895","","","","","3879","key"," "," ","16.950228070175445","500","250","ml","174","14","22","-25","-9","",""
"","psychophysics","12","1019919","0.0-12.0","57a761c22fc0d400012c9656","625756f1493dd743d6c34895","","","","","1597","key"," "," ","16.657999999999447","500","250","ml","202","-8","11","3","-10","",""
"","psychophysics","13","1023518","0.0-13.0","57a761c22fc0d400012c9656","625756f1493dd743d6c34895","","","","","3593","key"," "," ","16.65800465116288","500","250","ml","214","4","2","21","-8","",""
"","psychophysics","14","1027265","0.0-14.0","57a761c22fc0d400012c9656","625756f1493dd743d6c34895","","","","","3737","key"," "," ","16.6579821428573","500","250","ml","154","-24","-11","8","-18","",""
"","psychophysics","15","1032943","0.0-15.0","57a761c22fc0d400012c9656","625756f1493dd743d6c34895","","","","","5663","key"," "," ","16.806693452380948","500","250","ml","150","-28","4","28","-12","",""
"","psychophysics","16","1038948","0.0-16.0","57a761c22fc0d400012c9656","625756f1493dd743d6c34895","","","","","5996","key"," "," ","16.70438997214498","500","250","ml","182","42","27","17","-10","",""
"","psychophysics","17","1043958","0.0-17.0","57a761c22fc0d400012c9656","625756f1493dd743d6c34895","","","","","5005","key"," "," ","16.6579866666665","500","250","ml","202","-44","7","-11","-17","",""
"","psychophysics","18","1048911","0.0-18.0","57a761c22fc0d400012c9656","625756f1493dd743d6c34895","","","","","4938","key"," "," ","16.657989864864913","500","250","ml","230","17","18","-24","-14","",""
"","psychophysics","19","1053858","0.0-19.0","57a761c22fc0d400012c9656","625756f1493dd743d6c34895","","","","","4931","key"," "," ","16.771312925170278","500","250","ml","210","11","-12","-7","-11","",""
"","psychophysics","20","1058732","0.0-20.0","57a761c22fc0d400012c9656","625756f1493dd743d6c34895","","","","","4858","key"," "," ","16.71523367697565","500","250","ml","206","-35","-12","-25","-10","",""
"","psychophysics","21","1062807","0.0-21.0","57a761c22fc0d400012c9656","625756f1493dd743d6c34895","","","","","4067","key"," "," ","16.657979423868174","500","250","ml","248","-29","7","9","-13","",""
"","psychophysics","22","1064513","0.0-22.0","57a761c22fc0d400012c9656","625756f1493dd743d6c34895","","","","","1631","key"," "," ","17.516659793813627","500","250","inst","","","","","","",""
"","psychophysics","23","1074124","0.0-23.0","57a761c22fc0d400012c9656","625756f1493dd743d6c34895","","","","","9604","key"," "," ","16.686949565217464","500","250","instPog","","","","","130","130",""
"","psychophysics","24","1079426","0.0-24.0","57a761c22fc0d400012c9656","625756f1493dd743d6c34895","","","","","5295","key"," "," ","16.65801261829606","500","250","instPog","","","","","142","130",""
"","psychophysics","25","1085162","0.0-25.0","57a761c22fc0d400012c9656","625756f1493dd743d6c34895","","","","","5731","key"," "," ","16.65800583090378","500","250","instPog","","","","","152","130",""
"","psychophysics","26","1087356","0.0-26.0","57a761c22fc0d400012c9656","625756f1493dd743d6c34895","","","","","2182","key"," "," ","16.657908396946464","500","250","inst","","","","","","",""
"","psychophysics","27","1092030","0.0-27.0","57a761c22fc0d400012c9656","625756f1493dd743d6c34895","","","","","4668","key"," "," ","16.65796428571422","500","250","pog","","","","","193","181",""
"","psychophysics","28","1094867","0.0-28.0","57a761c22fc0d400012c9656","625756f1493dd743d6c34895","","","","","2824","key"," "," ","16.75714285714258","500","250","pog","","","","","180","174",""
"","psychophysics","29","1099564","0.0-29.0","57a761c22fc0d400012c9656","625756f1493dd743d6c34895","","","","","4689","key"," "," ","16.7773942652327","500","250","pog","","","","","206","192",""
"","psychophysics","30","1102291","0.0-30.0","57a761c22fc0d400012c9656","625756f1493dd743d6c34895","","","","","2718","key"," "," ","16.65796913580256","500","250","pog","","","","","159","142",""
"","psychophysics","31","1105905","0.0-31.0","57a761c22fc0d400012c9656","625756f1493dd743d6c34895","","","","","3604","key"," "," ","16.657986175115457","500","250","pog","","","","","201","180",""
"","psychophysics","32","1109658","0.0-32.0","57a761c22fc0d400012c9656","625756f1493dd743d6c34895","","","","","3748","key"," "," ","16.65803124999989","500","250","pog","","","","","203","186",""
"","psychophysics","33","1113487","0.0-33.0","57a761c22fc0d400012c9656","625756f1493dd743d6c34895","","","","","3824","key"," "," ","16.658004366812055","500","250","pog","","","","","173","162",""
"","psychophysics","34","1117847","0.0-34.0","57a761c22fc0d400012c9656","625756f1493dd743d6c34895","","","","","4350","key"," "," ","16.65799230769223","500","250","pog","","","","","163","139",""
"","psychophysics","35","1119574","0.0-35.0","57a761c22fc0d400012c9656","625756f1493dd743d6c34895","","","","","1651","key"," "," ","17.331080808080827","500","250","pog","","","","","168","152",""
"","psychophysics","36","1122048","0.0-36.0","57a761c22fc0d400012c9656","625756f1493dd743d6c34895","","","","","2461","key"," "," ","16.657972972972217","500","250","pog","","","","","174","157",""
"","psychophysics","37","1124431","0.0-37.0","57a761c22fc0d400012c9656","625756f1493dd743d6c34895","","","","","2378","key"," "," ","16.776113475175865","500","250","pog","","","","","151","134",""
"","psychophysics","38","1133613","0.0-38.0","57a761c22fc0d400012c9656","625756f1493dd743d6c34895","","","","","9174","key"," "," ","16.688329690345945","500","250","pog","","","","","180","171",""
"","psychophysics","39","1138844","0.0-39.0","57a761c22fc0d400012c9656","625756f1493dd743d6c34895","","","","","5226","key"," "," ","16.657990415335096","500","250","pog","","","","","209","193",""
"","psychophysics","40","1140443","0.0-40.0","57a761c22fc0d400012c9656","625756f1493dd743d6c34895","","","","","1593","key"," "," ","16.65795789473739","500","250","pog","","","","","161","154",""
"","psychophysics","41","1143823","0.0-41.0","57a761c22fc0d400012c9656","625756f1493dd743d6c34895","","","","","3375","key"," "," ","16.909125628140544","500","250","pog","","","","","180","166",""
"","psychophysics","42","1145128","0.0-42.0","57a761c22fc0d400012c9656","625756f1493dd743d6c34895","","","","","1297","key"," "," ","16.6579090909089","500","250","inst","","","","","","",""
"","psychophysics","43","1147178","0.0-43.0","57a761c22fc0d400012c9656","625756f1493dd743d6c34895","","","","","2033","key"," "," ","16.658008196721326","500","250","instTilt","","","","","NaN","0","0"
"","psychophysics","44","1149104","0.0-44.0","57a761c22fc0d400012c9656","625756f1493dd743d6c34895","","","","","1907","key"," "," ","16.6579826086962","500","250","instTilt","","","","","0","0","0"
"","psychophysics","45","1157352","0.0-45.0","57a761c22fc0d400012c9656","625756f1493dd743d6c34895","","","","","8242","key"," "," ","16.691778904665355","500","250","instTilt","","","","","7","0","0"
"","psychophysics","46","1159546","0.0-46.0","57a761c22fc0d400012c9656","625756f1493dd743d6c34895","","","","","2188","key"," "," ","16.916279069767082","500","250","inst","","","","","","",""
"","psychophysics","47","1162261","0.0-47.0","57a761c22fc0d400012c9656","625756f1493dd743d6c34895","","","","","2706","key"," "," ","16.657962962962042","500","250","tilt","","","","","-13","-10","1"
"","psychophysics","48","1164505","0.0-48.0","57a761c22fc0d400012c9656","625756f1493dd743d6c34895","","","","","2219","key"," "," ","16.6579699248121","500","250","tilt","","","","","13","7","0"
"","psychophysics","49","1167642","0.0-49.0","57a761c22fc0d400012c9656","625756f1493dd743d6c34895","","","","","3125","key"," "," ","16.83708602150587","500","250","tilt","","","","","8","3","0"
"","psychophysics","50","1171621","0.0-50.0","57a761c22fc0d400012c9656","625756f1493dd743d6c34895","","","","","3968","key"," "," ","16.79912711864424","500","250","tilt","","","","","-2","0","1"
"","psychophysics","51","1176112","0.0-51.0","57a761c22fc0d400012c9656","625756f1493dd743d6c34895","","","","","4484","key"," "," ","16.657985074627177","500","250","tilt","","","","","-2","-5","0"
"","psychophysics","52","1178520","0.0-52.0","57a761c22fc0d400012c9656","625756f1493dd743d6c34895","","","","","2394","key"," "," ","16.774468531467384","500","250","tilt","","","","","-3","1","1"
"","psychophysics","53","1180905","0.0-53.0","57a761c22fc0d400012c9656","625756f1493dd743d6c34895","","","","","2371","key"," "," ","16.657908450703886","500","250","tilt","","","","","6","6","1"
"","psychophysics","54","1184949","0.0-54.0","57a761c22fc0d400012c9656","625756f1493dd743d6c34895","","","","","4036","key"," "," ","16.727120331950346","500","250","tilt","","","","","-12","-9","1"
"","psychophysics","55","1187847","0.0-55.0","57a761c22fc0d400012c9656","625756f1493dd743d6c34895","","","","","2892","key"," "," ","16.657965317918958","500","250","tilt","","","","","-10","-3","1"
"","psychophysics","56","1190574","0.0-56.0","57a761c22fc0d400012c9656","625756f1493dd743d6c34895","","","","","2722","key"," "," ","16.866231250000418","500","250","tilt","","","","","10","6","0"
"","psychophysics","57","1192448","0.0-57.0","57a761c22fc0d400012c9656","625756f1493dd743d6c34895","","","","","1863","key"," "," ","16.65809821428515","500","250","tilt","","","","","0","2","1"
"","psychophysics","58","1194296","0.0-58.0","57a761c22fc0d400012c9656","625756f1493dd743d6c34895","","","","","1840","key"," "," ","16.657954128439872","500","250","tilt","","","","","9","3","0"
"","psychophysics","59","1196809","0.0-59.0","57a761c22fc0d400012c9656","625756f1493dd743d6c34895","","","","","2495","key"," "," ","16.88161073825572","500","250","tilt","","","","","0","-5","0"
"","psychophysics","60","1198767","0.0-60.0","57a761c22fc0d400012c9656","625756f1493dd743d6c34895","","","","","1952","key"," "," ","16.658077586207394","500","250","tilt","","","","","11","4","0"
"","psychophysics","61","1200566","0.0-61.0","57a761c22fc0d400012c9656","625756f1493dd743d6c34895","","","","","1783","key"," "," ","16.65806542056021","500","250","tilt","","","","","-6","-4","1"
"","psychophysics","62","1203251","0.0-62.0","57a761c22fc0d400012c9656","625756f1493dd743d6c34895","","","","","2673","key"," "," ","16.65804999999964","500","250","tilt","","","","","-3","-8","0"
"","psychophysics","63","1204617","0.0-63.0","57a761c22fc0d400012c9656","625756f1493dd743d6c34895","","","","","1342","key"," "," ","16.6579999999994","500","250","tilt","","","","","1","-2","0"
"","psychophysics","64","1207155","0.0-64.0","57a761c22fc0d400012c9656","625756f1493dd743d6c34895","","","","","2524","key"," "," ","16.768284768211526","500","250","tilt","","","","","-8","-9","0"
"","psychophysics","65","1209560","0.0-65.0","57a761c22fc0d400012c9656","625756f1493dd743d6c34895","","","","","2398","key"," "," ","16.657986013985635","500","250","tilt","","","","","-5","-7","0"
"","psychophysics","66","1211208","0.0-66.0","57a761c22fc0d400012c9656","625756f1493dd743d6c34895","","","","","1634","key"," "," ","16.65788775510202","500","250","tilt","","","","","-4","2","1"
"","psychophysics","67","1212860","0.0-67.0","57a761c22fc0d400012c9656","625756f1493dd743d6c34895","","","","","1640","key"," "," ","17.005010416665755","500","250","tilt","","","","","0","4","1"
"","psychophysics","68","1214434","0.0-68.0","57a761c22fc0d400012c9656","625756f1493dd743d6c34895","","","","","1565","key"," "," ","16.658085106384068","500","250","tilt","","","","","9","6","0"
"","psychophysics","69","1216703","0.0-69.0","57a761c22fc0d400012c9656","625756f1493dd743d6c34895","","","","","2261","key"," "," ","16.658037037038486","500","250","tilt","","","","","-5","-2","1"
"","psychophysics","70","1218406","0.0-70.0","57a761c22fc0d400012c9656","625756f1493dd743d6c34895","","","","","1688","key"," "," ","16.657881188118775","500","250","tilt","","","","","-8","-1","1"
"","psychophysics","71","1220283","0.0-71.0","57a761c22fc0d400012c9656","625756f1493dd743d6c34895","","","","","1872","key"," "," ","16.80809009009091","500","250","tilt","","","","","-2","-2","0"
"","psychophysics","72","1222219","0.0-72.0","57a761c22fc0d400012c9656","625756f1493dd743d6c34895","","","","","1929","key"," "," ","16.658078260869598","500","250","tilt","","","","","-10","-6","1"
"","psychophysics","73","1224013","0.0-73.0","57a761c22fc0d400012c9656","625756f1493dd743d6c34895","","","","","1788","key"," "," ","16.65791588785153","500","250","tilt","","","","","10","9","0"
"","psychophysics","74","1225671","0.0-74.0","57a761c22fc0d400012c9656","625756f1493dd743d6c34895","","","","","1639","key"," "," ","16.6580612244897","500","250","tilt","","","","","11","8","0"
"","psychophysics","75","1227532","0.0-75.0","57a761c22fc0d400012c9656","625756f1493dd743d6c34895","","","","","1851","key"," "," ","16.658054054054002","500","250","tilt","","","","","-5","-5","1"
"","psychophysics","76","1229100","0.0-76.0","57a761c22fc0d400012c9656","625756f1493dd743d6c34895","","","","","1559","key"," "," ","16.65810752688076","500","250","tilt","","","","","1","6","1"
"","psychophysics","77","1230153","0.0-77.0","57a761c22fc0d400012c9656","625756f1493dd743d6c34895","","","","","1042","key"," "," ","16.658129032258124","500","250","inst","","","","","","",""
"","psychophysics","78","1231727","0.0-78.0","57a761c22fc0d400012c9656","625756f1493dd743d6c34895","","","","","1560","key"," "," ","17.793693181817865","500","250","instPz","","","","","50","50",""
"","psychophysics","79","1237640","0.0-79.0","57a761c22fc0d400012c9656","625756f1493dd743d6c34895","","","","","5906","key"," "," ","16.705184135977152","500","250","instPz","","","","","55","50",""
"","psychophysics","80","1239996","0.0-80.0","57a761c22fc0d400012c9656","625756f1493dd743d6c34895","","","","","2351","key"," "," ","16.657992857144148","500","250","instPz","","","","","28","30",""
"","psychophysics","81","1246890","0.0-81.0","57a761c22fc0d400012c9656","625756f1493dd743d6c34895","","","","","6878","key"," "," ","16.657966101694893","500","250","instPz","","","","","43","40",""
"","psychophysics","82","1247874","0.0-82.0","57a761c22fc0d400012c9656","625756f1493dd743d6c34895","","","","","973","key"," "," ","16.657810344830445","500","250","inst","","","","","","",""
"","psychophysics","83","1251746","0.0-83.0","57a761c22fc0d400012c9656","625756f1493dd743d6c34895","","","","","3858","key"," "," ","16.65796551724057","500","250","pz","","","","","60","59",""
"","psychophysics","84","1253755","0.0-84.0","57a761c22fc0d400012c9656","625756f1493dd743d6c34895","","","","","2002","key"," "," ","16.65803361344425","500","250","pz","","","","","36","34",""
"","psychophysics","85","1255223","0.0-85.0","57a761c22fc0d400012c9656","625756f1493dd743d6c34895","","","","","1451","key"," "," ","17.252845238093176","500","250","pz","","","","","24","21",""
"","psychophysics","86","1257517","0.0-86.0","57a761c22fc0d400012c9656","625756f1493dd743d6c34895","","","","","2284","key"," "," ","16.657948905110946","500","250","pz","","","","","39","30",""
"","psychophysics","87","1260447","0.0-87.0","57a761c22fc0d400012c9656","625756f1493dd743d6c34895","","","","","2918","key"," "," ","16.657982857143505","500","250","pz","","","","","48","41",""
"","psychophysics","88","1262536","0.0-88.0","57a761c22fc0d400012c9656","625756f1493dd743d6c34895","","","","","2084","key"," "," ","16.65799193548399","500","250","pz","","","","","35","27",""
"","psychophysics","89","1264689","0.0-89.0","57a761c22fc0d400012c9656","625756f1493dd743d6c34895","","","","","2140","key"," "," ","16.657999999999447","500","250","pz","","","","","38","34",""
"","psychophysics","90","1268668","0.0-90.0","57a761c22fc0d400012c9656","625756f1493dd743d6c34895","","","","","3964","key"," "," ","16.72826160337552","500","250","pz","","","","","40","40",""
"","psychophysics","91","1270689","0.0-91.0","57a761c22fc0d400012c9656","625756f1493dd743d6c34895","","","","","2010","key"," "," ","16.657925619836128","500","250","pz","","","","","30","25",""
"","psychophysics","92","1272601","0.0-92.0","57a761c22fc0d400012c9656","625756f1493dd743d6c34895","","","","","1905","key"," "," ","16.65793805309588","500","250","pz","","","","","31","30",""
"","psychophysics","93","1276531","0.0-93.0","57a761c22fc0d400012c9656","625756f1493dd743d6c34895","","","","","3917","key"," "," ","16.657940425532573","500","250","pz","","","","","52","56",""
"","psychophysics","94","1278773","0.0-94.0","57a761c22fc0d400012c9656","625756f1493dd743d6c34895","","","","","2229","key"," "," ","16.657970149252467","500","250","pz","","","","","41","32",""
"","psychophysics","95","1280984","0.0-95.0","57a761c22fc0d400012c9656","625756f1493dd743d6c34895","","","","","2200","key"," "," ","16.785076335877648","500","250","pz","","","","","41","39",""
"","psychophysics","96","1284001","0.0-96.0","57a761c22fc0d400012c9656","625756f1493dd743d6c34895","","","","","3011","key"," "," ","16.657994444444515","500","250","pz","","","","","46","49",""
"","psychophysics","97","1286464","0.0-97.0","57a761c22fc0d400012c9656","625756f1493dd743d6c34895","","","","","2454","key"," "," ","16.77207534246574","500","250","pz","","","","","37","32",""
"","psychophysics","98","1288176","0.0-98.0","57a761c22fc0d400012c9656","625756f1493dd743d6c34895","","","","","1705","key"," "," ","16.657980198019857","500","250","inst","","","","","","",""
"","psychophysics","99","1289617","0.0-99.0","57a761c22fc0d400012c9656","625756f1493dd743d6c34895","","","","","1431","key"," "," ","16.65802325581493","500","250","inst","","","","","","",""
"","psychophysics","100","1348655","0.0-100.0","57a761c22fc0d400012c9656","625756f1493dd743d6c34895","","","","","59021","key"," "," ","16.67681407177172","500","250","instFlank","","","","","0.43999999999999995","0.3","1"
"","psychophysics","101","1353168","0.0-101.0","57a761c22fc0d400012c9656","625756f1493dd743d6c34895","","","","","4503","key"," "," ","16.782317164178533","500","250","inst","","","","","","",""
"","psychophysics","102","1358239","0.0-102.0","57a761c22fc0d400012c9656","625756f1493dd743d6c34895","","","","","5054","key"," "," ","16.65798349834966","500","250","instFlank","","","","","0.31999999999999984","0.3","1"
"","psychophysics","103","1360499","0.0-103.0","57a761c22fc0d400012c9656","625756f1493dd743d6c34895","","","","","2244","key"," "," ","16.65792592592641","500","250","inst","","","","","","",""
"","psychophysics","104","1365206","0.0-104.0","57a761c22fc0d400012c9656","625756f1493dd743d6c34895","","","","","4691","key"," "," ","16.658017730496407","500","250","instFlank","","","","","0.31999999999999984","0.3","0"
"","psychophysics","105","1366518","0.0-105.0","57a761c22fc0d400012c9656","625756f1493dd743d6c34895","","","","","1305","key"," "," ","16.65818181818097","500","250","inst","","","","","","",""
"","psychophysics","106","1369283","0.0-106.0","57a761c22fc0d400012c9656","625756f1493dd743d6c34895","","","","","2747","key"," "," ","16.65799393939334","500","250","flank","","","","","0.6500000000000001","0.54","0"
"","psychophysics","107","1372034","0.0-107.0","57a761c22fc0d400012c9656","625756f1493dd743d6c34895","","","","","2737","key"," "," ","16.657921212121394","500","250","flank","","","","","0.6500000000000001","0.62","1"
"","psychophysics","108","1374696","0.0-108.0","57a761c22fc0d400012c9656","625756f1493dd743d6c34895","","","","","2654","key"," "," ","16.657999999999493","500","250","flank","","","","","0.7100000000000002","0.62","1"
"","psychophysics","109","1377087","0.0-109.0","57a761c22fc0d400012c9656","625756f1493dd743d6c34895","","","","","2378","key"," "," ","16.894241134751695","500","250","flank","","","","","0.5","0.38","1"
"","psychophysics","110","1379988","0.0-110.0","57a761c22fc0d400012c9656","625756f1493dd743d6c34895","","","","","2888","key"," "," ","16.658011560694373","500","250","flank","","","","","0.6500000000000001","0.6","0"
"","psychophysics","111","1382618","0.0-111.0","57a761c22fc0d400012c9656","625756f1493dd743d6c34895","","","","","2610","key"," "," ","16.658050955414097","500","250","flank","","","","","0.3799999999999999","0.26","0"
"","psychophysics","112","1385214","0.0-112.0","57a761c22fc0d400012c9656","625756f1493dd743d6c34895","","","","","2583","key"," "," ","16.65798709677352","500","250","flank","","","","","0.7100000000000002","0.58","1"
"","psychophysics","113","1387788","0.0-113.0","57a761c22fc0d400012c9656","625756f1493dd743d6c34895","","","","","2564","key"," "," ","16.65798692810471","500","250","flank","","","","","0.43999999999999995","0.3","1"
"","psychophysics","114","1390503","0.0-114.0","57a761c22fc0d400012c9656","625756f1493dd743d6c34895","","","","","2693","key"," "," ","16.65791975308704","500","250","flank","","","","","0.7700000000000002","0.72","0"
"","psychophysics","115","1393627","0.0-115.0","57a761c22fc0d400012c9656","625756f1493dd743d6c34895","","","","","3112","key"," "," ","16.929565217391506","500","250","flank","","","","","0.6200000000000001","0.6","1"
"","psychophysics","116","1396044","0.0-116.0","57a761c22fc0d400012c9656","625756f1493dd743d6c34895","","","","","2404","key"," "," ","16.658048611110036","500","250","flank","","","","","0.6500000000000001","0.56","0"
"","psychophysics","117","1398928","0.0-117.0","57a761c22fc0d400012c9656","625756f1493dd743d6c34895","","","","","2867","key"," "," ","16.658023255813575","500","250","flank","","","","","0.6800000000000002","0.6","0"
"","psychophysics","118","1402570","0.0-118.0","57a761c22fc0d400012c9656","625756f1493dd743d6c34895","","","","","3623","key"," "," ","16.657972477064597","500","250","flank","","","","","0.8000000000000003","0.8","1"
"","psychophysics","119","1405160","0.0-119.0","57a761c22fc0d400012c9656","625756f1493dd743d6c34895","","","","","2582","key"," "," ","16.65800649350715","500","250","flank","","","","","0.4099999999999999","0.24","0"
"","psychophysics","120","1407466","0.0-120.0","57a761c22fc0d400012c9656","625756f1493dd743d6c34895","","","","","2292","key"," "," ","16.657971014493093","500","250","flank","","","","","0.47","0.38","1"
"","psychophysics","121","1410451","0.0-121.0","57a761c22fc0d400012c9656","625756f1493dd743d6c34895","","","","","2976","key"," "," ","16.752084745762417","500","250","flank","","","","","0.43999999999999995","0.26","0"
"","psychophysics","122","1412997","0.0-122.0","57a761c22fc0d400012c9656","625756f1493dd743d6c34895","","","","","2537","key"," "," ","16.65803947368496","500","250","flank","","","","","0.53","0.38","1"
"","psychophysics","123","1415894","0.0-123.0","57a761c22fc0d400012c9656","625756f1493dd743d6c34895","","","","","2886","key"," "," ","16.85281871344992","500","250","flank","","","","","0.4099999999999999","0.22","0"
"","psychophysics","124","1418631","0.0-124.0","57a761c22fc0d400012c9656","625756f1493dd743d6c34895","","","","","2729","key"," "," ","16.6579754601227","500","250","flank","","","","","0.6200000000000001","0.58","1"
"","psychophysics","125","1420953","0.0-125.0","57a761c22fc0d400012c9656","625756f1493dd743d6c34895","","","","","2307","key"," "," ","16.65799275362203","500","250","flank","","","","","0.43999999999999995","0.4","1"
"","psychophysics","126","1423882","0.0-126.0","57a761c22fc0d400012c9656","625756f1493dd743d6c34895","","","","","2915","key"," "," ","16.75371839080391","500","250","flank","","","","","0.7700000000000002","0.72","0"
"","psychophysics","127","1426872","0.0-127.0","57a761c22fc0d400012c9656","625756f1493dd743d6c34895","","","","","2972","key"," "," ","16.657955307262434","500","250","flank","","","","","0.53","0.38","0"
"","psychophysics","128","1429385","0.0-128.0","57a761c22fc0d400012c9656","625756f1493dd743d6c34895","","","","","2502","key"," "," ","16.770520270270346","500","250","flank","","","","","0.56","0.46","1"
"","psychophysics","129","1431974","0.0-129.0","57a761c22fc0d400012c9656","625756f1493dd743d6c34895","","","","","2566","key"," "," ","16.658038709677697","500","250","flank","","","","","0.6500000000000001","0.56","0"
"","psychophysics","130","1434591","0.0-130.0","57a761c22fc0d400012c9656","625756f1493dd743d6c34895","","","","","2601","key"," "," ","16.65795512820403","500","250","flank","","","","","0.6200000000000001","0.6","1"
"","psychophysics","131","1437745","0.0-131.0","57a761c22fc0d400012c9656","625756f1493dd743d6c34895","","","","","3138","key"," "," ","16.657930851064403","500","250","flank","","","","","0.5","0.42","0"
"","psychophysics","132","1441872","0.0-132.0","57a761c22fc0d400012c9656","625756f1493dd743d6c34895","","","","","4113","key"," "," ","16.657971659919383","500","250","flank","","","","","0.31999999999999984","0.26","1"
"","psychophysics","133","1446149","0.0-133.0","57a761c22fc0d400012c9656","625756f1493dd743d6c34895","","","","","4255","key"," "," ","16.658007812499818","500","250","flank","","","","","0.56","0.32","0"
"","psychophysics","134","1450350","0.0-134.0","57a761c22fc0d400012c9656","625756f1493dd743d6c34895","","","","","4192","key"," "," ","16.65795219123486","500","250","flank","","","","","0.6500000000000001","0.56","1"
"","psychophysics","135","1452953","0.0-135.0","57a761c22fc0d400012c9656","625756f1493dd743d6c34895","","","","","2588","key"," "," ","16.65799354838748","500","250","flank","","","","","0.34999999999999987","0.28","1"
"true","fullscreen","136","1452961","0.0-136.0","57a761c22fc0d400012c9656","625756f1493dd743d6c34895","","","","","","","","","","","","","","","","","","",""
