"success","trial_type","trial_index","time_elapsed","internal_node_id","pid","sid","timeout","failed_images","failed_audio","failed_video","rt","response_type","key_press","response","avg_frame_time","center_x","center_y","task","ml_len","ml_start","ml_x","ml_y","resp","targ","back"
"true","fullscreen","0","3377","0.0-0.0","60c3ba02dfcf64dbe7ae0396","625756e332e470f7a6ab3985","","","","","","","","","","","","","","","","","","",""
"true","preload","1","3378","0.0-1.0","60c3ba02dfcf64dbe7ae0396","625756e332e470f7a6ab3985","false","[]","[]","[]","","","","","","","","","","","","","","",""
"","psychophysics","2","7278","0.0-2.0","60c3ba02dfcf64dbe7ae0396","625756e332e470f7a6ab3985","","","","","3891","key"," "," ","16.666598290598287","500","250","inst","","","","","","",""
"","psychophysics","3","8727","0.0-3.0","60c3ba02dfcf64dbe7ae0396","625756e332e470f7a6ab3985","","","","","1448","key"," "," ","16.666302325581412","500","250","inst","","","","","","",""
"","psychophysics","4","30613","0.0-4.0","60c3ba02dfcf64dbe7ae0396","625756e332e470f7a6ab3985","","","","","21884","key"," "," ","16.666509908536586","500","250","instMl","160","-26.666666666666668","-17","-14","-17.666666666666686","",""
"","psychophysics","5","55700","0.0-5.0","60c3ba02dfcf64dbe7ae0396","625756e332e470f7a6ab3985","","","","","25085","key"," "," ","16.66651362126246","500","250","instMl","246","-41","21","16","-20","",""
"","psychophysics","6","59626","0.0-6.0","60c3ba02dfcf64dbe7ae0396","625756e332e470f7a6ab3985","","","","","3923","key"," "," ","16.666470085470078","500","250","inst","","","","","","",""
"","psychophysics","7","75019","0.0-7.0","60c3ba02dfcf64dbe7ae0396","625756e332e470f7a6ab3985","","","","","15391","key"," "," ","16.66650379198267","500","250","ml","154","3","1","26","-18","",""
"","psychophysics","8","92929","0.0-8.0","60c3ba02dfcf64dbe7ae0396","625756e332e470f7a6ab3985","","","","","17908","key"," "," ","16.666510717614162","500","250","ml","190","27","-17","15","-21","",""
"","psychophysics","9","108665","0.0-9.0","60c3ba02dfcf64dbe7ae0396","625756e332e470f7a6ab3985","","","","","15734","key"," "," ","16.66651059322034","500","250","ml","234","-52","-29","-17","-21","",""
"","psychophysics","10","129979","0.0-10.0","60c3ba02dfcf64dbe7ae0396","625756e332e470f7a6ab3985","","","","","21312","key"," "," ","16.666510954616584","500","250","ml","178","23","27","27","-20","",""
"","psychophysics","11","147965","0.0-11.0","60c3ba02dfcf64dbe7ae0396","625756e332e470f7a6ab3985","","","","","17984","key"," "," ","16.666512987012975","500","250","ml","220","11","18","-6","-22","",""
"","psychophysics","12","172128","0.0-12.0","60c3ba02dfcf64dbe7ae0396","625756e332e470f7a6ab3985","","","","","24161","key"," "," ","16.66650897790054","500","250","ml","174","-7","12","14","-17","",""
"","psychophysics","13","188617","0.0-13.0","60c3ba02dfcf64dbe7ae0396","625756e332e470f7a6ab3985","","","","","16488","key"," "," ","16.666517694641037","500","250","ml","218","-6","1","21","-20","",""
"","psychophysics","14","210330","0.0-14.0","60c3ba02dfcf64dbe7ae0396","625756e332e470f7a6ab3985","","","","","21711","key"," "," ","16.666546850998472","500","250","ml","202","49","16","25","-18","",""
"","psychophysics","15","219617","0.0-15.0","60c3ba02dfcf64dbe7ae0396","625756e332e470f7a6ab3985","","","","","9285","key"," "," ","16.666480215827328","500","250","ml","224","29","10","27","-20","",""
"","psychophysics","16","226383","0.0-16.0","60c3ba02dfcf64dbe7ae0396","625756e332e470f7a6ab3985","","","","","6764","key"," "," ","16.666488888888853","500","250","ml","234","-32","-4","-23","-21","",""
"","psychophysics","17","238724","0.0-17.0","60c3ba02dfcf64dbe7ae0396","625756e332e470f7a6ab3985","","","","","12340","key"," "," ","16.666503382949934","500","250","ml","218","-24","28","-27","-20","",""
"","psychophysics","18","246555","0.0-18.0","60c3ba02dfcf64dbe7ae0396","625756e332e470f7a6ab3985","","","","","7829","key"," "," ","16.66644562899792","500","250","ml","212","31","-22","0","-18","",""
"","psychophysics","19","259285","0.0-19.0","60c3ba02dfcf64dbe7ae0396","625756e332e470f7a6ab3985","","","","","12728","key"," "," ","16.66650720838796","500","250","ml","212","-53","16","22","-18","",""
"","psychophysics","20","269788","0.0-20.0","60c3ba02dfcf64dbe7ae0396","625756e332e470f7a6ab3985","","","","","10500","key"," "," ","16.66649602543724","500","250","ml","150","15","-1","-21","-17","",""
"","psychophysics","21","276287","0.0-21.0","60c3ba02dfcf64dbe7ae0396","625756e332e470f7a6ab3985","","","","","6498","key"," "," ","16.66649614395885","500","250","ml","202","-28","-28","9","-15","",""
"","psychophysics","22","278334","0.0-22.0","60c3ba02dfcf64dbe7ae0396","625756e332e470f7a6ab3985","","","","","2045","key"," "," ","16.666401639344556","500","250","inst","","","","","","",""
"","psychophysics","23","293223","0.0-23.0","60c3ba02dfcf64dbe7ae0396","625756e332e470f7a6ab3985","","","","","14887","key"," "," ","16.666499999999978","500","250","instPog","","","","","130","130",""
"","psychophysics","24","313781","0.0-24.0","60c3ba02dfcf64dbe7ae0396","625756e332e470f7a6ab3985","","","","","20555","key"," "," ","16.666502838604988","500","250","instPog","","","","","135","130",""
"","psychophysics","25","359154","0.0-25.0","60c3ba02dfcf64dbe7ae0396","625756e332e470f7a6ab3985","","","","","45371","key"," "," ","16.666504593899305","500","250","instPog","","","","","147","130",""
"","psychophysics","26","361766","0.0-26.0","60c3ba02dfcf64dbe7ae0396","625756e332e470f7a6ab3985","","","","","2610","key"," "," ","16.666391025640994","500","250","inst","","","","","","",""
"","psychophysics","27","367138","0.0-27.0","60c3ba02dfcf64dbe7ae0396","625756e332e470f7a6ab3985","","","","","5370","key"," "," ","16.666485981308533","500","250","pog","","","","","160","139",""
"","psychophysics","28","382080","0.0-28.0","60c3ba02dfcf64dbe7ae0396","625756e332e470f7a6ab3985","","","","","14940","key"," "," ","16.66648883928578","500","250","pog","","","","","161","138",""
"","psychophysics","29","395266","0.0-29.0","60c3ba02dfcf64dbe7ae0396","625756e332e470f7a6ab3985","","","","","13184","key"," "," ","16.666500000000042","500","250","pog","","","","","215","194",""
"","psychophysics","30","407926","0.0-30.0","60c3ba02dfcf64dbe7ae0396","625756e332e470f7a6ab3985","","","","","12658","key"," "," ","16.666498680738794","500","250","pog","","","","","213","190",""
"","psychophysics","31","419115","0.0-31.0","60c3ba02dfcf64dbe7ae0396","625756e332e470f7a6ab3985","","","","","11187","key"," "," ","16.666512667660268","500","250","pog","","","","","163","149",""
"","psychophysics","32","435710","0.0-32.0","60c3ba02dfcf64dbe7ae0396","625756e332e470f7a6ab3985","","","","","16594","key"," "," ","16.66650050251257","500","250","pog","","","","","184","172",""
"","psychophysics","33","451762","0.0-33.0","60c3ba02dfcf64dbe7ae0396","625756e332e470f7a6ab3985","","","","","16050","key"," "," ","16.666508316008358","500","250","pog","","","","","180","170",""
"","psychophysics","34","462958","0.0-34.0","60c3ba02dfcf64dbe7ae0396","625756e332e470f7a6ab3985","","","","","11195","key"," "," ","16.666502985074672","500","250","pog","","","","","189","177",""
"","psychophysics","35","471198","0.0-35.0","60c3ba02dfcf64dbe7ae0396","625756e332e470f7a6ab3985","","","","","8238","key"," "," ","16.666510121457478","500","250","pog","","","","","198","184",""
"","psychophysics","36","472620","0.0-36.0","60c3ba02dfcf64dbe7ae0396","625756e332e470f7a6ab3985","","","","","1420","key"," "," ","16.666404761904793","500","250","pog","","","","","160","143",""
"","psychophysics","37","480386","0.0-37.0","60c3ba02dfcf64dbe7ae0396","625756e332e470f7a6ab3985","","","","","7765","key"," "," ","16.66650322580645","500","250","pog","","","","","141","124",""
"","psychophysics","38","488403","0.0-38.0","60c3ba02dfcf64dbe7ae0396","625756e332e470f7a6ab3985","","","","","8015","key"," "," ","16.666516666666574","500","250","pog","","","","","177","164",""
"","psychophysics","39","495761","0.0-39.0","60c3ba02dfcf64dbe7ae0396","625756e332e470f7a6ab3985","","","","","7356","key"," "," ","16.66648979591828","500","250","pog","","","","","168","151",""
"","psychophysics","40","506292","0.0-40.0","60c3ba02dfcf64dbe7ae0396","625756e332e470f7a6ab3985","","","","","10529","key"," "," ","16.666511111111113","500","250","pog","","","","","202","184",""
"","psychophysics","41","511729","0.0-41.0","60c3ba02dfcf64dbe7ae0396","625756e332e470f7a6ab3985","","","","","5435","key"," "," ","16.666506134969378","500","250","pog","","","","","174","163",""
"","psychophysics","42","513003","0.0-42.0","60c3ba02dfcf64dbe7ae0396","625756e332e470f7a6ab3985","","","","","1273","key"," "," ","16.666239999999913","500","250","inst","","","","","","",""
"","psychophysics","43","516468","0.0-43.0","60c3ba02dfcf64dbe7ae0396","625756e332e470f7a6ab3985","","","","","3463","key"," "," ","16.66635265700482","500","250","instTilt","","","","","NaN","0","0"
"","psychophysics","44","519797","0.0-44.0","60c3ba02dfcf64dbe7ae0396","625756e332e470f7a6ab3985","","","","","3327","key"," "," ","16.666422110552848","500","250","instTilt","","","","","0","0","0"
"","psychophysics","45","527754","0.0-45.0","60c3ba02dfcf64dbe7ae0396","625756e332e470f7a6ab3985","","","","","7955","key"," "," ","16.66648949579834","500","250","instTilt","","","","","0","0","0"
"","psychophysics","46","531005","0.0-46.0","60c3ba02dfcf64dbe7ae0396","625756e332e470f7a6ab3985","","","","","3249","key"," "," ","16.666474226803984","500","250","inst","","","","","","",""
"","psychophysics","47","542592","0.0-47.0","60c3ba02dfcf64dbe7ae0396","625756e332e470f7a6ab3985","","","","","11585","key"," "," ","16.666454676258976","500","250","tilt","","","","","3","4","0"
"","psychophysics","48","550718","0.0-48.0","60c3ba02dfcf64dbe7ae0396","625756e332e470f7a6ab3985","","","","","8124","key"," "," ","16.66649176954716","500","250","tilt","","","","","6","10","0"
"","psychophysics","49","553028","0.0-49.0","60c3ba02dfcf64dbe7ae0396","625756e332e470f7a6ab3985","","","","","2308","key"," "," ","16.66638405797109","500","250","tilt","","","","","0","-1","0"
"","psychophysics","50","567298","0.0-50.0","60c3ba02dfcf64dbe7ae0396","625756e332e470f7a6ab3985","","","","","14268","key"," "," ","16.666505263157852","500","250","tilt","","","","","-2","-4","0"
"","psychophysics","51","576798","0.0-51.0","60c3ba02dfcf64dbe7ae0396","625756e332e470f7a6ab3985","","","","","9498","key"," "," ","16.666483304042064","500","250","tilt","","","","","1","3","0"
"","psychophysics","52","586488","0.0-52.0","60c3ba02dfcf64dbe7ae0396","625756e332e470f7a6ab3985","","","","","9688","key"," "," ","16.666444827586307","500","250","tilt","","","","","4","9","1"
"","psychophysics","53","591845","0.0-53.0","60c3ba02dfcf64dbe7ae0396","625756e332e470f7a6ab3985","","","","","5355","key"," "," ","16.666433021806636","500","250","tilt","","","","","0","1","0"
"","psychophysics","54","599666","0.0-54.0","60c3ba02dfcf64dbe7ae0396","625756e332e470f7a6ab3985","","","","","7820","key"," "," ","16.666433760683642","500","250","tilt","","","","","-5","-2","1"
"","psychophysics","55","633112","0.0-55.0","60c3ba02dfcf64dbe7ae0396","625756e332e470f7a6ab3985","","","","","33443","key"," "," ","16.666506480558375","500","250","tilt","","","","","-9","-9","0"
"","psychophysics","56","638326","0.0-56.0","60c3ba02dfcf64dbe7ae0396","625756e332e470f7a6ab3985","","","","","5213","key"," "," ","16.66645833333314","500","250","tilt","","","","","3","4","0"
"","psychophysics","57","642262","0.0-57.0","60c3ba02dfcf64dbe7ae0396","625756e332e470f7a6ab3985","","","","","3934","key"," "," ","16.666472340425713","500","250","tilt","","","","","-1","-2","0"
"","psychophysics","58","646881","0.0-58.0","60c3ba02dfcf64dbe7ae0396","625756e332e470f7a6ab3985","","","","","4616","key"," "," ","16.66643115942007","500","250","tilt","","","","","0","0","1"
"","psychophysics","59","655811","0.0-59.0","60c3ba02dfcf64dbe7ae0396","625756e332e470f7a6ab3985","","","","","8929","key"," "," ","16.66648037383185","500","250","tilt","","","","","5","8","0"
"","psychophysics","60","659077","0.0-60.0","60c3ba02dfcf64dbe7ae0396","625756e332e470f7a6ab3985","","","","","3263","key"," "," ","16.66648717948761","500","250","tilt","","","","","2","4","0"
"","psychophysics","61","661183","0.0-61.0","60c3ba02dfcf64dbe7ae0396","625756e332e470f7a6ab3985","","","","","2104","key"," "," ","16.66641599999927","500","250","tilt","","","","","0","1","0"
"","psychophysics","62","664169","0.0-62.0","60c3ba02dfcf64dbe7ae0396","625756e332e470f7a6ab3985","","","","","2984","key"," "," ","16.666353932583803","500","250","tilt","","","","","3","5","1"
"","psychophysics","63","669673","0.0-63.0","60c3ba02dfcf64dbe7ae0396","625756e332e470f7a6ab3985","","","","","5502","key"," "," ","16.66645896656504","500","250","tilt","","","","","-4","-3","0"
"","psychophysics","64","675498","0.0-64.0","60c3ba02dfcf64dbe7ae0396","625756e332e470f7a6ab3985","","","","","5823","key"," "," ","16.66651575931216","500","250","tilt","","","","","5","10","1"
"","psychophysics","65","683358","0.0-65.0","60c3ba02dfcf64dbe7ae0396","625756e332e470f7a6ab3985","","","","","7858","key"," "," ","16.66645435244166","500","250","tilt","","","","","2","6","1"
"","psychophysics","66","692638","0.0-66.0","60c3ba02dfcf64dbe7ae0396","625756e332e470f7a6ab3985","","","","","9278","key"," "," ","16.666488288288416","500","250","tilt","","","","","-6","-1","1"
"","psychophysics","67","695052","0.0-67.0","60c3ba02dfcf64dbe7ae0396","625756e332e470f7a6ab3985","","","","","2413","key"," "," ","16.666354166666377","500","250","tilt","","","","","0","3","1"
"","psychophysics","68","697325","0.0-68.0","60c3ba02dfcf64dbe7ae0396","625756e332e470f7a6ab3985","","","","","2272","key"," "," ","16.66640441176509","500","250","tilt","","","","","0","2","1"
"","psychophysics","69","703796","0.0-69.0","60c3ba02dfcf64dbe7ae0396","625756e332e470f7a6ab3985","","","","","6469","key"," "," ","16.666493540051878","500","250","tilt","","","","","-9","-6","0"
"","psychophysics","70","706569","0.0-70.0","60c3ba02dfcf64dbe7ae0396","625756e332e470f7a6ab3985","","","","","2771","key"," "," ","16.666393939393686","500","250","tilt","","","","","0","-1","0"
"","psychophysics","71","714200","0.0-71.0","60c3ba02dfcf64dbe7ae0396","625756e332e470f7a6ab3985","","","","","7627","key"," "," ","16.666404814004423","500","250","tilt","","","","","3","6","0"
"","psychophysics","72","720763","0.0-72.0","60c3ba02dfcf64dbe7ae0396","625756e332e470f7a6ab3985","","","","","6561","key"," "," ","16.666460559796423","500","250","tilt","","","","","5","8","1"
"","psychophysics","73","726241","0.0-73.0","60c3ba02dfcf64dbe7ae0396","625756e332e470f7a6ab3985","","","","","5477","key"," "," ","16.666420731707348","500","250","tilt","","","","","-11","-5","1"
"","psychophysics","74","729056","0.0-74.0","60c3ba02dfcf64dbe7ae0396","625756e332e470f7a6ab3985","","","","","2812","key"," "," ","16.666335329341614","500","250","tilt","","","","","0","-1","0"
"","psychophysics","75","735953","0.0-75.0","60c3ba02dfcf64dbe7ae0396","625756e332e470f7a6ab3985","","","","","6895","key"," "," ","16.666510895883707","500","250","tilt","","","","","-6","-1","1"
"","psychophysics","76","739807","0.0-76.0","60c3ba02dfcf64dbe7ae0396","625756e332e470f7a6ab3985","","","","","3853","key"," "," ","16.666419913420288","500","250","tilt","","","","","-1","-2","0"
"","psychophysics","77","741083","0.0-77.0","60c3ba02dfcf64dbe7ae0396","625756e332e470f7a6ab3985","","","","","1273","key"," "," ","16.66639999999975","500","250","inst","","","","","","",""
"","psychophysics","78","743482","0.0-78.0","60c3ba02dfcf64dbe7ae0396","625756e332e470f7a6ab3985","","","","","2397","key"," "," ","16.666447552446915","500","250","instPz","","","","","50","50",""
"","psychophysics","79","753595","0.0-79.0","60c3ba02dfcf64dbe7ae0396","625756e332e470f7a6ab3985","","","","","10110","key"," "," ","16.666493399339966","500","250","instPz","","","","","50","50",""
"","psychophysics","80","760701","0.0-80.0","60c3ba02dfcf64dbe7ae0396","625756e332e470f7a6ab3985","","","","","7105","key"," "," ","16.6664588235294","500","250","instPz","","","","","31","30",""
"","psychophysics","81","766872","0.0-81.0","60c3ba02dfcf64dbe7ae0396","625756e332e470f7a6ab3985","","","","","6168","key"," "," ","16.6664200542005","500","250","instPz","","","","","15","40",""
"","psychophysics","82","768404","0.0-82.0","60c3ba02dfcf64dbe7ae0396","625756e332e470f7a6ab3985","","","","","1530","key"," "," ","16.666428571428778","500","250","inst","","","","","","",""
"","psychophysics","83","780674","0.0-83.0","60c3ba02dfcf64dbe7ae0396","625756e332e470f7a6ab3985","","","","","12268","key"," "," ","16.666498641304276","500","250","pz","","","","","48","40",""
"","psychophysics","84","806318","0.0-84.0","60c3ba02dfcf64dbe7ae0396","625756e332e470f7a6ab3985","","","","","25642","key"," "," ","16.66650097592714","500","250","pz","","","","","70","55",""
"","psychophysics","85","815121","0.0-85.0","60c3ba02dfcf64dbe7ae0396","625756e332e470f7a6ab3985","","","","","8800","key"," "," ","16.66649146110064","500","250","pz","","","","","53","43",""
"","psychophysics","86","821070","0.0-86.0","60c3ba02dfcf64dbe7ae0396","625756e332e470f7a6ab3985","","","","","5948","key"," "," ","16.666494382022464","500","250","pz","","","","","33","28",""
"","psychophysics","87","833976","0.0-87.0","60c3ba02dfcf64dbe7ae0396","625756e332e470f7a6ab3985","","","","","12903","key"," "," ","16.66650645994823","500","250","pz","","","","","65","52",""
"","psychophysics","88","843380","0.0-88.0","60c3ba02dfcf64dbe7ae0396","625756e332e470f7a6ab3985","","","","","9402","key"," "," ","16.66650444049728","500","250","pz","","","","","35","23",""
"","psychophysics","89","848382","0.0-89.0","60c3ba02dfcf64dbe7ae0396","625756e332e470f7a6ab3985","","","","","5001","key"," "," ","16.666441471572114","500","250","pz","","","","","37","29",""
"","psychophysics","90","854998","0.0-90.0","60c3ba02dfcf64dbe7ae0396","625756e332e470f7a6ab3985","","","","","6613","key"," "," ","16.666446969696825","500","250","pz","","","","","44","32",""
"","psychophysics","91","860335","0.0-91.0","60c3ba02dfcf64dbe7ae0396","625756e332e470f7a6ab3985","","","","","5334","key"," "," ","16.666445141065893","500","250","pz","","","","","40","29",""
"","psychophysics","92","865896","0.0-92.0","60c3ba02dfcf64dbe7ae0396","625756e332e470f7a6ab3985","","","","","5560","key"," "," ","16.666459459459407","500","250","pz","","","","","28","22",""
"","psychophysics","93","881916","0.0-93.0","60c3ba02dfcf64dbe7ae0396","625756e332e470f7a6ab3985","","","","","16018","key"," "," ","16.66649895833325","500","250","pz","","","","","73","57",""
"","psychophysics","94","889558","0.0-94.0","60c3ba02dfcf64dbe7ae0396","625756e332e470f7a6ab3985","","","","","7640","key"," "," ","16.666465065502013","500","250","pz","","","","","74","60",""
"","psychophysics","95","899770","0.0-95.0","60c3ba02dfcf64dbe7ae0396","625756e332e470f7a6ab3985","","","","","10210","key"," "," ","16.666494271685767","500","250","pz","","","","","44","39",""
"","psychophysics","96","902929","0.0-96.0","60c3ba02dfcf64dbe7ae0396","625756e332e470f7a6ab3985","","","","","3157","key"," "," ","16.66648148148131","500","250","pz","","","","","31","21",""
"","psychophysics","97","911071","0.0-97.0","60c3ba02dfcf64dbe7ae0396","625756e332e470f7a6ab3985","","","","","8140","key"," "," ","16.666470225872683","500","250","pz","","","","","61","46",""
"","psychophysics","98","911993","0.0-98.0","60c3ba02dfcf64dbe7ae0396","625756e332e470f7a6ab3985","","","","","921","key"," "," ","16.66636363636406","500","250","inst","","","","","","",""
"","psychophysics","99","913565","0.0-99.0","60c3ba02dfcf64dbe7ae0396","625756e332e470f7a6ab3985","","","","","1571","key"," "," ","16.6664086021508","500","250","inst","","","","","","",""
"","psychophysics","100","925047","0.0-100.0","60c3ba02dfcf64dbe7ae0396","625756e332e470f7a6ab3985","","","","","11480","key"," "," ","16.66647383720928","500","250","instFlank","","","","","0.5","0.3","1"
"","psychophysics","101","929363","0.0-101.0","60c3ba02dfcf64dbe7ae0396","625756e332e470f7a6ab3985","","","","","4313","key"," "," ","16.666492248062305","500","250","inst","","","","","","",""
"","psychophysics","102","939961","0.0-102.0","60c3ba02dfcf64dbe7ae0396","625756e332e470f7a6ab3985","","","","","10596","key"," "," ","16.666489763779374","500","250","instFlank","","","","","0.31999999999999984","0.3","1"
"","psychophysics","103","942587","0.0-103.0","60c3ba02dfcf64dbe7ae0396","625756e332e470f7a6ab3985","","","","","2625","key"," "," ","16.66641666666673","500","250","inst","","","","","","",""
"","psychophysics","104","947465","0.0-104.0","60c3ba02dfcf64dbe7ae0396","625756e332e470f7a6ab3985","","","","","4872","key"," "," ","16.666476027396975","500","250","instFlank","","","","","0.5900000000000001","0.3","0"
"","psychophysics","105","949003","0.0-105.0","60c3ba02dfcf64dbe7ae0396","625756e332e470f7a6ab3985","","","","","1536","key"," "," ","16.666846153845725","500","250","inst","","","","","","",""
"","psychophysics","106","953222","0.0-106.0","60c3ba02dfcf64dbe7ae0396","625756e332e470f7a6ab3985","","","","","4217","key"," "," ","16.66631225296462","500","250","flank","","","","","0.7700000000000002","0.8","1"
"","psychophysics","107","962027","0.0-107.0","60c3ba02dfcf64dbe7ae0396","625756e332e470f7a6ab3985","","","","","8804","key"," "," ","16.666476280834928","500","250","flank","","","","","0.27","0.3","0"
"","psychophysics","108","966585","0.0-108.0","60c3ba02dfcf64dbe7ae0396","625756e332e470f7a6ab3985","","","","","4556","key"," "," ","16.666448529411674","500","250","flank","","","","","0.6500000000000001","0.64","1"
"","psychophysics","109","970373","0.0-109.0","60c3ba02dfcf64dbe7ae0396","625756e332e470f7a6ab3985","","","","","3786","key"," "," ","16.666427312775244","500","250","flank","","","","","0.7400000000000002","0.6","0"
"","psychophysics","110","975635","0.0-110.0","60c3ba02dfcf64dbe7ae0396","625756e332e470f7a6ab3985","","","","","5259","key"," "," ","16.666426751592084","500","250","flank","","","","","0.8000000000000003","0.76","0"
"","psychophysics","111","981763","0.0-111.0","60c3ba02dfcf64dbe7ae0396","625756e332e470f7a6ab3985","","","","","6127","key"," "," ","16.666487738419367","500","250","flank","","","","","0.47","0.52","1"
"","psychophysics","112","987553","0.0-112.0","60c3ba02dfcf64dbe7ae0396","625756e332e470f7a6ab3985","","","","","5788","key"," "," ","16.66650289017337","500","250","flank","","","","","0.2599999999999998","0.36","1"
"","psychophysics","113","994610","0.0-113.0","60c3ba02dfcf64dbe7ae0396","625756e332e470f7a6ab3985","","","","","7055","key"," "," ","16.666510638297893","500","250","flank","","","","","0.5900000000000001","0.62","1"
"","psychophysics","114","1000954","0.0-114.0","60c3ba02dfcf64dbe7ae0396","625756e332e470f7a6ab3985","","","","","6342","key"," "," ","16.66645382585724","500","250","flank","","","","","0.3600000000000001","0.22","0"
"","psychophysics","115","1005296","0.0-115.0","60c3ba02dfcf64dbe7ae0396","625756e332e470f7a6ab3985","","","","","4341","key"," "," ","16.666515384615362","500","250","flank","","","","","0.5","0.5","1"
"","psychophysics","116","1009137","0.0-116.0","60c3ba02dfcf64dbe7ae0396","625756e332e470f7a6ab3985","","","","","3838","key"," "," ","16.66647161572041","500","250","flank","","","","","0.56","0.58","1"
"","psychophysics","117","1014062","0.0-117.0","60c3ba02dfcf64dbe7ae0396","625756e332e470f7a6ab3985","","","","","4924","key"," "," ","16.66651864406787","500","250","flank","","","","","0.53","0.44","1"
"","psychophysics","118","1017907","0.0-118.0","60c3ba02dfcf64dbe7ae0396","625756e332e470f7a6ab3985","","","","","3842","key"," "," ","16.66645217391298","500","250","flank","","","","","0.7700000000000002","0.68","0"
"","psychophysics","119","1021458","0.0-119.0","60c3ba02dfcf64dbe7ae0396","625756e332e470f7a6ab3985","","","","","3549","key"," "," ","16.666466981131926","500","250","flank","","","","","0.7100000000000002","0.64","0"
"","psychophysics","120","1025679","0.0-120.0","60c3ba02dfcf64dbe7ae0396","625756e332e470f7a6ab3985","","","","","4218","key"," "," ","16.66646825396807","500","250","flank","","","","","0.6200000000000001","0.54","0"
"","psychophysics","121","1030813","0.0-121.0","60c3ba02dfcf64dbe7ae0396","625756e332e470f7a6ab3985","","","","","5132","key"," "," ","16.6664755700326","500","250","flank","","","","","0.34999999999999987","0.22","0"
"","psychophysics","122","1035172","0.0-122.0","60c3ba02dfcf64dbe7ae0396","625756e332e470f7a6ab3985","","","","","4356","key"," "," ","16.666494252873402","500","250","flank","","","","","0.43999999999999995","0.38","0"
"","psychophysics","123","1040128","0.0-123.0","60c3ba02dfcf64dbe7ae0396","625756e332e470f7a6ab3985","","","","","4954","key"," "," ","16.666493243243266","500","250","flank","","","","","0.2899999999999998","0.24","0"
"","psychophysics","124","1044107","0.0-124.0","60c3ba02dfcf64dbe7ae0396","625756e332e470f7a6ab3985","","","","","3976","key"," "," ","16.66639915966388","500","250","flank","","","","","0.5900000000000001","0.42","0"
"","psychophysics","125","1048560","0.0-125.0","60c3ba02dfcf64dbe7ae0396","625756e332e470f7a6ab3985","","","","","4451","key"," "," ","16.666484962406138","500","250","flank","","","","","0.2599999999999998","0.36","0"
"","psychophysics","126","1052099","0.0-126.0","60c3ba02dfcf64dbe7ae0396","625756e332e470f7a6ab3985","","","","","3536","key"," "," ","16.6664834123224","500","250","flank","","","","","0.7100000000000002","0.58","0"
"","psychophysics","127","1056122","0.0-127.0","60c3ba02dfcf64dbe7ae0396","625756e332e470f7a6ab3985","","","","","4022","key"," "," ","16.66645228215764","500","250","flank","","","","","0.6800000000000002","0.52","0"
"","psychophysics","128","1059430","0.0-128.0","60c3ba02dfcf64dbe7ae0396","625756e332e470f7a6ab3985","","","","","3306","key"," "," ","16.666532994924008","500","250","flank","","","","","0.7100000000000002","0.62","0"
"","psychophysics","129","1063201","0.0-129.0","60c3ba02dfcf64dbe7ae0396","625756e332e470f7a6ab3985","","","","","3768","key"," "," ","16.666488888888722","500","250","flank","","","","","0.1699999999999998","0.2","1"
"","psychophysics","130","1068395","0.0-130.0","60c3ba02dfcf64dbe7ae0396","625756e332e470f7a6ab3985","","","","","5192","key"," "," ","16.66648553054663","500","250","flank","","","","","0.8000000000000003","0.8","0"
"","psychophysics","131","1072166","0.0-131.0","60c3ba02dfcf64dbe7ae0396","625756e332e470f7a6ab3985","","","","","3769","key"," "," ","16.66643111111079","500","250","flank","","","","","0.31999999999999984","0.34","1"
"","psychophysics","132","1075619","0.0-132.0","60c3ba02dfcf64dbe7ae0396","625756e332e470f7a6ab3985","","","","","3451","key"," "," ","16.666466019416987","500","250","flank","","","","","0.5900000000000001","0.38","0"
"","psychophysics","133","1078699","0.0-133.0","60c3ba02dfcf64dbe7ae0396","625756e332e470f7a6ab3985","","","","","3078","key"," "," ","16.666364130434964","500","250","flank","","","","","0.7100000000000002","0.58","0"
"","psychophysics","134","1083712","0.0-134.0","60c3ba02dfcf64dbe7ae0396","625756e332e470f7a6ab3985","","","","","5011","key"," "," ","16.666443333333202","500","250","flank","","","","","0.3600000000000001","0.24","1"
"","psychophysics","135","1086685","0.0-135.0","60c3ba02dfcf64dbe7ae0396","625756e332e470f7a6ab3985","","","","","2971","key"," "," ","16.666457627118582","500","250","flank","","","","","0.7100000000000002","0.62","0"
"true","fullscreen","136","1086688","0.0-136.0","60c3ba02dfcf64dbe7ae0396","625756e332e470f7a6ab3985","","","","","","","","","","","","","","","","","","",""
