"success","trial_type","trial_index","time_elapsed","internal_node_id","pid","sid","timeout","failed_images","failed_audio","failed_video","rt","response_type","key_press","response","avg_frame_time","center_x","center_y","task","ml_len","ml_start","ml_x","ml_y","resp","targ","back"
"true","fullscreen","0","5907","0.0-0.0","60632b562ed6028c6bb905a6","625758448f3a06fafd69467d","","","","","","","","","","","","","","","","","","",""
"true","preload","1","5909","0.0-1.0","60632b562ed6028c6bb905a6","625758448f3a06fafd69467d","false","[]","[]","[]","","","","","","","","","","","","","","",""
"","psychophysics","2","19116","0.0-2.0","60632b562ed6028c6bb905a6","625758448f3a06fafd69467d","","","","","13193","key"," "," ","16.649203026481715","500","250","inst","","","","","","",""
"","psychophysics","3","22369","0.0-3.0","60632b562ed6028c6bb905a6","625758448f3a06fafd69467d","","","","","3251","key"," "," ","16.626000000000015","500","250","inst","","","","","","",""
"","psychophysics","4","86821","0.0-4.0","60632b562ed6028c6bb905a6","625758448f3a06fafd69467d","","","","","64448","key"," "," ","16.627375386996903","500","250","instMl","230","-38.333333333333336","19","-15","-14.333333333333258","",""
"","psychophysics","5","105907","0.0-5.0","60632b562ed6028c6bb905a6","625758448f3a06fafd69467d","","","","","19084","key"," "," ","16.62755013077594","500","250","instMl","160","-26.666666666666668","-15","26","-12.666666666666686","",""
"","psychophysics","6","113060","0.0-6.0","60632b562ed6028c6bb905a6","625758448f3a06fafd69467d","","","","","7151","key"," "," ","16.628065268065274","500","250","inst","","","","","","",""
"","psychophysics","7","123584","0.0-7.0","60632b562ed6028c6bb905a6","625758448f3a06fafd69467d","","","","","10522","key"," "," ","16.627405063291167","500","250","ml","246","-35","11","-11","-13","",""
"","psychophysics","8","130481","0.0-8.0","60632b562ed6028c6bb905a6","625758448f3a06fafd69467d","","","","","6895","key"," "," ","16.628147342995135","500","250","ml","176","12","28","29","-13","",""
"","psychophysics","9","141224","0.0-9.0","60632b562ed6028c6bb905a6","625758448f3a06fafd69467d","","","","","10741","key"," "," ","16.62731472868215","500","250","ml","232","45","-7","17","-15","",""
"","psychophysics","10","150676","0.0-10.0","60632b562ed6028c6bb905a6","625758448f3a06fafd69467d","","","","","9451","key"," "," ","16.627641975308627","500","250","ml","196","-32","27","-30","-12","",""
"","psychophysics","11","164015","0.0-11.0","60632b562ed6028c6bb905a6","625758448f3a06fafd69467d","","","","","13337","key"," "," ","16.627304619225956","500","250","ml","228","-12","23","-19","-19","",""
"","psychophysics","12","174476","0.0-12.0","60632b562ed6028c6bb905a6","625758448f3a06fafd69467d","","","","","10453","key"," "," ","16.653888535031836","500","250","ml","216","14","-3","-10","-16","",""
"","psychophysics","13","183539","0.0-13.0","60632b562ed6028c6bb905a6","625758448f3a06fafd69467d","","","","","9061","key"," "," ","16.627608455882395","500","250","ml","168","-37","-30","-11","-7","",""
"","psychophysics","14","190058","0.0-14.0","60632b562ed6028c6bb905a6","625758448f3a06fafd69467d","","","","","6517","key"," "," ","16.62600000000001","500","250","ml","184","-11","-14","12","-11","",""
"","psychophysics","15","200106","0.0-15.0","60632b562ed6028c6bb905a6","625758448f3a06fafd69467d","","","","","10046","key"," "," ","16.62749087893865","500","250","ml","182","-36","30","22","-6","",""
"","psychophysics","16","208298","0.0-16.0","60632b562ed6028c6bb905a6","625758448f3a06fafd69467d","","","","","8190","key"," "," ","16.627808943089455","500","250","ml","222","31","-24","8","-6","",""
"","psychophysics","17","216985","0.0-17.0","60632b562ed6028c6bb905a6","625758448f3a06fafd69467d","","","","","8686","key"," "," ","16.627529750479844","500","250","ml","152","29","0","19","-13","",""
"","psychophysics","18","225424","0.0-18.0","60632b562ed6028c6bb905a6","625758448f3a06fafd69467d","","","","","8437","key"," "," ","16.627927021696244","500","250","ml","236","-34","-11","8","-6","",""
"","psychophysics","19","232257","0.0-19.0","60632b562ed6028c6bb905a6","625758448f3a06fafd69467d","","","","","6831","key"," "," ","16.628180487804887","500","250","ml","226","-5","10","13","-8","",""
"","psychophysics","20","241344","0.0-20.0","60632b562ed6028c6bb905a6","625758448f3a06fafd69467d","","","","","9085","key"," "," ","16.627631192660566","500","250","ml","184","-31","4","-3","-3","",""
"","psychophysics","21","247960","0.0-21.0","60632b562ed6028c6bb905a6","625758448f3a06fafd69467d","","","","","6614","key"," "," ","16.625999999999994","500","250","ml","186","-22","-19","-24","-7","",""
"","psychophysics","22","362711","0.0-22.0","60632b562ed6028c6bb905a6","625758448f3a06fafd69467d","","","","","11318","key"," "," ","178.1780822981367","500","250","inst","","","","","","",""
"","psychophysics","23","401219","0.0-23.0","60632b562ed6028c6bb905a6","625758448f3a06fafd69467d","","","","","38506","key"," "," ","16.627533477321812","500","250","instPog","","","","","131","130",""
"","psychophysics","24","428940","0.0-24.0","60632b562ed6028c6bb905a6","625758448f3a06fafd69467d","","","","","27720","key"," "," ","16.62706182472989","500","250","instPog","","","","","148","130",""
"","psychophysics","25","447079","0.0-25.0","60632b562ed6028c6bb905a6","625758448f3a06fafd69467d","","","","","18137","key"," "," ","16.627566972477073","500","250","instPog","","","","","156","130",""
"","psychophysics","26","454135","0.0-26.0","60632b562ed6028c6bb905a6","625758448f3a06fafd69467d","","","","","7055","key"," "," ","16.62828605200949","500","250","inst","","","","","","",""
"","psychophysics","27","468685","0.0-27.0","60632b562ed6028c6bb905a6","625758448f3a06fafd69467d","","","","","14548","key"," "," ","16.627016018306623","500","250","pog","","","","","207","180",""
"","psychophysics","28","480982","0.0-28.0","60632b562ed6028c6bb905a6","625758448f3a06fafd69467d","","","","","12294","key"," "," ","16.673525101763875","500","250","pog","","","","","214","190",""
"","psychophysics","29","488742","0.0-29.0","60632b562ed6028c6bb905a6","625758448f3a06fafd69467d","","","","","7759","key"," "," ","16.661754838709708","500","250","pog","","","","","158","124",""
"","psychophysics","30","507188","0.0-30.0","60632b562ed6028c6bb905a6","625758448f3a06fafd69467d","","","","","18441","key"," "," ","16.62750992779785","500","250","pog","","","","","217","195",""
"","psychophysics","31","515185","0.0-31.0","60632b562ed6028c6bb905a6","625758448f3a06fafd69467d","","","","","7995","key"," "," ","16.627931249999893","500","250","pog","","","","","165","131",""
"","psychophysics","32","532001","0.0-32.0","60632b562ed6028c6bb905a6","625758448f3a06fafd69467d","","","","","16814","key"," "," ","16.627747524752497","500","250","pog","","","","","163","137",""
"","psychophysics","33","544100","0.0-33.0","60632b562ed6028c6bb905a6","625758448f3a06fafd69467d","","","","","12098","key"," "," ","16.62718982118303","500","250","pog","","","","","172","142",""
"","psychophysics","34","554016","0.0-34.0","60632b562ed6028c6bb905a6","625758448f3a06fafd69467d","","","","","9914","key"," "," ","16.627662184873806","500","250","pog","","","","","175","140",""
"","psychophysics","35","565082","0.0-35.0","60632b562ed6028c6bb905a6","625758448f3a06fafd69467d","","","","","11063","key"," "," ","16.627183458646513","500","250","pog","","","","","189","158",""
"","psychophysics","36","574123","0.0-36.0","60632b562ed6028c6bb905a6","625758448f3a06fafd69467d","","","","","9040","key"," "," ","16.62782504604049","500","250","pog","","","","","179","150",""
"","psychophysics","37","596057","0.0-37.0","60632b562ed6028c6bb905a6","625758448f3a06fafd69467d","","","","","21932","key"," "," ","16.961951238390103","500","250","pog","","","","","198","166",""
"","psychophysics","38","610686","0.0-38.0","60632b562ed6028c6bb905a6","625758448f3a06fafd69467d","","","","","14626","key"," "," ","16.626897610921574","500","250","pog","","","","","177","147",""
"","psychophysics","39","624572","0.0-39.0","60632b562ed6028c6bb905a6","625758448f3a06fafd69467d","","","","","13884","key"," "," ","16.62825179856122","500","250","pog","","","","","221","194",""
"","psychophysics","40","639819","0.0-40.0","60632b562ed6028c6bb905a6","625758448f3a06fafd69467d","","","","","15246","key"," "," ","16.626969432314414","500","250","pog","","","","","233","200",""
"","psychophysics","41","652705","0.0-41.0","60632b562ed6028c6bb905a6","625758448f3a06fafd69467d","","","","","12884","key"," "," ","16.62829844961235","500","250","pog","","","","","169","132",""
"","psychophysics","42","656775","0.0-42.0","60632b562ed6028c6bb905a6","625758448f3a06fafd69467d","","","","","4036","key"," "," ","16.625999999999785","500","250","inst","","","","","","",""
"","psychophysics","43","664934","0.0-43.0","60632b562ed6028c6bb905a6","625758448f3a06fafd69467d","","","","","8156","key"," "," ","16.627813905930328","500","250","instTilt","","","","","NaN","0","0"
"","psychophysics","44","670039","0.0-44.0","60632b562ed6028c6bb905a6","625758448f3a06fafd69467d","","","","","5104","key"," "," ","16.62599999999994","500","250","instTilt","","","","","0","0","0"
"","psychophysics","45","698320","0.0-45.0","60632b562ed6028c6bb905a6","625758448f3a06fafd69467d","","","","","28277","key"," "," ","16.627569411764714","500","250","instTilt","","","","","1","0","0"
"","psychophysics","46","703086","0.0-46.0","60632b562ed6028c6bb905a6","625758448f3a06fafd69467d","","","","","4764","key"," "," ","16.629094405594717","500","250","inst","","","","","","",""
"","psychophysics","47","715458","0.0-47.0","60632b562ed6028c6bb905a6","625758448f3a06fafd69467d","","","","","12370","key"," "," ","16.627195154777997","500","250","tilt","","","","","8","10","0"
"","psychophysics","48","731953","0.0-48.0","60632b562ed6028c6bb905a6","625758448f3a06fafd69467d","","","","","16494","key"," "," ","16.62779313824424","500","250","tilt","","","","","-6","-4","1"
"","psychophysics","49","748007","0.0-49.0","60632b562ed6028c6bb905a6","625758448f3a06fafd69467d","","","","","16052","key"," "," ","16.62691917098453","500","250","tilt","","","","","-8","-9","0"
"","psychophysics","50","762875","0.0-50.0","60632b562ed6028c6bb905a6","625758448f3a06fafd69467d","","","","","14866","key"," "," ","16.627992161254223","500","250","tilt","","","","","-5","-5","0"
"","psychophysics","51","775546","0.0-51.0","60632b562ed6028c6bb905a6","625758448f3a06fafd69467d","","","","","12669","key"," "," ","16.627166885676708","500","250","tilt","","","","","3","1","0"
"","psychophysics","52","784491","0.0-52.0","60632b562ed6028c6bb905a6","625758448f3a06fafd69467d","","","","","8944","key"," "," ","16.627653631284787","500","250","tilt","","","","","-10","-10","1"
"","psychophysics","53","791440","0.0-53.0","60632b562ed6028c6bb905a6","625758448f3a06fafd69467d","","","","","6948","key"," "," ","16.626000000000037","500","250","tilt","","","","","-10","-10","1"
"","psychophysics","54","803921","0.0-54.0","60632b562ed6028c6bb905a6","625758448f3a06fafd69467d","","","","","12479","key"," "," ","16.62836982643537","500","250","tilt","","","","","-13","-10","1"
"","psychophysics","55","818470","0.0-55.0","60632b562ed6028c6bb905a6","625758448f3a06fafd69467d","","","","","14546","key"," "," ","16.62701714285716","500","250","tilt","","","","","-6","-7","0"
"","psychophysics","56","835200","0.0-56.0","60632b562ed6028c6bb905a6","625758448f3a06fafd69467d","","","","","16728","key"," "," ","16.62776417910441","500","250","tilt","","","","","3","8","1"
"","psychophysics","57","845520","0.0-57.0","60632b562ed6028c6bb905a6","625758448f3a06fafd69467d","","","","","10318","key"," "," ","16.627439418416817","500","250","tilt","","","","","-7","-6","0"
"","psychophysics","58","857568","0.0-58.0","60632b562ed6028c6bb905a6","625758448f3a06fafd69467d","","","","","12045","key"," "," ","16.62722651933713","500","250","tilt","","","","","-1","-2","0"
"","psychophysics","59","865622","0.0-59.0","60632b562ed6028c6bb905a6","625758448f3a06fafd69467d","","","","","8053","key"," "," ","16.627844720497038","500","250","tilt","","","","","2","4","1"
"","psychophysics","60","874799","0.0-60.0","60632b562ed6028c6bb905a6","625758448f3a06fafd69467d","","","","","9172","key"," "," ","16.627609800362915","500","250","tilt","","","","","-1","-3","0"
"","psychophysics","61","883023","0.0-61.0","60632b562ed6028c6bb905a6","625758448f3a06fafd69467d","","","","","8222","key"," "," ","16.627799595141763","500","250","tilt","","","","","5","8","0"
"","psychophysics","62","896310","0.0-62.0","60632b562ed6028c6bb905a6","625758448f3a06fafd69467d","","","","","13286","key"," "," ","16.627013784461248","500","250","tilt","","","","","3","3","0"
"","psychophysics","63","904644","0.0-63.0","60632b562ed6028c6bb905a6","625758448f3a06fafd69467d","","","","","8332","key"," "," ","16.627800000000047","500","250","tilt","","","","","-10","-7","1"
"","psychophysics","64","916673","0.0-64.0","60632b562ed6028c6bb905a6","625758448f3a06fafd69467d","","","","","12025","key"," "," ","16.62732365145219","500","250","tilt","","","","","7","9","0"
"","psychophysics","65","926264","0.0-65.0","60632b562ed6028c6bb905a6","625758448f3a06fafd69467d","","","","","9590","key"," "," ","16.627539930555535","500","250","tilt","","","","","1","-1","0"
"","psychophysics","66","932264","0.0-66.0","60632b562ed6028c6bb905a6","625758448f3a06fafd69467d","","","","","5997","key"," "," ","16.62821448467961","500","250","tilt","","","","","-2","-3","1"
"","psychophysics","67","941159","0.0-67.0","60632b562ed6028c6bb905a6","625758448f3a06fafd69467d","","","","","8892","key"," "," ","16.625999999999973","500","250","tilt","","","","","-5","-6","1"
"","psychophysics","68","951314","0.0-68.0","60632b562ed6028c6bb905a6","625758448f3a06fafd69467d","","","","","10149","key"," "," ","16.627609836065677","500","250","tilt","","","","","5","5","0"
"","psychophysics","69","958434","0.0-69.0","60632b562ed6028c6bb905a6","625758448f3a06fafd69467d","","","","","7118","key"," "," ","16.628077283372395","500","250","tilt","","","","","9","9","1"
"","psychophysics","70","967646","0.0-70.0","60632b562ed6028c6bb905a6","625758448f3a06fafd69467d","","","","","9208","key"," "," ","16.627641952983534","500","250","tilt","","","","","3","2","0"
"","psychophysics","71","978293","0.0-71.0","60632b562ed6028c6bb905a6","625758448f3a06fafd69467d","","","","","10644","key"," "," ","16.62736093750009","500","250","tilt","","","","","4","9","1"
"","psychophysics","72","987697","0.0-72.0","60632b562ed6028c6bb905a6","625758448f3a06fafd69467d","","","","","9400","key"," "," ","16.62756914893621","500","250","tilt","","","","","-1","-1","1"
"","psychophysics","73","996526","0.0-73.0","60632b562ed6028c6bb905a6","625758448f3a06fafd69467d","","","","","8826","key"," "," ","16.627677358490555","500","250","tilt","","","","","-1","0","1"
"","psychophysics","74","1005292","0.0-74.0","60632b562ed6028c6bb905a6","625758448f3a06fafd69467d","","","","","8751","key"," "," ","16.627690702087406","500","250","tilt","","","","","2","6","1"
"","psychophysics","75","1011331","0.0-75.0","60632b562ed6028c6bb905a6","625758448f3a06fafd69467d","","","","","6037","key"," "," ","16.626000000000225","500","250","tilt","","","","","2","6","1"
"","psychophysics","76","1023567","0.0-76.0","60632b562ed6028c6bb905a6","625758448f3a06fafd69467d","","","","","12233","key"," "," ","16.628602721088495","500","250","tilt","","","","","-2","-3","1"
"","psychophysics","77","1027285","0.0-77.0","60632b562ed6028c6bb905a6","625758448f3a06fafd69467d","","","","","3676","key"," "," ","16.626000000000303","500","250","inst","","","","","","",""
"","psychophysics","78","1035301","0.0-78.0","60632b562ed6028c6bb905a6","625758448f3a06fafd69467d","","","","","8011","key"," "," ","16.627900207900247","500","250","instPz","","","","","50","50",""
"","psychophysics","79","1054069","0.0-79.0","60632b562ed6028c6bb905a6","625758448f3a06fafd69467d","","","","","18764","key"," "," ","16.627574468084987","500","250","instPz","","","","","46","50",""
"","psychophysics","80","1060429","0.0-80.0","60632b562ed6028c6bb905a6","625758448f3a06fafd69467d","","","","","6359","key"," "," ","16.625999999999955","500","250","instPz","","","","","30","30",""
"","psychophysics","81","1077374","0.0-81.0","60632b562ed6028c6bb905a6","625758448f3a06fafd69467d","","","","","16943","key"," "," ","16.627747544204343","500","250","instPz","","","","","17","40",""
"","psychophysics","82","1080576","0.0-82.0","60632b562ed6028c6bb905a6","625758448f3a06fafd69467d","","","","","3200","key"," "," ","16.626000000000566","500","250","inst","","","","","","",""
"","psychophysics","83","1104239","0.0-83.0","60632b562ed6028c6bb905a6","625758448f3a06fafd69467d","","","","","23660","key"," "," ","16.627796907940958","500","250","pz","","","","","47","35",""
"","psychophysics","84","1112703","0.0-84.0","60632b562ed6028c6bb905a6","625758448f3a06fafd69467d","","","","","8462","key"," "," ","16.627940944881786","500","250","pz","","","","","49","29",""
"","psychophysics","85","1124461","0.0-85.0","60632b562ed6028c6bb905a6","625758448f3a06fafd69467d","","","","","11755","key"," "," ","16.62726912181297","500","250","pz","","","","","31","25",""
"","psychophysics","86","1135053","0.0-86.0","60632b562ed6028c6bb905a6","625758448f3a06fafd69467d","","","","","10590","key"," "," ","16.62739937106893","500","250","pz","","","","","60","41",""
"","psychophysics","87","1144263","0.0-87.0","60632b562ed6028c6bb905a6","625758448f3a06fafd69467d","","","","","9208","key"," "," ","16.62759855334524","500","250","pz","","","","","27","22",""
"","psychophysics","88","1156172","0.0-88.0","60632b562ed6028c6bb905a6","625758448f3a06fafd69467d","","","","","11906","key"," "," ","16.627246153846357","500","250","pz","","","","","82","50",""
"","psychophysics","89","1166725","0.0-89.0","60632b562ed6028c6bb905a6","625758448f3a06fafd69467d","","","","","10550","key"," "," ","16.62740063091464","500","250","pz","","","","","93","57",""
"","psychophysics","90","1175380","0.0-90.0","60632b562ed6028c6bb905a6","625758448f3a06fafd69467d","","","","","8653","key"," "," ","16.627712909440888","500","250","pz","","","","","34","23",""
"","psychophysics","91","1182963","0.0-91.0","60632b562ed6028c6bb905a6","625758448f3a06fafd69467d","","","","","7580","key"," "," ","16.62794945054933","500","250","pz","","","","","36","26",""
"","psychophysics","92","1190949","0.0-92.0","60632b562ed6028c6bb905a6","625758448f3a06fafd69467d","","","","","7981","key"," "," ","16.625999999999962","500","250","pz","","","","","47","36",""
"","psychophysics","93","1201363","0.0-93.0","60632b562ed6028c6bb905a6","625758448f3a06fafd69467d","","","","","10411","key"," "," ","16.627416000000014","500","250","pz","","","","","53","44",""
"","psychophysics","94","1210722","0.0-94.0","60632b562ed6028c6bb905a6","625758448f3a06fafd69467d","","","","","9351","key"," "," ","16.62758540925263","500","250","pz","","","","","62","44",""
"","psychophysics","95","1220338","0.0-95.0","60632b562ed6028c6bb905a6","625758448f3a06fafd69467d","","","","","9614","key"," "," ","16.627544194107642","500","250","pz","","","","","69","52",""
"","psychophysics","96","1232435","0.0-96.0","60632b562ed6028c6bb905a6","625758448f3a06fafd69467d","","","","","12094","key"," "," ","16.627220082531032","500","250","pz","","","","","81","60",""
"","psychophysics","97","1243106","0.0-97.0","60632b562ed6028c6bb905a6","625758448f3a06fafd69467d","","","","","10668","key"," "," ","16.628776562500207","500","250","pz","","","","","90","59",""
"","psychophysics","98","1247149","0.0-98.0","60632b562ed6028c6bb905a6","625758448f3a06fafd69467d","","","","","4034","key"," "," ","16.62600000000007","500","250","inst","","","","","","",""
"","psychophysics","99","1252936","0.0-99.0","60632b562ed6028c6bb905a6","625758448f3a06fafd69467d","","","","","5785","key"," "," ","16.626000000000193","500","250","inst","","","","","","",""
"","psychophysics","100","1262117","0.0-100.0","60632b562ed6028c6bb905a6","625758448f3a06fafd69467d","","","","","9178","key"," "," ","16.62761524500927","500","250","instFlank","","","","","0.5","0.3","1"
"","psychophysics","101","1275386","0.0-101.0","60632b562ed6028c6bb905a6","625758448f3a06fafd69467d","","","","","13268","key"," "," ","16.628229611041434","500","250","inst","","","","","","",""
"","psychophysics","102","1290047","0.0-102.0","60632b562ed6028c6bb905a6","625758448f3a06fafd69467d","","","","","14659","key"," "," ","16.627005675368892","500","250","instFlank","","","","","0.2599999999999998","0.3","1"
"","psychophysics","103","1301975","0.0-103.0","60632b562ed6028c6bb905a6","625758448f3a06fafd69467d","","","","","11926","key"," "," ","16.627240223463758","500","250","inst","","","","","","",""
"","psychophysics","104","1316195","0.0-104.0","60632b562ed6028c6bb905a6","625758448f3a06fafd69467d","","","","","14217","key"," "," ","16.627959016393444","500","250","instFlank","","","","","0.5","0.3","0"
"","psychophysics","105","1320634","0.0-105.0","60632b562ed6028c6bb905a6","625758448f3a06fafd69467d","","","","","4437","key"," "," ","16.626000000000232","500","250","inst","","","","","","",""
"","psychophysics","106","1329187","0.0-106.0","60632b562ed6028c6bb905a6","625758448f3a06fafd69467d","","","","","8552","key"," "," ","16.627928015563985","500","250","flank","","","","","0.2599999999999998","0.28","1"
"","psychophysics","107","1336133","0.0-107.0","60632b562ed6028c6bb905a6","625758448f3a06fafd69467d","","","","","6943","key"," "," ","16.6281394230766","500","250","flank","","","","","0.53","0.5","0"
"","psychophysics","108","1343437","0.0-108.0","60632b562ed6028c6bb905a6","625758448f3a06fafd69467d","","","","","7300","key"," "," ","16.62801822323452","500","250","flank","","","","","0.7100000000000002","0.72","0"
"","psychophysics","109","1350405","0.0-109.0","60632b562ed6028c6bb905a6","625758448f3a06fafd69467d","","","","","6966","key"," "," ","16.62600000000015","500","250","flank","","","","","0.7100000000000002","0.62","1"
"","psychophysics","110","1357335","0.0-110.0","60632b562ed6028c6bb905a6","625758448f3a06fafd69467d","","","","","6927","key"," "," ","16.628144230769138","500","250","flank","","","","","0.8000000000000003","0.8","1"
"","psychophysics","111","1365589","0.0-111.0","60632b562ed6028c6bb905a6","625758448f3a06fafd69467d","","","","","8252","key"," "," ","16.627789898989533","500","250","flank","","","","","0.3799999999999999","0.32","1"
"","psychophysics","112","1374936","0.0-112.0","60632b562ed6028c6bb905a6","625758448f3a06fafd69467d","","","","","9344","key"," "," ","16.627590017825277","500","250","flank","","","","","0.2599999999999998","0.2","0"
"","psychophysics","113","1383225","0.0-113.0","60632b562ed6028c6bb905a6","625758448f3a06fafd69467d","","","","","8287","key"," "," ","16.62599999999981","500","250","flank","","","","","0.34999999999999987","0.22","0"
"","psychophysics","114","1388501","0.0-114.0","60632b562ed6028c6bb905a6","625758448f3a06fafd69467d","","","","","5273","key"," "," ","16.628797468354282","500","250","flank","","","","","0.53","0.34","0"
"","psychophysics","115","1393605","0.0-115.0","60632b562ed6028c6bb905a6","625758448f3a06fafd69467d","","","","","5101","key"," "," ","16.628908496732013","500","250","flank","","","","","0.4099999999999999","0.42","1"
"","psychophysics","116","1398508","0.0-116.0","60632b562ed6028c6bb905a6","625758448f3a06fafd69467d","","","","","4900","key"," "," ","16.626000000000772","500","250","flank","","","","","0.53","0.46","1"
"","psychophysics","117","1404660","0.0-117.0","60632b562ed6028c6bb905a6","625758448f3a06fafd69467d","","","","","6149","key"," "," ","16.628406504064994","500","250","flank","","","","","0.7100000000000002","0.72","0"
"","psychophysics","118","1410359","0.0-118.0","60632b562ed6028c6bb905a6","625758448f3a06fafd69467d","","","","","5696","key"," "," ","16.62599999999984","500","250","flank","","","","","0.7700000000000002","0.66","0"
"","psychophysics","119","1416084","0.0-119.0","60632b562ed6028c6bb905a6","625758448f3a06fafd69467d","","","","","5723","key"," "," ","16.62858600583085","500","250","flank","","","","","0.7400000000000002","0.76","0"
"","psychophysics","120","1423556","0.0-120.0","60632b562ed6028c6bb905a6","625758448f3a06fafd69467d","","","","","7469","key"," "," ","16.627988839285536","500","250","flank","","","","","0.31999999999999984","0.26","0"
"","psychophysics","121","1431094","0.0-121.0","60632b562ed6028c6bb905a6","625758448f3a06fafd69467d","","","","","7533","key"," "," ","16.625999999999955","500","250","flank","","","","","0.31999999999999984","0.22","1"
"","psychophysics","122","1437131","0.0-122.0","60632b562ed6028c6bb905a6","625758448f3a06fafd69467d","","","","","6034","key"," "," ","16.62845303867403","500","250","flank","","","","","0.7700000000000002","0.78","0"
"","psychophysics","123","1442523","0.0-123.0","60632b562ed6028c6bb905a6","625758448f3a06fafd69467d","","","","","5389","key"," "," ","16.626000000000282","500","250","flank","","","","","0.4099999999999999","0.22","1"
"","psychophysics","124","1447868","0.0-124.0","60632b562ed6028c6bb905a6","625758448f3a06fafd69467d","","","","","5343","key"," "," ","16.62876012461112","500","250","flank","","","","","0.6500000000000001","0.48","0"
"","psychophysics","125","1453275","0.0-125.0","60632b562ed6028c6bb905a6","625758448f3a06fafd69467d","","","","","5404","key"," "," ","16.62600000000007","500","250","flank","","","","","0.6500000000000001","0.68","1"
"","psychophysics","126","1458547","0.0-126.0","60632b562ed6028c6bb905a6","625758448f3a06fafd69467d","","","","","5270","key"," "," ","16.628810126581996","500","250","flank","","","","","0.6800000000000002","0.56","0"
"","psychophysics","127","1465930","0.0-127.0","60632b562ed6028c6bb905a6","625758448f3a06fafd69467d","","","","","7381","key"," "," ","16.628011286681787","500","250","flank","","","","","0.8300000000000003","0.76","0"
"","psychophysics","128","1472196","0.0-128.0","60632b562ed6028c6bb905a6","625758448f3a06fafd69467d","","","","","6264","key"," "," ","16.625999999999816","500","250","flank","","","","","0.43999999999999995","0.22","0"
"","psychophysics","129","1477650","0.0-129.0","60632b562ed6028c6bb905a6","625758448f3a06fafd69467d","","","","","5451","key"," "," ","16.628712538226054","500","250","flank","","","","","0.4099999999999999","0.26","0"
"","psychophysics","130","1484941","0.0-130.0","60632b562ed6028c6bb905a6","625758448f3a06fafd69467d","","","","","7289","key"," "," ","16.62780320366154","500","250","flank","","","","","0.5","0.4","0"
"","psychophysics","131","1489724","0.0-131.0","60632b562ed6028c6bb905a6","625758448f3a06fafd69467d","","","","","4779","key"," "," ","16.62600000000004","500","250","flank","","","","","0.5900000000000001","0.56","1"
"","psychophysics","132","1494758","0.0-132.0","60632b562ed6028c6bb905a6","625758448f3a06fafd69467d","","","","","5032","key"," "," ","16.62926158940401","500","250","flank","","","","","0.6200000000000001","0.68","0"
"","psychophysics","133","1501379","0.0-133.0","60632b562ed6028c6bb905a6","625758448f3a06fafd69467d","","","","","6619","key"," "," ","16.6259999999997","500","250","flank","","","","","0.7100000000000002","0.7","0"
"","psychophysics","134","1507115","0.0-134.0","60632b562ed6028c6bb905a6","625758448f3a06fafd69467d","","","","","5733","key"," "," ","16.62859011627937","500","250","flank","","","","","0.53","0.36","0"
"","psychophysics","135","1512996","0.0-135.0","60632b562ed6028c6bb905a6","625758448f3a06fafd69467d","","","","","5879","key"," "," ","16.62600000000034","500","250","flank","","","","","0.8000000000000003","0.8","1"
"true","fullscreen","136","1512999","0.0-136.0","60632b562ed6028c6bb905a6","625758448f3a06fafd69467d","","","","","","","","","","","","","","","","","","",""
