"success","trial_type","trial_index","time_elapsed","internal_node_id","pid","sid","timeout","failed_images","failed_audio","failed_video","rt","response_type","key_press","response","avg_frame_time","center_x","center_y","task","ml_len","ml_start","ml_x","ml_y","resp","targ","back"
"true","fullscreen","0","9708","0.0-0.0","5c82d0ac51b0e00015cbd2fc","62575088f5dc05767593d9ca","","","","","","","","","","","","","","","","","","",""
"true","preload","1","9710","0.0-1.0","5c82d0ac51b0e00015cbd2fc","62575088f5dc05767593d9ca","false","[]","[]","[]","","","","","","","","","","","","","","",""
"","psychophysics","2","13883","0.0-2.0","5c82d0ac51b0e00015cbd2fc","62575088f5dc05767593d9ca","","","","","4157","key"," "," ","7.073723728813558","500","250","inst","","","","","","",""
"","psychophysics","3","15484","0.0-3.0","5c82d0ac51b0e00015cbd2fc","62575088f5dc05767593d9ca","","","","","1598","key"," "," ","7.005412280701756","500","250","inst","","","","","","",""
"","psychophysics","4","43204","0.0-4.0","5c82d0ac51b0e00015cbd2fc","62575088f5dc05767593d9ca","","","","","27718","key"," "," ","6.99357103204643","500","250","instMl","220","-36.666666666666664","-3","1","-15.666666666666686","",""
"","psychophysics","5","57583","0.0-5.0","5c82d0ac51b0e00015cbd2fc","62575088f5dc05767593d9ca","","","","","14376","key"," "," ","6.981608843537414","500","250","instMl","174","-29","-20","12","-15","",""
"","psychophysics","6","71908","0.0-6.0","5c82d0ac51b0e00015cbd2fc","62575088f5dc05767593d9ca","","","","","14321","key"," "," ","6.974912323429126","500","250","inst","","","","","","",""
"","psychophysics","7","72699","0.0-7.0","5c82d0ac51b0e00015cbd2fc","62575088f5dc05767593d9ca","","","","","790","key"," "," ","7.069378378378387","500","250","ml","154","12","3","10","12","",""
"","psychophysics","8","81122","0.0-8.0","5c82d0ac51b0e00015cbd2fc","62575088f5dc05767593d9ca","","","","","8421","key"," "," ","6.984798340248963","500","250","ml","242","-52","-14","24","-13","",""
"","psychophysics","9","89635","0.0-9.0","5c82d0ac51b0e00015cbd2fc","62575088f5dc05767593d9ca","","","","","8510","key"," "," ","6.961527004909987","500","250","ml","156","-29","-4","20","-12","",""
"","psychophysics","10","97144","0.0-10.0","5c82d0ac51b0e00015cbd2fc","62575088f5dc05767593d9ca","","","","","7506","key"," "," ","6.963818941504188","500","250","ml","208","-14","22","-1","-10","",""
"","psychophysics","11","103778","0.0-11.0","5c82d0ac51b0e00015cbd2fc","62575088f5dc05767593d9ca","","","","","6632","key"," "," ","6.981145416227612","500","250","ml","206","38","13","-8","-12","",""
"","psychophysics","12","122731","0.0-12.0","5c82d0ac51b0e00015cbd2fc","62575088f5dc05767593d9ca","","","","","18951","key"," "," ","7.013913735653459","500","250","ml","218","27","-2","6","-14","",""
"","psychophysics","13","129315","0.0-13.0","5c82d0ac51b0e00015cbd2fc","62575088f5dc05767593d9ca","","","","","6581","key"," "," ","6.951790697674419","500","250","ml","228","38","-7","3","-7","",""
"","psychophysics","14","142595","0.0-14.0","5c82d0ac51b0e00015cbd2fc","62575088f5dc05767593d9ca","","","","","13278","key"," "," ","7.134889247311828","500","250","ml","164","-7","-15","22","-13","",""
"","psychophysics","15","150232","0.0-15.0","5c82d0ac51b0e00015cbd2fc","62575088f5dc05767593d9ca","","","","","7635","key"," "," ","7.001820183486262","500","250","ml","194","-48","-19","18","-9","",""
"","psychophysics","16","155221","0.0-16.0","5c82d0ac51b0e00015cbd2fc","62575088f5dc05767593d9ca","","","","","4986","key"," "," ","6.973654545454546","500","250","ml","196","47","-22","24","-11","",""
"","psychophysics","17","159011","0.0-17.0","5c82d0ac51b0e00015cbd2fc","62575088f5dc05767593d9ca","","","","","3787","key"," "," ","6.995985212569332","500","250","ml","230","-35","27","-28","-12","",""
"","psychophysics","18","164446","0.0-18.0","5c82d0ac51b0e00015cbd2fc","62575088f5dc05767593d9ca","","","","","5432","key"," "," ","7.0072157622738915","500","250","ml","244","39","6","-17","-14","",""
"","psychophysics","19","166984","0.0-19.0","5c82d0ac51b0e00015cbd2fc","62575088f5dc05767593d9ca","","","","","2535","key"," "," ","6.96444230769231","500","250","ml","194","-11","-25","14","-13","",""
"","psychophysics","20","171155","0.0-20.0","5c82d0ac51b0e00015cbd2fc","62575088f5dc05767593d9ca","","","","","4169","key"," "," ","7.002904040404001","500","250","ml","240","13","29","5","-12","",""
"","psychophysics","21","174213","0.0-21.0","5c82d0ac51b0e00015cbd2fc","62575088f5dc05767593d9ca","","","","","3056","key"," "," ","7.122613053613042","500","250","ml","214","7","19","16","-15","",""
"","psychophysics","22","176031","0.0-22.0","5c82d0ac51b0e00015cbd2fc","62575088f5dc05767593d9ca","","","","","1817","key"," "," ","7.0253178294572765","500","250","inst","","","","","","",""
"","psychophysics","23","189681","0.0-23.0","5c82d0ac51b0e00015cbd2fc","62575088f5dc05767593d9ca","","","","","13647","key"," "," ","6.972846625766874","500","250","instPog","","","","","130","130",""
"","psychophysics","24","196101","0.0-24.0","5c82d0ac51b0e00015cbd2fc","62575088f5dc05767593d9ca","","","","","6418","key"," "," ","6.959574837310198","500","250","instPog","","","","","146","130",""
"","psychophysics","25","202088","0.0-25.0","5c82d0ac51b0e00015cbd2fc","62575088f5dc05767593d9ca","","","","","5985","key"," "," ","7.12666626936828","500","250","instPog","","","","","157","130",""
"","psychophysics","26","204122","0.0-26.0","5c82d0ac51b0e00015cbd2fc","62575088f5dc05767593d9ca","","","","","2031","key"," "," ","7.016325259515649","500","250","inst","","","","","","",""
"","psychophysics","27","210386","0.0-27.0","5c82d0ac51b0e00015cbd2fc","62575088f5dc05767593d9ca","","","","","6262","key"," "," ","6.990974301675968","500","250","pog","","","","","224","196",""
"","psychophysics","28","217020","0.0-28.0","5c82d0ac51b0e00015cbd2fc","62575088f5dc05767593d9ca","","","","","6632","key"," "," ","6.981033719704941","500","250","pog","","","","","209","180",""
"","psychophysics","29","228094","0.0-29.0","5c82d0ac51b0e00015cbd2fc","62575088f5dc05767593d9ca","","","","","11071","key"," "," ","6.979543848580436","500","250","pog","","","","","224","197",""
"","psychophysics","30","235320","0.0-30.0","5c82d0ac51b0e00015cbd2fc","62575088f5dc05767593d9ca","","","","","7224","key"," "," ","6.991512100677627","500","250","pog","","","","","220","193",""
"","psychophysics","31","240354","0.0-31.0","5c82d0ac51b0e00015cbd2fc","62575088f5dc05767593d9ca","","","","","5032","key"," "," ","7.031910489510518","500","250","pog","","","","","184","157",""
"","psychophysics","32","242114","0.0-32.0","5c82d0ac51b0e00015cbd2fc","62575088f5dc05767593d9ca","","","","","1758","key"," "," ","6.944591269841199","500","250","pog","","","","","160","133",""
"","psychophysics","33","247867","0.0-33.0","5c82d0ac51b0e00015cbd2fc","62575088f5dc05767593d9ca","","","","","5751","key"," "," ","6.944533816425112","500","250","pog","","","","","177","145",""
"","psychophysics","34","251779","0.0-34.0","5c82d0ac51b0e00015cbd2fc","62575088f5dc05767593d9ca","","","","","3909","key"," "," ","6.96928749999996","500","250","pog","","","","","171","154",""
"","psychophysics","35","258795","0.0-35.0","5c82d0ac51b0e00015cbd2fc","62575088f5dc05767593d9ca","","","","","7015","key"," "," ","6.985970089730793","500","250","pog","","","","","195","178",""
"","psychophysics","36","267693","0.0-36.0","5c82d0ac51b0e00015cbd2fc","62575088f5dc05767593d9ca","","","","","8894","key"," "," ","6.96079499217528","500","250","pog","","","","","204","185",""
"","psychophysics","37","269967","0.0-37.0","5c82d0ac51b0e00015cbd2fc","62575088f5dc05767593d9ca","","","","","2273","key"," "," ","6.987262345679079","500","250","pog","","","","","162","144",""
"","psychophysics","38","276546","0.0-38.0","5c82d0ac51b0e00015cbd2fc","62575088f5dc05767593d9ca","","","","","6576","key"," "," ","6.981336518046703","500","250","pog","","","","","211","189",""
"","psychophysics","39","282058","0.0-39.0","5c82d0ac51b0e00015cbd2fc","62575088f5dc05767593d9ca","","","","","5510","key"," "," ","6.962027848101313","500","250","pog","","","","","221","199",""
"","psychophysics","40","287163","0.0-40.0","5c82d0ac51b0e00015cbd2fc","62575088f5dc05767593d9ca","","","","","5102","key"," "," ","6.963483606557403","500","250","pog","","","","","168","153",""
"","psychophysics","41","292347","0.0-41.0","5c82d0ac51b0e00015cbd2fc","62575088f5dc05767593d9ca","","","","","5182","key"," "," ","7.010262516914714","500","250","pog","","","","","179","162",""
"","psychophysics","42","293597","0.0-42.0","5c82d0ac51b0e00015cbd2fc","62575088f5dc05767593d9ca","","","","","1248","key"," "," ","6.98355617977514","500","250","inst","","","","","","",""
"","psychophysics","43","297201","0.0-43.0","5c82d0ac51b0e00015cbd2fc","62575088f5dc05767593d9ca","","","","","3602","key"," "," ","7.208985971943974","500","250","instTilt","","","","","NaN","0","0"
"","psychophysics","44","299155","0.0-44.0","5c82d0ac51b0e00015cbd2fc","62575088f5dc05767593d9ca","","","","","1951","key"," "," ","6.994424460431697","500","250","instTilt","","","","","0","0","0"
"","psychophysics","45","306963","0.0-45.0","5c82d0ac51b0e00015cbd2fc","62575088f5dc05767593d9ca","","","","","7806","key"," "," ","7.0131132075471445","500","250","instTilt","","","","","1","0","0"
"","psychophysics","46","308990","0.0-46.0","5c82d0ac51b0e00015cbd2fc","62575088f5dc05767593d9ca","","","","","2024","key"," "," ","7.041692307692305","500","250","inst","","","","","","",""
"","psychophysics","47","313633","0.0-47.0","5c82d0ac51b0e00015cbd2fc","62575088f5dc05767593d9ca","","","","","4640","key"," "," ","6.9968823529411175","500","250","tilt","","","","","10","10","0"
"","psychophysics","48","321657","0.0-48.0","5c82d0ac51b0e00015cbd2fc","62575088f5dc05767593d9ca","","","","","8023","key"," "," ","6.9929572425829","500","250","tilt","","","","","-9","-10","1"
"","psychophysics","49","326727","0.0-49.0","5c82d0ac51b0e00015cbd2fc","62575088f5dc05767593d9ca","","","","","5068","key"," "," ","6.963574175824201","500","250","tilt","","","","","9","10","1"
"","psychophysics","50","330112","0.0-50.0","5c82d0ac51b0e00015cbd2fc","62575088f5dc05767593d9ca","","","","","3382","key"," "," ","6.973258264462752","500","250","tilt","","","","","5","4","0"
"","psychophysics","51","332198","0.0-51.0","5c82d0ac51b0e00015cbd2fc","62575088f5dc05767593d9ca","","","","","2083","key"," "," ","7.014986486486443","500","250","tilt","","","","","0","0","0"
"","psychophysics","52","335995","0.0-52.0","5c82d0ac51b0e00015cbd2fc","62575088f5dc05767593d9ca","","","","","3795","key"," "," ","7.034845724907015","500","250","tilt","","","","","9","7","0"
"","psychophysics","53","339670","0.0-53.0","5c82d0ac51b0e00015cbd2fc","62575088f5dc05767593d9ca","","","","","3673","key"," "," ","6.997440000000033","500","250","tilt","","","","","-7","-10","0"
"","psychophysics","54","344449","0.0-54.0","5c82d0ac51b0e00015cbd2fc","62575088f5dc05767593d9ca","","","","","4778","key"," "," ","7.005586510263926","500","250","tilt","","","","","-5","-2","1"
"","psychophysics","55","345834","0.0-55.0","5c82d0ac51b0e00015cbd2fc","62575088f5dc05767593d9ca","","","","","1382","key"," "," ","6.944469696969721","500","250","tilt","","","","","0","1","0"
"","psychophysics","56","348310","0.0-56.0","5c82d0ac51b0e00015cbd2fc","62575088f5dc05767593d9ca","","","","","2473","key"," "," ","7.043979999999948","500","250","tilt","","","","","-3","-2","1"
"","psychophysics","57","350315","0.0-57.0","5c82d0ac51b0e00015cbd2fc","62575088f5dc05767593d9ca","","","","","2003","key"," "," ","6.944541666666838","500","250","tilt","","","","","0","2","1"
"","psychophysics","58","353179","0.0-58.0","5c82d0ac51b0e00015cbd2fc","62575088f5dc05767593d9ca","","","","","2861","key"," "," ","7.047804455445603","500","250","tilt","","","","","6","10","0"
"","psychophysics","59","357438","0.0-59.0","5c82d0ac51b0e00015cbd2fc","62575088f5dc05767593d9ca","","","","","4258","key"," "," ","6.96735024549924","500","250","tilt","","","","","7","6","0"
"","psychophysics","60","359756","0.0-60.0","5c82d0ac51b0e00015cbd2fc","62575088f5dc05767593d9ca","","","","","2317","key"," "," ","6.986628398791432","500","250","tilt","","","","","-2","-3","0"
"","psychophysics","61","362861","0.0-61.0","5c82d0ac51b0e00015cbd2fc","62575088f5dc05767593d9ca","","","","","3103","key"," "," ","7.007432126696906","500","250","tilt","","","","","-7","-6","1"
"","psychophysics","62","364106","0.0-62.0","5c82d0ac51b0e00015cbd2fc","62575088f5dc05767593d9ca","","","","","1242","key"," "," ","7.228771929824534","500","250","tilt","","","","","0","-2","0"
"","psychophysics","63","368425","0.0-63.0","5c82d0ac51b0e00015cbd2fc","62575088f5dc05767593d9ca","","","","","4317","key"," "," ","6.966911147011373","500","250","tilt","","","","","-6","-9","1"
"","psychophysics","64","372723","0.0-64.0","5c82d0ac51b0e00015cbd2fc","62575088f5dc05767593d9ca","","","","","4297","key"," "," ","7.047239737274173","500","250","tilt","","","","","-4","-2","1"
"","psychophysics","65","373991","0.0-65.0","5c82d0ac51b0e00015cbd2fc","62575088f5dc05767593d9ca","","","","","1266","key"," "," ","7.022738888888853","500","250","tilt","","","","","0","-2","0"
"","psychophysics","66","376618","0.0-66.0","5c82d0ac51b0e00015cbd2fc","62575088f5dc05767593d9ca","","","","","2624","key"," "," ","6.962643617021194","500","250","tilt","","","","","4","5","0"
"","psychophysics","67","380692","0.0-67.0","5c82d0ac51b0e00015cbd2fc","62575088f5dc05767593d9ca","","","","","4071","key"," "," ","7.028681660899618","500","250","tilt","","","","","-7","-10","1"
"","psychophysics","68","384966","0.0-68.0","5c82d0ac51b0e00015cbd2fc","62575088f5dc05767593d9ca","","","","","4272","key"," "," ","6.98981014729947","500","250","tilt","","","","","-7","-6","1"
"","psychophysics","69","387095","0.0-69.0","5c82d0ac51b0e00015cbd2fc","62575088f5dc05767593d9ca","","","","","2127","key"," "," ","6.967199999999949","500","250","tilt","","","","","4","6","0"
"","psychophysics","70","389668","0.0-70.0","5c82d0ac51b0e00015cbd2fc","62575088f5dc05767593d9ca","","","","","2571","key"," "," ","7.001491803278615","500","250","tilt","","","","","-8","-9","1"
"","psychophysics","71","394134","0.0-71.0","5c82d0ac51b0e00015cbd2fc","62575088f5dc05767593d9ca","","","","","4465","key"," "," ","6.999051805337532","500","250","tilt","","","","","4","10","1"
"","psychophysics","72","395231","0.0-72.0","5c82d0ac51b0e00015cbd2fc","62575088f5dc05767593d9ca","","","","","1095","key"," "," ","7.034425806451679","500","250","tilt","","","","","0","-2","0"
"","psychophysics","73","396502","0.0-73.0","5c82d0ac51b0e00015cbd2fc","62575088f5dc05767593d9ca","","","","","1268","key"," "," ","7.099876404494659","500","250","tilt","","","","","0","0","0"
"","psychophysics","74","399729","0.0-74.0","5c82d0ac51b0e00015cbd2fc","62575088f5dc05767593d9ca","","","","","3225","key"," "," ","7.004936956521757","500","250","tilt","","","","","-2","1","1"
"","psychophysics","75","401616","0.0-75.0","5c82d0ac51b0e00015cbd2fc","62575088f5dc05767593d9ca","","","","","1884","key"," "," ","6.9444317343173125","500","250","tilt","","","","","-6","-6","1"
"","psychophysics","76","406266","0.0-76.0","5c82d0ac51b0e00015cbd2fc","62575088f5dc05767593d9ca","","","","","4647","key"," "," ","7.018075642965166","500","250","tilt","","","","","-3","-4","0"
"","psychophysics","77","407466","0.0-77.0","5c82d0ac51b0e00015cbd2fc","62575088f5dc05767593d9ca","","","","","1194","key"," "," ","6.943779069767537","500","250","inst","","","","","","",""
"","psychophysics","78","409874","0.0-78.0","5c82d0ac51b0e00015cbd2fc","62575088f5dc05767593d9ca","","","","","2406","key"," "," ","7.087961651917456","500","250","instPz","","","","","50","50",""
"","psychophysics","79","418787","0.0-79.0","5c82d0ac51b0e00015cbd2fc","62575088f5dc05767593d9ca","","","","","8910","key"," "," ","7.249853420195445","500","250","instPz","","","","","53","50",""
"","psychophysics","80","427365","0.0-80.0","5c82d0ac51b0e00015cbd2fc","62575088f5dc05767593d9ca","","","","","8576","key"," "," ","7.001223039215713","500","250","instPz","","","","","35","30",""
"","psychophysics","81","432899","0.0-81.0","5c82d0ac51b0e00015cbd2fc","62575088f5dc05767593d9ca","","","","","5532","key"," "," ","7.006157160963254","500","250","instPz","","","","","15","40",""
"","psychophysics","82","434734","0.0-82.0","5c82d0ac51b0e00015cbd2fc","62575088f5dc05767593d9ca","","","","","1833","key"," "," ","6.997564885496271","500","250","inst","","","","","","",""
"","psychophysics","83","439369","0.0-83.0","5c82d0ac51b0e00015cbd2fc","62575088f5dc05767593d9ca","","","","","4633","key"," "," ","7.029126139817686","500","250","pz","","","","","42","35",""
"","psychophysics","84","444297","0.0-84.0","5c82d0ac51b0e00015cbd2fc","62575088f5dc05767593d9ca","","","","","4925","key"," "," ","7.0337514285714136","500","250","pz","","","","","53","43",""
"","psychophysics","85","448242","0.0-85.0","5c82d0ac51b0e00015cbd2fc","62575088f5dc05767593d9ca","","","","","3942","key"," "," ","7.04404301075269","500","250","pz","","","","","43","32",""
"","psychophysics","86","453019","0.0-86.0","5c82d0ac51b0e00015cbd2fc","62575088f5dc05767593d9ca","","","","","4775","key"," "," ","7.047022156573163","500","250","pz","","","","","48","36",""
"","psychophysics","87","461479","0.0-87.0","5c82d0ac51b0e00015cbd2fc","62575088f5dc05767593d9ca","","","","","8458","key"," "," ","7.037005828476285","500","250","pz","","","","","79","58",""
"","psychophysics","88","467390","0.0-88.0","5c82d0ac51b0e00015cbd2fc","62575088f5dc05767593d9ca","","","","","5910","key"," "," ","7.0020865954923135","500","250","pz","","","","","61","53",""
"","psychophysics","89","471209","0.0-89.0","5c82d0ac51b0e00015cbd2fc","62575088f5dc05767593d9ca","","","","","3817","key"," "," ","7.073421150278334","500","250","pz","","","","","64","44",""
"","psychophysics","90","475717","0.0-90.0","5c82d0ac51b0e00015cbd2fc","62575088f5dc05767593d9ca","","","","","4504","key"," "," ","7.200389423076931","500","250","pz","","","","","59","41",""
"","psychophysics","91","478341","0.0-91.0","5c82d0ac51b0e00015cbd2fc","62575088f5dc05767593d9ca","","","","","2623","key"," "," ","7.000352941176426","500","250","pz","","","","","33","23",""
"","psychophysics","92","481221","0.0-92.0","5c82d0ac51b0e00015cbd2fc","62575088f5dc05767593d9ca","","","","","2878","key"," "," ","7.047051597051654","500","250","pz","","","","","35","28",""
"","psychophysics","93","486322","0.0-93.0","5c82d0ac51b0e00015cbd2fc","62575088f5dc05767593d9ca","","","","","5100","key"," "," ","7.050208852005582","500","250","pz","","","","","79","53",""
"","psychophysics","94","491638","0.0-94.0","5c82d0ac51b0e00015cbd2fc","62575088f5dc05767593d9ca","","","","","5313","key"," "," ","7.045774535809051","500","250","pz","","","","","57","39",""
"","psychophysics","95","495847","0.0-95.0","5c82d0ac51b0e00015cbd2fc","62575088f5dc05767593d9ca","","","","","4207","key"," "," ","7.0375393634841235","500","250","pz","","","","","67","50",""
"","psychophysics","96","500003","0.0-96.0","5c82d0ac51b0e00015cbd2fc","62575088f5dc05767593d9ca","","","","","4153","key"," "," ","7.148205172413747","500","250","pz","","","","","35","24",""
"","psychophysics","97","504659","0.0-97.0","5c82d0ac51b0e00015cbd2fc","62575088f5dc05767593d9ca","","","","","4654","key"," "," ","7.092701219512247","500","250","pz","","","","","44","29",""
"","psychophysics","98","506360","0.0-98.0","5c82d0ac51b0e00015cbd2fc","62575088f5dc05767593d9ca","","","","","1699","key"," "," ","7.002033057851112","500","250","inst","","","","","","",""
"","psychophysics","99","508624","0.0-99.0","5c82d0ac51b0e00015cbd2fc","62575088f5dc05767593d9ca","","","","","2262","key"," "," ","6.987594427244454","500","250","inst","","","","","","",""
"","psychophysics","100","511535","0.0-100.0","5c82d0ac51b0e00015cbd2fc","62575088f5dc05767593d9ca","","","","","2908","key"," "," ","6.961141486810626","500","250","instFlank","","","","","0.5","0.3","1"
"","psychophysics","101","514882","0.0-101.0","5c82d0ac51b0e00015cbd2fc","62575088f5dc05767593d9ca","","","","","3345","key"," "," ","6.958716666666684","500","250","inst","","","","","","",""
"","psychophysics","102","522550","0.0-102.0","5c82d0ac51b0e00015cbd2fc","62575088f5dc05767593d9ca","","","","","7665","key"," "," ","6.9571335149863796","500","250","instFlank","","","","","0.4099999999999999","0.3","1"
"","psychophysics","103","525473","0.0-103.0","5c82d0ac51b0e00015cbd2fc","62575088f5dc05767593d9ca","","","","","2920","key"," "," ","6.9444095238095285","500","250","inst","","","","","","",""
"","psychophysics","104","531959","0.0-104.0","5c82d0ac51b0e00015cbd2fc","62575088f5dc05767593d9ca","","","","","6484","key"," "," ","6.9669258064515285","500","250","instFlank","","","","","0.56","0.3","0"
"","psychophysics","105","533249","0.0-105.0","5c82d0ac51b0e00015cbd2fc","62575088f5dc05767593d9ca","","","","","1288","key"," "," ","7.258514124293691","500","250","inst","","","","","","",""
"","psychophysics","106","537652","0.0-106.0","5c82d0ac51b0e00015cbd2fc","62575088f5dc05767593d9ca","","","","","4402","key"," "," ","6.966616481775049","500","250","flank","","","","","0.6500000000000001","0.62","1"
"","psychophysics","107","541147","0.0-107.0","5c82d0ac51b0e00015cbd2fc","62575088f5dc05767593d9ca","","","","","3493","key"," "," ","6.972219999999972","500","250","flank","","","","","0.6500000000000001","0.58","0"
"","psychophysics","108","543893","0.0-108.0","5c82d0ac51b0e00015cbd2fc","62575088f5dc05767593d9ca","","","","","2743","key"," "," ","7.0702739018087755","500","250","flank","","","","","0.5","0.34","0"
"","psychophysics","109","547827","0.0-109.0","5c82d0ac51b0e00015cbd2fc","62575088f5dc05767593d9ca","","","","","3931","key"," "," ","6.944385159010595","500","250","flank","","","","","0.56","0.44","0"
"","psychophysics","110","551145","0.0-110.0","5c82d0ac51b0e00015cbd2fc","62575088f5dc05767593d9ca","","","","","3316","key"," "," ","6.959184873949427","500","250","flank","","","","","0.43999999999999995","0.3","1"
"","psychophysics","111","553959","0.0-111.0","5c82d0ac51b0e00015cbd2fc","62575088f5dc05767593d9ca","","","","","2812","key"," "," ","6.94420297029699","500","250","flank","","","","","0.5","0.44","1"
"","psychophysics","112","557524","0.0-112.0","5c82d0ac51b0e00015cbd2fc","62575088f5dc05767593d9ca","","","","","3563","key"," "," ","6.9993700787400295","500","250","flank","","","","","0.56","0.56","1"
"","psychophysics","113","560003","0.0-113.0","5c82d0ac51b0e00015cbd2fc","62575088f5dc05767593d9ca","","","","","2478","key"," "," ","6.964445070422609","500","250","flank","","","","","0.5","0.38","1"
"","psychophysics","114","563221","0.0-114.0","5c82d0ac51b0e00015cbd2fc","62575088f5dc05767593d9ca","","","","","3216","key"," "," ","6.989839130434785","500","250","flank","","","","","0.6500000000000001","0.68","1"
"","psychophysics","115","566197","0.0-115.0","5c82d0ac51b0e00015cbd2fc","62575088f5dc05767593d9ca","","","","","2974","key"," "," ","6.960830985915524","500","250","flank","","","","","0.5900000000000001","0.54","0"
"","psychophysics","116","569970","0.0-116.0","5c82d0ac51b0e00015cbd2fc","62575088f5dc05767593d9ca","","","","","3771","key"," "," ","6.9702444444445","500","250","flank","","","","","0.7100000000000002","0.72","0"
"","psychophysics","117","573583","0.0-117.0","5c82d0ac51b0e00015cbd2fc","62575088f5dc05767593d9ca","","","","","3611","key"," "," ","6.944494230769208","500","250","flank","","","","","0.34999999999999987","0.24","0"
"","psychophysics","118","577197","0.0-118.0","5c82d0ac51b0e00015cbd2fc","62575088f5dc05767593d9ca","","","","","3612","key"," "," ","6.971294003868443","500","250","flank","","","","","0.7400000000000002","0.74","0"
"","psychophysics","119","579660","0.0-119.0","5c82d0ac51b0e00015cbd2fc","62575088f5dc05767593d9ca","","","","","2461","key"," "," ","6.964246458923391","500","250","flank","","","","","0.5","0.44","1"
"","psychophysics","120","582173","0.0-120.0","5c82d0ac51b0e00015cbd2fc","62575088f5dc05767593d9ca","","","","","2510","key"," "," ","6.983406685236945","500","250","flank","","","","","0.5","0.44","0"
"","psychophysics","121","585469","0.0-121.0","5c82d0ac51b0e00015cbd2fc","62575088f5dc05767593d9ca","","","","","3293","key"," "," ","6.944482029598535","500","250","flank","","","","","0.6500000000000001","0.58","0"
"","psychophysics","122","588349","0.0-122.0","5c82d0ac51b0e00015cbd2fc","62575088f5dc05767593d9ca","","","","","2877","key"," "," ","6.944446859903496","500","250","flank","","","","","0.5900000000000001","0.62","0"
"","psychophysics","123","591138","0.0-123.0","5c82d0ac51b0e00015cbd2fc","62575088f5dc05767593d9ca","","","","","2786","key"," "," ","6.9445710723190235","500","250","flank","","","","","0.53","0.52","1"
"","psychophysics","124","594253","0.0-124.0","5c82d0ac51b0e00015cbd2fc","62575088f5dc05767593d9ca","","","","","3113","key"," "," ","6.991331081080978","500","250","flank","","","","","0.56","0.5","0"
"","psychophysics","125","597427","0.0-125.0","5c82d0ac51b0e00015cbd2fc","62575088f5dc05767593d9ca","","","","","3172","key"," "," ","6.990483443708638","500","250","flank","","","","","0.5900000000000001","0.52","0"
"","psychophysics","126","601191","0.0-126.0","5c82d0ac51b0e00015cbd2fc","62575088f5dc05767593d9ca","","","","","3760","key"," "," ","6.95726481481494","500","250","flank","","","","","0.6800000000000002","0.76","0"
"","psychophysics","127","604736","0.0-127.0","5c82d0ac51b0e00015cbd2fc","62575088f5dc05767593d9ca","","","","","3544","key"," "," ","6.944588235294099","500","250","flank","","","","","0.53","0.34","0"
"","psychophysics","128","608379","0.0-128.0","5c82d0ac51b0e00015cbd2fc","62575088f5dc05767593d9ca","","","","","3640","key"," "," ","6.971333973128492","500","250","flank","","","","","0.7100000000000002","0.6","1"
"","psychophysics","129","611776","0.0-129.0","5c82d0ac51b0e00015cbd2fc","62575088f5dc05767593d9ca","","","","","3395","key"," "," ","6.9444877049180995","500","250","flank","","","","","0.56","0.44","0"
"","psychophysics","130","614439","0.0-130.0","5c82d0ac51b0e00015cbd2fc","62575088f5dc05767593d9ca","","","","","2661","key"," "," ","6.94455352480409","500","250","flank","","","","","0.53","0.36","0"
"","psychophysics","131","617835","0.0-131.0","5c82d0ac51b0e00015cbd2fc","62575088f5dc05767593d9ca","","","","","3394","key"," "," ","6.973199588477319","500","250","flank","","","","","0.7700000000000002","0.74","0"
"","psychophysics","132","620986","0.0-132.0","5c82d0ac51b0e00015cbd2fc","62575088f5dc05767593d9ca","","","","","3149","key"," "," ","6.944461368653455","500","250","flank","","","","","0.6200000000000001","0.56","1"
"","psychophysics","133","624447","0.0-133.0","5c82d0ac51b0e00015cbd2fc","62575088f5dc05767593d9ca","","","","","3459","key"," "," ","6.958504032258192","500","250","flank","","","","","0.5900000000000001","0.48","1"
"","psychophysics","134","627333","0.0-134.0","5c82d0ac51b0e00015cbd2fc","62575088f5dc05767593d9ca","","","","","2883","key"," "," ","6.961314009661687","500","250","flank","","","","","0.5","0.24","0"
"","psychophysics","135","629912","0.0-135.0","5c82d0ac51b0e00015cbd2fc","62575088f5dc05767593d9ca","","","","","2577","key"," "," ","6.944691891891794","500","250","flank","","","","","0.53","0.42","1"
"true","fullscreen","136","629914","0.0-136.0","5c82d0ac51b0e00015cbd2fc","62575088f5dc05767593d9ca","","","","","","","","","","","","","","","","","","",""
