"success","trial_type","trial_index","time_elapsed","internal_node_id","pid","sid","timeout","failed_images","failed_audio","failed_video","rt","response_type","key_press","response","avg_frame_time","center_x","center_y","task","ml_len","ml_start","ml_x","ml_y","resp","targ","back"
"true","fullscreen","0","43029","0.0-0.0","5c720c7278263500015665f9","62575428e3b6625201efe5e1","","","","","","","","","","","","","","","","","","",""
"true","preload","1","43035","0.0-1.0","5c720c7278263500015665f9","62575428e3b6625201efe5e1","false","[]","[]","[]","","","","","","","","","","","","","","",""
"","psychophysics","2","49491","0.0-2.0","5c720c7278263500015665f9","62575428e3b6625201efe5e1","","","","","6422","key"," "," ","16.769742187499997","500","250","inst","","","","","","",""
"","psychophysics","3","53179","0.0-3.0","5c720c7278263500015665f9","62575428e3b6625201efe5e1","","","","","3673","key"," "," ","16.725345454545458","500","250","inst","","","","","","",""
"","psychophysics","4","73531","0.0-4.0","5c720c7278263500015665f9","62575428e3b6625201efe5e1","","","","","20333","key"," "," ","16.725339638157887","500","250","instMl","212","-35.333333333333336","-2","30","-24.333333333333314","",""
"","psychophysics","5","89894","0.0-5.0","5c720c7278263500015665f9","62575428e3b6625201efe5e1","","","","","16355","key"," "," ","16.725339815762545","500","250","instMl","208","-34.666666666666664","-30","-18","-20.666666666666686","",""
"","psychophysics","6","95920","0.0-6.0","5c720c7278263500015665f9","62575428e3b6625201efe5e1","","","","","6009","key"," "," ","16.725345403899695","500","250","inst","","","","","","",""
"","psychophysics","7","100614","0.0-7.0","5c720c7278263500015665f9","62575428e3b6625201efe5e1","","","","","4682","key"," "," ","16.725328571428534","500","250","ml","200","-9","-8","19","-18","",""
"","psychophysics","8","106303","0.0-8.0","5c720c7278263500015665f9","62575428e3b6625201efe5e1","","","","","5676","key"," "," ","16.725345132743385","500","250","ml","174","2","22","29","-16","",""
"","psychophysics","9","114183","0.0-9.0","5c720c7278263500015665f9","62575428e3b6625201efe5e1","","","","","7866","key"," "," ","16.72533829787234","500","250","ml","220","39","26","-27","-22","",""
"","psychophysics","10","122536","0.0-10.0","5c720c7278263500015665f9","62575428e3b6625201efe5e1","","","","","8342","key"," "," ","16.72534669338675","500","250","ml","196","43","-6","-20","-22","",""
"","psychophysics","11","127478","0.0-11.0","5c720c7278263500015665f9","62575428e3b6625201efe5e1","","","","","4933","key"," "," ","16.72534013605442","500","250","ml","248","-58","-30","-23","-23","",""
"","psychophysics","12","133461","0.0-12.0","5c720c7278263500015665f9","62575428e3b6625201efe5e1","","","","","5971","key"," "," ","16.72533893557426","500","250","ml","194","17","13","-25","-18","",""
"","psychophysics","13","136117","0.0-13.0","5c720c7278263500015665f9","62575428e3b6625201efe5e1","","","","","2648","key"," "," ","16.72537974683554","500","250","ml","208","-15","11","11","-20","",""
"","psychophysics","14","140590","0.0-14.0","5c720c7278263500015665f9","62575428e3b6625201efe5e1","","","","","4466","key"," "," ","16.725323308270628","500","250","ml","218","3","-9","10","-19","",""
"","psychophysics","15","147257","0.0-15.0","5c720c7278263500015665f9","62575428e3b6625201efe5e1","","","","","6655","key"," "," ","16.72533165829146","500","250","ml","230","38","23","26","-17","",""
"","psychophysics","16","152399","0.0-16.0","5c720c7278263500015665f9","62575428e3b6625201efe5e1","","","","","5134","key"," "," ","16.7253333333333","500","250","ml","206","29","24","-26","-17","",""
"","psychophysics","17","155468","0.0-17.0","5c720c7278263500015665f9","62575428e3b6625201efe5e1","","","","","3056","key"," "," ","16.72534426229515","500","250","ml","168","6","-17","30","-17","",""
"","psychophysics","18","160219","0.0-18.0","5c720c7278263500015665f9","62575428e3b6625201efe5e1","","","","","4744","key"," "," ","16.725346289752704","500","250","ml","192","43","-9","-12","-17","",""
"","psychophysics","19","163951","0.0-19.0","5c720c7278263500015665f9","62575428e3b6625201efe5e1","","","","","3725","key"," "," ","16.725364864864943","500","250","ml","248","17","-18","18","-25","",""
"","psychophysics","20","167713","0.0-20.0","5c720c7278263500015665f9","62575428e3b6625201efe5e1","","","","","3756","key"," "," ","16.725392857142783","500","250","ml","164","13","-15","-18","-18","",""
"","psychophysics","21","173432","0.0-21.0","5c720c7278263500015665f9","62575428e3b6625201efe5e1","","","","","5710","key"," "," ","16.72537243401755","500","250","ml","180","45","-30","3","-18","",""
"","psychophysics","22","187097","0.0-22.0","5c720c7278263500015665f9","62575428e3b6625201efe5e1","","","","","13659","key"," "," ","16.725340686274507","500","250","inst","","","","","","",""
"","psychophysics","23","211732","0.0-23.0","5c720c7278263500015665f9","62575428e3b6625201efe5e1","","","","","24628","key"," "," ","16.72533899456523","500","250","instPog","","","","","131","130",""
"","psychophysics","24","219426","0.0-24.0","5c720c7278263500015665f9","62575428e3b6625201efe5e1","","","","","7687","key"," "," ","16.725337690631857","500","250","instPog","","","","","147","130",""
"","psychophysics","25","228127","0.0-25.0","5c720c7278263500015665f9","62575428e3b6625201efe5e1","","","","","8694","key"," "," ","16.725337186897903","500","250","instPog","","","","","150","130",""
"","psychophysics","26","231255","0.0-26.0","5c720c7278263500015665f9","62575428e3b6625201efe5e1","","","","","3122","key"," "," ","16.725327956989364","500","250","inst","","","","","","",""
"","psychophysics","27","237506","0.0-27.0","5c720c7278263500015665f9","62575428e3b6625201efe5e1","","","","","6240","key"," "," ","16.725340482573717","500","250","pog","","","","","147","125",""
"","psychophysics","28","254774","0.0-28.0","5c720c7278263500015665f9","62575428e3b6625201efe5e1","","","","","17261","key"," "," ","16.725341416100864","500","250","pog","","","","","213","192",""
"","psychophysics","29","261273","0.0-29.0","5c720c7278263500015665f9","62575428e3b6625201efe5e1","","","","","6488","key"," "," ","16.7253350515463","500","250","pog","","","","","174","162",""
"","psychophysics","30","269990","0.0-30.0","5c720c7278263500015665f9","62575428e3b6625201efe5e1","","","","","8711","key"," "," ","16.72533653846163","500","250","pog","","","","","206","195",""
"","psychophysics","31","278670","0.0-31.0","5c720c7278263500015665f9","62575428e3b6625201efe5e1","","","","","8674","key"," "," ","16.79017248062014","500","250","pog","","","","","204","185",""
"","psychophysics","32","283335","0.0-32.0","5c720c7278263500015665f9","62575428e3b6625201efe5e1","","","","","4657","key"," "," ","16.725327338129507","500","250","pog","","","","","165","141",""
"","psychophysics","33","289873","0.0-33.0","5c720c7278263500015665f9","62575428e3b6625201efe5e1","","","","","6532","key"," "," ","16.72534358974364","500","250","pog","","","","","207","189",""
"","psychophysics","34","292600","0.0-34.0","5c720c7278263500015665f9","62575428e3b6625201efe5e1","","","","","2720","key"," "," ","16.725314814814748","500","250","pog","","","","","159","142",""
"","psychophysics","35","299879","0.0-35.0","5c720c7278263500015665f9","62575428e3b6625201efe5e1","","","","","7272","key"," "," ","16.725384792626684","500","250","pog","","","","","187","174",""
"","psychophysics","36","302920","0.0-36.0","5c720c7278263500015665f9","62575428e3b6625201efe5e1","","","","","3029","key"," "," ","16.725353591160484","500","250","pog","","","","","169","153",""
"","psychophysics","37","306920","0.0-37.0","5c720c7278263500015665f9","62575428e3b6625201efe5e1","","","","","3993","key"," "," ","16.725260504201778","500","250","pog","","","","","149","130",""
"","psychophysics","38","313527","0.0-38.0","5c720c7278263500015665f9","62575428e3b6625201efe5e1","","","","","6600","key"," "," ","16.725304568527967","500","250","pog","","","","","206","192",""
"","psychophysics","39","317939","0.0-39.0","5c720c7278263500015665f9","62575428e3b6625201efe5e1","","","","","4405","key"," "," ","16.72535741444878","500","250","pog","","","","","151","127",""
"","psychophysics","40","320318","0.0-40.0","5c720c7278263500015665f9","62575428e3b6625201efe5e1","","","","","2373","key"," "," ","16.72536170212775","500","250","pog","","","","","159","147",""
"","psychophysics","41","326671","0.0-41.0","5c720c7278263500015665f9","62575428e3b6625201efe5e1","","","","","6340","key"," "," ","16.725332453825892","500","250","pog","","","","","202","186",""
"","psychophysics","42","328359","0.0-42.0","5c720c7278263500015665f9","62575428e3b6625201efe5e1","","","","","1683","key"," "," ","16.725340000000433","500","250","inst","","","","","","",""
"","psychophysics","43","332544","0.0-43.0","5c720c7278263500015665f9","62575428e3b6625201efe5e1","","","","","4167","key"," "," ","16.725429718875436","500","250","instTilt","","","","","NaN","0","0"
"","psychophysics","44","335300","0.0-44.0","5c720c7278263500015665f9","62575428e3b6625201efe5e1","","","","","2740","key"," "," ","16.725335365853404","500","250","instTilt","","","","","0","0","0"
"","psychophysics","45","357918","0.0-45.0","5c720c7278263500015665f9","62575428e3b6625201efe5e1","","","","","22612","key"," "," ","16.72535011102885","500","250","instTilt","","","","","2","0","0"
"","psychophysics","46","360847","0.0-46.0","5c720c7278263500015665f9","62575428e3b6625201efe5e1","","","","","2917","key"," "," ","16.725229885057484","500","250","inst","","","","","","",""
"","psychophysics","47","364119","0.0-47.0","5c720c7278263500015665f9","62575428e3b6625201efe5e1","","","","","3259","key"," "," ","16.725348717948865","500","250","tilt","","","","","5","9","1"
"","psychophysics","48","366535","0.0-48.0","5c720c7278263500015665f9","62575428e3b6625201efe5e1","","","","","2401","key"," "," ","16.725209790209497","500","250","tilt","","","","","-4","-3","0"
"","psychophysics","49","369071","0.0-49.0","5c720c7278263500015665f9","62575428e3b6625201efe5e1","","","","","2523","key"," "," ","16.72536423841078","500","250","tilt","","","","","4","3","1"
"","psychophysics","50","371979","0.0-50.0","5c720c7278263500015665f9","62575428e3b6625201efe5e1","","","","","2894","key"," "," ","16.72541040462419","500","250","tilt","","","","","-4","-1","1"
"","psychophysics","51","375474","0.0-51.0","5c720c7278263500015665f9","62575428e3b6625201efe5e1","","","","","3478","key"," "," ","16.725341346153773","500","250","tilt","","","","","4","8","1"
"","psychophysics","52","377664","0.0-52.0","5c720c7278263500015665f9","62575428e3b6625201efe5e1","","","","","2183","key"," "," ","16.725338461538417","500","250","tilt","","","","","10","10","1"
"","psychophysics","53","380273","0.0-53.0","5c720c7278263500015665f9","62575428e3b6625201efe5e1","","","","","2602","key"," "," ","16.83397402597384","500","250","tilt","","","","","-9","-10","0"
"","psychophysics","54","382648","0.0-54.0","5c720c7278263500015665f9","62575428e3b6625201efe5e1","","","","","2367","key"," "," ","16.72530496453929","500","250","tilt","","","","","-2","-2","0"
"","psychophysics","55","384489","0.0-55.0","5c720c7278263500015665f9","62575428e3b6625201efe5e1","","","","","1833","key"," "," ","16.725348623853428","500","250","tilt","","","","","2","4","0"
"","psychophysics","56","387099","0.0-56.0","5c720c7278263500015665f9","62575428e3b6625201efe5e1","","","","","2603","key"," "," ","16.725348387096798","500","250","tilt","","","","","6","8","1"
"","psychophysics","57","389727","0.0-57.0","5c720c7278263500015665f9","62575428e3b6625201efe5e1","","","","","2618","key"," "," ","16.725333333332973","500","250","tilt","","","","","6","10","1"
"","psychophysics","58","391976","0.0-58.0","5c720c7278263500015665f9","62575428e3b6625201efe5e1","","","","","2233","key"," "," ","16.72528571428563","500","250","tilt","","","","","-3","8","1"
"","psychophysics","59","394414","0.0-59.0","5c720c7278263500015665f9","62575428e3b6625201efe5e1","","","","","2428","key"," "," ","16.725337931034478","500","250","tilt","","","","","-7","-8","1"
"","psychophysics","60","396682","0.0-60.0","5c720c7278263500015665f9","62575428e3b6625201efe5e1","","","","","2255","key"," "," ","16.725281481481485","500","250","tilt","","","","","4","7","1"
"","psychophysics","61","399430","0.0-61.0","5c720c7278263500015665f9","62575428e3b6625201efe5e1","","","","","2741","key"," "," ","16.72536809815978","500","250","tilt","","","","","-1","3","0"
"","psychophysics","62","401665","0.0-62.0","5c720c7278263500015665f9","62575428e3b6625201efe5e1","","","","","2222","key"," "," ","16.725323308270628","500","250","tilt","","","","","5","8","0"
"","psychophysics","63","403998","0.0-63.0","5c720c7278263500015665f9","62575428e3b6625201efe5e1","","","","","2326","key"," "," ","16.725333333333474","500","250","tilt","","","","","3","7","0"
"","psychophysics","64","405999","0.0-64.0","5c720c7278263500015665f9","62575428e3b6625201efe5e1","","","","","1989","key"," "," ","16.725134453781735","500","250","tilt","","","","","-4","-1","0"
"","psychophysics","65","409577","0.0-65.0","5c720c7278263500015665f9","62575428e3b6625201efe5e1","","","","","3562","key"," "," ","16.725347417840425","500","250","tilt","","","","","-4","-4","0"
"","psychophysics","66","412471","0.0-66.0","5c720c7278263500015665f9","62575428e3b6625201efe5e1","","","","","2878","key"," "," ","16.72534302325593","500","250","tilt","","","","","-5","-7","0"
"","psychophysics","67","415654","0.0-67.0","5c720c7278263500015665f9","62575428e3b6625201efe5e1","","","","","3176","key"," "," ","16.725428571428726","500","250","tilt","","","","","-3","-9","0"
"","psychophysics","68","419670","0.0-68.0","5c720c7278263500015665f9","62575428e3b6625201efe5e1","","","","","4003","key"," "," ","16.725276150627433","500","250","tilt","","","","","-8","-2","1"
"","psychophysics","69","422575","0.0-69.0","5c720c7278263500015665f9","62575428e3b6625201efe5e1","","","","","2892","key"," "," ","16.725352601155926","500","250","tilt","","","","","3","4","1"
"","psychophysics","70","426463","0.0-70.0","5c720c7278263500015665f9","62575428e3b6625201efe5e1","","","","","3874","key"," "," ","16.72532034632034","500","250","tilt","","","","","3","-9","0"
"","psychophysics","71","428409","0.0-71.0","5c720c7278263500015665f9","62575428e3b6625201efe5e1","","","","","1935","key"," "," ","16.725362068965453","500","250","tilt","","","","","9","7","0"
"","psychophysics","72","430390","0.0-72.0","5c720c7278263500015665f9","62575428e3b6625201efe5e1","","","","","1973","key"," "," ","16.725350427350755","500","250","tilt","","","","","-1","6","1"
"","psychophysics","73","431999","0.0-73.0","5c720c7278263500015665f9","62575428e3b6625201efe5e1","","","","","1597","key"," "," ","16.72534736842101","500","250","tilt","","","","","-3","-2","1"
"","psychophysics","74","436432","0.0-74.0","5c720c7278263500015665f9","62575428e3b6625201efe5e1","","","","","4421","key"," "," ","16.725337121212128","500","250","tilt","","","","","3","-3","0"
"","psychophysics","75","439232","0.0-75.0","5c720c7278263500015665f9","62575428e3b6625201efe5e1","","","","","2790","key"," "," ","16.725293413173716","500","250","tilt","","","","","6","6","0"
"","psychophysics","76","441206","0.0-76.0","5c720c7278263500015665f9","62575428e3b6625201efe5e1","","","","","1956","key"," "," ","16.725290598291068","500","250","tilt","","","","","-3","2","0"
"","psychophysics","77","444167","0.0-77.0","5c720c7278263500015665f9","62575428e3b6625201efe5e1","","","","","2955","key"," "," ","16.725346590909215","500","250","inst","","","","","","",""
"","psychophysics","78","446375","0.0-78.0","5c720c7278263500015665f9","62575428e3b6625201efe5e1","","","","","2191","key"," "," ","16.9846821705429","500","250","instPz","","","","","50","50",""
"","psychophysics","79","462379","0.0-79.0","5c720c7278263500015665f9","62575428e3b6625201efe5e1","","","","","15990","key"," "," ","16.725332635983268","500","250","instPz","","","","","49","50",""
"","psychophysics","80","470324","0.0-80.0","5c720c7278263500015665f9","62575428e3b6625201efe5e1","","","","","7938","key"," "," ","16.72533333333325","500","250","instPz","","","","","28","30",""
"","psychophysics","81","476272","0.0-81.0","5c720c7278263500015665f9","62575428e3b6625201efe5e1","","","","","5930","key"," "," ","16.725389830508476","500","250","instPz","","","","","15","40",""
"","psychophysics","82","478207","0.0-82.0","5c720c7278263500015665f9","62575428e3b6625201efe5e1","","","","","1925","key"," "," ","16.725286956521703","500","250","inst","","","","","","",""
"","psychophysics","83","481751","0.0-83.0","5c720c7278263500015665f9","62575428e3b6625201efe5e1","","","","","3529","key"," "," ","16.725350710900468","500","250","pz","","","","","36","24",""
"","psychophysics","84","488663","0.0-84.0","5c720c7278263500015665f9","62575428e3b6625201efe5e1","","","","","6898","key"," "," ","16.725344660194185","500","250","pz","","","","","45","37",""
"","psychophysics","85","497119","0.0-85.0","5c720c7278263500015665f9","62575428e3b6625201efe5e1","","","","","8444","key"," "," ","16.72533267326734","500","250","pz","","","","","69","40",""
"","psychophysics","86","505623","0.0-86.0","5c720c7278263500015665f9","62575428e3b6625201efe5e1","","","","","8489","key"," "," ","16.725343195266294","500","250","pz","","","","","58","51",""
"","psychophysics","87","510716","0.0-87.0","5c720c7278263500015665f9","62575428e3b6625201efe5e1","","","","","5080","key"," "," ","16.72533223684207","500","250","pz","","","","","37","30",""
"","psychophysics","88","518594","0.0-88.0","5c720c7278263500015665f9","62575428e3b6625201efe5e1","","","","","7870","key"," "," ","16.725334042553204","500","250","pz","","","","","59","45",""
"","psychophysics","89","522439","0.0-89.0","5c720c7278263500015665f9","62575428e3b6625201efe5e1","","","","","3828","key"," "," ","16.725406113536938","500","250","pz","","","","","29","23",""
"","psychophysics","90","528745","0.0-90.0","5c720c7278263500015665f9","62575428e3b6625201efe5e1","","","","","6298","key"," "," ","16.725300531915174","500","250","pz","","","","","37","29",""
"","psychophysics","91","534800","0.0-91.0","5c720c7278263500015665f9","62575428e3b6625201efe5e1","","","","","6047","key"," "," ","16.72534626038775","500","250","pz","","","","","54","47",""
"","psychophysics","92","540218","0.0-92.0","5c720c7278263500015665f9","62575428e3b6625201efe5e1","","","","","5411","key"," "," ","16.725337461300263","500","250","pz","","","","","60","48",""
"","psychophysics","93","544990","0.0-93.0","5c720c7278263500015665f9","62575428e3b6625201efe5e1","","","","","4765","key"," "," ","16.72534859154913","500","250","pz","","","","","36","28",""
"","psychophysics","94","551510","0.0-94.0","5c720c7278263500015665f9","62575428e3b6625201efe5e1","","","","","6507","key"," "," ","16.725359897172332","500","250","pz","","","","","54","47",""
"","psychophysics","95","556042","0.0-95.0","5c720c7278263500015665f9","62575428e3b6625201efe5e1","","","","","4518","key"," "," ","16.725325925925883","500","250","pz","","","","","55","54",""
"","psychophysics","96","560774","0.0-96.0","5c720c7278263500015665f9","62575428e3b6625201efe5e1","","","","","4725","key"," "," ","16.72534042553182","500","250","pz","","","","","55","47",""
"","psychophysics","97","565982","0.0-97.0","5c720c7278263500015665f9","62575428e3b6625201efe5e1","","","","","5201","key"," "," ","16.725348387096798","500","250","pz","","","","","54","46",""
"","psychophysics","98","568685","0.0-98.0","5c720c7278263500015665f9","62575428e3b6625201efe5e1","","","","","2691","key"," "," ","16.72538509316777","500","250","inst","","","","","","",""
"","psychophysics","99","571579","0.0-99.0","5c720c7278263500015665f9","62575428e3b6625201efe5e1","","","","","2887","key"," "," ","16.72532558139565","500","250","inst","","","","","","",""
"","psychophysics","100","577838","0.0-100.0","5c720c7278263500015665f9","62575428e3b6625201efe5e1","","","","","6238","key"," "," ","16.815544474393324","500","250","instFlank","","","","","0.5","0.3","1"
"","psychophysics","101","580896","0.0-101.0","5c720c7278263500015665f9","62575428e3b6625201efe5e1","","","","","3044","key"," "," ","16.725236263736356","500","250","inst","","","","","","",""
"","psychophysics","102","589141","0.0-102.0","5c720c7278263500015665f9","62575428e3b6625201efe5e1","","","","","8230","key"," "," ","16.725345528455275","500","250","instFlank","","","","","0.3799999999999999","0.3","1"
"","psychophysics","103","593784","0.0-103.0","5c720c7278263500015665f9","62575428e3b6625201efe5e1","","","","","4636","key"," "," ","16.7253514492751","500","250","inst","","","","","","",""
"","psychophysics","104","598723","0.0-104.0","5c720c7278263500015665f9","62575428e3b6625201efe5e1","","","","","4925","key"," "," ","16.72536949152561","500","250","instFlank","","","","","0.7400000000000002","0.3","0"
"","psychophysics","105","600231","0.0-105.0","5c720c7278263500015665f9","62575428e3b6625201efe5e1","","","","","1502","key"," "," ","16.725348314606542","500","250","inst","","","","","","",""
"","psychophysics","106","603631","0.0-106.0","5c720c7278263500015665f9","62575428e3b6625201efe5e1","","","","","3384","key"," "," ","16.725336633663563","500","250","flank","","","","","0.019999999999999796","0.28","1"
"","psychophysics","107","607111","0.0-107.0","5c720c7278263500015665f9","62575428e3b6625201efe5e1","","","","","3465","key"," "," ","16.725338164251298","500","250","flank","","","","","0.1399999999999998","0.24","1"
"","psychophysics","108","610832","0.0-108.0","5c720c7278263500015665f9","62575428e3b6625201efe5e1","","","","","3709","key"," "," ","16.725337837837944","500","250","flank","","","","","0.4099999999999999","0.7","1"
"","psychophysics","109","615823","0.0-109.0","5c720c7278263500015665f9","62575428e3b6625201efe5e1","","","","","4982","key"," "," ","16.725326599326667","500","250","flank","","","","","0.6800000000000002","0.64","0"
"","psychophysics","110","618828","0.0-110.0","5c720c7278263500015665f9","62575428e3b6625201efe5e1","","","","","2991","key"," "," ","16.7253519553072","500","250","flank","","","","","0.4099999999999999","0.48","1"
"","psychophysics","111","624113","0.0-111.0","5c720c7278263500015665f9","62575428e3b6625201efe5e1","","","","","5276","key"," "," ","16.725352380952486","500","250","flank","","","","","0.1999999999999998","0.6","0"
"","psychophysics","112","628979","0.0-112.0","5c720c7278263500015665f9","62575428e3b6625201efe5e1","","","","","4858","key"," "," ","16.725334482758452","500","250","flank","","","","","0.8000000000000003","0.64","0"
"","psychophysics","113","632408","0.0-113.0","5c720c7278263500015665f9","62575428e3b6625201efe5e1","","","","","3413","key"," "," ","16.7253333333333","500","250","flank","","","","","0.1399999999999998","0.26","1"
"","psychophysics","114","636306","0.0-114.0","5c720c7278263500015665f9","62575428e3b6625201efe5e1","","","","","3889","key"," "," ","16.72534913793086","500","250","flank","","","","","0.5900000000000001","0.38","0"
"","psychophysics","115","640068","0.0-115.0","5c720c7278263500015665f9","62575428e3b6625201efe5e1","","","","","3753","key"," "," ","16.72540624999965","500","250","flank","","","","","0.8000000000000003","0.8","1"
"","psychophysics","116","644143","0.0-116.0","5c720c7278263500015665f9","62575428e3b6625201efe5e1","","","","","4067","key"," "," ","16.725276859504103","500","250","flank","","","","","0.1699999999999998","0.2","1"
"","psychophysics","117","647398","0.0-117.0","5c720c7278263500015665f9","62575428e3b6625201efe5e1","","","","","3243","key"," "," ","16.725365979381543","500","250","flank","","","","","0.5900000000000001","0.24","0"
"","psychophysics","118","650894","0.0-118.0","5c720c7278263500015665f9","62575428e3b6625201efe5e1","","","","","3482","key"," "," ","16.725326923077002","500","250","flank","","","","","0.4099999999999999","0.26","0"
"","psychophysics","119","654910","0.0-119.0","5c720c7278263500015665f9","62575428e3b6625201efe5e1","","","","","4004","key"," "," ","16.725326359832646","500","250","flank","","","","","0.34999999999999987","0.46","1"
"","psychophysics","120","658199","0.0-120.0","5c720c7278263500015665f9","62575428e3b6625201efe5e1","","","","","3274","key"," "," ","16.725336734693716","500","250","flank","","","","","0.5900000000000001","0.22","0"
"","psychophysics","121","661886","0.0-121.0","5c720c7278263500015665f9","62575428e3b6625201efe5e1","","","","","3678","key"," "," ","16.725333333333325","500","250","flank","","","","","0.7100000000000002","0.66","0"
"","psychophysics","122","665966","0.0-122.0","5c720c7278263500015665f9","62575428e3b6625201efe5e1","","","","","4061","key"," "," ","16.794446280991952","500","250","flank","","","","","0.7100000000000002","0.6","1"
"","psychophysics","123","669455","0.0-123.0","5c720c7278263500015665f9","62575428e3b6625201efe5e1","","","","","3474","key"," "," ","16.72534615384603","500","250","flank","","","","","0.5900000000000001","0.62","1"
"","psychophysics","124","672470","0.0-124.0","5c720c7278263500015665f9","62575428e3b6625201efe5e1","","","","","3001","key"," "," ","16.725324022346932","500","250","flank","","","","","0.6500000000000001","0.6","0"
"","psychophysics","125","675459","0.0-125.0","5c720c7278263500015665f9","62575428e3b6625201efe5e1","","","","","2973","key"," "," ","16.72535955056148","500","250","flank","","","","","0.6200000000000001","0.46","0"
"","psychophysics","126","678737","0.0-126.0","5c720c7278263500015665f9","62575428e3b6625201efe5e1","","","","","3269","key"," "," ","16.72532820512827","500","250","flank","","","","","0.8600000000000003","0.76","1"
"","psychophysics","127","682352","0.0-127.0","5c720c7278263500015665f9","62575428e3b6625201efe5e1","","","","","3604","key"," "," ","16.725427906977036","500","250","flank","","","","","0.6200000000000001","0.66","1"
"","psychophysics","128","685544","0.0-128.0","5c720c7278263500015665f9","62575428e3b6625201efe5e1","","","","","3183","key"," "," ","16.725300000000157","500","250","flank","","","","","0.6200000000000001","0.74","1"
"","psychophysics","129","689143","0.0-129.0","5c720c7278263500015665f9","62575428e3b6625201efe5e1","","","","","3589","key"," "," ","16.72534112149532","500","250","flank","","","","","0.6800000000000002","0.66","1"
"","psychophysics","130","691935","0.0-130.0","5c720c7278263500015665f9","62575428e3b6625201efe5e1","","","","","2776","key"," "," ","16.725343373494017","500","250","flank","","","","","0.7100000000000002","0.76","1"
"","psychophysics","131","694610","0.0-131.0","5c720c7278263500015665f9","62575428e3b6625201efe5e1","","","","","2661","key"," "," ","16.725465408804585","500","250","flank","","","","","0.43999999999999995","0.5","1"
"","psychophysics","132","697386","0.0-132.0","5c720c7278263500015665f9","62575428e3b6625201efe5e1","","","","","2768","key"," "," ","16.725327272727295","500","250","flank","","","","","0.4099999999999999","0.38","1"
"","psychophysics","133","700231","0.0-133.0","5c720c7278263500015665f9","62575428e3b6625201efe5e1","","","","","2830","key"," "," ","16.72524852071029","500","250","flank","","","","","0.5900000000000001","0.56","0"
"","psychophysics","134","702999","0.0-134.0","5c720c7278263500015665f9","62575428e3b6625201efe5e1","","","","","2755","key"," "," ","16.725329268292846","500","250","flank","","","","","0.7400000000000002","0.7","0"
"","psychophysics","135","705791","0.0-135.0","5c720c7278263500015665f9","62575428e3b6625201efe5e1","","","","","2780","key"," "," ","16.725343373494017","500","250","flank","","","","","0.5900000000000001","0.56","1"
"true","fullscreen","136","705798","0.0-136.0","5c720c7278263500015665f9","62575428e3b6625201efe5e1","","","","","","","","","","","","","","","","","","",""
