"success","trial_type","trial_index","time_elapsed","internal_node_id","pid","sid","timeout","failed_images","failed_audio","failed_video","rt","response_type","key_press","response","avg_frame_time","center_x","center_y","task","ml_len","ml_start","ml_x","ml_y","resp","targ","back"
"true","fullscreen","0","12321","0.0-0.0","5dcf6d762e4a050ac2cba07d","6257548d14ba715d8acf7ab0","","","","","","","","","","","","","","","","","","",""
"true","preload","1","12328","0.0-1.0","5dcf6d762e4a050ac2cba07d","6257548d14ba715d8acf7ab0","false","[]","[]","[]","","","","","","","","","","","","","","",""
"","psychophysics","2","56133","0.0-2.0","5dcf6d762e4a050ac2cba07d","6257548d14ba715d8acf7ab0","","","","","43694","key"," "," ","21.464576470588238","499.4999851137404","249.7499925568702","inst","","","","","","",""
"","psychophysics","3","75611","0.0-3.0","5dcf6d762e4a050ac2cba07d","6257548d14ba715d8acf7ab0","","","","","19441","key"," "," ","18.429181818181817","500","250","inst","","","","","","",""
"","psychophysics","4","121098","0.0-4.0","5dcf6d762e4a050ac2cba07d","6257548d14ba715d8acf7ab0","","","","","45402","key"," "," ","17.529143407864307","500","250","instMl","212","-35.333333333333336","-15","28","-20.333333333333314","",""
"","psychophysics","5","189502","0.0-5.0","5dcf6d762e4a050ac2cba07d","6257548d14ba715d8acf7ab0","","","","","68382","key"," "," ","24.245838355193197","500","250","instMl","150","-25","-7","30","-16","",""
"","psychophysics","6","201979","0.0-6.0","5dcf6d762e4a050ac2cba07d","6257548d14ba715d8acf7ab0","","","","","12418","key"," "," ","17.604687411598338","500","250","inst","","","","","","",""
"","psychophysics","7","212705","0.0-7.0","5dcf6d762e4a050ac2cba07d","6257548d14ba715d8acf7ab0","","","","","10695","key"," "," ","17.563386885245897","500","250","ml","222","18","1","-26","-22","",""
"","psychophysics","8","219490","0.0-8.0","5dcf6d762e4a050ac2cba07d","6257548d14ba715d8acf7ab0","","","","","6753","key"," "," ","18.136117962466482","500","250","ml","228","51","-18","30","-15","",""
"","psychophysics","9","224987","0.0-9.0","5dcf6d762e4a050ac2cba07d","6257548d14ba715d8acf7ab0","","","","","5472","key"," "," ","17.40253333333327","500","250","ml","182","9","-12","17","-7","",""
"","psychophysics","10","231418","0.0-10.0","5dcf6d762e4a050ac2cba07d","6257548d14ba715d8acf7ab0","","","","","6404","key"," "," ","17.337486486486473","500","250","ml","162","-22","-4","-27","-11","",""
"","psychophysics","11","236320","0.0-11.0","5dcf6d762e4a050ac2cba07d","6257548d14ba715d8acf7ab0","","","","","4883","key"," "," ","17.43559285714291","500","250","ml","196","-35","-20","-14","-13","",""
"","psychophysics","12","240415","0.0-12.0","5dcf6d762e4a050ac2cba07d","6257548d14ba715d8acf7ab0","","","","","4061","key"," "," ","17.595646551724148","500","250","ml","208","-1","-22","-9","-4","",""
"","psychophysics","13","246763","0.0-13.0","5dcf6d762e4a050ac2cba07d","6257548d14ba715d8acf7ab0","","","","","6320","key"," "," ","17.488214876033084","500","250","ml","212","42","-13","3","-9","",""
"","psychophysics","14","249065","0.0-14.0","5dcf6d762e4a050ac2cba07d","6257548d14ba715d8acf7ab0","","","","","2269","key"," "," ","17.431015384615435","500","250","ml","248","-2","2","-15","-3","",""
"","psychophysics","15","254394","0.0-15.0","5dcf6d762e4a050ac2cba07d","6257548d14ba715d8acf7ab0","","","","","5296","key"," "," ","18.202664383561494","500","250","ml","194","-39","-19","2","-15","",""
"","psychophysics","16","265810","0.0-16.0","5dcf6d762e4a050ac2cba07d","6257548d14ba715d8acf7ab0","","","","","11395","key"," "," ","18.80661386138617","500","250","ml","194","46","2","-1","-9","",""
"","psychophysics","17","271292","0.0-17.0","5dcf6d762e4a050ac2cba07d","6257548d14ba715d8acf7ab0","","","","","5451","key"," "," ","18.217119999999994","500","250","ml","162","-20","-5","-11","-14","",""
"","psychophysics","18","283572","0.0-18.0","5dcf6d762e4a050ac2cba07d","6257548d14ba715d8acf7ab0","","","","","12255","key"," "," ","18.03416470588238","500","250","ml","158","38","-23","0","-12","",""
"","psychophysics","19","290090","0.0-19.0","5dcf6d762e4a050ac2cba07d","6257548d14ba715d8acf7ab0","","","","","6481","key"," "," ","17.848882191780834","500","250","ml","164","6","-20","-3","-9","",""
"","psychophysics","20","296698","0.0-20.0","5dcf6d762e4a050ac2cba07d","6257548d14ba715d8acf7ab0","","","","","6573","key"," "," ","17.50396276595742","500","250","ml","206","36","14","10","-11","",""
"","psychophysics","21","301987","0.0-21.0","5dcf6d762e4a050ac2cba07d","6257548d14ba715d8acf7ab0","","","","","5263","key"," "," ","17.37451973684208","500","250","ml","220","26","22","9","-3","",""
"","psychophysics","22","305587","0.0-22.0","5dcf6d762e4a050ac2cba07d","6257548d14ba715d8acf7ab0","","","","","3540","key"," "," ","17.646945812807676","500","250","inst","","","","","","",""
"","psychophysics","23","332115","0.0-23.0","5dcf6d762e4a050ac2cba07d","6257548d14ba715d8acf7ab0","","","","","26465","key"," "," ","17.59135458167332","500","250","instPog","","","","","130","130",""
"","psychophysics","24","373486","0.0-24.0","5dcf6d762e4a050ac2cba07d","6257548d14ba715d8acf7ab0","","","","","41336","key"," "," ","17.650062286689412","500","250","instPog","","","","","131","130",""
"","psychophysics","25","391243","0.0-25.0","5dcf6d762e4a050ac2cba07d","6257548d14ba715d8acf7ab0","","","","","17729","key"," "," ","17.589506958250492","500","250","instPog","","","","","133","130",""
"","psychophysics","26","402450","0.0-26.0","5dcf6d762e4a050ac2cba07d","6257548d14ba715d8acf7ab0","","","","","11191","key"," "," ","17.974601286173616","500","250","inst","","","","","","",""
"","psychophysics","27","428177","0.0-27.0","5dcf6d762e4a050ac2cba07d","6257548d14ba715d8acf7ab0","","","","","25704","key"," "," ","17.501338325391433","500","250","pog","","","","","155","153",""
"","psychophysics","28","441936","0.0-28.0","5dcf6d762e4a050ac2cba07d","6257548d14ba715d8acf7ab0","","","","","13688","key"," "," ","17.805893782383375","500","250","pog","","","","","170","170",""
"","psychophysics","29","442138","0.0-29.0","5dcf6d762e4a050ac2cba07d","6257548d14ba715d8acf7ab0","","","","","176","key"," "," ","16.662000000000592","500","250","pog","","","","","160","156",""
"","psychophysics","30","442218","0.0-30.0","5dcf6d762e4a050ac2cba07d","6257548d14ba715d8acf7ab0","","","","","51","key"," "," ","16.661999999982072","500","250","pog","","","","","160","178",""
"","psychophysics","31","459134","0.0-31.0","5dcf6d762e4a050ac2cba07d","6257548d14ba715d8acf7ab0","","","","","16904","key"," "," ","17.955963829787265","500","250","pog","","","","","125","123",""
"","psychophysics","32","471975","0.0-32.0","5dcf6d762e4a050ac2cba07d","6257548d14ba715d8acf7ab0","","","","","12816","key"," "," ","17.623269230769218","500","250","pog","","","","","151","139",""
"","psychophysics","33","486529","0.0-33.0","5dcf6d762e4a050ac2cba07d","6257548d14ba715d8acf7ab0","","","","","14527","key"," "," ","17.61122909090912","500","250","pog","","","","","139","136",""
"","psychophysics","34","500259","0.0-34.0","5dcf6d762e4a050ac2cba07d","6257548d14ba715d8acf7ab0","","","","","13708","key"," "," ","17.85992156862741","500","250","pog","","","","","134","129",""
"","psychophysics","35","512736","0.0-35.0","5dcf6d762e4a050ac2cba07d","6257548d14ba715d8acf7ab0","","","","","12451","key"," "," ","18.010369942196668","500","250","pog","","","","","158","161",""
"","psychophysics","36","538403","0.0-36.0","5dcf6d762e4a050ac2cba07d","6257548d14ba715d8acf7ab0","","","","","25647","key"," "," ","17.84386648122391","500","250","pog","","","","","182","176",""
"","psychophysics","37","548882","0.0-37.0","5dcf6d762e4a050ac2cba07d","6257548d14ba715d8acf7ab0","","","","","10449","key"," "," ","18.10584748700157","500","250","pog","","","","","167","169",""
"","psychophysics","38","567179","0.0-38.0","5dcf6d762e4a050ac2cba07d","6257548d14ba715d8acf7ab0","","","","","18265","key"," "," ","17.90105283757343","500","250","pog","","","","","135","127",""
"","psychophysics","39","580639","0.0-39.0","5dcf6d762e4a050ac2cba07d","6257548d14ba715d8acf7ab0","","","","","13394","key"," "," ","18.344111869031295","500","250","pog","","","","","200","192",""
"","psychophysics","40","593829","0.0-40.0","5dcf6d762e4a050ac2cba07d","6257548d14ba715d8acf7ab0","","","","","13153","key"," "," ","17.5272703062583","500","250","pog","","","","","147","141",""
"","psychophysics","41","603718","0.0-41.0","5dcf6d762e4a050ac2cba07d","6257548d14ba715d8acf7ab0","","","","","9863","key"," "," ","17.932061705989096","500","250","pog","","","","","173","166",""
"","psychophysics","42","608627","0.0-42.0","5dcf6d762e4a050ac2cba07d","6257548d14ba715d8acf7ab0","","","","","4877","key"," "," ","17.817394160583994","500","250","inst","","","","","","",""
"","psychophysics","43","613638","0.0-43.0","5dcf6d762e4a050ac2cba07d","6257548d14ba715d8acf7ab0","","","","","4962","key"," "," ","18.79976603773572","500","250","instTilt","","","","","NaN","0","0"
"","psychophysics","44","621115","0.0-44.0","5dcf6d762e4a050ac2cba07d","6257548d14ba715d8acf7ab0","","","","","7442","key"," "," ","17.479528037383204","500","250","instTilt","","","","","0","0","0"
"","psychophysics","45","686526","0.0-45.0","5dcf6d762e4a050ac2cba07d","6257548d14ba715d8acf7ab0","","","","","65379","key"," "," ","17.937362962962954","500","250","instTilt","","","","","2","0","0"
"","psychophysics","46","692092","0.0-46.0","5dcf6d762e4a050ac2cba07d","6257548d14ba715d8acf7ab0","","","","","5547","key"," "," ","17.33889374999999","500","250","inst","","","","","","",""
"","psychophysics","47","703884","0.0-47.0","5dcf6d762e4a050ac2cba07d","6257548d14ba715d8acf7ab0","","","","","11744","key"," "," ","18.49298901098899","500","250","tilt","","","","","-11","-10","1"
"","psychophysics","48","715952","0.0-48.0","5dcf6d762e4a050ac2cba07d","6257548d14ba715d8acf7ab0","","","","","11942","key"," "," ","18.14250903614465","500","250","tilt","","","","","5","6","1"
"","psychophysics","49","726716","0.0-49.0","5dcf6d762e4a050ac2cba07d","6257548d14ba715d8acf7ab0","","","","","10724","key"," "," ","18.062168067226875","500","250","tilt","","","","","7","3","0"
"","psychophysics","50","740896","0.0-50.0","5dcf6d762e4a050ac2cba07d","6257548d14ba715d8acf7ab0","","","","","14140","key"," "," ","17.50538518518514","500","250","tilt","","","","","0","-1","0"
"","psychophysics","51","747156","0.0-51.0","5dcf6d762e4a050ac2cba07d","6257548d14ba715d8acf7ab0","","","","","6226","key"," "," ","19.292842105263123","500","250","tilt","","","","","-4","-4","1"
"","psychophysics","52","761503","0.0-52.0","5dcf6d762e4a050ac2cba07d","6257548d14ba715d8acf7ab0","","","","","14269","key"," "," ","18.36873495518561","500","250","tilt","","","","","-4","-7","0"
"","psychophysics","53","778997","0.0-53.0","5dcf6d762e4a050ac2cba07d","6257548d14ba715d8acf7ab0","","","","","17447","key"," "," ","17.836339121552676","500","250","tilt","","","","","-4","-7","0"
"","psychophysics","54","790416","0.0-54.0","5dcf6d762e4a050ac2cba07d","6257548d14ba715d8acf7ab0","","","","","11385","key"," "," ","18.059287974683684","500","250","tilt","","","","","-1","-2","1"
"","psychophysics","55","800881","0.0-55.0","5dcf6d762e4a050ac2cba07d","6257548d14ba715d8acf7ab0","","","","","10431","key"," "," ","17.528647651006555","500","250","tilt","","","","","3","2","1"
"","psychophysics","56","810929","0.0-56.0","5dcf6d762e4a050ac2cba07d","6257548d14ba715d8acf7ab0","","","","","10001","key"," "," ","18.34040659340674","500","250","tilt","","","","","6","5","0"
"","psychophysics","57","822496","0.0-57.0","5dcf6d762e4a050ac2cba07d","6257548d14ba715d8acf7ab0","","","","","11529","key"," "," ","17.92779534883714","500","250","tilt","","","","","9","8","0"
"","psychophysics","58","832388","0.0-58.0","5dcf6d762e4a050ac2cba07d","6257548d14ba715d8acf7ab0","","","","","9866","key"," "," ","17.802821621621607","500","250","tilt","","","","","-2","-4","1"
"","psychophysics","59","841552","0.0-59.0","5dcf6d762e4a050ac2cba07d","6257548d14ba715d8acf7ab0","","","","","9131","key"," "," ","17.693303675048288","500","250","tilt","","","","","-6","-10","1"
"","psychophysics","60","861825","0.0-60.0","5dcf6d762e4a050ac2cba07d","6257548d14ba715d8acf7ab0","","","","","20216","key"," "," ","18.090171428571402","500","250","tilt","","","","","-6","-9","0"
"","psychophysics","61","869061","0.0-61.0","5dcf6d762e4a050ac2cba07d","6257548d14ba715d8acf7ab0","","","","","7187","key"," "," ","17.639721271393803","500","250","tilt","","","","","-4","-3","1"
"","psychophysics","62","880606","0.0-62.0","5dcf6d762e4a050ac2cba07d","6257548d14ba715d8acf7ab0","","","","","11515","key"," "," ","18.4186964856229","500","250","tilt","","","","","7","3","0"
"","psychophysics","63","892554","0.0-63.0","5dcf6d762e4a050ac2cba07d","6257548d14ba715d8acf7ab0","","","","","11916","key"," "," ","18.213728244274762","500","250","tilt","","","","","3","0","0"
"","psychophysics","64","903618","0.0-64.0","5dcf6d762e4a050ac2cba07d","6257548d14ba715d8acf7ab0","","","","","10993","key"," "," ","18.169253289473808","500","250","tilt","","","","","4","2","0"
"","psychophysics","65","916239","0.0-65.0","5dcf6d762e4a050ac2cba07d","6257548d14ba715d8acf7ab0","","","","","12588","key"," "," ","18.104597402597452","500","250","tilt","","","","","-5","-7","1"
"","psychophysics","66","922887","0.0-66.0","5dcf6d762e4a050ac2cba07d","6257548d14ba715d8acf7ab0","","","","","6611","key"," "," ","17.6291873350925","500","250","tilt","","","","","-5","-7","0"
"","psychophysics","67","932236","0.0-67.0","5dcf6d762e4a050ac2cba07d","6257548d14ba715d8acf7ab0","","","","","9313","key"," "," ","17.71132442748102","500","250","tilt","","","","","-5","-5","1"
"","psychophysics","68","940881","0.0-68.0","5dcf6d762e4a050ac2cba07d","6257548d14ba715d8acf7ab0","","","","","8605","key"," "," ","18.632774193548368","500","250","tilt","","","","","5","5","1"
"","psychophysics","69","948084","0.0-69.0","5dcf6d762e4a050ac2cba07d","6257548d14ba715d8acf7ab0","","","","","7162","key"," "," ","17.558244498777327","500","250","tilt","","","","","5","7","1"
"","psychophysics","70","954248","0.0-70.0","5dcf6d762e4a050ac2cba07d","6257548d14ba715d8acf7ab0","","","","","6129","key"," "," ","17.625121387283283","500","250","tilt","","","","","5","6","0"
"","psychophysics","71","964596","0.0-71.0","5dcf6d762e4a050ac2cba07d","6257548d14ba715d8acf7ab0","","","","","10309","key"," "," ","17.420640809443412","500","250","tilt","","","","","9","10","0"
"","psychophysics","72","981752","0.0-72.0","5dcf6d762e4a050ac2cba07d","6257548d14ba715d8acf7ab0","","","","","17120","key"," "," ","17.82245114345112","500","250","tilt","","","","","-6","-9","0"
"","psychophysics","73","987165","0.0-73.0","5dcf6d762e4a050ac2cba07d","6257548d14ba715d8acf7ab0","","","","","5371","key"," "," ","17.52755844155848","500","250","tilt","","","","","0","-3","0"
"","psychophysics","74","991641","0.0-74.0","5dcf6d762e4a050ac2cba07d","6257548d14ba715d8acf7ab0","","","","","4396","key"," "," ","17.72411952191218","500","250","tilt","","","","","0","-2","0"
"","psychophysics","75","999623","0.0-75.0","5dcf6d762e4a050ac2cba07d","6257548d14ba715d8acf7ab0","","","","","7952","key"," "," ","17.93791891891889","500","250","tilt","","","","","0","0","1"
"","psychophysics","76","1008364","0.0-76.0","5dcf6d762e4a050ac2cba07d","6257548d14ba715d8acf7ab0","","","","","8706","key"," "," ","18.419594936708936","500","250","tilt","","","","","6","4","0"
"","psychophysics","77","1015902","0.0-77.0","5dcf6d762e4a050ac2cba07d","6257548d14ba715d8acf7ab0","","","","","7476","key"," "," ","17.475725581395157","500","250","inst","","","","","","",""
"","psychophysics","78","1021313","0.0-78.0","5dcf6d762e4a050ac2cba07d","6257548d14ba715d8acf7ab0","","","","","5378","key"," "," ","18.744750000000447","500","250","instPz","","","","","50","50",""
"","psychophysics","79","1052493","0.0-79.0","5dcf6d762e4a050ac2cba07d","6257548d14ba715d8acf7ab0","","","","","31157","key"," "," ","17.673824063564094","500","250","instPz","","","","","52","50",""
"","psychophysics","80","1080680","0.0-80.0","5dcf6d762e4a050ac2cba07d","6257548d14ba715d8acf7ab0","","","","","28170","key"," "," ","17.877818527918805","500","250","instPz","","","","","23","30",""
"","psychophysics","81","1080975","0.0-81.0","5dcf6d762e4a050ac2cba07d","6257548d14ba715d8acf7ab0","","","","","247","key"," "," ","18.883599999997145","500","250","instPz","","","","","15","40",""
"","psychophysics","82","1100291","0.0-82.0","5dcf6d762e4a050ac2cba07d","6257548d14ba715d8acf7ab0","","","","","19281","key"," "," ","18.083032802249207","500","250","inst","","","","","","",""
"","psychophysics","83","1122913","0.0-83.0","5dcf6d762e4a050ac2cba07d","6257548d14ba715d8acf7ab0","","","","","22578","key"," "," ","18.732671085335568","500","250","pz","","","","","74","26",""
"","psychophysics","84","1137157","0.0-84.0","5dcf6d762e4a050ac2cba07d","6257548d14ba715d8acf7ab0","","","","","14211","key"," "," ","17.5888108776267","500","250","pz","","","","","105","39",""
"","psychophysics","85","1161366","0.0-85.0","5dcf6d762e4a050ac2cba07d","6257548d14ba715d8acf7ab0","","","","","24126","key"," "," ","17.519247826086897","500","250","pz","","","","","129","52",""
"","psychophysics","86","1167320","0.0-86.0","5dcf6d762e4a050ac2cba07d","6257548d14ba715d8acf7ab0","","","","","5928","key"," "," ","17.65084272997042","500","250","pz","","","","","125","59",""
"","psychophysics","87","1172632","0.0-87.0","5dcf6d762e4a050ac2cba07d","6257548d14ba715d8acf7ab0","","","","","5288","key"," "," ","17.48685148514872","500","250","pz","","","","","92","29",""
"","psychophysics","88","1182348","0.0-88.0","5dcf6d762e4a050ac2cba07d","6257548d14ba715d8acf7ab0","","","","","9689","key"," "," ","18.509793499043926","500","250","pz","","","","","111","49",""
"","psychophysics","89","1188069","0.0-89.0","5dcf6d762e4a050ac2cba07d","6257548d14ba715d8acf7ab0","","","","","5701","key"," "," ","18.081160883280397","500","250","pz","","","","","94","44",""
"","psychophysics","90","1196481","0.0-90.0","5dcf6d762e4a050ac2cba07d","6257548d14ba715d8acf7ab0","","","","","8380","key"," "," ","18.419749450549524","500","250","pz","","","","","80","44",""
"","psychophysics","91","1200567","0.0-91.0","5dcf6d762e4a050ac2cba07d","6257548d14ba715d8acf7ab0","","","","","4057","key"," "," ","17.82615720523993","500","250","pz","","","","","90","49",""
"","psychophysics","92","1205271","0.0-92.0","5dcf6d762e4a050ac2cba07d","6257548d14ba715d8acf7ab0","","","","","4671","key"," "," ","17.473258426966677","500","250","pz","","","","","64","35",""
"","psychophysics","93","1209691","0.0-93.0","5dcf6d762e4a050ac2cba07d","6257548d14ba715d8acf7ab0","","","","","4379","key"," "," ","17.736967741935175","500","250","pz","","","","","91","48",""
"","psychophysics","94","1213708","0.0-94.0","5dcf6d762e4a050ac2cba07d","6257548d14ba715d8acf7ab0","","","","","3984","key"," "," ","17.616211453744","500","250","pz","","","","","80","53",""
"","psychophysics","95","1218544","0.0-95.0","5dcf6d762e4a050ac2cba07d","6257548d14ba715d8acf7ab0","","","","","4805","key"," "," ","17.638527472528217","500","250","pz","","","","","106","49",""
"","psychophysics","96","1223516","0.0-96.0","5dcf6d762e4a050ac2cba07d","6257548d14ba715d8acf7ab0","","","","","4952","key"," "," ","17.607361702127086","500","250","pz","","","","","95","28",""
"","psychophysics","97","1227852","0.0-97.0","5dcf6d762e4a050ac2cba07d","6257548d14ba715d8acf7ab0","","","","","4309","key"," "," ","17.614114285714695","500","250","pz","","","","","44","23",""
"","psychophysics","98","1232833","0.0-98.0","5dcf6d762e4a050ac2cba07d","6257548d14ba715d8acf7ab0","","","","","4952","key"," "," ","17.545144876324517","500","250","inst","","","","","","",""
"","psychophysics","99","1238472","0.0-99.0","5dcf6d762e4a050ac2cba07d","6257548d14ba715d8acf7ab0","","","","","5613","key"," "," ","18.284922077922246","500","250","inst","","","","","","",""
"","psychophysics","100","1242531","0.0-100.0","5dcf6d762e4a050ac2cba07d","6257548d14ba715d8acf7ab0","","","","","4008","key"," "," ","17.455428571428186","500","250","instFlank","","","","","0.5","0.3","1"
"","psychophysics","101","1253913","0.0-101.0","5dcf6d762e4a050ac2cba07d","6257548d14ba715d8acf7ab0","","","","","11352","key"," "," ","17.348830534351407","500","250","inst","","","","","","",""
"","psychophysics","102","1268682","0.0-102.0","5dcf6d762e4a050ac2cba07d","6257548d14ba715d8acf7ab0","","","","","14734","key"," "," ","18.338549068322845","500","250","instFlank","","","","","0.34999999999999987","0.3","1"
"","psychophysics","103","1275856","0.0-103.0","5dcf6d762e4a050ac2cba07d","6257548d14ba715d8acf7ab0","","","","","7141","key"," "," ","17.476767726161135","500","250","inst","","","","","","",""
"","psychophysics","104","1284643","0.0-104.0","5dcf6d762e4a050ac2cba07d","6257548d14ba715d8acf7ab0","","","","","8754","key"," "," ","18.14536645962745","500","250","instFlank","","","","","0.8000000000000003","0.3","0"
"","psychophysics","105","1288164","0.0-105.0","5dcf6d762e4a050ac2cba07d","6257548d14ba715d8acf7ab0","","","","","3494","key"," "," ","17.490955223880746","500","250","inst","","","","","","",""
"","psychophysics","106","1293500","0.0-106.0","5dcf6d762e4a050ac2cba07d","6257548d14ba715d8acf7ab0","","","","","5264","key"," "," ","17.836167785235144","500","250","flank","","","","","0.4099999999999999","0.28","1"
"","psychophysics","107","1297833","0.0-107.0","5dcf6d762e4a050ac2cba07d","6257548d14ba715d8acf7ab0","","","","","4304","key"," "," ","18.363651063829224","500","250","flank","","","","","0.8600000000000003","0.8","1"
"","psychophysics","108","1303942","0.0-108.0","5dcf6d762e4a050ac2cba07d","6257548d14ba715d8acf7ab0","","","","","6087","key"," "," ","19.237514195584012","500","250","flank","","","","","0.8600000000000003","0.7","0"
"","psychophysics","109","1307886","0.0-109.0","5dcf6d762e4a050ac2cba07d","6257548d14ba715d8acf7ab0","","","","","3913","key"," "," ","17.633327354260434","500","250","flank","","","","","0.8900000000000003","0.8","1"
"","psychophysics","110","1312549","0.0-110.0","5dcf6d762e4a050ac2cba07d","6257548d14ba715d8acf7ab0","","","","","4623","key"," "," ","17.283716417910746","500","250","flank","","","","","0.6200000000000001","0.48","1"
"","psychophysics","111","1316127","0.0-111.0","5dcf6d762e4a050ac2cba07d","6257548d14ba715d8acf7ab0","","","","","3545","key"," "," ","17.2254492753615","500","250","flank","","","","","0.6500000000000001","0.52","1"
"","psychophysics","112","1319972","0.0-112.0","5dcf6d762e4a050ac2cba07d","6257548d14ba715d8acf7ab0","","","","","3819","key"," "," ","17.57917431192665","500","250","flank","","","","","0.56","0.38","1"
"","psychophysics","113","1323431","0.0-113.0","5dcf6d762e4a050ac2cba07d","6257548d14ba715d8acf7ab0","","","","","3429","key"," "," ","17.597112244897883","500","250","flank","","","","","0.6200000000000001","0.56","1"
"","psychophysics","114","1328143","0.0-114.0","5dcf6d762e4a050ac2cba07d","6257548d14ba715d8acf7ab0","","","","","4684","key"," "," ","17.405286245353583","500","250","flank","","","","","0.2899999999999998","0.26","1"
"","psychophysics","115","1332881","0.0-115.0","5dcf6d762e4a050ac2cba07d","6257548d14ba715d8acf7ab0","","","","","4705","key"," "," ","17.52595555555524","500","250","flank","","","","","0.2599999999999998","0.2","1"
"","psychophysics","116","1337297","0.0-116.0","5dcf6d762e4a050ac2cba07d","6257548d14ba715d8acf7ab0","","","","","4385","key"," "," ","17.736967741935175","500","250","flank","","","","","0.6800000000000002","0.58","0"
"","psychophysics","117","1340662","0.0-117.0","5dcf6d762e4a050ac2cba07d","6257548d14ba715d8acf7ab0","","","","","3336","key"," "," ","17.352652849741716","500","250","flank","","","","","0.6500000000000001","0.54","1"
"","psychophysics","118","1345658","0.0-118.0","5dcf6d762e4a050ac2cba07d","6257548d14ba715d8acf7ab0","","","","","4967","key"," "," ","17.483366197182526","500","250","flank","","","","","0.7400000000000002","0.5","0"
"","psychophysics","119","1350234","0.0-119.0","5dcf6d762e4a050ac2cba07d","6257548d14ba715d8acf7ab0","","","","","4487","key"," "," ","17.707458823529418","500","250","flank","","","","","0.7400000000000002","0.7","1"
"","psychophysics","120","1354380","0.0-120.0","5dcf6d762e4a050ac2cba07d","6257548d14ba715d8acf7ab0","","","","","4120","key"," "," ","17.572109243697525","500","250","flank","","","","","0.6500000000000001","0.44","1"
"","psychophysics","121","1359316","0.0-121.0","5dcf6d762e4a050ac2cba07d","6257548d14ba715d8acf7ab0","","","","","4908","key"," "," ","18.137601476014897","500","250","flank","","","","","0.7700000000000002","0.58","0"
"","psychophysics","122","1363127","0.0-122.0","5dcf6d762e4a050ac2cba07d","6257548d14ba715d8acf7ab0","","","","","3780","key"," "," ","17.189755656108538","500","250","flank","","","","","0.5900000000000001","0.4","1"
"","psychophysics","123","1366587","0.0-123.0","5dcf6d762e4a050ac2cba07d","6257548d14ba715d8acf7ab0","","","","","3426","key"," "," ","17.41936363636356","500","250","flank","","","","","0.6200000000000001","0.52","0"
"","psychophysics","124","1369783","0.0-124.0","5dcf6d762e4a050ac2cba07d","6257548d14ba715d8acf7ab0","","","","","3162","key"," "," ","17.48594505494527","500","250","flank","","","","","0.5900000000000001","0.42","1"
"","psychophysics","125","1373667","0.0-125.0","5dcf6d762e4a050ac2cba07d","6257548d14ba715d8acf7ab0","","","","","3846","key"," "," ","17.574986301369957","500","250","flank","","","","","0.56","0.34","1"
"","psychophysics","126","1377244","0.0-126.0","5dcf6d762e4a050ac2cba07d","6257548d14ba715d8acf7ab0","","","","","3549","key"," "," ","17.31863054187092","500","250","flank","","","","","0.5900000000000001","0.32","0"
"","psychophysics","127","1380607","0.0-127.0","5dcf6d762e4a050ac2cba07d","6257548d14ba715d8acf7ab0","","","","","3333","key"," "," ","17.26320618556779","500","250","flank","","","","","0.6500000000000001","0.48","0"
"","psychophysics","128","1383868","0.0-128.0","5dcf6d762e4a050ac2cba07d","6257548d14ba715d8acf7ab0","","","","","3227","key"," "," ","17.46822580645081","500","250","flank","","","","","0.56","0.26","0"
"","psychophysics","129","1388037","0.0-129.0","5dcf6d762e4a050ac2cba07d","6257548d14ba715d8acf7ab0","","","","","4139","key"," "," ","17.359154811715435","500","250","flank","","","","","0.7700000000000002","0.7","0"
"","psychophysics","130","1391615","0.0-130.0","5dcf6d762e4a050ac2cba07d","6257548d14ba715d8acf7ab0","","","","","3546","key"," "," ","17.65182178217853","500","250","flank","","","","","0.6800000000000002","0.6","1"
"","psychophysics","131","1395426","0.0-131.0","5dcf6d762e4a050ac2cba07d","6257548d14ba715d8acf7ab0","","","","","3744","key"," "," ","17.674177570093345","500","250","flank","","","","","0.7100000000000002","0.44","0"
"","psychophysics","132","1398945","0.0-132.0","5dcf6d762e4a050ac2cba07d","6257548d14ba715d8acf7ab0","","","","","3487","key"," "," ","17.40436633663381","500","250","flank","","","","","0.7100000000000002","0.48","0"
"","psychophysics","133","1402443","0.0-133.0","5dcf6d762e4a050ac2cba07d","6257548d14ba715d8acf7ab0","","","","","3466","key"," "," ","18.13728125000004","500","250","flank","","","","","0.5900000000000001","0.34","0"
"","psychophysics","134","1406800","0.0-134.0","5dcf6d762e4a050ac2cba07d","6257548d14ba715d8acf7ab0","","","","","4321","key"," "," ","17.39807228915614","500","250","flank","","","","","0.7400000000000002","0.68","0"
"","psychophysics","135","1411370","0.0-135.0","5dcf6d762e4a050ac2cba07d","6257548d14ba715d8acf7ab0","","","","","4537","key"," "," ","17.3615496183207","500","250","flank","","","","","0.8300000000000003","0.78","0"
"true","fullscreen","136","1411385","0.0-136.0","5dcf6d762e4a050ac2cba07d","6257548d14ba715d8acf7ab0","","","","","","","","","","","","","","","","","","",""
