"success","trial_type","trial_index","time_elapsed","internal_node_id","pid","sid","timeout","failed_images","failed_audio","failed_video","rt","response_type","key_press","response","avg_frame_time","center_x","center_y","task","ml_len","ml_start","ml_x","ml_y","resp","targ","back"
"true","fullscreen","0","1939","0.0-0.0","6053ad542b81382607008fe2","625753655c5903843ff09989","","","","","","","","","","","","","","","","","","",""
"true","preload","1","1944","0.0-1.0","6053ad542b81382607008fe2","625753655c5903843ff09989","false","[]","[]","[]","","","","","","","","","","","","","","",""
"","psychophysics","2","3377","0.0-2.0","6053ad542b81382607008fe2","625753655c5903843ff09989","","","","","1413","key"," "," ","16.685720930232556","500","250","inst","","","","","","",""
"","psychophysics","3","4237","0.0-3.0","6053ad542b81382607008fe2","625753655c5903843ff09989","","","","","856","key"," "," ","16.662921568627453","500","250","inst","","","","","","",""
"","psychophysics","4","13640","0.0-4.0","6053ad542b81382607008fe2","625753655c5903843ff09989","","","","","9400","key"," "," ","16.657898756660746","500","250","instMl","176","-29.333333333333332","7","26","-29.333333333333314","",""
"","psychophysics","5","20441","0.0-5.0","6053ad542b81382607008fe2","625753655c5903843ff09989","","","","","6794","key"," "," ","16.65794852941176","500","250","instMl","210","-35","-2","27","-35","",""
"","psychophysics","6","21564","0.0-6.0","6053ad542b81382607008fe2","625753655c5903843ff09989","","","","","1119","key"," "," ","16.658606060606072","500","250","inst","","","","","","",""
"","psychophysics","7","28297","0.0-7.0","6053ad542b81382607008fe2","625753655c5903843ff09989","","","","","6731","key"," "," ","16.65801240694789","500","250","ml","198","10","24","11","-22","",""
"","psychophysics","8","31723","0.0-8.0","6053ad542b81382607008fe2","625753655c5903843ff09989","","","","","3419","key"," "," ","16.657253658536572","500","250","ml","158","24","-6","18","-19","",""
"","psychophysics","9","34313","0.0-9.0","6053ad542b81382607008fe2","625753655c5903843ff09989","","","","","2586","key"," "," ","16.658857142857144","500","250","ml","150","-8","30","20","-22","",""
"","psychophysics","10","36001","0.0-10.0","6053ad542b81382607008fe2","625753655c5903843ff09989","","","","","1681","key"," "," ","16.66135643564355","500","250","ml","222","-11","29","-5","-22","",""
"","psychophysics","11","37084","0.0-11.0","6053ad542b81382607008fe2","625753655c5903843ff09989","","","","","1080","key"," "," ","16.65325000000007","500","250","ml","226","-15","-2","28","-15","",""
"","psychophysics","12","38344","0.0-12.0","6053ad542b81382607008fe2","625753655c5903843ff09989","","","","","1257","key"," "," ","16.656364864864816","500","250","ml","240","-37","-20","8","-37","",""
"","psychophysics","13","40482","0.0-13.0","6053ad542b81382607008fe2","625753655c5903843ff09989","","","","","2135","key"," "," ","16.657132812500038","500","250","ml","154","-31","0","19","-25","",""
"","psychophysics","14","45423","0.0-14.0","6053ad542b81382607008fe2","625753655c5903843ff09989","","","","","4939","key"," "," ","16.658942372881352","500","250","ml","158","-18","22","5","-12","",""
"","psychophysics","15","49816","0.0-15.0","6053ad542b81382607008fe2","625753655c5903843ff09989","","","","","4391","key"," "," ","16.659342205323192","500","250","ml","180","26","-25","19","-17","",""
"","psychophysics","16","52416","0.0-16.0","6053ad542b81382607008fe2","625753655c5903843ff09989","","","","","2597","key"," "," ","16.657148387096775","500","250","ml","180","-5","14","29","-12","",""
"","psychophysics","17","54526","0.0-17.0","6053ad542b81382607008fe2","625753655c5903843ff09989","","","","","2106","key"," "," ","16.659095238095254","500","250","ml","222","8","-3","30","-15","",""
"","psychophysics","18","55976","0.0-18.0","6053ad542b81382607008fe2","625753655c5903843ff09989","","","","","1446","key"," "," ","16.66232558139534","500","250","ml","164","-38","24","-20","-23","",""
"","psychophysics","19","58685","0.0-19.0","6053ad542b81382607008fe2","625753655c5903843ff09989","","","","","2706","key"," "," ","16.656265432098735","500","250","ml","192","45","16","21","-9","",""
"","psychophysics","20","60909","0.0-20.0","6053ad542b81382607008fe2","625753655c5903843ff09989","","","","","2221","key"," "," ","16.65885606060604","500","250","ml","184","-41","-4","-10","-9","",""
"","psychophysics","21","62980","0.0-21.0","6053ad542b81382607008fe2","625753655c5903843ff09989","","","","","2068","key"," "," ","16.65529268292685","500","250","ml","198","25","-18","-3","-8","",""
"","psychophysics","22","63755","0.0-22.0","6053ad542b81382607008fe2","625753655c5903843ff09989","","","","","769","key"," "," ","16.66597826086945","500","250","inst","","","","","","",""
"","psychophysics","23","76538","0.0-23.0","6053ad542b81382607008fe2","625753655c5903843ff09989","","","","","12781","key"," "," ","16.657421671018277","500","250","instPog","","","","","130","130",""
"","psychophysics","24","82966","0.0-24.0","6053ad542b81382607008fe2","625753655c5903843ff09989","","","","","6425","key"," "," ","16.65858181818179","500","250","instPog","","","","","144","130",""
"","psychophysics","25","87518","0.0-25.0","6053ad542b81382607008fe2","625753655c5903843ff09989","","","","","4548","key"," "," ","16.658496323529427","500","250","instPog","","","","","157","130",""
"","psychophysics","26","88638","0.0-26.0","6053ad542b81382607008fe2","625753655c5903843ff09989","","","","","1115","key"," "," ","16.663283582089587","500","250","inst","","","","","","",""
"","psychophysics","27","91986","0.0-27.0","6053ad542b81382607008fe2","625753655c5903843ff09989","","","","","3344","key"," "," ","16.658315","500","250","pog","","","","","202","187",""
"","psychophysics","28","93136","0.0-28.0","6053ad542b81382607008fe2","625753655c5903843ff09989","","","","","1145","key"," "," ","16.65851470588228","500","250","pog","","","","","158","127",""
"","psychophysics","29","95509","0.0-29.0","6053ad542b81382607008fe2","625753655c5903843ff09989","","","","","2364","key"," "," ","16.658595744680806","500","250","pog","","","","","213","199",""
"","psychophysics","30","97042","0.0-30.0","6053ad542b81382607008fe2","625753655c5903843ff09989","","","","","1530","key"," "," ","16.65320879120874","500","250","pog","","","","","173","135",""
"","psychophysics","31","98669","0.0-31.0","6053ad542b81382607008fe2","625753655c5903843ff09989","","","","","1624","key"," "," ","16.65997938144341","500","250","pog","","","","","198","172",""
"","psychophysics","32","100847","0.0-32.0","6053ad542b81382607008fe2","625753655c5903843ff09989","","","","","2176","key"," "," ","16.657453846153825","500","250","pog","","","","","188","156",""
"","psychophysics","33","103955","0.0-33.0","6053ad542b81382607008fe2","625753655c5903843ff09989","","","","","3105","key"," "," ","16.658751351351384","500","250","pog","","","","","203","170",""
"","psychophysics","34","106611","0.0-34.0","6053ad542b81382607008fe2","625753655c5903843ff09989","","","","","2655","key"," "," ","16.657591194968557","500","250","pog","","","","","181","153",""
"","psychophysics","35","109799","0.0-35.0","6053ad542b81382607008fe2","625753655c5903843ff09989","","","","","3185","key"," "," ","16.659394736842046","500","250","pog","","","","","210","177",""
"","psychophysics","36","111941","0.0-36.0","6053ad542b81382607008fe2","625753655c5903843ff09989","","","","","2139","key"," "," ","16.659648437499982","500","250","pog","","","","","207","169",""
"","psychophysics","37","113988","0.0-37.0","6053ad542b81382607008fe2","625753655c5903843ff09989","","","","","2042","key"," "," ","16.65369672131151","500","250","pog","","","","","221","191",""
"","psychophysics","38","115733","0.0-38.0","6053ad542b81382607008fe2","625753655c5903843ff09989","","","","","1744","key"," "," ","16.656233009708636","500","250","pog","","","","","181","145",""
"","psychophysics","39","118015","0.0-39.0","6053ad542b81382607008fe2","625753655c5903843ff09989","","","","","2279","key"," "," ","16.658735294117566","500","250","pog","","","","","156","128",""
"","psychophysics","40","121161","0.0-40.0","6053ad542b81382607008fe2","625753655c5903843ff09989","","","","","3142","key"," "," ","16.657941489361697","500","250","pog","","","","","229","196",""
"","psychophysics","41","122225","0.0-41.0","6053ad542b81382607008fe2","625753655c5903843ff09989","","","","","1061","key"," "," ","16.664206349206367","500","250","pog","","","","","160","126",""
"","psychophysics","42","122919","0.0-42.0","6053ad542b81382607008fe2","625753655c5903843ff09989","","","","","691","key"," "," ","16.662853658536488","500","250","inst","","","","","","",""
"","psychophysics","43","123424","0.0-43.0","6053ad542b81382607008fe2","625753655c5903843ff09989","","","","","503","key"," "," ","16.64386206896572","500","250","instTilt","","","","","NaN","0","0"
"","psychophysics","44","124641","0.0-44.0","6053ad542b81382607008fe2","625753655c5903843ff09989","","","","","1215","key"," "," ","16.658680555555595","500","250","instTilt","","","","","0","0","0"
"","psychophysics","45","134099","0.0-45.0","6053ad542b81382607008fe2","625753655c5903843ff09989","","","","","9442","key"," "," ","16.657694885361554","500","250","instTilt","","","","","0","0","0"
"","psychophysics","46","134899","0.0-46.0","6053ad542b81382607008fe2","625753655c5903843ff09989","","","","","796","key"," "," ","16.65514893616993","500","250","inst","","","","","","",""
"","psychophysics","47","137269","0.0-47.0","6053ad542b81382607008fe2","625753655c5903843ff09989","","","","","2367","key"," "," ","16.66042553191486","500","250","tilt","","","","","11","4","0"
"","psychophysics","48","139005","0.0-48.0","6053ad542b81382607008fe2","625753655c5903843ff09989","","","","","1734","key"," "," ","16.658097087378497","500","250","tilt","","","","","10","9","0"
"","psychophysics","49","140646","0.0-49.0","6053ad542b81382607008fe2","625753655c5903843ff09989","","","","","1635","key"," "," ","16.657693877550997","500","250","tilt","","","","","-21","-10","1"
"","psychophysics","50","142739","0.0-50.0","6053ad542b81382607008fe2","625753655c5903843ff09989","","","","","2078","key"," "," ","16.660512000000104","500","250","tilt","","","","","3","5","1"
"","psychophysics","51","144555","0.0-51.0","6053ad542b81382607008fe2","625753655c5903843ff09989","","","","","1814","key"," "," ","16.65328703703697","500","250","tilt","","","","","-8","-3","1"
"","psychophysics","52","146215","0.0-52.0","6053ad542b81382607008fe2","625753655c5903843ff09989","","","","","1657","key"," "," ","16.660397959183793","500","250","tilt","","","","","-12","-9","0"
"","psychophysics","53","147796","0.0-53.0","6053ad542b81382607008fe2","625753655c5903843ff09989","","","","","1578","key"," "," ","16.657882978723563","500","250","tilt","","","","","-8","-6","1"
"","psychophysics","54","150560","0.0-54.0","6053ad542b81382607008fe2","625753655c5903843ff09989","","","","","2759","key"," "," ","16.65885454545443","500","250","tilt","","","","","8","5","1"
"","psychophysics","55","152080","0.0-55.0","6053ad542b81382607008fe2","625753655c5903843ff09989","","","","","1518","key"," "," ","16.661588888888947","500","250","tilt","","","","","-9","-5","1"
"","psychophysics","56","153429","0.0-56.0","6053ad542b81382607008fe2","625753655c5903843ff09989","","","","","1347","key"," "," ","16.658424999999987","500","250","tilt","","","","","-13","-10","1"
"","psychophysics","57","154238","0.0-57.0","6053ad542b81382607008fe2","625753655c5903843ff09989","","","","","804","key"," "," ","16.660229166667097","500","250","tilt","","","","","0","-7","1"
"","psychophysics","58","156302","0.0-58.0","6053ad542b81382607008fe2","625753655c5903843ff09989","","","","","2054","key"," "," ","16.658188524590155","500","250","tilt","","","","","-10","-8","1"
"","psychophysics","59","157573","0.0-59.0","6053ad542b81382607008fe2","625753655c5903843ff09989","","","","","1269","key"," "," ","16.661697368420917","500","250","tilt","","","","","-18","-7","0"
"","psychophysics","60","159021","0.0-60.0","6053ad542b81382607008fe2","625753655c5903843ff09989","","","","","1445","key"," "," ","16.661034883720784","500","250","tilt","","","","","14","6","0"
"","psychophysics","61","161149","0.0-61.0","6053ad542b81382607008fe2","625753655c5903843ff09989","","","","","2126","key"," "," ","16.657944881889602","500","250","tilt","","","","","-3","-2","0"
"","psychophysics","62","162499","0.0-62.0","6053ad542b81382607008fe2","625753655c5903843ff09989","","","","","1346","key"," "," ","16.663149999999952","500","250","tilt","","","","","12","5","0"
"","psychophysics","63","163759","0.0-63.0","6053ad542b81382607008fe2","625753655c5903843ff09989","","","","","1253","key"," "," ","16.6607027027026","500","250","tilt","","","","","9","4","0"
"","psychophysics","64","165224","0.0-64.0","6053ad542b81382607008fe2","625753655c5903843ff09989","","","","","1460","key"," "," ","16.65712643678142","500","250","tilt","","","","","-6","-4","0"
"","psychophysics","65","166915","0.0-65.0","6053ad542b81382607008fe2","625753655c5903843ff09989","","","","","1687","key"," "," ","16.66274257425748","500","250","tilt","","","","","10","8","1"
"","psychophysics","66","168442","0.0-66.0","6053ad542b81382607008fe2","625753655c5903843ff09989","","","","","1524","key"," "," ","16.653890109889957","500","250","tilt","","","","","-13","-10","0"
"","psychophysics","67","170017","0.0-67.0","6053ad542b81382607008fe2","625753655c5903843ff09989","","","","","1573","key"," "," ","16.657322580645097","500","250","tilt","","","","","-9","-6","0"
"","psychophysics","68","171452","0.0-68.0","6053ad542b81382607008fe2","625753655c5903843ff09989","","","","","1432","key"," "," ","16.66352941176464","500","250","tilt","","","","","-6","-1","1"
"","psychophysics","69","172872","0.0-69.0","6053ad542b81382607008fe2","625753655c5903843ff09989","","","","","1417","key"," "," ","16.65756470588214","500","250","tilt","","","","","-12","-6","1"
"","psychophysics","70","174887","0.0-70.0","6053ad542b81382607008fe2","625753655c5903843ff09989","","","","","2013","key"," "," ","16.655386554621924","500","250","tilt","","","","","-12","-3","1"
"","psychophysics","71","176861","0.0-71.0","6053ad542b81382607008fe2","625753655c5903843ff09989","","","","","1970","key"," "," ","16.6604237288135","500","250","tilt","","","","","-12","-2","0"
"","psychophysics","72","178588","0.0-72.0","6053ad542b81382607008fe2","625753655c5903843ff09989","","","","","1723","key"," "," ","16.663514563106553","500","250","tilt","","","","","10","5","1"
"","psychophysics","73","180356","0.0-73.0","6053ad542b81382607008fe2","625753655c5903843ff09989","","","","","1767","key"," "," ","16.655133333333236","500","250","tilt","","","","","9","0","0"
"","psychophysics","74","181589","0.0-74.0","6053ad542b81382607008fe2","625753655c5903843ff09989","","","","","1231","key"," "," ","16.65649315068492","500","250","tilt","","","","","-7","-1","1"
"","psychophysics","75","182890","0.0-75.0","6053ad542b81382607008fe2","625753655c5903843ff09989","","","","","1299","key"," "," ","16.65711688311686","500","250","tilt","","","","","7","4","0"
"","psychophysics","76","185074","0.0-76.0","6053ad542b81382607008fe2","625753655c5903843ff09989","","","","","2178","key"," "," ","16.6601538461539","500","250","tilt","","","","","-1","-2","0"
"","psychophysics","77","185806","0.0-77.0","6053ad542b81382607008fe2","625753655c5903843ff09989","","","","","728","key"," "," ","16.669999999999945","500","250","inst","","","","","","",""
"","psychophysics","78","190416","0.0-78.0","6053ad542b81382607008fe2","625753655c5903843ff09989","","","","","4608","key"," "," ","16.655684782608635","500","250","instPz","","","","","50","50",""
"","psychophysics","79","197134","0.0-79.0","6053ad542b81382607008fe2","625753655c5903843ff09989","","","","","6716","key"," "," ","16.657758706467646","500","250","instPz","","","","","51","50",""
"","psychophysics","80","198615","0.0-80.0","6053ad542b81382607008fe2","625753655c5903843ff09989","","","","","1477","key"," "," ","16.659909090908926","500","250","instPz","","","","","28","30",""
"","psychophysics","81","199237","0.0-81.0","6053ad542b81382607008fe2","625753655c5903843ff09989","","","","","619","key"," "," ","16.667416666666718","500","250","instPz","","","","","15","40",""
"","psychophysics","82","200255","0.0-82.0","6053ad542b81382607008fe2","625753655c5903843ff09989","","","","","1016","key"," "," ","16.654750000000057","500","250","inst","","","","","","",""
"","psychophysics","83","203283","0.0-83.0","6053ad542b81382607008fe2","625753655c5903843ff09989","","","","","3023","key"," "," ","16.65877348066305","500","250","pz","","","","","44","47",""
"","psychophysics","84","204406","0.0-84.0","6053ad542b81382607008fe2","625753655c5903843ff09989","","","","","1120","key"," "," ","16.662179104477747","500","250","pz","","","","","27","24",""
"","psychophysics","85","205952","0.0-85.0","6053ad542b81382607008fe2","625753655c5903843ff09989","","","","","1543","key"," "," ","16.6532087912089","500","250","pz","","","","","31","27",""
"","psychophysics","86","207310","0.0-86.0","6053ad542b81382607008fe2","625753655c5903843ff09989","","","","","1355","key"," "," ","16.65990123456778","500","250","pz","","","","","46","56",""
"","psychophysics","87","208731","0.0-87.0","6053ad542b81382607008fe2","625753655c5903843ff09989","","","","","1418","key"," "," ","16.659190476190513","500","250","pz","","","","","50","48",""
"","psychophysics","88","210222","0.0-88.0","6053ad542b81382607008fe2","625753655c5903843ff09989","","","","","1488","key"," "," ","16.65793258426979","500","250","pz","","","","","51","42",""
"","psychophysics","89","212812","0.0-89.0","6053ad542b81382607008fe2","625753655c5903843ff09989","","","","","2587","key"," "," ","16.65684415584403","500","250","pz","","","","","38","33",""
"","psychophysics","90","214777","0.0-90.0","6053ad542b81382607008fe2","625753655c5903843ff09989","","","","","1962","key"," "," ","16.656358974358927","500","250","pz","","","","","53","53",""
"","psychophysics","91","215937","0.0-91.0","6053ad542b81382607008fe2","625753655c5903843ff09989","","","","","1156","key"," "," ","16.66049275362351","500","250","pz","","","","","33","27",""
"","psychophysics","92","217153","0.0-92.0","6053ad542b81382607008fe2","625753655c5903843ff09989","","","","","1213","key"," "," ","16.653625000000222","500","250","pz","","","","","28","22",""
"","psychophysics","93","218361","0.0-93.0","6053ad542b81382607008fe2","625753655c5903843ff09989","","","","","1206","key"," "," ","16.656929577464684","500","250","pz","","","","","39","34",""
"","psychophysics","94","219710","0.0-94.0","6053ad542b81382607008fe2","625753655c5903843ff09989","","","","","1346","key"," "," ","16.663674999999785","500","250","pz","","","","","45","37",""
"","psychophysics","95","221307","0.0-95.0","6053ad542b81382607008fe2","625753655c5903843ff09989","","","","","1591","key"," "," ","16.662600000000154","500","250","pz","","","","","64","48",""
"","psychophysics","96","223027","0.0-96.0","6053ad542b81382607008fe2","625753655c5903843ff09989","","","","","1715","key"," "," ","16.65824509803925","500","250","pz","","","","","49","37",""
"","psychophysics","97","224674","0.0-97.0","6053ad542b81382607008fe2","625753655c5903843ff09989","","","","","1643","key"," "," ","16.65788775510202","500","250","pz","","","","","66","43",""
"","psychophysics","98","225308","0.0-98.0","6053ad542b81382607008fe2","625753655c5903843ff09989","","","","","629","key"," "," ","16.667432432432623","500","250","inst","","","","","","",""
"","psychophysics","99","225907","0.0-99.0","6053ad542b81382607008fe2","625753655c5903843ff09989","","","","","590","key"," "," ","16.66479999999948","500","250","inst","","","","","","",""
"","psychophysics","100","226901","0.0-100.0","6053ad542b81382607008fe2","625753655c5903843ff09989","","","","","980","key"," "," ","16.662372881355715","500","250","instFlank","","","","","0.5","0.3","1"
"","psychophysics","101","228761","0.0-101.0","6053ad542b81382607008fe2","625753655c5903843ff09989","","","","","1857","key"," "," ","16.654270270270104","500","250","inst","","","","","","",""
"","psychophysics","102","232186","0.0-102.0","6053ad542b81382607008fe2","625753655c5903843ff09989","","","","","3421","key"," "," ","16.656823529411756","500","250","instFlank","","","","","0.56","0.3","1"
"","psychophysics","103","232619","0.0-103.0","6053ad542b81382607008fe2","625753655c5903843ff09989","","","","","431","key"," "," ","16.677359999999172","500","250","inst","","","","","","",""
"","psychophysics","104","236050","0.0-104.0","6053ad542b81382607008fe2","625753655c5903843ff09989","","","","","3424","key"," "," ","16.659663414634146","500","250","instFlank","","","","","0.8300000000000003","0.3","0"
"","psychophysics","105","237211","0.0-105.0","6053ad542b81382607008fe2","625753655c5903843ff09989","","","","","1159","key"," "," ","16.660159420289954","500","250","inst","","","","","","",""
"","psychophysics","106","240647","0.0-106.0","6053ad542b81382607008fe2","625753655c5903843ff09989","","","","","3432","key"," "," ","16.658819512195073","500","250","flank","","","","","0.6800000000000002","0.6","0"
"","psychophysics","107","243266","0.0-107.0","6053ad542b81382607008fe2","625753655c5903843ff09989","","","","","2611","key"," "," ","16.659564102564055","500","250","flank","","","","","0.9800000000000004","0.8","1"
"","psychophysics","108","245957","0.0-108.0","6053ad542b81382607008fe2","625753655c5903843ff09989","","","","","2686","key"," "," ","16.656776397515404","500","250","flank","","","","","0.7400000000000002","0.7","0"
"","psychophysics","109","248800","0.0-109.0","6053ad542b81382607008fe2","625753655c5903843ff09989","","","","","2841","key"," "," ","16.657582352941287","500","250","flank","","","","","0.8900000000000003","0.54","0"
"","psychophysics","110","251373","0.0-110.0","6053ad542b81382607008fe2","625753655c5903843ff09989","","","","","2570","key"," "," ","16.65701960784298","500","250","flank","","","","","0.53","0.32","0"
"","psychophysics","111","254998","0.0-111.0","6053ad542b81382607008fe2","625753655c5903843ff09989","","","","","3623","key"," "," ","16.659737327188942","500","250","flank","","","","","0.7100000000000002","0.7","0"
"","psychophysics","112","257318","0.0-112.0","6053ad542b81382607008fe2","625753655c5903843ff09989","","","","","2315","key"," "," ","16.65802173913044","500","250","flank","","","","","0.5","0.52","1"
"","psychophysics","113","260056","0.0-113.0","6053ad542b81382607008fe2","625753655c5903843ff09989","","","","","2729","key"," "," ","16.658852760736263","500","250","flank","","","","","0.7100000000000002","0.68","0"
"","psychophysics","114","262714","0.0-114.0","6053ad542b81382607008fe2","625753655c5903843ff09989","","","","","2652","key"," "," ","16.660471698113113","500","250","flank","","","","","0.53","0.44","1"
"","psychophysics","115","266538","0.0-115.0","6053ad542b81382607008fe2","625753655c5903843ff09989","","","","","3819","key"," "," ","16.65573362445415","500","250","flank","","","","","0.34999999999999987","0.2","1"
"","psychophysics","116","269525","0.0-116.0","6053ad542b81382607008fe2","625753655c5903843ff09989","","","","","2983","key"," "," ","16.656764044944037","500","250","flank","","","","","0.2299999999999998","0.32","1"
"","psychophysics","117","272212","0.0-117.0","6053ad542b81382607008fe2","625753655c5903843ff09989","","","","","2682","key"," "," ","16.65563750000001","500","250","flank","","","","","0.5","0.38","0"
"","psychophysics","118","274944","0.0-118.0","6053ad542b81382607008fe2","625753655c5903843ff09989","","","","","2728","key"," "," ","16.659625766870988","500","250","flank","","","","","0.6800000000000002","0.6","0"
"","psychophysics","119","278365","0.0-119.0","6053ad542b81382607008fe2","625753655c5903843ff09989","","","","","3419","key"," "," ","16.65694634146341","500","250","flank","","","","","0.3799999999999999","0.24","0"
"","psychophysics","120","281729","0.0-120.0","6053ad542b81382607008fe2","625753655c5903843ff09989","","","","","3360","key"," "," ","16.65772636815939","500","250","flank","","","","","0.6800000000000002","0.76","1"
"","psychophysics","121","284452","0.0-121.0","6053ad542b81382607008fe2","625753655c5903843ff09989","","","","","2720","key"," "," ","16.65426543209864","500","250","flank","","","","","0.8000000000000003","0.52","0"
"","psychophysics","122","287641","0.0-122.0","6053ad542b81382607008fe2","625753655c5903843ff09989","","","","","3179","key"," "," ","16.660015789473636","500","250","flank","","","","","0.43999999999999995","0.34","0"
"","psychophysics","123","290582","0.0-123.0","6053ad542b81382607008fe2","625753655c5903843ff09989","","","","","2935","key"," "," ","16.660051136363606","500","250","flank","","","","","0.2299999999999998","0.2","1"
"","psychophysics","124","293778","0.0-124.0","6053ad542b81382607008fe2","625753655c5903843ff09989","","","","","3192","key"," "," ","16.658748691099458","500","250","flank","","","","","0.1999999999999998","0.26","0"
"","psychophysics","125","297972","0.0-125.0","6053ad542b81382607008fe2","625753655c5903843ff09989","","","","","4189","key"," "," ","16.656928286852686","500","250","flank","","","","","0.6800000000000002","0.66","1"
"","psychophysics","126","301295","0.0-126.0","6053ad542b81382607008fe2","625753655c5903843ff09989","","","","","3318","key"," "," ","16.65720202020226","500","250","flank","","","","","0.6200000000000001","0.5","0"
"","psychophysics","127","304538","0.0-127.0","6053ad542b81382607008fe2","625753655c5903843ff09989","","","","","3240","key"," "," ","16.656829896907155","500","250","flank","","","","","0.6500000000000001","0.48","1"
"","psychophysics","128","308608","0.0-128.0","6053ad542b81382607008fe2","625753655c5903843ff09989","","","","","4065","key"," "," ","16.66013991769543","500","250","flank","","","","","0.8000000000000003","0.8","1"
"","psychophysics","129","311771","0.0-129.0","6053ad542b81382607008fe2","625753655c5903843ff09989","","","","","3161","key"," "," ","16.65719576719557","500","250","flank","","","","","0.8600000000000003","0.78","1"
"","psychophysics","130","315581","0.0-130.0","6053ad542b81382607008fe2","625753655c5903843ff09989","","","","","3805","key"," "," ","16.658057017543655","500","250","flank","","","","","0.8000000000000003","0.72","0"
"","psychophysics","131","318261","0.0-131.0","6053ad542b81382607008fe2","625753655c5903843ff09989","","","","","2677","key"," "," ","16.65488125000011","500","250","flank","","","","","0.43999999999999995","0.46","1"
"","psychophysics","132","321451","0.0-132.0","6053ad542b81382607008fe2","625753655c5903843ff09989","","","","","3184","key"," "," ","16.654431578947392","500","250","flank","","","","","0.1699999999999998","0.26","1"
"","psychophysics","133","324182","0.0-133.0","6053ad542b81382607008fe2","625753655c5903843ff09989","","","","","2727","key"," "," ","16.658349693251452","500","250","flank","","","","","0.2899999999999998","0.32","1"
"","psychophysics","134","326634","0.0-134.0","6053ad542b81382607008fe2","625753655c5903843ff09989","","","","","2450","key"," "," ","16.657102739726263","500","250","flank","","","","","0.8300000000000003","0.62","0"
"","psychophysics","135","329654","0.0-135.0","6053ad542b81382607008fe2","625753655c5903843ff09989","","","","","3018","key"," "," ","16.65730386740304","500","250","flank","","","","","0.6500000000000001","0.58","1"
"true","fullscreen","136","329656","0.0-136.0","6053ad542b81382607008fe2","625753655c5903843ff09989","","","","","","","","","","","","","","","","","","",""
