"success","trial_type","trial_index","time_elapsed","internal_node_id","pid","sid","timeout","failed_images","failed_audio","failed_video","rt","response_type","key_press","response","avg_frame_time","center_x","center_y","task","ml_len","ml_start","ml_x","ml_y","resp","targ","back"
"true","fullscreen","0","2710","0.0-0.0","60ff35391f843f3efdbb5973","625755e6a8b4b0e1ddf29bc5","","","","","","","","","","","","","","","","","","",""
"true","preload","1","2712","0.0-1.0","60ff35391f843f3efdbb5973","625755e6a8b4b0e1ddf29bc5","false","[]","[]","[]","","","","","","","","","","","","","","",""
"","psychophysics","2","7220","0.0-2.0","60ff35391f843f3efdbb5973","625755e6a8b4b0e1ddf29bc5","","","","","4500","key"," "," ","7.119421800947869","500","250","inst","","","","","","",""
"","psychophysics","3","8657","0.0-3.0","60ff35391f843f3efdbb5973","625755e6a8b4b0e1ddf29bc5","","","","","1434","key"," "," ","7.092074257425743","500","250","inst","","","","","","",""
"","psychophysics","4","29362","0.0-4.0","60ff35391f843f3efdbb5973","625755e6a8b4b0e1ddf29bc5","","","","","20700","key"," "," ","7.0943615490061696","500","250","instMl","240","-40","-27","3","-21","",""
"","psychophysics","5","45824","0.0-5.0","60ff35391f843f3efdbb5973","625755e6a8b4b0e1ddf29bc5","","","","","16458","key"," "," ","7.091928448275861","500","250","instMl","218","-36.333333333333336","22","16","-18.333333333333258","",""
"","psychophysics","6","49802","0.0-6.0","60ff35391f843f3efdbb5973","625755e6a8b4b0e1ddf29bc5","","","","","3974","key"," "," ","7.092001785714287","500","250","inst","","","","","","",""
"","psychophysics","7","58018","0.0-7.0","60ff35391f843f3efdbb5973","625755e6a8b4b0e1ddf29bc5","","","","","8213","key"," "," ","7.091873811581679","500","250","ml","168","33","8","-13","-12","",""
"","psychophysics","8","65418","0.0-8.0","60ff35391f843f3efdbb5973","625755e6a8b4b0e1ddf29bc5","","","","","7395","key"," "," ","7.091925215723871","500","250","ml","188","17","5","7","-12","",""
"","psychophysics","9","69770","0.0-9.0","60ff35391f843f3efdbb5973","625755e6a8b4b0e1ddf29bc5","","","","","4348","key"," "," ","7.091895424836586","500","250","ml","156","-22","-29","21","-19","",""
"","psychophysics","10","76740","0.0-10.0","60ff35391f843f3efdbb5973","625755e6a8b4b0e1ddf29bc5","","","","","6965","key"," "," ","7.091971486761717","500","250","ml","158","32","27","-25","-14","",""
"","psychophysics","11","81615","0.0-11.0","60ff35391f843f3efdbb5973","625755e6a8b4b0e1ddf29bc5","","","","","4870","key"," "," ","7.091922852983985","500","250","ml","168","-40","15","-21","-19","",""
"","psychophysics","12","87935","0.0-12.0","60ff35391f843f3efdbb5973","625755e6a8b4b0e1ddf29bc5","","","","","6316","key"," "," ","7.091944943820231","500","250","ml","216","23","-17","-9","-16","",""
"","psychophysics","13","90742","0.0-13.0","60ff35391f843f3efdbb5973","625755e6a8b4b0e1ddf29bc5","","","","","2803","key"," "," ","7.092048223350235","500","250","ml","204","-15","22","-26","-15","",""
"","psychophysics","14","95431","0.0-14.0","60ff35391f843f3efdbb5973","625755e6a8b4b0e1ddf29bc5","","","","","4685","key"," "," ","7.091857791225428","500","250","ml","240","-48","25","13","-16","",""
"","psychophysics","15","100718","0.0-15.0","60ff35391f843f3efdbb5973","625755e6a8b4b0e1ddf29bc5","","","","","5283","key"," "," ","7.091861559139787","500","250","ml","230","-54","30","-5","-15","",""
"","psychophysics","16","107086","0.0-16.0","60ff35391f843f3efdbb5973","625755e6a8b4b0e1ddf29bc5","","","","","6364","key"," "," ","7.091926421404681","500","250","ml","176","26","0","2","-13","",""
"","psychophysics","17","111208","0.0-17.0","60ff35391f843f3efdbb5973","625755e6a8b4b0e1ddf29bc5","","","","","4116","key"," "," ","7.091912068965507","500","250","ml","224","-26","-30","-25","-19","",""
"","psychophysics","18","113657","0.0-18.0","60ff35391f843f3efdbb5973","625755e6a8b4b0e1ddf29bc5","","","","","2447","key"," "," ","7.092130434782619","500","250","ml","184","-22","21","-12","-21","",""
"","psychophysics","19","117919","0.0-19.0","60ff35391f843f3efdbb5973","625755e6a8b4b0e1ddf29bc5","","","","","4258","key"," "," ","7.091916666666657","500","250","ml","242","25","-16","30","-17","",""
"","psychophysics","20","127174","0.0-20.0","60ff35391f843f3efdbb5973","625755e6a8b4b0e1ddf29bc5","","","","","9251","key"," "," ","7.091956288343553","500","250","ml","224","43","-13","12","-16","",""
"","psychophysics","21","129514","0.0-21.0","60ff35391f843f3efdbb5973","625755e6a8b4b0e1ddf29bc5","","","","","2336","key"," "," ","7.091771341463399","500","250","ml","212","-6","29","-7","-9","",""
"","psychophysics","22","131091","0.0-22.0","60ff35391f843f3efdbb5973","625755e6a8b4b0e1ddf29bc5","","","","","1575","key"," "," ","7.091536036035953","500","250","inst","","","","","","",""
"","psychophysics","23","146833","0.0-23.0","60ff35391f843f3efdbb5973","625755e6a8b4b0e1ddf29bc5","","","","","15738","key"," "," ","7.091953110910726","500","250","instPog","","","","","130","130",""
"","psychophysics","24","156070","0.0-24.0","60ff35391f843f3efdbb5973","625755e6a8b4b0e1ddf29bc5","","","","","9230","key"," "," ","7.091811827956981","500","250","instPog","","","","","141","130",""
"","psychophysics","25","169471","0.0-25.0","60ff35391f843f3efdbb5973","625755e6a8b4b0e1ddf29bc5","","","","","13399","key"," "," ","7.092083112758061","500","250","instPog","","","","","147","130",""
"","psychophysics","26","171461","0.0-26.0","60ff35391f843f3efdbb5973","625755e6a8b4b0e1ddf29bc5","","","","","1985","key"," "," ","7.092279569892522","500","250","inst","","","","","","",""
"","psychophysics","27","177886","0.0-27.0","60ff35391f843f3efdbb5973","625755e6a8b4b0e1ddf29bc5","","","","","6422","key"," "," ","7.091930386740316","500","250","pog","","","","","209","200",""
"","psychophysics","28","184336","0.0-28.0","60ff35391f843f3efdbb5973","625755e6a8b4b0e1ddf29bc5","","","","","6445","key"," "," ","7.099736784140955","500","250","pog","","","","","206","197",""
"","psychophysics","29","189832","0.0-29.0","60ff35391f843f3efdbb5973","625755e6a8b4b0e1ddf29bc5","","","","","5494","key"," "," ","7.091968992248073","500","250","pog","","","","","143","125",""
"","psychophysics","30","202920","0.0-30.0","60ff35391f843f3efdbb5973","625755e6a8b4b0e1ddf29bc5","","","","","13086","key"," "," ","7.091948481561814","500","250","pog","","","","","137","125",""
"","psychophysics","31","207780","0.0-31.0","60ff35391f843f3efdbb5973","625755e6a8b4b0e1ddf29bc5","","","","","4858","key"," "," ","7.092013138686145","500","250","pog","","","","","160","140",""
"","psychophysics","32","221338","0.0-32.0","60ff35391f843f3efdbb5973","625755e6a8b4b0e1ddf29bc5","","","","","13557","key"," "," ","7.091839351125068","500","250","pog","","","","","185","170",""
"","psychophysics","33","222645","0.0-33.0","60ff35391f843f3efdbb5973","625755e6a8b4b0e1ddf29bc5","","","","","1305","key"," "," ","7.089989071038215","500","250","pog","","","","","160","154",""
"","psychophysics","34","234585","0.0-34.0","60ff35391f843f3efdbb5973","625755e6a8b4b0e1ddf29bc5","","","","","11938","key"," "," ","7.091904280618319","500","250","pog","","","","","154","141",""
"","psychophysics","35","240303","0.0-35.0","60ff35391f843f3efdbb5973","625755e6a8b4b0e1ddf29bc5","","","","","5709","key"," "," ","7.091955334987568","500","250","pog","","","","","133","122",""
"","psychophysics","36","247310","0.0-36.0","60ff35391f843f3efdbb5973","625755e6a8b4b0e1ddf29bc5","","","","","7005","key"," "," ","7.091637284701111","500","250","pog","","","","","179","168",""
"","psychophysics","37","251217","0.0-37.0","60ff35391f843f3efdbb5973","625755e6a8b4b0e1ddf29bc5","","","","","3905","key"," "," ","7.091852727272728","500","250","pog","","","","","178","173",""
"","psychophysics","38","252516","0.0-38.0","60ff35391f843f3efdbb5973","625755e6a8b4b0e1ddf29bc5","","","","","1297","key"," "," ","7.086593406593458","500","250","pog","","","","","160","147",""
"","psychophysics","39","254135","0.0-39.0","60ff35391f843f3efdbb5973","625755e6a8b4b0e1ddf29bc5","","","","","1616","key"," "," ","7.091907488986838","500","250","pog","","","","","160","141",""
"","psychophysics","40","259030","0.0-40.0","60ff35391f843f3efdbb5973","625755e6a8b4b0e1ddf29bc5","","","","","4893","key"," "," ","7.091880986937565","500","250","pog","","","","","149","133",""
"","psychophysics","41","260388","0.0-41.0","60ff35391f843f3efdbb5973","625755e6a8b4b0e1ddf29bc5","","","","","1356","key"," "," ","7.092361256544519","500","250","pog","","","","","160","138",""
"","psychophysics","42","262976","0.0-42.0","60ff35391f843f3efdbb5973","625755e6a8b4b0e1ddf29bc5","","","","","2586","key"," "," ","7.091895604395557","500","250","inst","","","","","","",""
"","psychophysics","43","265868","0.0-43.0","60ff35391f843f3efdbb5973","625755e6a8b4b0e1ddf29bc5","","","","","2890","key"," "," ","7.092108374384256","500","250","instTilt","","","","","NaN","0","0"
"","psychophysics","44","268831","0.0-44.0","60ff35391f843f3efdbb5973","625755e6a8b4b0e1ddf29bc5","","","","","2961","key"," "," ","7.091985611510809","500","250","instTilt","","","","","0","0","0"
"","psychophysics","45","279799","0.0-45.0","60ff35391f843f3efdbb5973","625755e6a8b4b0e1ddf29bc5","","","","","10967","key"," "," ","7.091946959896522","500","250","instTilt","","","","","0","0","0"
"","psychophysics","46","282158","0.0-46.0","60ff35391f843f3efdbb5973","625755e6a8b4b0e1ddf29bc5","","","","","2357","key"," "," ","7.091839879154182","500","250","inst","","","","","","",""
"","psychophysics","47","286561","0.0-47.0","60ff35391f843f3efdbb5973","625755e6a8b4b0e1ddf29bc5","","","","","4401","key"," "," ","7.091970967741931","500","250","tilt","","","","","9","7","0"
"","psychophysics","48","290973","0.0-48.0","60ff35391f843f3efdbb5973","625755e6a8b4b0e1ddf29bc5","","","","","4410","key"," "," ","7.091872785829331","500","250","tilt","","","","","-10","-7","0"
"","psychophysics","49","294720","0.0-49.0","60ff35391f843f3efdbb5973","625755e6a8b4b0e1ddf29bc5","","","","","3745","key"," "," ","7.092518939393895","500","250","tilt","","","","","-5","-10","0"
"","psychophysics","50","298603","0.0-50.0","60ff35391f843f3efdbb5973","625755e6a8b4b0e1ddf29bc5","","","","","3881","key"," "," ","7.091965201465181","500","250","tilt","","","","","7","6","0"
"","psychophysics","51","300703","0.0-51.0","60ff35391f843f3efdbb5973","625755e6a8b4b0e1ddf29bc5","","","","","2097","key"," "," ","7.091969491525403","500","250","tilt","","","","","2","2","1"
"","psychophysics","52","303878","0.0-52.0","60ff35391f843f3efdbb5973","625755e6a8b4b0e1ddf29bc5","","","","","3173","key"," "," ","7.092044742729242","500","250","tilt","","","","","-1","-1","1"
"","psychophysics","53","307890","0.0-53.0","60ff35391f843f3efdbb5973","625755e6a8b4b0e1ddf29bc5","","","","","4010","key"," "," ","7.092153982300954","500","250","tilt","","","","","-5","-5","1"
"","psychophysics","54","311582","0.0-54.0","60ff35391f843f3efdbb5973","625755e6a8b4b0e1ddf29bc5","","","","","3690","key"," "," ","7.09197109826591","500","250","tilt","","","","","6","2","0"
"","psychophysics","55","313568","0.0-55.0","60ff35391f843f3efdbb5973","625755e6a8b4b0e1ddf29bc5","","","","","1984","key"," "," ","7.091824372759878","500","250","tilt","","","","","-5","-7","1"
"","psychophysics","56","314907","0.0-56.0","60ff35391f843f3efdbb5973","625755e6a8b4b0e1ddf29bc5","","","","","1337","key"," "," ","7.0919734042554605","500","250","tilt","","","","","0","-2","0"
"","psychophysics","57","321485","0.0-57.0","60ff35391f843f3efdbb5973","625755e6a8b4b0e1ddf29bc5","","","","","6575","key"," "," ","7.091933117583612","500","250","tilt","","","","","-10","-5","1"
"","psychophysics","58","326335","0.0-58.0","60ff35391f843f3efdbb5973","625755e6a8b4b0e1ddf29bc5","","","","","4849","key"," "," ","7.092250366032271","500","250","tilt","","","","","-6","-6","0"
"","psychophysics","59","329831","0.0-59.0","60ff35391f843f3efdbb5973","625755e6a8b4b0e1ddf29bc5","","","","","3494","key"," "," ","7.091985772357689","500","250","tilt","","","","","-7","-5","1"
"","psychophysics","60","332786","0.0-60.0","60ff35391f843f3efdbb5973","625755e6a8b4b0e1ddf29bc5","","","","","2953","key"," "," ","7.092828915662732","500","250","tilt","","","","","10","8","0"
"","psychophysics","61","338369","0.0-61.0","60ff35391f843f3efdbb5973","625755e6a8b4b0e1ddf29bc5","","","","","5580","key"," "," ","7.092180661577569","500","250","tilt","","","","","10","7","0"
"","psychophysics","62","342259","0.0-62.0","60ff35391f843f3efdbb5973","625755e6a8b4b0e1ddf29bc5","","","","","3888","key"," "," ","7.091937956204349","500","250","tilt","","","","","9","9","0"
"","psychophysics","63","344427","0.0-63.0","60ff35391f843f3efdbb5973","625755e6a8b4b0e1ddf29bc5","","","","","2166","key"," "," ","7.092337704918035","500","250","tilt","","","","","4","2","0"
"","psychophysics","64","347333","0.0-64.0","60ff35391f843f3efdbb5973","625755e6a8b4b0e1ddf29bc5","","","","","2904","key"," "," ","7.091992647058813","500","250","tilt","","","","","-1","-3","0"
"","psychophysics","65","349885","0.0-65.0","60ff35391f843f3efdbb5973","625755e6a8b4b0e1ddf29bc5","","","","","2549","key"," "," ","7.092005571030718","500","250","tilt","","","","","6","2","0"
"","psychophysics","66","351952","0.0-66.0","60ff35391f843f3efdbb5973","625755e6a8b4b0e1ddf29bc5","","","","","2065","key"," "," ","7.092006872852351","500","250","tilt","","","","","-4","-9","0"
"","psychophysics","67","357713","0.0-67.0","60ff35391f843f3efdbb5973","625755e6a8b4b0e1ddf29bc5","","","","","5758","key"," "," ","7.091953144266293","500","250","tilt","","","","","-12","-10","1"
"","psychophysics","68","362396","0.0-68.0","60ff35391f843f3efdbb5973","625755e6a8b4b0e1ddf29bc5","","","","","4681","key"," "," ","7.0918603945372105","500","250","tilt","","","","","13","9","1"
"","psychophysics","69","365507","0.0-69.0","60ff35391f843f3efdbb5973","625755e6a8b4b0e1ddf29bc5","","","","","3108","key"," "," ","7.0920091324201975","500","250","tilt","","","","","6","3","1"
"","psychophysics","70","370025","0.0-70.0","60ff35391f843f3efdbb5973","625755e6a8b4b0e1ddf29bc5","","","","","4516","key"," "," ","7.092504716981107","500","250","tilt","","","","","-5","-4","1"
"","psychophysics","71","374690","0.0-71.0","60ff35391f843f3efdbb5973","625755e6a8b4b0e1ddf29bc5","","","","","4663","key"," "," ","7.09246423135457","500","250","tilt","","","","","4","8","1"
"","psychophysics","72","376715","0.0-72.0","60ff35391f843f3efdbb5973","625755e6a8b4b0e1ddf29bc5","","","","","2023","key"," "," ","7.091999999999887","500","250","tilt","","","","","-3","-4","1"
"","psychophysics","73","378031","0.0-73.0","60ff35391f843f3efdbb5973","625755e6a8b4b0e1ddf29bc5","","","","","1314","key"," "," ","7.091913513513282","500","250","tilt","","","","","-3","-4","1"
"","psychophysics","74","380614","0.0-74.0","60ff35391f843f3efdbb5973","625755e6a8b4b0e1ddf29bc5","","","","","2582","key"," "," ","7.091977961432444","500","250","tilt","","","","","0","-2","0"
"","psychophysics","75","382135","0.0-75.0","60ff35391f843f3efdbb5973","625755e6a8b4b0e1ddf29bc5","","","","","1518","key"," "," ","7.092186915887863","500","250","tilt","","","","","-4","-9","0"
"","psychophysics","76","387805","0.0-76.0","60ff35391f843f3efdbb5973","625755e6a8b4b0e1ddf29bc5","","","","","5669","key"," "," ","7.091882205513766","500","250","tilt","","","","","4","6","1"
"","psychophysics","77","389730","0.0-77.0","60ff35391f843f3efdbb5973","625755e6a8b4b0e1ddf29bc5","","","","","1924","key"," "," ","7.092014760147554","500","250","inst","","","","","","",""
"","psychophysics","78","393971","0.0-78.0","60ff35391f843f3efdbb5973","625755e6a8b4b0e1ddf29bc5","","","","","4239","key"," "," ","7.091864321608029","500","250","instPz","","","","","50","50",""
"","psychophysics","79","402654","0.0-79.0","60ff35391f843f3efdbb5973","625755e6a8b4b0e1ddf29bc5","","","","","8681","key"," "," ","7.0920768601798745","500","250","instPz","","","","","46","50",""
"","psychophysics","80","406595","0.0-80.0","60ff35391f843f3efdbb5973","625755e6a8b4b0e1ddf29bc5","","","","","3938","key"," "," ","7.092005405405343","500","250","instPz","","","","","27","30",""
"","psychophysics","81","415360","0.0-81.0","60ff35391f843f3efdbb5973","625755e6a8b4b0e1ddf29bc5","","","","","8763","key"," "," ","7.091898785425098","500","250","instPz","","","","","37","40",""
"","psychophysics","82","416122","0.0-82.0","60ff35391f843f3efdbb5973","625755e6a8b4b0e1ddf29bc5","","","","","760","key"," "," ","7.09194339622627","500","250","inst","","","","","","",""
"","psychophysics","83","419760","0.0-83.0","60ff35391f843f3efdbb5973","625755e6a8b4b0e1ddf29bc5","","","","","3637","key"," "," ","7.092062499999997","500","250","pz","","","","","36","37",""
"","psychophysics","84","423688","0.0-84.0","60ff35391f843f3efdbb5973","625755e6a8b4b0e1ddf29bc5","","","","","3926","key"," "," ","7.0920542495478465","500","250","pz","","","","","31","31",""
"","psychophysics","85","428086","0.0-85.0","60ff35391f843f3efdbb5973","625755e6a8b4b0e1ddf29bc5","","","","","4396","key"," "," ","7.091873990306939","500","250","pz","","","","","49","49",""
"","psychophysics","86","434523","0.0-86.0","60ff35391f843f3efdbb5973","625755e6a8b4b0e1ddf29bc5","","","","","6429","key"," "," ","7.091869900771776","500","250","pz","","","","","39","28",""
"","psychophysics","87","442618","0.0-87.0","60ff35391f843f3efdbb5973","625755e6a8b4b0e1ddf29bc5","","","","","8094","key"," "," ","7.09186929824564","500","250","pz","","","","","35","28",""
"","psychophysics","88","451604","0.0-88.0","60ff35391f843f3efdbb5973","625755e6a8b4b0e1ddf29bc5","","","","","8983","key"," "," ","7.091944707740918","500","250","pz","","","","","37","29",""
"","psychophysics","89","459578","0.0-89.0","60ff35391f843f3efdbb5973","625755e6a8b4b0e1ddf29bc5","","","","","7973","key"," "," ","7.091941281138793","500","250","pz","","","","","76","59",""
"","psychophysics","90","462430","0.0-90.0","60ff35391f843f3efdbb5973","625755e6a8b4b0e1ddf29bc5","","","","","2851","key"," "," ","7.09179551122194","500","250","pz","","","","","30","24",""
"","psychophysics","91","466975","0.0-91.0","60ff35391f843f3efdbb5973","625755e6a8b4b0e1ddf29bc5","","","","","4543","key"," "," ","7.091171874999963","500","250","pz","","","","","67","59",""
"","psychophysics","92","471366","0.0-92.0","60ff35391f843f3efdbb5973","625755e6a8b4b0e1ddf29bc5","","","","","4388","key"," "," ","7.091686084142413","500","250","pz","","","","","32","22",""
"","psychophysics","93","477009","0.0-93.0","60ff35391f843f3efdbb5973","625755e6a8b4b0e1ddf29bc5","","","","","5641","key"," "," ","7.0918400503778","500","250","pz","","","","","57","47",""
"","psychophysics","94","481875","0.0-94.0","60ff35391f843f3efdbb5973","625755e6a8b4b0e1ddf29bc5","","","","","4864","key"," "," ","7.0918935860059005","500","250","pz","","","","","51","43",""
"","psychophysics","95","486413","0.0-95.0","60ff35391f843f3efdbb5973","625755e6a8b4b0e1ddf29bc5","","","","","4535","key"," "," ","7.091797805642603","500","250","pz","","","","","53","39",""
"","psychophysics","96","492022","0.0-96.0","60ff35391f843f3efdbb5973","625755e6a8b4b0e1ddf29bc5","","","","","5607","key"," "," ","7.0919645569620275","500","250","pz","","","","","72","58",""
"","psychophysics","97","494861","0.0-97.0","60ff35391f843f3efdbb5973","625755e6a8b4b0e1ddf29bc5","","","","","2836","key"," "," ","7.092062500000029","500","250","pz","","","","","34","26",""
"","psychophysics","98","497022","0.0-98.0","60ff35391f843f3efdbb5973","625755e6a8b4b0e1ddf29bc5","","","","","2159","key"," "," ","7.091818481848173","500","250","inst","","","","","","",""
"","psychophysics","99","502036","0.0-99.0","60ff35391f843f3efdbb5973","625755e6a8b4b0e1ddf29bc5","","","","","5013","key"," "," ","7.092022662889591","500","250","inst","","","","","","",""
"","psychophysics","100","508294","0.0-100.0","60ff35391f843f3efdbb5973","625755e6a8b4b0e1ddf29bc5","","","","","6255","key"," "," ","7.09186961451245","500","250","instFlank","","","","","0.5","0.3","1"
"","psychophysics","101","515701","0.0-101.0","60ff35391f843f3efdbb5973","625755e6a8b4b0e1ddf29bc5","","","","","7404","key"," "," ","7.091924256951082","500","250","inst","","","","","","",""
"","psychophysics","102","523037","0.0-102.0","60ff35391f843f3efdbb5973","625755e6a8b4b0e1ddf29bc5","","","","","7333","key"," "," ","7.091930367504818","500","250","instFlank","","","","","0.4099999999999999","0.3","1"
"","psychophysics","103","527481","0.0-103.0","60ff35391f843f3efdbb5973","625755e6a8b4b0e1ddf29bc5","","","","","4443","key"," "," ","7.091996800000034","500","250","inst","","","","","","",""
"","psychophysics","104","531156","0.0-104.0","60ff35391f843f3efdbb5973","625755e6a8b4b0e1ddf29bc5","","","","","3672","key"," "," ","7.091976833976778","500","250","instFlank","","","","","0.43999999999999995","0.3","0"
"","psychophysics","105","533373","0.0-105.0","60ff35391f843f3efdbb5973","625755e6a8b4b0e1ddf29bc5","","","","","2214","key"," "," ","7.09166559485503","500","250","inst","","","","","","",""
"","psychophysics","106","536595","0.0-106.0","60ff35391f843f3efdbb5973","625755e6a8b4b0e1ddf29bc5","","","","","3220","key"," "," ","7.0918256070639085","500","250","flank","","","","","0.6200000000000001","0.66","1"
"","psychophysics","107","539091","0.0-107.0","60ff35391f843f3efdbb5973","625755e6a8b4b0e1ddf29bc5","","","","","2494","key"," "," ","7.091925925926101","500","250","flank","","","","","0.5","0.48","1"
"","psychophysics","108","543065","0.0-108.0","60ff35391f843f3efdbb5973","625755e6a8b4b0e1ddf29bc5","","","","","3972","key"," "," ","7.092051785714284","500","250","flank","","","","","0.53","0.46","0"
"","psychophysics","109","546836","0.0-109.0","60ff35391f843f3efdbb5973","625755e6a8b4b0e1ddf29bc5","","","","","3769","key"," "," ","7.091679849340922","500","250","flank","","","","","0.2299999999999998","0.26","1"
"","psychophysics","110","550013","0.0-110.0","60ff35391f843f3efdbb5973","625755e6a8b4b0e1ddf29bc5","","","","","3175","key"," "," ","7.091755605381057","500","250","flank","","","","","0.8600000000000003","0.8","0"
"","psychophysics","111","552836","0.0-111.0","60ff35391f843f3efdbb5973","625755e6a8b4b0e1ddf29bc5","","","","","2821","key"," "," ","7.092095717884217","500","250","flank","","","","","0.56","0.42","0"
"","psychophysics","112","555901","0.0-112.0","60ff35391f843f3efdbb5973","625755e6a8b4b0e1ddf29bc5","","","","","3063","key"," "," ","7.092048611111143","500","250","flank","","","","","0.34999999999999987","0.3","1"
"","psychophysics","113","558350","0.0-113.0","60ff35391f843f3efdbb5973","625755e6a8b4b0e1ddf29bc5","","","","","2447","key"," "," ","7.0919389534883095","500","250","flank","","","","","0.5","0.38","0"
"","psychophysics","114","561248","0.0-114.0","60ff35391f843f3efdbb5973","625755e6a8b4b0e1ddf29bc5","","","","","2895","key"," "," ","7.092642156862912","500","250","flank","","","","","0.53","0.52","1"
"","psychophysics","115","563893","0.0-115.0","60ff35391f843f3efdbb5973","625755e6a8b4b0e1ddf29bc5","","","","","2644","key"," "," ","7.091736559139912","500","250","flank","","","","","0.5900000000000001","0.6","0"
"","psychophysics","116","567000","0.0-116.0","60ff35391f843f3efdbb5973","625755e6a8b4b0e1ddf29bc5","","","","","3105","key"," "," ","7.092052631578845","500","250","flank","","","","","0.2899999999999998","0.24","0"
"","psychophysics","117","570484","0.0-117.0","60ff35391f843f3efdbb5973","625755e6a8b4b0e1ddf29bc5","","","","","3482","key"," "," ","7.091904081632526","500","250","flank","","","","","0.7400000000000002","0.7","1"
"","psychophysics","118","573083","0.0-118.0","60ff35391f843f3efdbb5973","625755e6a8b4b0e1ddf29bc5","","","","","2597","key"," "," ","7.0918821917808526","500","250","flank","","","","","0.4099999999999999","0.32","0"
"","psychophysics","119","575376","0.0-119.0","60ff35391f843f3efdbb5973","625755e6a8b4b0e1ddf29bc5","","","","","2291","key"," "," ","7.091798761609766","500","250","flank","","","","","0.56","0.56","1"
"","psychophysics","120","578880","0.0-120.0","60ff35391f843f3efdbb5973","625755e6a8b4b0e1ddf29bc5","","","","","3501","key"," "," ","7.09185598377265","500","250","flank","","","","","0.4099999999999999","0.46","1"
"","psychophysics","121","581915","0.0-121.0","60ff35391f843f3efdbb5973","625755e6a8b4b0e1ddf29bc5","","","","","3033","key"," "," ","7.092016393442549","500","250","flank","","","","","0.6800000000000002","0.64","1"
"","psychophysics","122","584877","0.0-122.0","60ff35391f843f3efdbb5973","625755e6a8b4b0e1ddf29bc5","","","","","2960","key"," "," ","7.091759615384385","500","250","flank","","","","","0.4099999999999999","0.4","1"
"","psychophysics","123","588657","0.0-123.0","60ff35391f843f3efdbb5973","625755e6a8b4b0e1ddf29bc5","","","","","3777","key"," "," ","7.091857142857174","500","250","flank","","","","","0.7400000000000002","0.7","1"
"","psychophysics","124","591149","0.0-124.0","60ff35391f843f3efdbb5973","625755e6a8b4b0e1ddf29bc5","","","","","2490","key"," "," ","7.092128205128038","500","250","flank","","","","","0.5900000000000001","0.56","1"
"","psychophysics","125","593622","0.0-125.0","60ff35391f843f3efdbb5973","625755e6a8b4b0e1ddf29bc5","","","","","2471","key"," "," ","7.091729106628121","500","250","flank","","","","","0.56","0.5","1"
"","psychophysics","126","596011","0.0-126.0","60ff35391f843f3efdbb5973","625755e6a8b4b0e1ddf29bc5","","","","","2387","key"," "," ","7.091940476190454","500","250","flank","","","","","0.53","0.54","0"
"","psychophysics","127","599893","0.0-127.0","60ff35391f843f3efdbb5973","625755e6a8b4b0e1ddf29bc5","","","","","3879","key"," "," ","7.091767824497338","500","250","flank","","","","","0.7700000000000002","0.74","0"
"","psychophysics","128","602499","0.0-128.0","60ff35391f843f3efdbb5973","625755e6a8b4b0e1ddf29bc5","","","","","2605","key"," "," ","7.091713114753887","500","250","flank","","","","","0.6200000000000001","0.54","1"
"","psychophysics","129","604900","0.0-129.0","60ff35391f843f3efdbb5973","625755e6a8b4b0e1ddf29bc5","","","","","2398","key"," "," ","7.091911242603525","500","250","flank","","","","","0.5","0.46","0"
"","psychophysics","130","607110","0.0-130.0","60ff35391f843f3efdbb5973","625755e6a8b4b0e1ddf29bc5","","","","","2208","key"," "," ","7.092274193548327","500","250","flank","","","","","0.53","0.58","1"
"","psychophysics","131","609900","0.0-131.0","60ff35391f843f3efdbb5973","625755e6a8b4b0e1ddf29bc5","","","","","2788","key"," "," ","7.092089058524151","500","250","flank","","","","","0.6800000000000002","0.68","1"
"","psychophysics","132","612474","0.0-132.0","60ff35391f843f3efdbb5973","625755e6a8b4b0e1ddf29bc5","","","","","2572","key"," "," ","7.092063535911736","500","250","flank","","","","","0.6200000000000001","0.54","1"
"","psychophysics","133","616223","0.0-133.0","60ff35391f843f3efdbb5973","625755e6a8b4b0e1ddf29bc5","","","","","3746","key"," "," ","7.0919316888045065","500","250","flank","","","","","0.8300000000000003","0.76","1"
"","psychophysics","134","619463","0.0-134.0","60ff35391f843f3efdbb5973","625755e6a8b4b0e1ddf29bc5","","","","","3238","key"," "," ","7.091958333333247","500","250","flank","","","","","0.7400000000000002","0.66","0"
"","psychophysics","135","622053","0.0-135.0","60ff35391f843f3efdbb5973","625755e6a8b4b0e1ddf29bc5","","","","","2587","key"," "," ","7.091824175824173","500","250","flank","","","","","0.6500000000000001","0.54","1"
"true","fullscreen","136","622055","0.0-136.0","60ff35391f843f3efdbb5973","625755e6a8b4b0e1ddf29bc5","","","","","","","","","","","","","","","","","","",""
