"success","trial_type","trial_index","time_elapsed","internal_node_id","pid","sid","timeout","failed_images","failed_audio","failed_video","rt","response_type","key_press","response","avg_frame_time","center_x","center_y","task","ml_len","ml_start","ml_x","ml_y","resp","targ","back"
"true","fullscreen","0","3704","0.0-0.0","5ef764821269f404a08607d7","625758858a1203721bdf81c7","","","","","","","","","","","","","","","","","","",""
"true","preload","1","3717","0.0-1.0","5ef764821269f404a08607d7","625758858a1203721bdf81c7","false","[]","[]","[]","","","","","","","","","","","","","","",""
"","psychophysics","2","7557","0.0-2.0","5ef764821269f404a08607d7","625758858a1203721bdf81c7","","","","","3809","key"," "," ","16.854657894736846","500","250","inst","","","","","","",""
"","psychophysics","3","9555","0.0-3.0","5ef764821269f404a08607d7","625758858a1203721bdf81c7","","","","","1988","key"," "," ","16.700428571428578","500","250","inst","","","","","","",""
"","psychophysics","4","54693","0.0-4.0","5ef764821269f404a08607d7","625758858a1203721bdf81c7","","","","","45132","key"," "," ","16.700005551443375","500","250","instMl","234","-39","-23","-21","-23","",""
"","psychophysics","5","75067","0.0-5.0","5ef764821269f404a08607d7","625758858a1203721bdf81c7","","","","","20367","key"," "," ","16.69999425758819","500","250","instMl","214","-35.666666666666664","-16","0","-19.666666666666686","",""
"","psychophysics","6","81061","0.0-6.0","5ef764821269f404a08607d7","625758858a1203721bdf81c7","","","","","5988","key"," "," ","16.700396648044688","500","250","inst","","","","","","",""
"","psychophysics","7","95227","0.0-7.0","5ef764821269f404a08607d7","625758858a1203721bdf81c7","","","","","14160","key"," "," ","16.69966824085005","500","250","ml","180","23","6","-28","-15","",""
"","psychophysics","8","141894","0.0-8.0","5ef764821269f404a08607d7","625758858a1203721bdf81c7","","","","","46663","key"," "," ","16.699973147153596","500","250","ml","226","-17","8","18","-18","",""
"","psychophysics","9","242008","0.0-9.0","5ef764821269f404a08607d7","625758858a1203721bdf81c7","","","","","100104","key"," "," ","16.699981815148487","500","250","ml","192","10","-16","-2","-17","",""
"","psychophysics","10","260849","0.0-10.0","5ef764821269f404a08607d7","625758858a1203721bdf81c7","","","","","18832","key"," "," ","16.70009316770187","500","250","ml","166","-9","5","8","-13","",""
"","psychophysics","11","278933","0.0-11.0","5ef764821269f404a08607d7","625758858a1203721bdf81c7","","","","","18076","key"," "," ","16.69987985212571","500","250","ml","216","-16","-6","18","-17","",""
"","psychophysics","12","318238","0.0-12.0","5ef764821269f404a08607d7","625758858a1203721bdf81c7","","","","","39297","key"," "," ","16.70001444963877","500","250","ml","224","-37","0","20","-18","",""
"","psychophysics","13","341139","0.0-13.0","5ef764821269f404a08607d7","625758858a1203721bdf81c7","","","","","22895","key"," "," ","16.699984671532842","500","250","ml","202","-41","-14","5","-17","",""
"","psychophysics","14","371325","0.0-14.0","5ef764821269f404a08607d7","625758858a1203721bdf81c7","","","","","30177","key"," "," ","16.69986164914224","500","250","ml","218","-34","-24","-15","-19","",""
"","psychophysics","15","409061","0.0-15.0","5ef764821269f404a08607d7","625758858a1203721bdf81c7","","","","","37730","key"," "," ","16.700027015057557","500","250","ml","190","13","5","6","-17","",""
"","psychophysics","16","439004","0.0-16.0","5ef764821269f404a08607d7","625758858a1203721bdf81c7","","","","","29934","key"," "," ","16.69997377232143","500","250","ml","152","36","13","-9","-11","",""
"","psychophysics","17","464336","0.0-17.0","5ef764821269f404a08607d7","625758858a1203721bdf81c7","","","","","25325","key"," "," ","16.699979551451182","500","250","ml","170","-23","17","30","-13","",""
"","psychophysics","18","522724","0.0-18.0","5ef764821269f404a08607d7","625758858a1203721bdf81c7","","","","","58379","key"," "," ","16.69992477116706","500","250","ml","192","20","-19","7","-13","",""
"","psychophysics","19","543316","0.0-19.0","5ef764821269f404a08607d7","625758858a1203721bdf81c7","","","","","20585","key"," "," ","16.699890422077935","500","250","ml","226","20","-18","17","-14","",""
"","psychophysics","20","635132","0.0-20.0","5ef764821269f404a08607d7","625758858a1203721bdf81c7","","","","","91810","key"," "," ","16.69999490631255","500","250","ml","168","28","24","19","-12","",""
"","psychophysics","21","649895","0.0-21.0","5ef764821269f404a08607d7","625758858a1203721bdf81c7","","","","","14757","key"," "," ","16.700024915062258","500","250","ml","192","10","6","27","-13","",""
"","psychophysics","22","652168","0.0-22.0","5ef764821269f404a08607d7","625758858a1203721bdf81c7","","","","","2267","key"," "," ","16.69997037037069","500","250","inst","","","","","","",""
"","psychophysics","23","729748","0.0-23.0","5ef764821269f404a08607d7","625758858a1203721bdf81c7","","","","","77575","key"," "," ","16.700017441860478","500","250","instPog","","","","","131","130",""
"","psychophysics","24","931106","0.0-24.0","5ef764821269f404a08607d7","625758858a1203721bdf81c7","","","","","201348","key"," "," ","16.69998399270134","500","250","instPog","","","","","221","130",""
"","psychophysics","25","975144","0.0-25.0","5ef764821269f404a08607d7","625758858a1203721bdf81c7","","","","","44032","key"," "," ","16.70000303490136","500","250","instPog","","","","","153","130",""
"","psychophysics","26","981632","0.0-26.0","5ef764821269f404a08607d7","625758858a1203721bdf81c7","","","","","6482","key"," "," ","16.699770025839758","500","250","inst","","","","","","",""
"","psychophysics","27","995922","0.0-27.0","5ef764821269f404a08607d7","625758858a1203721bdf81c7","","","","","14282","key"," "," ","16.700244444444483","500","250","pog","","","","","222","194",""
"","psychophysics","28","1008989","0.0-28.0","5ef764821269f404a08607d7","625758858a1203721bdf81c7","","","","","13061","key"," "," ","16.700295774648012","500","250","pog","","","","","160","136",""
"","psychophysics","29","1025751","0.0-29.0","5ef764821269f404a08607d7","625758858a1203721bdf81c7","","","","","16754","key"," "," ","16.699964107676983","500","250","pog","","","","","179","161",""
"","psychophysics","30","1040223","0.0-30.0","5ef764821269f404a08607d7","625758858a1203721bdf81c7","","","","","14468","key"," "," ","16.699959584295655","500","250","pog","","","","","151","129",""
"","psychophysics","31","1048439","0.0-31.0","5ef764821269f404a08607d7","625758858a1203721bdf81c7","","","","","8209","key"," "," ","16.700114052953264","500","250","pog","","","","","161","137",""
"","psychophysics","32","1070149","0.0-32.0","5ef764821269f404a08607d7","625758858a1203721bdf81c7","","","","","21705","key"," "," ","16.69998922247889","500","250","pog","","","","","155","134",""
"","psychophysics","33","1081126","0.0-33.0","5ef764821269f404a08607d7","625758858a1203721bdf81c7","","","","","10972","key"," "," ","16.69993292682956","500","250","pog","","","","","151","126",""
"","psychophysics","34","1112518","0.0-34.0","5ef764821269f404a08607d7","625758858a1203721bdf81c7","","","","","31386","key"," "," ","16.699956891963833","500","250","pog","","","","","186","169",""
"","psychophysics","35","1200663","0.0-35.0","5ef764821269f404a08607d7","625758858a1203721bdf81c7","","","","","88140","key"," "," ","16.699985029372748","500","250","pog","","","","","208","189",""
"","psychophysics","36","1208175","0.0-36.0","5ef764821269f404a08607d7","625758858a1203721bdf81c7","","","","","7507","key"," "," ","16.69989086859673","500","250","pog","","","","","160","144",""
"","psychophysics","37","1268796","0.0-37.0","5ef764821269f404a08607d7","625758858a1203721bdf81c7","","","","","60615","key"," "," ","16.700000000000014","500","250","pog","","","","","143","128",""
"","psychophysics","38","1296444","0.0-38.0","5ef764821269f404a08607d7","625758858a1203721bdf81c7","","","","","27643","key"," "," ","16.700017533252666","500","250","pog","","","","","194","180",""
"","psychophysics","39","1328382","0.0-39.0","5ef764821269f404a08607d7","625758858a1203721bdf81c7","","","","","31931","key"," "," ","16.69994194560663","500","250","pog","","","","","146","126",""
"","psychophysics","40","1354834","0.0-40.0","5ef764821269f404a08607d7","625758858a1203721bdf81c7","","","","","26448","key"," "," ","16.69987113076434","500","250","pog","","","","","146","129",""
"","psychophysics","41","1367554","0.0-41.0","5ef764821269f404a08607d7","625758858a1203721bdf81c7","","","","","12713","key"," "," ","16.699756578947294","500","250","pog","","","","","176","162",""
"","psychophysics","42","1370151","0.0-42.0","5ef764821269f404a08607d7","625758858a1203721bdf81c7","","","","","2588","key"," "," ","16.70074838709627","500","250","inst","","","","","","",""
"","psychophysics","43","1375242","0.0-43.0","5ef764821269f404a08607d7","625758858a1203721bdf81c7","","","","","5081","key"," "," ","16.699615131579584","500","250","instTilt","","","","","NaN","0","0"
"","psychophysics","44","1379667","0.0-44.0","5ef764821269f404a08607d7","625758858a1203721bdf81c7","","","","","4419","key"," "," ","16.70002272727222","500","250","instTilt","","","","","0","0","0"
"","psychophysics","45","1423338","0.0-45.0","5ef764821269f404a08607d7","625758858a1203721bdf81c7","","","","","43665","key"," "," ","16.699963274674793","500","250","instTilt","","","","","1","0","0"
"","psychophysics","46","1430238","0.0-46.0","5ef764821269f404a08607d7","625758858a1203721bdf81c7","","","","","6894","key"," "," ","16.700354368932256","500","250","inst","","","","","","",""
"","psychophysics","47","1449976","0.0-47.0","5ef764821269f404a08607d7","625758858a1203721bdf81c7","","","","","19732","key"," "," ","16.69994072819635","500","250","tilt","","","","","-5","-7","0"
"","psychophysics","48","1498770","0.0-48.0","5ef764821269f404a08607d7","625758858a1203721bdf81c7","","","","","48789","key"," "," ","16.69996850393701","500","250","tilt","","","","","3","7","1"
"","psychophysics","49","1513852","0.0-49.0","5ef764821269f404a08607d7","625758858a1203721bdf81c7","","","","","15075","key"," "," ","16.70010753880263","500","250","tilt","","","","","-5","-3","1"
"","psychophysics","50","1536565","0.0-50.0","5ef764821269f404a08607d7","625758858a1203721bdf81c7","","","","","22705","key"," "," ","16.699988226637224","500","250","tilt","","","","","7","10","1"
"","psychophysics","51","1562245","0.0-51.0","5ef764821269f404a08607d7","625758858a1203721bdf81c7","","","","","25674","key"," "," ","16.699975260416675","500","250","tilt","","","","","3","6","1"
"","psychophysics","52","1572603","0.0-52.0","5ef764821269f404a08607d7","625758858a1203721bdf81c7","","","","","10348","key"," "," ","16.699670967741703","500","250","tilt","","","","","-5","-3","1"
"","psychophysics","53","1582774","0.0-53.0","5ef764821269f404a08607d7","625758858a1203721bdf81c7","","","","","10165","key"," "," ","16.69988157894726","500","250","tilt","","","","","-6","-6","0"
"","psychophysics","54","1609936","0.0-54.0","5ef764821269f404a08607d7","625758858a1203721bdf81c7","","","","","27157","key"," "," ","16.699957538461454","500","250","tilt","","","","","4","8","1"
"","psychophysics","55","1622524","0.0-55.0","5ef764821269f404a08607d7","625758858a1203721bdf81c7","","","","","12578","key"," "," ","16.699747675962705","500","250","tilt","","","","","3","3","0"
"","psychophysics","56","1627361","0.0-56.0","5ef764821269f404a08607d7","625758858a1203721bdf81c7","","","","","4832","key"," "," ","16.700200692041548","500","250","tilt","","","","","8","10","0"
"","psychophysics","57","1633269","0.0-57.0","5ef764821269f404a08607d7","625758858a1203721bdf81c7","","","","","5900","key"," "," ","16.69999715909084","500","250","tilt","","","","","1","1","0"
"","psychophysics","58","1642926","0.0-58.0","5ef764821269f404a08607d7","625758858a1203721bdf81c7","","","","","9649","key"," "," ","16.69994463667815","500","250","tilt","","","","","6","10","1"
"","psychophysics","59","1651005","0.0-59.0","5ef764821269f404a08607d7","625758858a1203721bdf81c7","","","","","8071","key"," "," ","16.70060580912871","500","250","tilt","","","","","1","4","1"
"","psychophysics","60","1659510","0.0-60.0","5ef764821269f404a08607d7","625758858a1203721bdf81c7","","","","","8497","key"," "," ","16.700137524557718","500","250","tilt","","","","","0","0","0"
"","psychophysics","61","1669414","0.0-61.0","5ef764821269f404a08607d7","625758858a1203721bdf81c7","","","","","9897","key"," "," ","16.70004391891888","500","250","tilt","","","","","-11","-10","1"
"","psychophysics","62","1682717","0.0-62.0","5ef764821269f404a08607d7","625758858a1203721bdf81c7","","","","","13297","key"," "," ","16.700127044025187","500","250","tilt","","","","","2","5","1"
"","psychophysics","63","1690479","0.0-63.0","5ef764821269f404a08607d7","625758858a1203721bdf81c7","","","","","7755","key"," "," ","16.700150862068703","500","250","tilt","","","","","6","8","1"
"","psychophysics","64","1706324","0.0-64.0","5ef764821269f404a08607d7","625758858a1203721bdf81c7","","","","","15836","key"," "," ","16.69992088607585","500","250","tilt","","","","","-6","-7","0"
"","psychophysics","65","1719114","0.0-65.0","5ef764821269f404a08607d7","625758858a1203721bdf81c7","","","","","12784","key"," "," ","16.69982875817017","500","250","tilt","","","","","1","5","1"
"","psychophysics","66","1729602","0.0-66.0","5ef764821269f404a08607d7","625758858a1203721bdf81c7","","","","","10483","key"," "," ","16.699692185007873","500","250","tilt","","","","","6","10","1"
"","psychophysics","67","1734152","0.0-67.0","5ef764821269f404a08607d7","625758858a1203721bdf81c7","","","","","4545","key"," "," ","16.699350553506306","500","250","tilt","","","","","3","3","0"
"","psychophysics","68","1757655","0.0-68.0","5ef764821269f404a08607d7","625758858a1203721bdf81c7","","","","","23495","key"," "," ","16.69991471215354","500","250","tilt","","","","","1","4","1"
"","psychophysics","69","1771716","0.0-69.0","5ef764821269f404a08607d7","625758858a1203721bdf81c7","","","","","14055","key"," "," ","16.700179548156985","500","250","tilt","","","","","-4","-6","0"
"","psychophysics","70","1782121","0.0-70.0","5ef764821269f404a08607d7","625758858a1203721bdf81c7","","","","","10398","key"," "," ","16.699993569131752","500","250","tilt","","","","","-2","-2","1"
"","psychophysics","71","1796936","0.0-71.0","5ef764821269f404a08607d7","625758858a1203721bdf81c7","","","","","14808","key"," "," ","16.6999559819414","500","250","tilt","","","","","-7","-9","0"
"","psychophysics","72","1811264","0.0-72.0","5ef764821269f404a08607d7","625758858a1203721bdf81c7","","","","","14322","key"," "," ","16.69990548424753","500","250","tilt","","","","","2","2","0"
"","psychophysics","73","1821899","0.0-73.0","5ef764821269f404a08607d7","625758858a1203721bdf81c7","","","","","10629","key"," "," ","16.700051886792465","500","250","tilt","","","","","-11","-9","1"
"","psychophysics","74","1829816","0.0-74.0","5ef764821269f404a08607d7","625758858a1203721bdf81c7","","","","","7910","key"," "," ","16.700082452431218","500","250","tilt","","","","","-10","-9","1"
"","psychophysics","75","1839405","0.0-75.0","5ef764821269f404a08607d7","625758858a1203721bdf81c7","","","","","9583","key"," "," ","16.699815008725913","500","250","tilt","","","","","6","8","0"
"","psychophysics","76","1859106","0.0-76.0","5ef764821269f404a08607d7","625758858a1203721bdf81c7","","","","","19695","key"," "," ","16.699899067005823","500","250","tilt","","","","","7","9","1"
"","psychophysics","77","1861178","0.0-77.0","5ef764821269f404a08607d7","625758858a1203721bdf81c7","","","","","2066","key"," "," ","16.70063414634016","500","250","inst","","","","","","",""
"","psychophysics","78","1903450","0.0-78.0","5ef764821269f404a08607d7","625758858a1203721bdf81c7","","","","","42265","key"," "," ","16.700075889327987","500","250","instPz","","","","","50","50",""
"","psychophysics","79","1956190","0.0-79.0","5ef764821269f404a08607d7","625758858a1203721bdf81c7","","","","","52734","key"," "," ","16.69994076655052","500","250","instPz","","","","","49","50",""
"","psychophysics","80","1972096","0.0-80.0","5ef764821269f404a08607d7","625758858a1203721bdf81c7","","","","","15901","key"," "," ","16.699907465825408","500","250","instPz","","","","","30","30",""
"","psychophysics","81","2068846","0.0-81.0","5ef764821269f404a08607d7","625758858a1203721bdf81c7","","","","","96741","key"," "," ","16.699972035214888","500","250","instPz","","","","","52","40",""
"","psychophysics","82","2073260","0.0-82.0","5ef764821269f404a08607d7","625758858a1203721bdf81c7","","","","","4408","key"," "," ","16.699840304183247","500","250","inst","","","","","","",""
"","psychophysics","83","2089613","0.0-83.0","5ef764821269f404a08607d7","625758858a1203721bdf81c7","","","","","16344","key"," "," ","16.700077709611428","500","250","pz","","","","","47","37",""
"","psychophysics","84","2101758","0.0-84.0","5ef764821269f404a08607d7","625758858a1203721bdf81c7","","","","","12137","key"," "," ","16.69963961485594","500","250","pz","","","","","39","31",""
"","psychophysics","85","2112040","0.0-85.0","5ef764821269f404a08607d7","625758858a1203721bdf81c7","","","","","10275","key"," "," ","16.700166123778125","500","250","pz","","","","","48","39",""
"","psychophysics","86","2126242","0.0-86.0","5ef764821269f404a08607d7","625758858a1203721bdf81c7","","","","","14193","key"," "," ","16.700079999999964","500","250","pz","","","","","55","44",""
"","psychophysics","87","2145078","0.0-87.0","5ef764821269f404a08607d7","625758858a1203721bdf81c7","","","","","18831","key"," "," ","16.69983762200507","500","250","pz","","","","","51","39",""
"","psychophysics","88","2163907","0.0-88.0","5ef764821269f404a08607d7","625758858a1203721bdf81c7","","","","","18823","key"," "," ","16.699830373001845","500","250","pz","","","","","65","60",""
"","psychophysics","89","2175166","0.0-89.0","5ef764821269f404a08607d7","625758858a1203721bdf81c7","","","","","11248","key"," "," ","16.6997919762258","500","250","pz","","","","","32","25",""
"","psychophysics","90","2191789","0.0-90.0","5ef764821269f404a08607d7","625758858a1203721bdf81c7","","","","","16614","key"," "," ","16.69982311557791","500","250","pz","","","","","40","34",""
"","psychophysics","91","2211629","0.0-91.0","5ef764821269f404a08607d7","625758858a1203721bdf81c7","","","","","19834","key"," "," ","16.699845829823236","500","250","pz","","","","","41","32",""
"","psychophysics","92","2237028","0.0-92.0","5ef764821269f404a08607d7","625758858a1203721bdf81c7","","","","","25394","key"," "," ","16.699960526315753","500","250","pz","","","","","46","38",""
"","psychophysics","93","2249888","0.0-93.0","5ef764821269f404a08607d7","625758858a1203721bdf81c7","","","","","12854","key"," "," ","16.69986215864777","500","250","pz","","","","","65","57",""
"","psychophysics","94","2271488","0.0-94.0","5ef764821269f404a08607d7","625758858a1203721bdf81c7","","","","","21592","key"," "," ","16.70000851393177","500","250","pz","","","","","64","56",""
"","psychophysics","95","2282168","0.0-95.0","5ef764821269f404a08607d7","625758858a1203721bdf81c7","","","","","10668","key"," "," ","16.699768388106055","500","250","pz","","","","","48","39",""
"","psychophysics","96","2299706","0.0-96.0","5ef764821269f404a08607d7","625758858a1203721bdf81c7","","","","","17533","key"," "," ","16.69992278360347","500","250","pz","","","","","68","59",""
"","psychophysics","97","2307807","0.0-97.0","5ef764821269f404a08607d7","625758858a1203721bdf81c7","","","","","8095","key"," "," ","16.699878099173393","500","250","pz","","","","","54","44",""
"","psychophysics","98","2309544","0.0-98.0","5ef764821269f404a08607d7","625758858a1203721bdf81c7","","","","","1732","key"," "," ","16.700708737863607","500","250","inst","","","","","","",""
"","psychophysics","99","2318257","0.0-99.0","5ef764821269f404a08607d7","625758858a1203721bdf81c7","","","","","8709","key"," "," ","16.700009596929124","500","250","inst","","","","","","",""
"","psychophysics","100","2329405","0.0-100.0","5ef764821269f404a08607d7","625758858a1203721bdf81c7","","","","","11139","key"," "," ","16.69981381381434","500","250","instFlank","","","","","0.5","0.3","1"
"","psychophysics","101","2335118","0.0-101.0","5ef764821269f404a08607d7","625758858a1203721bdf81c7","","","","","5705","key"," "," ","16.700891495600363","500","250","inst","","","","","","",""
"","psychophysics","102","2375771","0.0-102.0","5ef764821269f404a08607d7","625758858a1203721bdf81c7","","","","","40643","key"," "," ","16.7000554642562","500","250","instFlank","","","","","0.31999999999999984","0.3","1"
"","psychophysics","103","2382071","0.0-103.0","5ef764821269f404a08607d7","625758858a1203721bdf81c7","","","","","6294","key"," "," ","16.69982180851041","500","250","inst","","","","","","",""
"","psychophysics","104","2394375","0.0-104.0","5ef764821269f404a08607d7","625758858a1203721bdf81c7","","","","","12298","key"," "," ","16.700270380435065","500","250","instFlank","","","","","0.5","0.3","0"
"","psychophysics","105","2405086","0.0-105.0","5ef764821269f404a08607d7","625758858a1203721bdf81c7","","","","","10705","key"," "," ","16.70005156249972","500","250","inst","","","","","","",""
"","psychophysics","106","2418809","0.0-106.0","5ef764821269f404a08607d7","625758858a1203721bdf81c7","","","","","13712","key"," "," ","16.700175395858757","500","250","flank","","","","","0.3799999999999999","0.26","1"
"","psychophysics","107","2423251","0.0-107.0","5ef764821269f404a08607d7","625758858a1203721bdf81c7","","","","","4434","key"," "," ","16.700630188678865","500","250","flank","","","","","0.43999999999999995","0.32","0"
"","psychophysics","108","2426391","0.0-108.0","5ef764821269f404a08607d7","625758858a1203721bdf81c7","","","","","3133","key"," "," ","16.70026737967765","500","250","flank","","","","","0.6200000000000001","0.52","0"
"","psychophysics","109","2430252","0.0-109.0","5ef764821269f404a08607d7","625758858a1203721bdf81c7","","","","","3853","key"," "," ","16.699817391304784","500","250","flank","","","","","0.56","0.48","0"
"","psychophysics","110","2434471","0.0-110.0","5ef764821269f404a08607d7","625758858a1203721bdf81c7","","","","","4212","key"," "," ","16.699658730157857","500","250","flank","","","","","0.5","0.32","0"
"","psychophysics","111","2437790","0.0-111.0","5ef764821269f404a08607d7","625758858a1203721bdf81c7","","","","","3310","key"," "," ","16.70054822334982","500","250","flank","","","","","0.4099999999999999","0.34","1"
"","psychophysics","112","2442671","0.0-112.0","5ef764821269f404a08607d7","625758858a1203721bdf81c7","","","","","4872","key"," "," ","16.700150684931966","500","250","flank","","","","","0.56","0.5","1"
"","psychophysics","113","2447013","0.0-113.0","5ef764821269f404a08607d7","625758858a1203721bdf81c7","","","","","4335","key"," "," ","16.69942084942049","500","250","flank","","","","","0.3799999999999999","0.26","1"
"","psychophysics","114","2450305","0.0-114.0","5ef764821269f404a08607d7","625758858a1203721bdf81c7","","","","","3284","key"," "," ","16.70044897959273","500","250","flank","","","","","0.6200000000000001","0.58","1"
"","psychophysics","115","2454398","0.0-115.0","5ef764821269f404a08607d7","625758858a1203721bdf81c7","","","","","4086","key"," "," ","16.701114754099017","500","250","flank","","","","","0.56","0.38","0"
"","psychophysics","116","2458587","0.0-116.0","5ef764821269f404a08607d7","625758858a1203721bdf81c7","","","","","4182","key"," "," ","16.698868000000715","500","250","flank","","","","","0.6500000000000001","0.64","0"
"","psychophysics","117","2461178","0.0-117.0","5ef764821269f404a08607d7","625758858a1203721bdf81c7","","","","","2583","key"," "," ","16.70120129870045","500","250","flank","","","","","0.43999999999999995","0.36","1"
"","psychophysics","118","2463835","0.0-118.0","5ef764821269f404a08607d7","625758858a1203721bdf81c7","","","","","2650","key"," "," ","16.699765822785327","500","250","flank","","","","","0.5900000000000001","0.6","0"
"","psychophysics","119","2467375","0.0-119.0","5ef764821269f404a08607d7","625758858a1203721bdf81c7","","","","","3535","key"," "," ","16.700085308058497","500","250","flank","","","","","0.6200000000000001","0.64","0"
"","psychophysics","120","2471589","0.0-120.0","5ef764821269f404a08607d7","625758858a1203721bdf81c7","","","","","4206","key"," "," ","16.69987649402481","500","250","flank","","","","","0.6500000000000001","0.62","0"
"","psychophysics","121","2474468","0.0-121.0","5ef764821269f404a08607d7","625758858a1203721bdf81c7","","","","","2870","key"," "," ","16.699098837209952","500","250","flank","","","","","0.3799999999999999","0.2","0"
"","psychophysics","122","2478080","0.0-122.0","5ef764821269f404a08607d7","625758858a1203721bdf81c7","","","","","3605","key"," "," ","16.700311627906075","500","250","flank","","","","","0.7700000000000002","0.76","0"
"","psychophysics","123","2482174","0.0-123.0","5ef764821269f404a08607d7","625758858a1203721bdf81c7","","","","","4087","key"," "," ","16.699819672131362","500","250","flank","","","","","0.7400000000000002","0.66","1"
"","psychophysics","124","2486024","0.0-124.0","5ef764821269f404a08607d7","625758858a1203721bdf81c7","","","","","3841","key"," "," ","16.699439130433955","500","250","flank","","","","","0.7700000000000002","0.8","0"
"","psychophysics","125","2490908","0.0-125.0","5ef764821269f404a08607d7","625758858a1203721bdf81c7","","","","","4877","key"," "," ","16.700099656356763","500","250","flank","","","","","0.7700000000000002","0.7","1"
"","psychophysics","126","2494713","0.0-126.0","5ef764821269f404a08607d7","625758858a1203721bdf81c7","","","","","3796","key"," "," ","16.699942731277993","500","250","flank","","","","","0.5","0.38","1"
"","psychophysics","127","2498566","0.0-127.0","5ef764821269f404a08607d7","625758858a1203721bdf81c7","","","","","3846","key"," "," ","16.699599999999222","500","250","flank","","","","","0.53","0.4","0"
"","psychophysics","128","2501274","0.0-128.0","5ef764821269f404a08607d7","625758858a1203721bdf81c7","","","","","2700","key"," "," ","16.700776397516684","500","250","flank","","","","","0.56","0.52","0"
"","psychophysics","129","2504081","0.0-129.0","5ef764821269f404a08607d7","625758858a1203721bdf81c7","","","","","2800","key"," "," ","16.70149101796532","500","250","flank","","","","","0.43999999999999995","0.34","1"
"","psychophysics","130","2506816","0.0-130.0","5ef764821269f404a08607d7","625758858a1203721bdf81c7","","","","","2728","key"," "," ","16.699184049080852","500","250","flank","","","","","0.4099999999999999","0.26","1"
"","psychophysics","131","2509458","0.0-131.0","5ef764821269f404a08607d7","625758858a1203721bdf81c7","","","","","2635","key"," "," ","16.699248407644095","500","250","flank","","","","","0.5900000000000001","0.42","0"
"","psychophysics","132","2512695","0.0-132.0","5ef764821269f404a08607d7","625758858a1203721bdf81c7","","","","","3228","key"," "," ","16.701336787564806","500","250","flank","","","","","0.5900000000000001","0.54","1"
"","psychophysics","133","2516069","0.0-133.0","5ef764821269f404a08607d7","625758858a1203721bdf81c7","","","","","3366","key"," "," ","16.700407960199616","500","250","flank","","","","","0.5900000000000001","0.5","1"
"","psychophysics","134","2519242","0.0-134.0","5ef764821269f404a08607d7","625758858a1203721bdf81c7","","","","","3166","key"," "," ","16.70007936507907","500","250","flank","","","","","0.6500000000000001","0.52","1"
"","psychophysics","135","2522664","0.0-135.0","5ef764821269f404a08607d7","625758858a1203721bdf81c7","","","","","3416","key"," "," ","16.70018627450975","500","250","flank","","","","","0.6800000000000002","0.6","0"
"true","fullscreen","136","2522667","0.0-136.0","5ef764821269f404a08607d7","625758858a1203721bdf81c7","","","","","","","","","","","","","","","","","","",""
