"success","trial_type","trial_index","time_elapsed","internal_node_id","pid","sid","timeout","failed_images","failed_audio","failed_video","rt","response_type","key_press","response","avg_frame_time","center_x","center_y","task","ml_len","ml_start","ml_x","ml_y","resp","targ","back"
"true","fullscreen","0","4743","0.0-0.0","13","38","","","","","","","","","","","","","","","","","","",""
"true","preload","1","4750","0.0-1.0","13","38","false","[]","[]","[]","","","","","","","","","","","","","","",""
"","psychophysics","2","10695","0.0-2.0","13","38","","","","","5935","key"," "," ","16.777142857142856","500","250","inst","","","","","","",""
"","psychophysics","3","12823","0.0-3.0","13","38","","","","","2120","key"," "," ","16.669291338582678","500","250","inst","","","","","","",""
"","psychophysics","4","34656","0.0-4.0","13","38","","","","","21827","key"," "," ","16.666921313980136","500","250","instML","188","-31.333333333333332","30","-14","-26.33333333333337","",""
"","psychophysics","5","38394","0.0-5.0","13","38","","","","","3732","key"," "," ","16.659192825112108","500","250","inst","","","","","","",""
"","psychophysics","6","47207","0.0-6.0","13","38","","","","","8809","key"," "," ","16.664772727272727","500","250","ml","200","-27","0","-3","-25","",""
"","psychophysics","7","67632","0.0-7.0","13","38","","","","","20420","key"," "," ","16.666666666666668","500","250","ml","218","8","-21","19","-8","",""
"","psychophysics","8","81001","0.0-8.0","13","38","","","","","13365","key"," "," ","16.66084788029925","500","250","ml","234","-40","26","-9","-23","",""
"","psychophysics","9","95041","0.0-9.0","13","38","","","","","14034","key"," "," ","16.66706302021403","500","250","ml","246","-51","24","-25","-16","",""
"","psychophysics","10","101518","0.0-10.0","13","38","","","","","6473","key"," "," ","16.664948453608247","500","250","ml","212","-10","-25","10","-12","",""
"","psychophysics","11","189546","0.0-11.0","13","38","","","","","88018","key"," "," ","16.666477272727274","500","250","ml","228","-53","26","-12","-14","",""
"","psychophysics","12","203363","0.0-12.0","13","38","","","","","13814","key"," "," ","16.667874396135264","500","250","ml","186","46","28","-13","-7","",""
"","psychophysics","13","209621","0.0-13.0","13","38","","","","","6251","key"," "," ","16.661333333333335","500","250","ml","160","-22","-18","-24","-11","",""
"","psychophysics","14","217500","0.0-14.0","13","38","","","","","7874","key"," "," ","16.666666666666668","500","250","ml","192","-34","-18","-21","-8","",""
"","psychophysics","15","391166","0.0-15.0","13","38","","","","","173657","key"," "," ","16.666186774162586","500","250","ml","194","35","28","-20","-11","",""
"","psychophysics","16","395816","0.0-16.0","13","38","","","","","4646","key"," "," ","16.66906474820144","500","250","ml","170","-20","-13","-9","-14","",""
"","psychophysics","17","398904","0.0-17.0","13","38","","","","","3085","key"," "," ","16.846153846153847","500","250","ml","230","-3","-16","10","-3","",""
"","psychophysics","18","407360","0.0-18.0","13","38","","","","","8451","key"," "," ","16.662721893491124","500","250","ml","154","27","-16","-29","-6","",""
"","psychophysics","19","419458","0.0-19.0","13","38","","","","","12094","key"," "," ","16.666206896551724","500","250","ml","246","-60","17","1","-7","",""
"","psychophysics","20","428955","0.0-20.0","13","38","","","","","9489","key"," "," ","16.66725352112676","500","250","ml","224","18","-12","-1","-5","",""
"","psychophysics","21","430454","0.0-21.0","13","38","","","","","1489","key"," "," ","16.640449438202246","500","250","inst","","","","","","",""
"","psychophysics","22","478318","0.0-22.0","13","38","","","","","47853","key"," "," ","16.66597004528039","500","250","instPog","","","","","130","130",""
"","psychophysics","23","493414","0.0-23.0","13","38","","","","","15091","key"," "," ","16.666298342541438","500","250","instPog","","","","","134","130",""
"","psychophysics","24","506050","0.0-24.0","13","38","","","","","12632","key"," "," ","16.667107001321003","500","250","instPog","","","","","142","130",""
"","psychophysics","25","512402","0.0-25.0","13","38","","","","","6348","key"," "," ","16.66578947368421","500","250","inst","","","","","","",""
"","psychophysics","26","516936","0.0-26.0","13","38","","","","","4531","key"," "," ","16.66789667896679","500","250","pog","","","","","159","141",""
"","psychophysics","27","527445","0.0-27.0","13","38","","","","","10503","key"," "," ","16.66190476190476","500","250","pog","","","","","143","134",""
"","psychophysics","28","540229","0.0-28.0","13","38","","","","","12780","key"," "," ","16.665796344647518","500","250","pog","","","","","168","155",""
"","psychophysics","29","550159","0.0-29.0","13","38","","","","","9926","key"," "," ","16.665546218487396","500","250","pog","","","","","187","175",""
"","psychophysics","30","558253","0.0-30.0","13","38","","","","","8090","key"," "," ","16.667355371900825","500","250","pog","","","","","178","161",""
"","psychophysics","31","576843","0.0-31.0","13","38","","","","","18586","key"," "," ","16.666367713004483","500","250","pog","","","","","200","191",""
"","psychophysics","32","585253","0.0-32.0","13","38","","","","","8406","key"," "," ","16.667992047713717","500","250","pog","","","","","202","189",""
"","psychophysics","33","607104","0.0-33.0","13","38","","","","","21845","key"," "," ","16.664885496183206","500","250","pog","","","","","194","180",""
"","psychophysics","34","616560","0.0-34.0","13","38","","","","","9452","key"," "," ","16.664902998236332","500","250","pog","","","","","212","199",""
"","psychophysics","35","621190","0.0-35.0","13","38","","","","","4626","key"," "," ","16.666666666666668","500","250","pog","","","","","155","145",""
"","psychophysics","36","628019","0.0-36.0","13","38","","","","","6826","key"," "," ","16.660146699266505","500","250","pog","","","","","168","158",""
"","psychophysics","37","635177","0.0-37.0","13","38","","","","","7153","key"," "," ","16.666666666666668","500","250","pog","","","","","183","169",""
"","psychophysics","38","637726","0.0-38.0","13","38","","","","","2546","key"," "," ","16.664473684210527","500","250","pog","","","","","160","142",""
"","psychophysics","39","651136","0.0-39.0","13","38","","","","","13406","key"," "," ","16.666251556662516","500","250","pog","","","","","176","163",""
"","psychophysics","40","656862","0.0-40.0","13","38","","","","","5722","key"," "," ","16.667638483965014","500","250","pog","","","","","187","180",""
"","psychophysics","41","658217","0.0-41.0","13","38","","","","","1351","key"," "," ","16.675","500","250","inst","","","","","","",""
"","psychophysics","42","663192","0.0-42.0","13","38","","","","","4968","key"," "," ","16.67003367003367","500","250","instTilt","","","","","NaN","0","0"
"","psychophysics","43","665488","0.0-43.0","13","38","","","","","2293","key"," "," ","16.64963503649635","500","250","instTilt","","","","","0","0","0"
"","psychophysics","44","682714","0.0-44.0","13","38","","","","","17222","key"," "," ","16.665053242981607","500","250","instTilt","","","","","4","0","0"
"","psychophysics","45","683630","0.0-45.0","13","38","","","","","913","key"," "," ","16.666666666666668","500","250","inst","","","","","","",""
"","psychophysics","46","724293","0.0-46.0","13","38","","","","","40655","key"," "," ","16.666940114848238","500","250","tilt","","","","","-3","-2","1"
"","psychophysics","47","729202","0.0-47.0","13","38","","","","","4905","key"," "," ","16.656462585034014","500","250","tilt","","","","","-6","-7","1"
"","psychophysics","48","735103","0.0-48.0","13","38","","","","","5895","key"," "," ","16.671388101983002","500","250","tilt","","","","","9","10","0"
"","psychophysics","49","738006","0.0-49.0","13","38","","","","","2899","key"," "," ","16.67630057803468","500","250","tilt","","","","","6","3","0"
"","psychophysics","50","743543","0.0-50.0","13","38","","","","","5531","key"," "," ","16.658610271903324","500","250","tilt","","","","","10","8","0"
"","psychophysics","51","748456","0.0-51.0","13","38","","","","","4910","key"," "," ","16.656462585034014","500","250","tilt","","","","","3","6","1"
"","psychophysics","52","755933","0.0-52.0","13","38","","","","","7471","key"," "," ","16.660714285714285","500","250","tilt","","","","","-8","-9","1"
"","psychophysics","53","763266","0.0-53.0","13","38","","","","","7329","key"," "," ","16.667425968109338","500","250","tilt","","","","","8","9","0"
"","psychophysics","54","768979","0.0-54.0","13","38","","","","","5705","key"," "," ","16.66374269005848","500","250","tilt","","","","","2","4","0"
"","psychophysics","55","777037","0.0-55.0","13","38","","","","","8054","key"," "," ","16.66597510373444","500","250","tilt","","","","","-3","-3","1"
"","psychophysics","56","785236","0.0-56.0","13","38","","","","","8194","key"," "," ","16.668024439918533","500","250","tilt","","","","","-2","-4","0"
"","psychophysics","57","793466","0.0-57.0","13","38","","","","","8224","key"," "," ","16.66531440162272","500","250","tilt","","","","","6","8","0"
"","psychophysics","58","797148","0.0-58.0","13","38","","","","","3678","key"," "," ","16.663636363636364","500","250","tilt","","","","","-3","-2","1"
"","psychophysics","59","803514","0.0-59.0","13","38","","","","","6364","key"," "," ","16.666666666666668","500","250","tilt","","","","","-7","-9","0"
"","psychophysics","60","813692","0.0-60.0","13","38","","","","","10172","key"," "," ","16.666666666666668","500","250","tilt","","","","","2","4","1"
"","psychophysics","61","818894","0.0-61.0","13","38","","","","","5198","key"," "," ","16.659163987138264","500","250","tilt","","","","","-7","-6","1"
"","psychophysics","62","824905","0.0-62.0","13","38","","","","","6004","key"," "," ","16.65","500","250","tilt","","","","","6","5","0"
"","psychophysics","63","834427","0.0-63.0","13","38","","","","","9516","key"," "," ","16.66842105263158","500","250","tilt","","","","","-1","-1","0"
"","psychophysics","64","837030","0.0-64.0","13","38","","","","","2594","key"," "," ","16.653846153846153","500","250","tilt","","","","","1","2","1"
"","psychophysics","65","841932","0.0-65.0","13","38","","","","","4897","key"," "," ","16.66552901023891","500","250","tilt","","","","","4","6","1"
"","psychophysics","66","849882","0.0-66.0","13","38","","","","","7946","key"," "," ","16.665966386554622","500","250","tilt","","","","","6","8","0"
"","psychophysics","67","861881","0.0-67.0","13","38","","","","","11996","key"," "," ","16.664812239221142","500","250","tilt","","","","","3","9","1"
"","psychophysics","68","867511","0.0-68.0","13","38","","","","","5626","key"," "," ","16.666666666666668","500","250","tilt","","","","","-3","-4","1"
"","psychophysics","69","871054","0.0-69.0","13","38","","","","","3538","key"," "," ","16.64622641509434","500","250","tilt","","","","","-6","-10","1"
"","psychophysics","70","877725","0.0-70.0","13","38","","","","","6667","key"," "," ","16.666666666666668","500","250","tilt","","","","","6","8","0"
"","psychophysics","71","884002","0.0-71.0","13","38","","","","","6275","key"," "," ","16.66755319148936","500","250","tilt","","","","","1","3","1"
"","psychophysics","72","888478","0.0-72.0","13","38","","","","","4472","key"," "," ","16.670411985018728","500","250","tilt","","","","","-3","-5","0"
"","psychophysics","73","891857","0.0-73.0","13","38","","","","","3373","key"," "," ","16.638613861386137","500","250","tilt","","","","","2","5","1"
"","psychophysics","74","897518","0.0-74.0","13","38","","","","","5658","key"," "," ","16.663716814159294","500","250","tilt","","","","","7","10","0"
"","psychophysics","75","904486","0.0-75.0","13","38","","","","","6962","key"," "," ","16.666666666666668","500","250","tilt","","","","","4","1","0"
"","psychophysics","76","905653","0.0-76.0","13","38","","","","","1166","key"," "," ","16.666666666666668","500","250","inst","","","","","","",""
"","psychophysics","77","928451","0.0-77.0","13","38","","","","","22791","key"," "," ","16.666422823701538","500","250","instPz","","","","","50","50",""
"","psychophysics","78","934110","0.0-78.0","13","38","","","","","5653","key"," "," ","16.66568047337278","500","250","instPz","","","","","45","50",""
"","psychophysics","79","946977","0.0-79.0","13","38","","","","","12862","key"," "," ","16.66407263294423","500","250","instPz","","","","","60","50",""
"","psychophysics","80","948072","0.0-80.0","13","38","","","","","1085","key"," "," ","16.676923076923078","500","250","inst","","","","","","",""
"","psychophysics","81","950066","0.0-81.0","13","38","","","","","1989","key"," "," ","16.65546218487395","500","250","pz","","","","","26","32",""
"","psychophysics","82","959413","0.0-82.0","13","38","","","","","9343","key"," "," ","16.6654740608229","500","250","pz","","","","","34","27",""
"","psychophysics","83","965299","0.0-83.0","13","38","","","","","5876","key"," "," ","16.654390934844194","500","250","pz","","","","","35","29",""
"","psychophysics","84","974318","0.0-84.0","13","38","","","","","9015","key"," "," ","16.666666666666668","500","250","pz","","","","","45","37",""
"","psychophysics","85","981642","0.0-85.0","13","38","","","","","7320","key"," "," ","16.666666666666668","500","250","pz","","","","","60","59",""
"","psychophysics","86","990561","0.0-86.0","13","38","","","","","8916","key"," "," ","16.666666666666668","500","250","pz","","","","","50","44",""
"","psychophysics","87","998047","0.0-87.0","13","38","","","","","7482","key"," "," ","16.660714285714285","500","250","pz","","","","","32","29",""
"","psychophysics","88","1009046","0.0-88.0","13","38","","","","","10993","key"," "," ","16.657056145675266","500","250","pz","","","","","55","51",""
"","psychophysics","89","1015245","0.0-89.0","13","38","","","","","6195","key"," "," ","16.660377358490567","500","250","pz","","","","","25","22",""
"","psychophysics","90","1025983","0.0-90.0","13","38","","","","","10733","key"," "," ","16.66304347826087","500","250","pz","","","","","61","59",""
"","psychophysics","91","1037793","0.0-91.0","13","38","","","","","11805","key"," "," ","16.66902404526167","500","250","pz","","","","","63","59",""
"","psychophysics","92","1049697","0.0-92.0","13","38","","","","","11898","key"," "," ","16.667601683029453","500","250","pz","","","","","57","52",""
"","psychophysics","93","1078155","0.0-93.0","13","38","","","","","28446","key"," "," ","16.66432337434095","500","250","pz","","","","","64","59",""
"","psychophysics","94","1088389","0.0-94.0","13","38","","","","","10231","key"," "," ","16.66557911908646","500","250","pz","","","","","57","56",""
"","psychophysics","95","1093777","0.0-95.0","13","38","","","","","5383","key"," "," ","16.664596273291924","500","250","pz","","","","","44","41",""
"","psychophysics","96","1095365","0.0-96.0","13","38","","","","","1583","key"," "," ","16.659574468085108","500","250","inst","","","","","","",""
"","psychophysics","97","1098935","0.0-97.0","13","38","","","","","3561","key"," "," ","16.649532710280372","500","250","inst","","","","","","",""
"","psychophysics","98","1103172","0.0-98.0","13","38","","","","","4232","key"," "," ","16.66798418972332","500","250","instFlank","","","","","0.5","0.3","1"
"","psychophysics","99","1105613","0.0-99.0","13","38","","","","","2439","key"," "," ","16.66896551724138","500","250","inst","","","","","","",""
"","psychophysics","100","1112676","0.0-100.0","13","38","","","","","7056","key"," "," ","16.6548463356974","500","250","instFlank","","","","","0.43999999999999995","0.3","1"
"","psychophysics","101","1114974","0.0-101.0","13","38","","","","","2294","key"," "," ","16.67153284671533","500","250","inst","","","","","","",""
"","psychophysics","102","1118070","0.0-102.0","13","38","","","","","3091","key"," "," ","16.65945945945946","500","250","instFlank","","","","","0.5","0.3","0"
"","psychophysics","103","1120266","0.0-103.0","13","38","","","","","2192","key"," "," ","16.661538461538463","500","250","inst","","","","","","",""
"","psychophysics","104","1122557","0.0-104.0","13","38","","","","","2287","key"," "," ","16.62773722627737","500","250","flank","","","","","0.5","0.44","1"
"","psychophysics","105","1124926","0.0-105.0","13","38","","","","","2364","key"," "," ","16.666666666666668","500","250","flank","","","","","0.5","0.44","1"
"","psychophysics","106","1127269","0.0-106.0","13","38","","","","","2338","key"," "," ","16.67142857142857","500","250","flank","","","","","0.5","0.22","0"
"","psychophysics","107","1131802","0.0-107.0","13","38","","","","","4529","key"," "," ","16.66420664206642","500","250","flank","","","","","0.6200000000000001","0.68","0"
"","psychophysics","108","1135943","0.0-108.0","13","38","","","","","4136","key"," "," ","16.668016194331983","500","250","flank","","","","","0.6200000000000001","0.66","0"
"","psychophysics","109","1140291","0.0-109.0","13","38","","","","","4344","key"," "," ","16.665384615384614","500","250","flank","","","","","0.7400000000000002","0.76","0"
"","psychophysics","110","1143446","0.0-110.0","13","38","","","","","3148","key"," "," ","16.659574468085108","500","250","flank","","","","","0.56","0.46","0"
"","psychophysics","111","1146190","0.0-111.0","13","38","","","","","2738","key"," "," ","16.652439024390244","500","250","flank","","","","","0.53","0.58","1"
"","psychophysics","112","1149026","0.0-112.0","13","38","","","","","2830","key"," "," ","16.674556213017752","500","250","flank","","","","","0.47","0.42","1"
"","psychophysics","113","1151724","0.0-113.0","13","38","","","","","2693","key"," "," ","16.664596273291924","500","250","flank","","","","","0.47","0.46","1"
"","psychophysics","114","1154695","0.0-114.0","13","38","","","","","2964","key"," "," ","16.666666666666668","500","250","flank","","","","","0.53","0.3","0"
"","psychophysics","115","1158050","0.0-115.0","13","38","","","","","3350","key"," "," ","16.67","500","250","flank","","","","","0.47","0.5","1"
"","psychophysics","116","1160493","0.0-116.0","13","38","","","","","2438","key"," "," ","16.623287671232877","500","250","flank","","","","","0.5","0.56","1"
"","psychophysics","117","1163241","0.0-117.0","13","38","","","","","2743","key"," "," ","16.676829268292682","500","250","flank","","","","","0.5","0.42","1"
"","psychophysics","118","1168785","0.0-118.0","13","38","","","","","5540","key"," "," ","16.662650602409638","500","250","flank","","","","","0.43999999999999995","0.4","1"
"","psychophysics","119","1173431","0.0-119.0","13","38","","","","","4641","key"," "," ","16.667870036101082","500","250","flank","","","","","0.5","0.28","0"
"","psychophysics","120","1177722","0.0-120.0","13","38","","","","","4286","key"," "," ","16.657587548638134","500","250","flank","","","","","0.47","0.36","0"
"","psychophysics","121","1184441","0.0-121.0","13","38","","","","","6715","key"," "," ","16.666666666666668","500","250","flank","","","","","0.6500000000000001","0.78","1"
"","psychophysics","122","1188772","0.0-122.0","13","38","","","","","4326","key"," "," ","16.664092664092664","500","250","flank","","","","","0.6500000000000001","0.6","1"
"","psychophysics","123","1191385","0.0-123.0","13","38","","","","","2608","key"," "," ","16.653846153846153","500","250","flank","","","","","0.5","0.4","0"
"","psychophysics","124","1195342","0.0-124.0","13","38","","","","","3952","key"," "," ","16.665254237288135","500","250","flank","","","","","0.47","0.24","0"
"","psychophysics","125","1201322","0.0-125.0","13","38","","","","","5976","key"," "," ","16.664804469273744","500","250","flank","","","","","0.6500000000000001","0.72","0"
"","psychophysics","126","1206938","0.0-126.0","13","38","","","","","5610","key"," "," ","16.660714285714285","500","250","flank","","","","","0.6200000000000001","0.7","1"
"","psychophysics","127","1209905","0.0-127.0","13","38","","","","","2963","key"," "," ","16.661016949152543","500","250","flank","","","","","0.53","0.62","1"
"","psychophysics","128","1214092","0.0-128.0","13","38","","","","","4180","key"," "," ","16.664","500","250","flank","","","","","0.31999999999999984","0.3","1"
"","psychophysics","129","1217982","0.0-129.0","13","38","","","","","3885","key"," "," ","16.66810344827586","500","250","flank","","","","","0.3799999999999999","0.4","1"
"","psychophysics","130","1221160","0.0-130.0","13","38","","","","","3171","key"," "," ","16.66842105263158","500","250","flank","","","","","0.4099999999999999","0.26","0"
"","psychophysics","131","1225061","0.0-131.0","13","38","","","","","3896","key"," "," ","16.669527896995707","500","250","flank","","","","","0.5","0.38","0"
"","psychophysics","132","1227903","0.0-132.0","13","38","","","","","2837","key"," "," ","16.658823529411766","500","250","flank","","","","","0.43999999999999995","0.32","0"
"","psychophysics","133","1230592","0.0-133.0","13","38","","","","","2684","key"," "," ","16.6625","500","250","flank","","","","","0.47","0.46","1"
"true","fullscreen","134","1230594","0.0-134.0","13","38","","","","","","","","","","","","","","","","","","",""
"1990","key"," "," ","13.338000000000001","500","250","inst","psychophysics","0","2004","0.0-0.0","16","34","","","","","","",""
"4157","key"," "," ","13.338000000000001","500","250","inst","psychophysics","1","6164","0.0-1.0","16","34","","","","","","",""
"13589","key"," "," ","13.338165029469549","500","250","instML","psychophysics","2","19754","0.0-2.0","16","34","178","-29.666666666666668","-10","-9","-25.666666666666686","",""
"664","key"," "," ","13.341408163265292","500","250","inst","psychophysics","3","20420","0.0-3.0","16","34","","","","","","",""
"9603","key"," "," ","13.338233657858135","500","250","ml","psychophysics","4","30024","0.0-4.0","16","34","152","-13","-4","11","-16","",""
"11260","key"," "," ","13.338199052132696","500","250","ml","psychophysics","5","41289","0.0-5.0","16","34","242","-31","-13","-19","-21","",""
"10129","key"," "," ","13.33822031662269","500","250","ml","psychophysics","6","51419","0.0-6.0","16","34","196","-48","-7","-7","-24","",""
"9395","key"," "," ","13.338238636363629","500","250","ml","psychophysics","7","60815","0.0-7.0","16","34","176","42","-14","22","-12","",""
"6014","key"," "," ","13.337999999999981","500","250","ml","psychophysics","8","66831","0.0-8.0","16","34","234","47","14","-13","-10","",""
"6309","key"," "," ","13.338355932203385","500","250","ml","psychophysics","9","73142","0.0-9.0","16","34","244","44","-29","-30","-14","",""
"10653","key"," "," ","13.338209273182962","500","250","ml","psychophysics","10","83797","0.0-10.0","16","34","198","37","15","-29","-14","",""
"10506","key"," "," ","13.338213468869123","500","250","ml","psychophysics","11","94304","0.0-11.0","16","34","246","-59","-21","-5","-14","",""
"10753","key"," "," ","13.338208695652158","500","250","ml","psychophysics","12","105059","0.0-12.0","16","34","206","-25","15","-21","-12","",""
"7894","key"," "," ","13.338282571912018","500","250","ml","psychophysics","13","112955","0.0-13.0","16","34","220","46","6","-14","-15","",""
"12889","key"," "," ","13.338174093264252","500","250","ml","psychophysics","14","125845","0.0-14.0","16","34","170","32","-22","-9","-9","",""
"6752","key"," "," ","13.338330039525676","500","250","ml","psychophysics","15","132599","0.0-15.0","16","34","154","-34","-11","16","-12","",""
"6575","key"," "," ","13.338000000000005","500","250","ml","psychophysics","16","139176","0.0-16.0","16","34","216","32","20","11","-15","",""
"3698","key"," "," ","13.338608695652194","500","250","ml","psychophysics","17","142876","0.0-17.0","16","34","204","5","26","-22","-13","",""
"6257","key"," "," ","13.337999999999994","500","250","ml","psychophysics","18","149135","0.0-18.0","16","34","208","-40","-23","-24","-15","",""
"1040","key"," "," ","13.337999999999786","500","250","inst","psychophysics","19","150177","0.0-19.0","16","34","","","","","","",""
"31701","key"," "," ","13.338282407407403","500","250","instPog","psychophysics","20","181878","0.0-20.0","16","34","","","","","180","180",""
"898","key"," "," ","13.338000000000289","500","250","inst","psychophysics","21","182778","0.0-21.0","16","34","","","","","","",""
"27876","key"," "," ","13.33824078506462","500","250","pog","psychophysics","22","210654","0.0-22.0","16","34","","","","","197","189",""
"5839","key"," "," ","13.338000000000013","500","250","pog","psychophysics","23","216494","0.0-23.0","16","34","","","","","160","154",""
"7443","key"," "," ","13.338299820466768","500","250","pog","psychophysics","24","223938","0.0-24.0","16","34","","","","","152","145",""
"7670","key"," "," ","13.338292682926816","500","250","pog","psychophysics","25","231610","0.0-25.0","16","34","","","","","159","156",""
"5154","key"," "," ","13.338000000000058","500","250","pog","psychophysics","26","236765","0.0-26.0","16","34","","","","","145","138",""
"6431","key"," "," ","13.338347193347184","500","250","pog","psychophysics","27","243197","0.0-27.0","16","34","","","","","134","133",""
"8866","key"," "," ","13.338253012048158","500","250","pog","psychophysics","28","252065","0.0-28.0","16","34","","","","","177","178",""
"4472","key"," "," ","13.337999999999978","500","250","pog","psychophysics","29","256538","0.0-29.0","16","34","","","","","144","145",""
"4443","key"," "," ","13.338501501501561","500","250","pog","psychophysics","30","260984","0.0-30.0","16","34","","","","","188","191",""
"3990","key"," "," ","13.338000000000056","500","250","pog","psychophysics","31","264975","0.0-31.0","16","34","","","","","167","168",""
"6663","key"," "," ","13.338336673346726","500","250","pog","psychophysics","32","271639","0.0-32.0","16","34","","","","","206","190",""
"2536","key"," "," ","13.337999999999912","500","250","pog","psychophysics","33","274177","0.0-33.0","16","34","","","","","160","151",""
"4490","key"," "," ","13.338000000000084","500","250","pog","psychophysics","34","278669","0.0-34.0","16","34","","","","","147","144",""
"9784","key"," "," ","13.338229508196685","500","250","pog","psychophysics","35","288454","0.0-35.0","16","34","","","","","140","139",""
"12102","key"," "," ","13.338184123484021","500","250","pog","psychophysics","36","300557","0.0-36.0","16","34","","","","","193","193",""
"708","key"," "," ","13.341230769230886","500","250","inst","psychophysics","37","301267","0.0-37.0","16","34","","","","","","",""
"4352","key"," "," ","13.337999999999928","500","250","instTilt","psychophysics","38","305622","0.0-38.0","16","34","","","","","NaN","0","0"
"12663","key"," "," ","13.338177028451055","500","250","instTilt","psychophysics","39","318288","0.0-39.0","16","34","","","","","-1","0","0"
"5711","key"," "," ","13.338391100702479","500","250","instTilt","psychophysics","40","324000","0.0-40.0","16","34","","","","","0","0","0"
"435","key"," "," ","13.337999999999738","500","250","inst","psychophysics","41","324438","0.0-41.0","16","34","","","","","","",""
"2519","key"," "," ","13.33799999999997","500","250","tilt","psychophysics","42","326958","0.0-42.0","16","34","","","","","0","1","0"
"2284","key"," "," ","13.338000000000058","500","250","tilt","psychophysics","43","329244","0.0-43.0","16","34","","","","","0","1","1"
"5667","key"," "," ","13.338396226415188","500","250","tilt","psychophysics","44","334914","0.0-44.0","16","34","","","","","10","9","0"
"6059","key"," "," ","13.338370860927167","500","250","tilt","psychophysics","45","340975","0.0-45.0","16","34","","","","","4","3","0"
"6370","key"," "," ","13.337999999999928","500","250","tilt","psychophysics","46","347346","0.0-46.0","16","34","","","","","4","6","1"
"4190","key"," "," ","13.338533546325726","500","250","tilt","psychophysics","47","351538","0.0-47.0","16","34","","","","","-7","-7","1"
"2611","key"," "," ","13.33799999999987","500","250","tilt","psychophysics","48","354150","0.0-48.0","16","34","","","","","8","7","1"
"6638","key"," "," ","13.338338028169092","500","250","tilt","psychophysics","49","360790","0.0-49.0","16","34","","","","","-9","-10","0"
"13338","key"," "," ","13.338167167167136","500","250","tilt","psychophysics","50","374129","0.0-50.0","16","34","","","","","0","2","1"
"1998","key"," "," ","13.337999999999763","500","250","tilt","psychophysics","51","376128","0.0-51.0","16","34","","","","","-4","-3","0"
"2136","key"," "," ","13.338000000000173","500","250","tilt","psychophysics","52","378267","0.0-52.0","16","34","","","","","-7","-2","1"
"2778","key"," "," ","13.338807692307736","500","250","tilt","psychophysics","53","381047","0.0-53.0","16","34","","","","","5","3","0"
"1585","key"," "," ","13.33800000000017","500","250","tilt","psychophysics","54","382634","0.0-54.0","16","34","","","","","0","0","0"
"1921","key"," "," ","13.337999999999814","500","250","tilt","psychophysics","55","384557","0.0-55.0","16","34","","","","","-4","-7","1"
"3990","key"," "," ","13.337999999999958","500","250","tilt","psychophysics","56","388548","0.0-56.0","16","34","","","","","-10","-9","0"
"2438","key"," "," ","13.338923076923123","500","250","tilt","psychophysics","57","390989","0.0-57.0","16","34","","","","","3","-2","0"
"2073","key"," "," ","13.33800000000009","500","250","tilt","psychophysics","58","393070","0.0-58.0","16","34","","","","","-6","-6","1"
"2675","key"," "," ","13.337999999999884","500","250","tilt","psychophysics","59","395748","0.0-59.0","16","34","","","","","9","6","1"
"2993","key"," "," ","13.337999999999788","500","250","tilt","psychophysics","60","398742","0.0-60.0","16","34","","","","","-1","-1","1"
"1538","key"," "," ","13.33799999999996","500","250","tilt","psychophysics","61","400283","0.0-61.0","16","34","","","","","-4","-3","1"
"1909","key"," "," ","13.339183098591477","500","250","tilt","psychophysics","62","402193","0.0-62.0","16","34","","","","","-6","-4","1"
"20508","key"," "," ","13.338217957059216","500","250","tilt","psychophysics","63","422702","0.0-63.0","16","34","","","","","3","2","0"
"1425","key"," "," ","13.338000000000356","500","250","tilt","psychophysics","64","424129","0.0-64.0","16","34","","","","","-7","-9","0"
"2890","key"," "," ","13.337999999999873","500","250","tilt","psychophysics","65","427021","0.0-65.0","16","34","","","","","11","10","0"
"2579","key"," "," ","13.337999999999983","500","250","tilt","psychophysics","66","429608","0.0-66.0","16","34","","","","","-5","-6","0"
"1471","key"," "," ","13.339532110091392","500","250","tilt","psychophysics","67","431082","0.0-67.0","16","34","","","","","4","2","0"
"2148","key"," "," ","13.337999999999738","500","250","tilt","psychophysics","68","433231","0.0-68.0","16","34","","","","","-5","-7","1"
"1685","key"," "," ","13.338000000000374","500","250","tilt","psychophysics","69","434918","0.0-69.0","16","34","","","","","6","4","1"
"1384","key"," "," ","13.338000000000127","500","250","tilt","psychophysics","70","436304","0.0-70.0","16","34","","","","","-7","-9","1"
"2044","key"," "," ","13.33799999999993","500","250","tilt","psychophysics","71","438350","0.0-71.0","16","34","","","","","-7","-8","0"
"606","key"," "," ","13.338000000000466","500","250","inst","psychophysics","72","438958","0.0-72.0","16","34","","","","","","",""
"5498","key"," "," ","13.338408759124112","500","250","instPz","psychophysics","73","444458","0.0-73.0","16","34","","","","","17","50",""
"1168","key"," "," ","13.338000000000198","500","250","instPz","psychophysics","74","445628","0.0-74.0","16","34","","","","","10","50",""
"2111","key"," "," ","13.337999999999946","500","250","instPz","psychophysics","75","447741","0.0-75.0","16","34","","","","","10","50",""
"811","key"," "," ","13.338000000000466","500","250","inst","psychophysics","76","448554","0.0-76.0","16","34","","","","","","",""
"13552","key"," "," ","13.338330049261055","500","250","pz","psychophysics","77","462107","0.0-77.0","16","34","","","","","44","41",""
"6545","key"," "," ","13.33799999999999","500","250","pz","psychophysics","78","468654","0.0-78.0","16","34","","","","","23","21",""
"15096","key"," "," ","13.33829619805483","500","250","pz","psychophysics","79","483751","0.0-79.0","16","34","","","","","38","35",""
"5861","key"," "," ","13.337999999999962","500","250","pz","psychophysics","80","489614","0.0-80.0","16","34","","","","","31","26",""
"5962","key"," "," ","13.338374439461967","500","250","pz","psychophysics","81","495577","0.0-81.0","16","34","","","","","45","43",""
"5947","key"," "," ","13.338377528089842","500","250","pz","psychophysics","82","501526","0.0-82.0","16","34","","","","","41","37",""
"4323","key"," "," ","13.337999999999997","500","250","pz","psychophysics","83","505857","0.0-83.0","16","34","","","","","27","26",""
"4979","key"," "," ","13.337999999999903","500","250","pz","psychophysics","84","510839","0.0-84.0","16","34","","","","","51","49",""
"6289","key"," "," ","13.33835668789817","500","250","pz","psychophysics","85","517130","0.0-85.0","16","34","","","","","57","58",""
"6172","key"," "," ","13.338361471861418","500","250","pz","psychophysics","86","523303","0.0-86.0","16","34","","","","","27","29",""
"5050","key"," "," ","13.338000000000095","500","250","pz","psychophysics","87","528356","0.0-87.0","16","34","","","","","34","31",""
"3317","key"," "," ","13.338677419354715","500","250","pz","psychophysics","88","531675","0.0-88.0","16","34","","","","","30","29",""
"40329","key"," "," ","13.338221634138279","500","250","pz","psychophysics","89","572003","0.0-89.0","16","34","","","","","26","26",""
"4948","key"," "," ","13.337999999999836","500","250","pz","psychophysics","90","576953","0.0-90.0","16","34","","","","","50","49",""
"4533","key"," "," ","13.338492625368591","500","250","pz","psychophysics","91","581487","0.0-91.0","16","34","","","","","29","29",""
"596","key"," "," ","13.337999999999408","500","250","inst","psychophysics","92","582085","0.0-92.0","16","34","","","","","","",""
"3946","key"," "," ","13.33800000000027","500","250","inst","psychophysics","93","586032","0.0-93.0","16","34","","","","","","",""
"21913","key"," "," ","13.338204019488431","500","250","instFlank","psychophysics","94","607946","0.0-94.0","16","34","","","","","0.5","0.3","1"
"2200","key"," "," ","13.338000000000182","500","250","inst","psychophysics","95","610148","0.0-95.0","16","34","","","","","","",""
"6344","key"," "," ","13.338353684210512","500","250","instFlank","psychophysics","96","616494","0.0-96.0","16","34","","","","","1","0.3","1"
"492","key"," "," ","13.337999999998525","500","250","inst","psychophysics","97","616988","0.0-97.0","16","34","","","","","","",""
"571","key"," "," ","13.337999999999912","500","250","instFlank","psychophysics","98","617562","0.0-98.0","16","34","","","","","0.5","0.3","0"
"931","key"," "," ","13.338000000000635","500","250","inst","psychophysics","99","618494","0.0-99.0","16","34","","","","","","",""
"4071","key"," "," ","13.338549342105244","500","250","flank","psychophysics","100","622567","0.0-100.0","16","34","","","","","1","0.66","1"
"5432","key"," "," ","13.33799999999998","500","250","flank","psychophysics","101","628002","0.0-101.0","16","34","","","","","0","0.48","0"
"4439","key"," "," ","13.33850602409627","500","250","flank","psychophysics","102","632444","0.0-102.0","16","34","","","","","0","0.22","0"
"3901","key"," "," ","13.338000000000026","500","250","flank","psychophysics","103","636348","0.0-103.0","16","34","","","","","0","0.72","0"
"4823","key"," "," ","13.338000000000111","500","250","flank","psychophysics","104","641173","0.0-104.0","16","34","","","","","1","0.5","1"
"3881","key"," "," ","13.33857931034471","500","250","flank","psychophysics","105","645056","0.0-105.0","16","34","","","","","0","0.66","0"
"3875","key"," "," ","13.338000000000065","500","250","flank","psychophysics","106","648934","0.0-106.0","16","34","","","","","0","0.28","0"
"4028","key"," "," ","13.33855481727584","500","250","flank","psychophysics","107","652964","0.0-107.0","16","34","","","","","0","0.8","0"
"3799","key"," "," ","13.337999999999893","500","250","flank","psychophysics","108","656765","0.0-108.0","16","34","","","","","0","0.74","0"
"4361","key"," "," ","13.338000000000251","500","250","flank","psychophysics","109","661129","0.0-109.0","16","34","","","","","1","0.44","1"
"3666","key"," "," ","13.338613138685808","500","250","flank","psychophysics","110","664797","0.0-110.0","16","34","","","","","0","0.48","0"
"3687","key"," "," ","13.337999999999791","500","250","flank","psychophysics","111","668487","0.0-111.0","16","34","","","","","0","0.38","0"
"3902","key"," "," ","13.338571917808261","500","250","flank","psychophysics","112","672391","0.0-112.0","16","34","","","","","1","0.62","1"
"4303","key"," "," ","13.338000000000031","500","250","flank","psychophysics","113","676697","0.0-113.0","16","34","","","","","1","0.5","1"
"3882","key"," "," ","13.338000000000065","500","250","flank","psychophysics","114","680581","0.0-114.0","16","34","","","","","1","0.62","1"
"4844","key"," "," ","13.338464088397723","500","250","flank","psychophysics","115","685427","0.0-115.0","16","34","","","","","0","0.28","0"
"3910","key"," "," ","13.337999999999987","500","250","flank","psychophysics","116","689339","0.0-116.0","16","34","","","","","0","0.4","0"
"3964","key"," "," ","13.338562289562534","500","250","flank","psychophysics","117","693306","0.0-117.0","16","34","","","","","0","0.56","1"
"4967","key"," "," ","13.33800000000012","500","250","flank","psychophysics","118","698275","0.0-118.0","16","34","","","","","0","0.2","0"
"5847","key"," "," ","13.338381278538836","500","250","flank","psychophysics","119","704125","0.0-119.0","16","34","","","","","0","0.62","0"
"4643","key"," "," ","13.337999999999896","500","250","flank","psychophysics","120","708769","0.0-120.0","16","34","","","","","1","0.56","1"
"4311","key"," "," ","13.338520123839203","500","250","flank","psychophysics","121","713083","0.0-121.0","16","34","","","","","0","0.36","0"
"6002","key"," "," ","13.337999999999973","500","250","flank","psychophysics","122","719087","0.0-122.0","16","34","","","","","1","0.42","1"
"4000","key"," "," ","13.338561872909636","500","250","flank","psychophysics","123","723090","0.0-123.0","16","34","","","","","0","0.58","0"
"3642","key"," "," ","13.337999999999951","500","250","flank","psychophysics","124","726734","0.0-124.0","16","34","","","","","1","0.66","1"
"3859","key"," "," ","13.338000000000104","500","250","flank","psychophysics","125","730596","0.0-125.0","16","34","","","","","0","0.28","0"
"3238","key"," "," ","13.338690082644582","500","250","flank","psychophysics","126","733836","0.0-126.0","16","34","","","","","1","0.76","1"
"3696","key"," "," ","13.338000000000212","500","250","flank","psychophysics","127","737534","0.0-127.0","16","34","","","","","1","0.22","1"
"3822","key"," "," ","13.337999999999814","500","250","flank","psychophysics","128","741359","0.0-128.0","16","34","","","","","1","0.6","1"
"3769","key"," "," ","13.338597864768918","500","250","flank","psychophysics","129","745130","0.0-129.0","16","34","","","","","1","0.66","1"
"true","fullscreen","0","7479","0.0-0.0","17","40","","","","","","","","","","","","","","","","","","",""
"true","preload","1","7482","0.0-1.0","17","40","false","[]","[]","[]","","","","","","","","","","","","","","",""
"","psychophysics","2","10885","0.0-2.0","17","40","","","","","3384","key"," "," ","16.67570588235294","500","250","inst","","","","","","",""
"","psychophysics","3","12815","0.0-3.0","17","40","","","","","1928","key"," "," ","16.674000000000003","500","250","inst","","","","","","",""
"","psychophysics","4","33025","0.0-4.0","17","40","","","","","20178","key"," "," ","16.688391735537188","500","250","instML","172","-28.666666666666668","8","2","-5.6666666666667425","",""
"","psychophysics","5","36226","0.0-5.0","17","40","","","","","3198","key"," "," ","16.67399999999998","500","250","inst","","","","","","",""
"","psychophysics","6","41010","0.0-6.0","17","40","","","","","4781","key"," "," ","16.675171328671336","500","250","ml","178","-18","11","-12","-6","",""
"","psychophysics","7","48798","0.0-7.0","17","40","","","","","7786","key"," "," ","16.674000000000007","500","250","ml","226","54","-6","-11","-8","",""
"","psychophysics","8","53016","0.0-8.0","17","40","","","","","4216","key"," "," ","16.675400793650798","500","250","ml","190","8","-27","-24","-6","",""
"","psychophysics","9","56838","0.0-9.0","17","40","","","","","3820","key"," "," ","16.673999999999992","500","250","ml","152","-28","11","14","-8","",""
"","psychophysics","10","66771","0.0-10.0","17","40","","","","","9931","key"," "," ","16.674578151260498","500","250","ml","192","-5","1","3","-5","",""
"","psychophysics","11","80450","0.0-11.0","17","40","","","","","13676","key"," "," ","16.67483028083028","500","250","ml","188","27","-11","-25","-7","",""
"","psychophysics","12","92800","0.0-12.0","17","40","","","","","12347","key"," "," ","16.697039242219226","500","250","ml","224","56","-30","6","-9","",""
"","psychophysics","13","99566","0.0-13.0","17","40","","","","","6763","key"," "," ","16.674000000000007","500","250","ml","220","33","-24","-8","1","",""
"","psychophysics","14","104901","0.0-14.0","17","40","","","","","5330","key"," "," ","16.674921630094055","500","250","ml","192","-6","17","-19","0","",""
"","psychophysics","15","109527","0.0-15.0","17","40","","","","","4623","key"," "," ","16.67399999999996","500","250","ml","234","-2","11","6","-2","",""
"","psychophysics","16","114575","0.0-16.0","17","40","","","","","5045","key"," "," ","16.675305647840556","500","250","ml","218","13","28","-3","4","",""
"","psychophysics","17","119509","0.0-17.0","17","40","","","","","4929","key"," "," ","16.674000000000007","500","250","ml","232","-19","-21","2","4","",""
"","psychophysics","18","123421","0.0-18.0","17","40","","","","","3906","key"," "," ","16.675478632478654","500","250","ml","234","10","-13","-29","-1","",""
"","psychophysics","19","129398","0.0-19.0","17","40","","","","","5975","key"," "," ","16.673999999999964","500","250","ml","198","42","7","8","9","",""
"","psychophysics","20","136071","0.0-20.0","17","40","","","","","6668","key"," "," ","16.67485999999997","500","250","ml","170","-7","27","7","1","",""
"","psychophysics","21","138854","0.0-21.0","17","40","","","","","2779","key"," "," ","16.67400000000012","500","250","inst","","","","","","",""
"","psychophysics","22","154211","0.0-22.0","17","40","","","","","15353","key"," "," ","16.67474999999999","500","250","instPog","","","","","130","130",""
"","psychophysics","23","164724","0.0-23.0","17","40","","","","","10508","key"," "," ","16.67454372019078","500","250","instPog","","","","","143","130",""
"","psychophysics","24","170412","0.0-24.0","17","40","","","","","5686","key"," "," ","16.724203539823023","500","250","instPog","","","","","145","130",""
"","psychophysics","25","172311","0.0-25.0","17","40","","","","","1896","key"," "," ","16.67399999999984","500","250","inst","","","","","","",""
"","psychophysics","26","185333","0.0-26.0","17","40","","","","","13004","key"," "," ","16.674439743589772","500","250","pog","","","","","210","197",""
"","psychophysics","27","194502","0.0-27.0","17","40","","","","","9166","key"," "," ","16.674624772313255","500","250","pog","","","","","175","166",""
"","psychophysics","28","201590","0.0-28.0","17","40","","","","","7086","key"," "," ","16.674797169811256","500","250","pog","","","","","179","165",""
"","psychophysics","29","205076","0.0-29.0","17","40","","","","","3484","key"," "," ","16.67400000000005","500","250","pog","","","","","171","160",""
"","psychophysics","30","209436","0.0-30.0","17","40","","","","","4358","key"," "," ","16.673999999999964","500","250","pog","","","","","185","170",""
"","psychophysics","31","212463","0.0-31.0","17","40","","","","","3025","key"," "," ","16.675944751381163","500","250","pog","","","","","170","155",""
"","psychophysics","32","217652","0.0-32.0","17","40","","","","","5187","key"," "," ","16.674000000000007","500","250","pog","","","","","192","178",""
"","psychophysics","33","222351","0.0-33.0","17","40","","","","","4698","key"," "," ","16.675224199288195","500","250","pog","","","","","183","164",""
"","psychophysics","34","230282","0.0-34.0","17","40","","","","","7929","key"," "," ","16.674710970464186","500","250","pog","","","","","211","194",""
"","psychophysics","35","238160","0.0-35.0","17","40","","","","","7873","key"," "," ","16.673999999999992","500","250","pog","","","","","186","168",""
"","psychophysics","36","245048","0.0-36.0","17","40","","","","","6870","key"," "," ","16.674849514563107","500","250","pog","","","","","152","140",""
"","psychophysics","37","252621","0.0-37.0","17","40","","","","","7572","key"," "," ","16.674761589403943","500","250","pog","","","","","217","199",""
"","psychophysics","38","259054","0.0-38.0","17","40","","","","","6431","key"," "," ","16.674000000000053","500","250","pog","","","","","209","192",""
"","psychophysics","39","265190","0.0-39.0","17","40","","","","","6134","key"," "," ","16.67491825613081","500","250","pog","","","","","194","182",""
"","psychophysics","40","275557","0.0-40.0","17","40","","","","","10365","key"," "," ","16.674563607085314","500","250","pog","","","","","187","175",""
"","psychophysics","41","277613","0.0-41.0","17","40","","","","","2052","key"," "," ","16.674000000000024","500","250","inst","","","","","","",""
"","psychophysics","42","281451","0.0-42.0","17","40","","","","","3835","key"," "," ","16.675336244541494","500","250","instTilt","","","","","NaN","0","0"
"","psychophysics","43","284500","0.0-43.0","17","40","","","","","3047","key"," "," ","16.674000000000028","500","250","instTilt","","","","","0","0","0"
"","psychophysics","44","292556","0.0-44.0","17","40","","","","","8055","key"," "," ","16.674780082987564","500","250","instTilt","","","","","0","0","0"
"","psychophysics","45","296145","0.0-45.0","17","40","","","","","3587","key"," "," ","16.673999999999886","500","250","inst","","","","","","",""
"","psychophysics","46","299507","0.0-46.0","17","40","","","","","3359","key"," "," ","16.674000000000227","500","250","tilt","","","","","5","6","0"
"","psychophysics","47","303882","0.0-47.0","17","40","","","","","4373","key"," "," ","16.675344827586038","500","250","tilt","","","","","3","4","0"
"","psychophysics","48","308092","0.0-48.0","17","40","","","","","4208","key"," "," ","16.673999999999992","500","250","tilt","","","","","-6","-7","0"
"","psychophysics","49","314430","0.0-49.0","17","40","","","","","6335","key"," "," ","16.674907651715138","500","250","tilt","","","","","-1","-3","0"
"","psychophysics","50","318685","0.0-50.0","17","40","","","","","4253","key"," "," ","16.673999999999985","500","250","tilt","","","","","3","7","1"
"","psychophysics","51","323772","0.0-51.0","17","40","","","","","5084","key"," "," ","16.675105263157956","500","250","tilt","","","","","-10","-8","1"
"","psychophysics","52","326814","0.0-52.0","17","40","","","","","3041","key"," "," ","16.67399999999971","500","250","tilt","","","","","2","4","1"
"","psychophysics","53","329040","0.0-53.0","17","40","","","","","2208","key"," "," ","16.674000000000383","500","250","tilt","","","","","-3","-7","0"
"","psychophysics","54","334795","0.0-54.0","17","40","","","","","5754","key"," "," ","16.67502616279062","500","250","tilt","","","","","6","9","1"
"","psychophysics","55","337100","0.0-55.0","17","40","","","","","2304","key"," "," ","16.673999999999918","500","250","tilt","","","","","-1","-1","1"
"","psychophysics","56","340854","0.0-56.0","17","40","","","","","3751","key"," "," ","16.67553125000008","500","250","tilt","","","","","3","5","0"
"","psychophysics","57","343246","0.0-57.0","17","40","","","","","2386","key"," "," ","16.673999999999882","500","250","tilt","","","","","-2","0","1"
"","psychophysics","58","345462","0.0-58.0","17","40","","","","","2214","key"," "," ","16.67399999999995","500","250","tilt","","","","","-3","-6","1"
"","psychophysics","59","352201","0.0-59.0","17","40","","","","","6736","key"," "," ","16.674861042183725","500","250","tilt","","","","","5","9","1"
"","psychophysics","60","356600","0.0-60.0","17","40","","","","","4381","key"," "," ","16.673999999999953","500","250","tilt","","","","","-8","-6","1"
"","psychophysics","61","362338","0.0-61.0","17","40","","","","","5735","key"," "," ","16.674851311953315","500","250","tilt","","","","","-9","-8","1"
"","psychophysics","62","364965","0.0-62.0","17","40","","","","","2625","key"," "," ","16.674000000000188","500","250","tilt","","","","","-1","-4","0"
"","psychophysics","63","369009","0.0-63.0","17","40","","","","","4028","key"," "," ","16.67400000000003","500","250","tilt","","","","","3","6","0"
"","psychophysics","64","372176","0.0-64.0","17","40","","","","","3165","key"," "," ","16.676052910052782","500","250","tilt","","","","","-2","-4","0"
"","psychophysics","65","375182","0.0-65.0","17","40","","","","","2991","key"," "," ","16.674000000000046","500","250","tilt","","","","","-5","-7","0"
"","psychophysics","66","378463","0.0-66.0","17","40","","","","","3278","key"," "," ","16.67399999999996","500","250","tilt","","","","","4","10","1"
"","psychophysics","67","382549","0.0-67.0","17","40","","","","","4085","key"," "," ","16.67522131147547","500","250","tilt","","","","","4","7","1"
"","psychophysics","68","388552","0.0-68.0","17","40","","","","","6001","key"," "," ","16.674000000000042","500","250","tilt","","","","","8","10","0"
"","psychophysics","69","393511","0.0-69.0","17","40","","","","","4956","key"," "," ","16.67533783783772","500","250","tilt","","","","","8","10","0"
"","psychophysics","70","396937","0.0-70.0","17","40","","","","","3409","key"," "," ","16.67399999999992","500","250","tilt","","","","","6","10","1"
"","psychophysics","71","402123","0.0-71.0","17","40","","","","","5183","key"," "," ","16.675112903225912","500","250","tilt","","","","","-11","-9","1"
"","psychophysics","72","404662","0.0-72.0","17","40","","","","","2537","key"," "," ","16.67399999999984","500","250","tilt","","","","","6","5","0"
"","psychophysics","73","409447","0.0-73.0","17","40","","","","","4767","key"," "," ","16.791422535211353","500","250","tilt","","","","","-6","-7","0"
"","psychophysics","74","412313","0.0-74.0","17","40","","","","","2864","key"," "," ","16.676005847953267","500","250","tilt","","","","","4","8","1"
"","psychophysics","75","415979","0.0-75.0","17","40","","","","","3663","key"," "," ","16.673999999999864","500","250","tilt","","","","","6","10","1"
"","psychophysics","76","421483","0.0-76.0","17","40","","","","","5502","key"," "," ","16.6750425531916","500","250","inst","","","","","","",""
"","psychophysics","77","433786","0.0-77.0","17","40","","","","","12299","key"," "," ","16.67446874999998","500","250","instPz","","","","","48","50",""
"","psychophysics","78","439905","0.0-78.0","17","40","","","","","6113","key"," "," ","16.67400000000002","500","250","instPz","","","","","48","50",""
"","psychophysics","79","453018","0.0-79.0","17","40","","","","","13109","key"," "," ","16.674877707006345","500","250","instPz","","","","","54","50",""
"","psychophysics","80","454149","0.0-80.0","17","40","","","","","1129","key"," "," ","16.67399999999994","500","250","inst","","","","","","",""
"","psychophysics","81","458155","0.0-81.0","17","40","","","","","4004","key"," "," ","16.674000000000042","500","250","pz","","","","","31","27",""
"","psychophysics","82","465194","0.0-82.0","17","40","","","","","7037","key"," "," ","16.67479809976253","500","250","pz","","","","","47","41",""
"","psychophysics","83","470860","0.0-83.0","17","40","","","","","5664","key"," "," ","16.67399999999993","500","250","pz","","","","","36","32",""
"","psychophysics","84","480150","0.0-84.0","17","40","","","","","9288","key"," "," ","16.674620503597186","500","250","pz","","","","","59","58",""
"","psychophysics","85","488224","0.0-85.0","17","40","","","","","8072","key"," "," ","16.6747267080745","500","250","pz","","","","","30","24",""
"","psychophysics","86","493104","0.0-86.0","17","40","","","","","4878","key"," "," ","16.67517808219179","500","250","pz","","","","","48","43",""
"","psychophysics","87","499911","0.0-87.0","17","40","","","","","6805","key"," "," ","16.67399999999993","500","250","pz","","","","","45","39",""
"","psychophysics","88","505731","0.0-88.0","17","40","","","","","5818","key"," "," ","16.674988505747148","500","250","pz","","","","","51","44",""
"","psychophysics","89","509787","0.0-89.0","17","40","","","","","4054","key"," "," ","16.67400000000003","500","250","pz","","","","","39","30",""
"","psychophysics","90","516553","0.0-90.0","17","40","","","","","6763","key"," "," ","16.674846913580307","500","250","pz","","","","","52","45",""
"","psychophysics","91","521921","0.0-91.0","17","40","","","","","5367","key"," "," ","16.675074766355028","500","250","pz","","","","","50","45",""
"","psychophysics","92","532862","0.0-92.0","17","40","","","","","10939","key"," "," ","16.674523664122262","500","250","pz","","","","","72","58",""
"","psychophysics","93","543469","0.0-93.0","17","40","","","","","10605","key"," "," ","16.67454173228333","500","250","pz","","","","","50","47",""
"","psychophysics","94","551236","0.0-94.0","17","40","","","","","7765","key"," "," ","16.782272727272797","500","250","pz","","","","","27","22",""
"","psychophysics","95","558622","0.0-95.0","17","40","","","","","7384","key"," "," ","16.674778280542938","500","250","pz","","","","","35","27",""
"","psychophysics","96","561590","0.0-96.0","17","40","","","","","2967","key"," "," ","16.67594350282482","500","250","inst","","","","","","",""
"","psychophysics","97","565734","0.0-97.0","17","40","","","","","4142","key"," "," ","16.67400000000001","500","250","inst","","","","","","",""
"","psychophysics","98","567990","0.0-98.0","17","40","","","","","2248","key"," "," ","16.673999999999932","500","250","instFlank","","","","","0.5","0.3","1"
"","psychophysics","99","575888","0.0-99.0","17","40","","","","","7896","key"," "," ","16.674730932203385","500","250","inst","","","","","","",""
"","psychophysics","100","582266","0.0-100.0","17","40","","","","","6375","key"," "," ","16.6749005235603","500","250","instFlank","","","","","0.3799999999999999","0.3","1"
"","psychophysics","101","586917","0.0-101.0","17","40","","","","","4649","key"," "," ","16.673999999999907","500","250","inst","","","","","","",""
"","psychophysics","102","591273","0.0-102.0","17","40","","","","","4339","key"," "," ","16.673999999999964","500","250","instFlank","","","","","0.43999999999999995","0.3","0"
"","psychophysics","103","593439","0.0-103.0","17","40","","","","","2163","key"," "," ","16.676255813954118","500","250","inst","","","","","","",""
"","psychophysics","104","598124","0.0-104.0","17","40","","","","","4683","key"," "," ","16.6739999999999","500","250","flank","","","","","0.34999999999999987","0.26","1"
"","psychophysics","105","602020","0.0-105.0","17","40","","","","","3893","key"," "," ","16.67566952789692","500","250","flank","","","","","0.56","0.6","0"
"","psychophysics","106","606862","0.0-106.0","17","40","","","","","4838","key"," "," ","16.673999999999875","500","250","flank","","","","","0.6200000000000001","0.7","0"
"","psychophysics","107","610834","0.0-107.0","17","40","","","","","3969","key"," "," ","16.674000000000053","500","250","flank","","","","","0.6500000000000001","0.72","0"
"","psychophysics","108","614582","0.0-108.0","17","40","","","","","3746","key"," "," ","16.67535267857134","500","250","flank","","","","","0.5","0.3","0"
"","psychophysics","109","618285","0.0-109.0","17","40","","","","","3700","key"," "," ","16.674000000000124","500","250","flank","","","","","0.5900000000000001","0.6","0"
"","psychophysics","110","621903","0.0-110.0","17","40","","","","","3616","key"," "," ","16.675824074074086","500","250","flank","","","","","0.6200000000000001","0.64","0"
"","psychophysics","111","625539","0.0-111.0","17","40","","","","","3634","key"," "," ","16.67400000000014","500","250","flank","","","","","0.53","0.46","1"
"","psychophysics","112","631040","0.0-112.0","17","40","","","","","5499","key"," "," ","16.67400000000013","500","250","flank","","","","","0.5900000000000001","0.6","0"
"","psychophysics","113","636776","0.0-113.0","17","40","","","","","5733","key"," "," ","16.675005830903796","500","250","flank","","","","","0.4099999999999999","0.32","1"
"","psychophysics","114","640813","0.0-114.0","17","40","","","","","4035","key"," "," ","16.674000000000035","500","250","flank","","","","","0.4099999999999999","0.22","0"
"","psychophysics","115","645015","0.0-115.0","17","40","","","","","4200","key"," "," ","16.675366533864512","500","250","flank","","","","","0.4099999999999999","0.24","0"
"","psychophysics","116","650686","0.0-116.0","17","40","","","","","5669","key"," "," ","16.772955489614","500","250","flank","","","","","0.2299999999999998","0.2","1"
"","psychophysics","117","654869","0.0-117.0","17","40","","","","","4181","key"," "," ","16.675380000000352","500","250","flank","","","","","0.34999999999999987","0.24","1"
"","psychophysics","118","658231","0.0-118.0","17","40","","","","","3359","key"," "," ","16.67399999999965","500","250","flank","","","","","0.5900000000000001","0.64","0"
"","psychophysics","119","661488","0.0-119.0","17","40","","","","","3253","key"," "," ","16.674000000000262","500","250","flank","","","","","0.5","0.5","1"
"","psychophysics","120","664841","0.0-120.0","17","40","","","","","3350","key"," "," ","16.675709999999963","500","250","flank","","","","","0.3799999999999999","0.2","0"
"","psychophysics","121","668580","0.0-121.0","17","40","","","","","3737","key"," "," ","16.674000000000113","500","250","flank","","","","","0.47","0.4","0"
"","psychophysics","122","672301","0.0-122.0","17","40","","","","","3719","key"," "," ","16.67532882882861","500","250","flank","","","","","0.4099999999999999","0.32","1"
"","psychophysics","123","675560","0.0-123.0","17","40","","","","","3256","key"," "," ","16.674000000000262","500","250","flank","","","","","0.47","0.44","1"
"","psychophysics","124","679037","0.0-124.0","17","40","","","","","3474","key"," "," ","16.67399999999963","500","250","flank","","","","","0.5","0.34","0"
"","psychophysics","125","683309","0.0-125.0","17","40","","","","","4270","key"," "," ","16.675407843137453","500","250","flank","","","","","0.56","0.52","0"
"","psychophysics","126","688102","0.0-126.0","17","40","","","","","4788","key"," "," ","16.67399999999988","500","250","flank","","","","","0.5","0.3","0"
"","psychophysics","127","694369","0.0-127.0","17","40","","","","","6264","key"," "," ","16.675013333333347","500","250","flank","","","","","0.7100000000000002","0.78","1"
"","psychophysics","128","698614","0.0-128.0","17","40","","","","","4242","key"," "," ","16.67399999999999","500","250","flank","","","","","0.53","0.38","0"
"","psychophysics","129","702376","0.0-129.0","17","40","","","","","3760","key"," "," ","16.67552444444452","500","250","flank","","","","","0.6200000000000001","0.6","0"
"","psychophysics","130","706280","0.0-130.0","17","40","","","","","3902","key"," "," ","16.674000000000067","500","250","flank","","","","","0.5900000000000001","0.62","1"
"","psychophysics","131","709631","0.0-131.0","17","40","","","","","3334","key"," "," ","16.674000000000234","500","250","flank","","","","","0.4099999999999999","0.26","1"
"","psychophysics","132","712670","0.0-132.0","17","40","","","","","3037","key"," "," ","16.675906077347623","500","250","flank","","","","","0.6200000000000001","0.64","1"
"","psychophysics","133","716054","0.0-133.0","17","40","","","","","3382","key"," "," ","16.67400000000022","500","250","flank","","","","","0.56","0.5","1"
"true","fullscreen","134","716056","0.0-134.0","17","40","","","","","","","","","","","","","","","","","","",""
"6106","key"," "," ","16.652173913043477","500","250","inst","psychophysics","0","6136","0.0-0.0","5","35","","","","","","",""
"1913","key"," "," ","16.666666666666668","500","250","inst","psychophysics","1","8053","0.0-1.0","5","35","","","","","","",""
"15447","key"," "," ","16.794341675734493","500","250","instML","psychophysics","2","23503","0.0-2.0","5","35","224","-37.333333333333336","-18","-2","-30.333333333333314","",""
"5061","key"," "," ","16.666666666666668","500","250","inst","psychophysics","3","28568","0.0-3.0","5","35","","","","","","",""
"4179","key"," "," ","16.668","500","250","ml","psychophysics","4","32752","0.0-4.0","5","35","194","-17","-28","21","-21","",""
"5667","key"," "," ","16.666666666666668","500","250","ml","psychophysics","5","38421","0.0-5.0","5","35","170","-35","6","5","-25","",""
"12685","key"," "," ","16.731836195508585","500","250","ml","psychophysics","6","51109","0.0-6.0","5","35","182","41","15","-12","-21","",""
"9139","key"," "," ","16.664233576642335","500","250","ml","psychophysics","7","60250","0.0-7.0","5","35","176","41","-4","25","-13","",""
"4293","key"," "," ","16.66147859922179","500","250","ml","psychophysics","8","64547","0.0-8.0","5","35","226","-20","5","29","-20","",""
"12060","key"," "," ","16.666204986149584","500","250","ml","psychophysics","9","76609","0.0-9.0","5","35","176","42","-15","3","-20","",""
"8093","key"," "," ","16.668041237113403","500","250","ml","psychophysics","10","84705","0.0-10.0","5","35","162","-39","-5","14","-19","",""
"5276","key"," "," ","16.667721518987342","500","250","ml","psychophysics","11","89987","0.0-11.0","5","35","236","-45","-26","-6","-25","",""
"5937","key"," "," ","16.668539325842698","500","250","ml","psychophysics","12","95931","0.0-12.0","5","35","178","-28","22","28","-21","",""
"4227","key"," "," ","16.666666666666668","500","250","ml","psychophysics","13","100161","0.0-13.0","5","35","194","-25","-11","19","-20","",""
"6257","key"," "," ","16.658666666666665","500","250","ml","psychophysics","14","106421","0.0-14.0","5","35","230","-57","-24","21","-23","",""
"10773","key"," "," ","16.6656346749226","500","250","ml","psychophysics","15","117197","0.0-15.0","5","35","162","31","23","21","-15","",""
"7278","key"," "," ","16.665137614678898","500","250","ml","psychophysics","16","124479","0.0-16.0","5","35","242","39","19","4","-17","",""
"2720","key"," "," ","16.67283950617284","500","250","ml","psychophysics","17","127202","0.0-17.0","5","35","166","-23","25","-26","-21","",""
"2440","key"," "," ","16.664383561643834","500","250","ml","psychophysics","18","129645","0.0-18.0","5","35","238","-29","-3","-17","-24","",""
"7849","key"," "," ","16.66808510638298","500","250","inst","psychophysics","19","137497","0.0-19.0","5","35","","","","","","",""
"16231","key"," "," ","16.667009249743064","500","250","instPog","psychophysics","20","153733","0.0-20.0","5","35","","","","","198","180",""
"1096","key"," "," ","16.676923076923078","500","250","inst","psychophysics","21","154833","0.0-21.0","5","35","","","","","","",""
"3725","key"," "," ","16.666666666666668","500","250","pog","psychophysics","22","158560","0.0-22.0","5","35","","","","","179","152",""
"2326","key"," "," ","16.640287769784173","500","250","pog","psychophysics","23","160890","0.0-23.0","5","35","","","","","178","149",""
"312","key"," "," ","16.72222222222222","500","250","pog","psychophysics","24","161206","0.0-24.0","5","35","","","","","160","145",""
"4971","key"," "," ","16.664429530201343","500","250","pog","psychophysics","25","166181","0.0-25.0","5","35","","","","","171","142",""
"1272","key"," "," ","16.653333333333332","500","250","pog","psychophysics","26","167456","0.0-26.0","5","35","","","","","161","135",""
"10856","key"," "," ","16.666666666666668","500","250","pog","psychophysics","27","178314","0.0-27.0","5","35","","","","","207","184",""
"3833","key"," "," ","16.66812227074236","500","250","pog","psychophysics","28","182150","0.0-28.0","5","35","","","","","156","133",""
"6777","key"," "," ","16.665024630541872","500","250","pog","psychophysics","29","188931","0.0-29.0","5","35","","","","","180","166",""
"4431","key"," "," ","16.664150943396226","500","250","pog","psychophysics","30","193365","0.0-30.0","5","35","","","","","151","127",""
"9188","key"," "," ","16.665454545454544","500","250","pog","psychophysics","31","202556","0.0-31.0","5","35","","","","","174","153",""
"1705","key"," "," ","16.666666666666668","500","250","pog","psychophysics","32","204265","0.0-32.0","5","35","","","","","168","141",""
"6854","key"," "," ","16.665853658536584","500","250","pog","psychophysics","33","211123","0.0-33.0","5","35","","","","","193","166",""
"8689","key"," "," ","16.66602687140115","500","250","pog","psychophysics","34","219815","0.0-34.0","5","35","","","","","192","168",""
"6972","key"," "," ","16.666666666666668","500","250","pog","psychophysics","35","226791","0.0-35.0","5","35","","","","","166","141",""
"5433","key"," "," ","16.662576687116566","500","250","pog","psychophysics","36","232232","0.0-36.0","5","35","","","","","192","162",""
"791","key"," "," ","16.652173913043477","500","250","inst","psychophysics","37","233025","0.0-37.0","5","35","","","","","","",""
"6426","key"," "," ","16.65714285714286","500","250","instTilt","psychophysics","38","239456","0.0-38.0","5","35","","","","","NaN","0","0"
"4957","key"," "," ","16.663299663299664","500","250","instTilt","psychophysics","39","244416","0.0-39.0","5","35","","","","","0","0","0"
"16203","key"," "," ","16.66735324407827","500","250","instTilt","psychophysics","40","260622","0.0-40.0","5","35","","","","","1","0","0"
"1599","key"," "," ","16.645833333333332","500","250","inst","psychophysics","41","262226","0.0-41.0","5","35","","","","","","",""
"3234","key"," "," ","16.66839378238342","500","250","tilt","psychophysics","42","265463","0.0-42.0","5","35","","","","","-6","-2","1"
"3193","key"," "," ","16.670157068062828","500","250","tilt","psychophysics","43","268659","0.0-43.0","5","35","","","","","-2","-3","0"
"4458","key"," "," ","16.665413533834588","500","250","tilt","psychophysics","44","273121","0.0-44.0","5","35","","","","","4","8","0"
"2555","key"," "," ","16.666666666666668","500","250","tilt","psychophysics","45","275679","0.0-45.0","5","35","","","","","4","2","0"
"2818","key"," "," ","16.666666666666668","500","250","tilt","psychophysics","46","278501","0.0-46.0","5","35","","","","","-5","-6","1"
"2952","key"," "," ","16.664772727272727","500","250","tilt","psychophysics","47","281455","0.0-47.0","5","35","","","","","3","1","0"
"3909","key"," "," ","16.662393162393162","500","250","tilt","psychophysics","48","285369","0.0-48.0","5","35","","","","","-8","-10","1"
"4887","key"," "," ","16.66552901023891","500","250","tilt","psychophysics","49","290258","0.0-49.0","5","35","","","","","-4","-4","1"
"6625","key"," "," ","16.666666666666668","500","250","tilt","psychophysics","50","296887","0.0-50.0","5","35","","","","","-6","-9","0"
"3189","key"," "," ","16.664921465968586","500","250","tilt","psychophysics","51","300080","0.0-51.0","5","35","","","","","3","8","1"
"3029","key"," "," ","16.662983425414364","500","250","tilt","psychophysics","52","303113","0.0-52.0","5","35","","","","","1","-1","0"
"1015","key"," "," ","16.65","500","250","tilt","psychophysics","53","304131","0.0-53.0","5","35","","","","","0","2","0"
"2769","key"," "," ","16.672727272727272","500","250","tilt","psychophysics","54","306904","0.0-54.0","5","35","","","","","3","1","0"
"1960","key"," "," ","16.666666666666668","500","250","tilt","psychophysics","55","308867","0.0-55.0","5","35","","","","","5","7","1"
"7867","key"," "," ","16.666666666666668","500","250","tilt","psychophysics","56","316738","0.0-56.0","5","35","","","","","-2","1","1"
"3463","key"," "," ","16.666666666666668","500","250","tilt","psychophysics","57","320205","0.0-57.0","5","35","","","","","-4","-5","1"
"3926","key"," "," ","16.65531914893617","500","250","tilt","psychophysics","58","324135","0.0-58.0","5","35","","","","","-6","-7","1"
"1057","key"," "," ","16.666666666666668","500","250","tilt","psychophysics","59","325194","0.0-59.0","5","35","","","","","0","-5","0"
"3859","key"," "," ","16.660869565217393","500","250","tilt","psychophysics","60","329057","0.0-60.0","5","35","","","","","-2","-6","0"
"2567","key"," "," ","16.649350649350648","500","250","tilt","psychophysics","61","331628","0.0-61.0","5","35","","","","","-3","-4","0"
"2062","key"," "," ","16.666666666666668","500","250","tilt","psychophysics","62","333693","0.0-62.0","5","35","","","","","-2","-4","0"
"4606","key"," "," ","16.669090909090908","500","250","tilt","psychophysics","63","338301","0.0-63.0","5","35","","","","","1","2","1"
"2219","key"," "," ","16.669172932330827","500","250","tilt","psychophysics","64","340524","0.0-64.0","5","35","","","","","-2","-5","0"
"2698","key"," "," ","16.664596273291924","500","250","tilt","psychophysics","65","343225","0.0-65.0","5","35","","","","","-3","-2","1"
"687","key"," "," ","16.675","500","250","tilt","psychophysics","66","343916","0.0-66.0","5","35","","","","","0","-7","1"
"2368","key"," "," ","16.666666666666668","500","250","tilt","psychophysics","67","346286","0.0-67.0","5","35","","","","","2","0","0"
"2205","key"," "," ","16.666666666666668","500","250","tilt","psychophysics","68","348493","0.0-68.0","5","35","","","","","3","2","0"
"2307","key"," "," ","16.918518518518518","500","250","tilt","psychophysics","69","350804","0.0-69.0","5","35","","","","","-6","-5","1"
"2286","key"," "," ","16.664233576642335","500","250","tilt","psychophysics","70","353093","0.0-70.0","5","35","","","","","-5","-1","1"
"2113","key"," "," ","16.674603174603174","500","250","tilt","psychophysics","71","355210","0.0-71.0","5","35","","","","","-10","-8","1"
"3308","key"," "," ","16.66497461928934","500","250","inst","psychophysics","72","358520","0.0-72.0","5","35","","","","","","",""
"25554","key"," "," ","16.666666666666668","500","250","instPz","psychophysics","73","384076","0.0-73.0","5","35","","","","","181","50",""
"18992","key"," "," ","16.666374012291485","500","250","instPz","psychophysics","74","403072","0.0-74.0","5","35","","","","","178","50",""
"6787","key"," "," ","16.667487684729064","500","250","instPz","psychophysics","75","409862","0.0-75.0","5","35","","","","","10","50",""
"1837","key"," "," ","16.6697247706422","500","250","inst","psychophysics","76","411700","0.0-76.0","5","35","","","","","","",""
"5125","key"," "," ","16.664495114006513","500","250","pz","psychophysics","77","416829","0.0-77.0","5","35","","","","","35","25",""
"5720","key"," "," ","16.666666666666668","500","250","pz","psychophysics","78","422553","0.0-78.0","5","35","","","","","55","38",""
"5376","key"," "," ","16.6625386996904","500","250","pz","psychophysics","79","427948","0.0-79.0","5","35","","","","","61","49",""
"632","key"," "," ","16.675675675675677","500","250","pz","psychophysics","80","428585","0.0-80.0","5","35","","","","","10","28",""
"9023","key"," "," ","16.66358595194085","500","250","pz","psychophysics","81","437611","0.0-81.0","5","35","","","","","89","60",""
"7617","key"," "," ","16.666666666666668","500","250","pz","psychophysics","82","445231","0.0-82.0","5","35","","","","","36","23",""
"10569","key"," "," ","16.66824644549763","500","250","pz","psychophysics","83","455802","0.0-83.0","5","35","","","","","78","54",""
"4550","key"," "," ","16.65934065934066","500","250","pz","psychophysics","84","460356","0.0-84.0","5","35","","","","","38","28",""
"3175","key"," "," ","16.666666666666668","500","250","pz","psychophysics","85","463535","0.0-85.0","5","35","","","","","35","24",""
"7578","key"," "," ","16.662995594713657","500","250","pz","psychophysics","86","471118","0.0-86.0","5","35","","","","","65","45",""
"3625","key"," "," ","16.658986175115206","500","250","pz","psychophysics","87","474747","0.0-87.0","5","35","","","","","41","28",""
"6518","key"," "," ","16.664102564102564","500","250","pz","psychophysics","88","481267","0.0-88.0","5","35","","","","","73","55",""
"5477","key"," "," ","16.66768292682927","500","250","pz","psychophysics","89","486747","0.0-89.0","5","35","","","","","50","35",""
"8154","key"," "," ","16.66871165644172","500","250","pz","psychophysics","90","494904","0.0-90.0","5","35","","","","","69","50",""
"5764","key"," "," ","16.66376811594203","500","250","pz","psychophysics","91","500672","0.0-91.0","5","35","","","","","42","33",""
"2480","key"," "," ","16.66891891891892","500","250","inst","psychophysics","92","503158","0.0-92.0","5","35","","","","","","",""
"3741","key"," "," ","16.743243243243242","500","250","inst","psychophysics","93","506901","0.0-93.0","5","35","","","","","","",""
"7490","key"," "," ","16.661469933184854","500","250","instFlank","psychophysics","94","514396","0.0-94.0","5","35","","","","","0.5","0.3","1"
"4166","key"," "," ","16.666666666666668","500","250","inst","psychophysics","95","518566","0.0-95.0","5","35","","","","","","",""
"4154","key"," "," ","16.662650602409638","500","250","instFlank","psychophysics","96","522723","0.0-96.0","5","35","","","","","0.47","0.3","1"
"5664","key"," "," ","16.666666666666668","500","250","inst","psychophysics","97","528388","0.0-97.0","5","35","","","","","","",""
"6021","key"," "," ","16.663888888888888","500","250","instFlank","psychophysics","98","534412","0.0-98.0","5","35","","","","","0.53","0.3","0"
"2015","key"," "," ","16.666666666666668","500","250","inst","psychophysics","99","536429","0.0-99.0","5","35","","","","","","",""
"5717","key"," "," ","16.666666666666668","500","250","flank","psychophysics","100","542148","0.0-100.0","5","35","","","","","0.53","0.26","0"
"4461","key"," "," ","16.666666666666668","500","250","flank","psychophysics","101","546612","0.0-101.0","5","35","","","","","0.56","0.52","1"
"3250","key"," "," ","16.670103092783506","500","250","flank","psychophysics","102","549867","0.0-102.0","5","35","","","","","0.7100000000000002","0.7","0"
"3268","key"," "," ","16.658163265306122","500","250","flank","psychophysics","103","553140","0.0-103.0","5","35","","","","","0.7100000000000002","0.66","0"
"2955","key"," "," ","16.664772727272727","500","250","flank","psychophysics","104","556098","0.0-104.0","5","35","","","","","0.6800000000000002","0.48","0"
"3096","key"," "," ","16.65945945945946","500","250","flank","psychophysics","105","559198","0.0-105.0","5","35","","","","","0.7100000000000002","0.64","1"
"3037","key"," "," ","16.664835164835164","500","250","flank","psychophysics","106","562240","0.0-106.0","5","35","","","","","0.6200000000000001","0.46","0"
"3183","key"," "," ","16.66842105263158","500","250","flank","psychophysics","107","565427","0.0-107.0","5","35","","","","","0.7700000000000002","0.76","1"
"4561","key"," "," ","16.666666666666668","500","250","flank","psychophysics","108","569992","0.0-108.0","5","35","","","","","0.1999999999999998","0.22","1"
"3195","key"," "," ","16.664921465968586","500","250","flank","psychophysics","109","573191","0.0-109.0","5","35","","","","","0.6800000000000002","0.68","1"
"3050","key"," "," ","16.664835164835164","500","250","flank","psychophysics","110","576244","0.0-110.0","5","35","","","","","0.34999999999999987","0.48","1"
"3812","key"," "," ","16.67105263157895","500","250","flank","psychophysics","111","580062","0.0-111.0","5","35","","","","","0.6200000000000001","0.56","1"
"2667","key"," "," ","16.666666666666668","500","250","flank","psychophysics","112","582732","0.0-112.0","5","35","","","","","0.47","0.44","0"
"2516","key"," "," ","16.649006622516556","500","250","flank","psychophysics","113","585251","0.0-113.0","5","35","","","","","0.47","0.42","1"
"3245","key"," "," ","16.66321243523316","500","250","flank","psychophysics","114","588500","0.0-114.0","5","35","","","","","0.7400000000000002","0.8","0"
"4356","key"," "," ","16.659003831417625","500","250","flank","psychophysics","115","592861","0.0-115.0","5","35","","","","","0.8000000000000003","0.76","0"
"3747","key"," "," ","16.665178571428573","500","250","flank","psychophysics","116","596613","0.0-116.0","5","35","","","","","0.6800000000000002","0.66","0"
"3270","key"," "," ","16.668367346938776","500","250","flank","psychophysics","117","599886","0.0-117.0","5","35","","","","","0.7100000000000002","0.78","0"
"2958","key"," "," ","16.676136363636363","500","250","flank","psychophysics","118","602849","0.0-118.0","5","35","","","","","0.6500000000000001","0.48","0"
"2607","key"," "," ","16.66025641025641","500","250","flank","psychophysics","119","605460","0.0-119.0","5","35","","","","","0.6500000000000001","0.54","1"
"2630","key"," "," ","16.67515923566879","500","250","flank","psychophysics","120","608094","0.0-120.0","5","35","","","","","0.6500000000000001","0.54","1"
"5271","key"," "," ","16.664556962025316","500","250","flank","psychophysics","121","613368","0.0-121.0","5","35","","","","","0.7700000000000002","0.7","1"
"4564","key"," "," ","16.67032967032967","500","250","flank","psychophysics","122","617936","0.0-122.0","5","35","","","","","0.31999999999999984","0.28","1"
"3399","key"," "," ","16.660098522167488","500","250","flank","psychophysics","123","621337","0.0-123.0","5","35","","","","","0.5","0.22","1"
"4400","key"," "," ","16.665399239543728","500","250","flank","psychophysics","124","625740","0.0-124.0","5","35","","","","","0.7700000000000002","0.74","1"
"3808","key"," "," ","16.666666666666668","500","250","flank","psychophysics","125","629552","0.0-125.0","5","35","","","","","0.1699999999999998","0.24","0"
"4553","key"," "," ","16.669117647058822","500","250","flank","psychophysics","126","634107","0.0-126.0","5","35","","","","","0.3799999999999999","0.36","1"
"3096","key"," "," ","16.67027027027027","500","250","flank","psychophysics","127","637206","0.0-127.0","5","35","","","","","0.7700000000000002","0.76","0"
"3836","key"," "," ","16.663755458515283","500","250","flank","psychophysics","128","641046","0.0-128.0","5","35","","","","","0.7700000000000002","0.74","0"
"3362","key"," "," ","16.666666666666668","500","250","flank","psychophysics","129","644411","0.0-129.0","5","35","","","","","0.7400000000000002","0.66","1"
"true","fullscreen","0","38300","0.0-0.0","6","39","","","","","","","","","","","","","","","","","","",""
"true","preload","1","38304","0.0-1.0","6","39","false","[]","[]","[]","","","","","","","","","","","","","","",""
"","psychophysics","2","41219","0.0-2.0","6","39","","","","","2900","key"," "," ","16.666000000000018","500","250","inst","","","","","","",""
"","psychophysics","3","42260","0.0-3.0","6","39","","","","","1034","key"," "," ","16.66600000000002","500","250","inst","","","","","","",""
"","psychophysics","4","60687","0.0-4.0","6","39","","","","","18425","key"," "," ","16.667635869565217","500","250","instML","200","-33.333333333333336","-27","-1","-25.333333333333314","",""
"","psychophysics","5","62230","0.0-5.0","6","39","","","","","1535","key"," "," ","16.66599999999997","500","250","inst","","","","","","",""
"","psychophysics","6","65200","0.0-6.0","6","39","","","","","2964","key"," "," ","16.66600000000003","500","250","ml","196","-14","-17","-1","-20","",""
"","psychophysics","7","69454","0.0-7.0","6","39","","","","","4250","key"," "," ","16.669555118110218","500","250","ml","234","-43","17","-10","-27","",""
"","psychophysics","8","75031","0.0-8.0","6","39","","","","","5567","key"," "," ","16.665999999999965","500","250","ml","204","16","1","0","-23","",""
"","psychophysics","9","80152","0.0-9.0","6","39","","","","","5116","key"," "," ","16.668950980392136","500","250","ml","166","10","-25","-23","-19","",""
"","psychophysics","10","84008","0.0-10.0","6","39","","","","","3849","key"," "," ","16.666000000000032","500","250","ml","204","7","-7","16","-18","",""
"","psychophysics","11","86222","0.0-11.0","6","39","","","","","2207","key"," "," ","16.665999999999976","500","250","ml","160","-26","6","4","-25","",""
"","psychophysics","12","91348","0.0-12.0","6","39","","","","","5117","key"," "," ","16.668941368078194","500","250","ml","190","26","2","12","-19","",""
"","psychophysics","13","94157","0.0-13.0","6","39","","","","","2805","key"," "," ","16.665999999999965","500","250","ml","190","7","-25","8","-16","",""
"","psychophysics","14","98465","0.0-14.0","6","39","","","","","4304","key"," "," ","16.670046511627863","500","250","ml","194","19","4","24","-21","",""
"","psychophysics","15","101998","0.0-15.0","6","39","","","","","3526","key"," "," ","16.66599999999999","500","250","ml","156","9","-18","-28","-22","",""
"","psychophysics","16","104063","0.0-16.0","6","39","","","","","2062","key"," "," ","16.666000000000043","500","250","ml","234","-40","-10","-5","-36","",""
"","psychophysics","17","106114","0.0-17.0","6","39","","","","","2047","key"," "," ","16.665999999999944","500","250","ml","204","-15","17","-2","-21","",""
"","psychophysics","18","112650","0.0-18.0","6","39","","","","","6533","key"," "," ","16.668373401534534","500","250","ml","232","44","18","13","-15","",""
"","psychophysics","19","116597","0.0-19.0","6","39","","","","","3942","key"," "," ","16.66600000000003","500","250","ml","210","22","29","-30","-16","",""
"","psychophysics","20","120212","0.0-20.0","6","39","","","","","3612","key"," "," ","16.670296296296296","500","250","ml","202","-7","19","-26","-19","",""
"","psychophysics","21","121370","0.0-21.0","6","39","","","","","1149","key"," "," ","16.666000000000007","500","250","inst","","","","","","",""
"","psychophysics","22","131832","0.0-22.0","6","39","","","","","10459","key"," "," ","16.667480063795846","500","250","instPog","","","","","130","130",""
"","psychophysics","23","136651","0.0-23.0","6","39","","","","","4815","key"," "," ","16.666000000000068","500","250","instPog","","","","","154","130",""
"","psychophysics","24","140146","0.0-24.0","6","39","","","","","3488","key"," "," ","16.670440191387573","500","250","instPog","","","","","158","130",""
"","psychophysics","25","140948","0.0-25.0","6","39","","","","","796","key"," "," ","16.665999999999915","500","250","inst","","","","","","",""
"","psychophysics","26","146934","0.0-26.0","6","39","","","","","5983","key"," "," ","16.66600000000004","500","250","pog","","","","","200","199",""
"","psychophysics","27","151868","0.0-27.0","6","39","","","","","4931","key"," "," ","16.669145762711818","500","250","pog","","","","","138","120",""
"","psychophysics","28","155915","0.0-28.0","6","39","","","","","4043","key"," "," ","16.666000000000086","500","250","pog","","","","","145","128",""
"","psychophysics","29","161188","0.0-29.0","6","39","","","","","5266","key"," "," ","16.66894603174601","500","250","pog","","","","","179","167",""
"","psychophysics","30","162567","0.0-30.0","6","39","","","","","1375","key"," "," ","16.665999999999922","500","250","pog","","","","","159","145",""
"","psychophysics","31","170074","0.0-31.0","6","39","","","","","7502","key"," "," ","16.6677750556793","500","250","pog","","","","","195","177",""
"","psychophysics","32","174158","0.0-32.0","6","39","","","","","4080","key"," "," ","16.666000000000064","500","250","pog","","","","","188","176",""
"","psychophysics","33","178387","0.0-33.0","6","39","","","","","4221","key"," "," ","16.669569169960408","500","250","pog","","","","","194","184",""
"","psychophysics","34","182859","0.0-34.0","6","39","","","","","4468","key"," "," ","16.666000000000054","500","250","pog","","","","","204","189",""
"","psychophysics","35","187038","0.0-35.0","6","39","","","","","4175","key"," "," ","16.666","500","250","pog","","","","","147","140",""
"","psychophysics","36","191997","0.0-36.0","6","39","","","","","4957","key"," "," ","16.66904040404036","500","250","pog","","","","","208","196",""
"","psychophysics","37","195032","0.0-37.0","6","39","","","","","3033","key"," "," ","16.66599999999985","500","250","pog","","","","","159","155",""
"","psychophysics","38","195871","0.0-38.0","6","39","","","","","836","key"," "," ","16.665999999999816","500","250","pog","","","","","160","155",""
"","psychophysics","39","200582","0.0-39.0","6","39","","","","","4708","key"," "," ","16.669202127659563","500","250","pog","","","","","185","173",""
"","psychophysics","40","204327","0.0-40.0","6","39","","","","","3742","key"," "," ","16.666000000000036","500","250","pog","","","","","133","121",""
"","psychophysics","41","205048","0.0-41.0","6","39","","","","","710","key"," "," ","16.66600000000021","500","250","inst","","","","","","",""
"","psychophysics","42","207652","0.0-42.0","6","39","","","","","2600","key"," "," ","16.671825806451622","500","250","instTilt","","","","","NaN","0","0"
"","psychophysics","43","210074","0.0-43.0","6","39","","","","","2419","key"," "," ","16.665999999999865","500","250","instTilt","","","","","0","0","0"
"","psychophysics","44","216697","0.0-44.0","6","39","","","","","6618","key"," "," ","16.666000000000004","500","250","instTilt","","","","","3","0","0"
"","psychophysics","45","217500","0.0-45.0","6","39","","","","","800","key"," "," ","16.665999999999915","500","250","inst","","","","","","",""
"","psychophysics","46","220914","0.0-46.0","6","39","","","","","3405","key"," "," ","16.6704264705882","500","250","tilt","","","","","6","8","0"
"","psychophysics","47","223375","0.0-47.0","6","39","","","","","2458","key"," "," ","16.66600000000003","500","250","tilt","","","","","8","9","0"
"","psychophysics","48","225698","0.0-48.0","6","39","","","","","2318","key"," "," ","16.66599999999995","500","250","tilt","","","","","-2","-5","0"
"","psychophysics","49","227266","0.0-49.0","6","39","","","","","1558","key"," "," ","16.666000000000256","500","250","tilt","","","","","3","5","0"
"","psychophysics","50","229190","0.0-50.0","6","39","","","","","1920","key"," "," ","16.673921052631492","500","250","tilt","","","","","-2","-4","1"
"","psychophysics","51","230932","0.0-51.0","6","39","","","","","1737","key"," "," ","16.665999999999958","500","250","tilt","","","","","-1","-1","1"
"","psychophysics","52","237519","0.0-52.0","6","39","","","","","6583","key"," "," ","16.666000000000025","500","250","tilt","","","","","0","1","1"
"","psychophysics","53","239284","0.0-53.0","6","39","","","","","1761","key"," "," ","16.674600000000126","500","250","tilt","","","","","0","0","0"
"","psychophysics","54","240855","0.0-54.0","6","39","","","","","1560","key"," "," ","16.665999999999944","500","250","tilt","","","","","-3","-4","1"
"","psychophysics","55","242384","0.0-55.0","6","39","","","","","1525","key"," "," ","16.665999999999997","500","250","tilt","","","","","5","7","1"
"","psychophysics","56","243898","0.0-56.0","6","39","","","","","1510","key"," "," ","16.666000000000025","500","250","tilt","","","","","3","8","1"
"","psychophysics","57","245166","0.0-57.0","6","39","","","","","1265","key"," "," ","16.666000000000157","500","250","tilt","","","","","-4","-3","1"
"","psychophysics","58","246814","0.0-58.0","6","39","","","","","1646","key"," "," ","16.665999999999816","500","250","tilt","","","","","-3","-5","0"
"","psychophysics","59","248998","0.0-59.0","6","39","","","","","2177","key"," "," ","16.672946153845988","500","250","tilt","","","","","3","4","1"
"","psychophysics","60","250692","0.0-60.0","6","39","","","","","1691","key"," "," ","16.666000000000057","500","250","tilt","","","","","4","8","1"
"","psychophysics","61","251967","0.0-61.0","6","39","","","","","1270","key"," "," ","16.66600000000012","500","250","tilt","","","","","-4","-5","1"
"","psychophysics","62","253499","0.0-62.0","6","39","","","","","1519","key"," "," ","16.665999999999997","500","250","tilt","","","","","-2","-10","1"
"","psychophysics","63","255208","0.0-63.0","6","39","","","","","1706","key"," "," ","16.666000000000032","500","250","tilt","","","","","-2","-6","0"
"","psychophysics","64","257331","0.0-64.0","6","39","","","","","2118","key"," "," ","16.66599999999996","500","250","tilt","","","","","-3","-7","1"
"","psychophysics","65","258693","0.0-65.0","6","39","","","","","1359","key"," "," ","16.67728750000024","500","250","tilt","","","","","4","4","1"
"","psychophysics","66","262537","0.0-66.0","6","39","","","","","3839","key"," "," ","16.666000000000096","500","250","tilt","","","","","2","10","1"
"","psychophysics","67","264100","0.0-67.0","6","39","","","","","1560","key"," "," ","16.666000000000256","500","250","tilt","","","","","-5","0","1"
"","psychophysics","68","265418","0.0-68.0","6","39","","","","","1314","key"," "," ","16.666000000000423","500","250","tilt","","","","","4","1","0"
"","psychophysics","69","266864","0.0-69.0","6","39","","","","","1442","key"," "," ","16.666000000000146","500","250","tilt","","","","","3","7","0"
"","psychophysics","70","271034","0.0-70.0","6","39","","","","","4166","key"," "," ","16.669626506024187","500","250","tilt","","","","","1","6","1"
"","psychophysics","71","272776","0.0-71.0","6","39","","","","","1739","key"," "," ","16.665999999999983","500","250","tilt","","","","","2","10","0"
"","psychophysics","72","274541","0.0-72.0","6","39","","","","","1760","key"," "," ","16.665999999999933","500","250","tilt","","","","","-2","-7","0"
"","psychophysics","73","275764","0.0-73.0","6","39","","","","","1218","key"," "," ","16.66600000000023","500","250","tilt","","","","","-2","-8","1"
"","psychophysics","74","277010","0.0-74.0","6","39","","","","","1243","key"," "," ","16.66600000000023","500","250","tilt","","","","","-2","-5","0"
"","psychophysics","75","278150","0.0-75.0","6","39","","","","","1128","key"," "," ","16.67927941176544","500","250","tilt","","","","","-2","4","1"
"","psychophysics","76","279499","0.0-76.0","6","39","","","","","1345","key"," "," ","16.66600000000035","500","250","inst","","","","","","",""
"","psychophysics","77","285201","0.0-77.0","6","39","","","","","5700","key"," "," ","16.666000000000086","500","250","instPz","","","","","46","50",""
"","psychophysics","78","289233","0.0-78.0","6","39","","","","","4028","key"," "," ","16.669746887966742","500","250","instPz","","","","","44","50",""
"","psychophysics","79","295906","0.0-79.0","6","39","","","","","6669","key"," "," ","16.665999999999993","500","250","instPz","","","","","54","50",""
"","psychophysics","80","296517","0.0-80.0","6","39","","","","","608","key"," "," ","16.665999999999055","500","250","inst","","","","","","",""
"","psychophysics","81","300033","0.0-81.0","6","39","","","","","3514","key"," "," ","16.67029999999989","500","250","pz","","","","","46","43",""
"","psychophysics","82","303803","0.0-82.0","6","39","","","","","3767","key"," "," ","16.665999999999897","500","250","pz","","","","","53","42",""
"","psychophysics","83","307444","0.0-83.0","6","39","","","","","3638","key"," "," ","16.665999999999986","500","250","pz","","","","","49","43",""
"","psychophysics","84","310967","0.0-84.0","6","39","","","","","3518","key"," "," ","16.670279620853098","500","250","pz","","","","","50","46",""
"","psychophysics","85","312550","0.0-85.0","6","39","","","","","1580","key"," "," ","16.665999999999915","500","250","pz","","","","","26","23",""
"","psychophysics","86","316000","0.0-86.0","6","39","","","","","3447","key"," "," ","16.665999999999983","500","250","pz","","","","","48","50",""
"","psychophysics","87","320174","0.0-87.0","6","39","","","","","4170","key"," "," ","16.669626506024187","500","250","pz","","","","","53","50",""
"","psychophysics","88","324052","0.0-88.0","6","39","","","","","3875","key"," "," ","16.665999999999947","500","250","pz","","","","","53","47",""
"","psychophysics","89","327975","0.0-89.0","6","39","","","","","3920","key"," "," ","16.665999999999926","500","250","pz","","","","","55","52",""
"","psychophysics","90","329506","0.0-90.0","6","39","","","","","1526","key"," "," ","16.675923076922658","500","250","pz","","","","","26","21",""
"","psychophysics","91","333048","0.0-91.0","6","39","","","","","3539","key"," "," ","16.66599999999991","500","250","pz","","","","","47","47",""
"","psychophysics","92","335324","0.0-92.0","6","39","","","","","2272","key"," "," ","16.66599999999981","500","250","pz","","","","","35","28",""
"","psychophysics","93","337469","0.0-93.0","6","39","","","","","2141","key"," "," ","16.665999999999713","500","250","pz","","","","","34","31",""
"","psychophysics","94","341375","0.0-94.0","6","39","","","","","3902","key"," "," ","16.67065236051497","500","250","pz","","","","","53","49",""
"","psychophysics","95","344437","0.0-95.0","6","39","","","","","3059","key"," "," ","16.665999999999823","500","250","pz","","","","","41","37",""
"","psychophysics","96","345105","0.0-96.0","6","39","","","","","663","key"," "," ","16.665999999999677","500","250","inst","","","","","","",""
"","psychophysics","97","347766","0.0-97.0","6","39","","","","","2659","key"," "," ","16.66599999999982","500","250","inst","","","","","","",""
"","psychophysics","98","351934","0.0-98.0","6","39","","","","","4163","key"," "," ","16.66992771084328","500","250","instFlank","","","","","0.5","0.3","1"
"","psychophysics","99","353216","0.0-99.0","6","39","","","","","1272","key"," "," ","16.665999999999737","500","250","inst","","","","","","",""
"","psychophysics","100","356699","0.0-100.0","6","39","","","","","3480","key"," "," ","16.66600000000024","500","250","instFlank","","","","","0.43999999999999995","0.3","1"
"","psychophysics","101","357341","0.0-101.0","6","39","","","","","639","key"," "," ","16.665999999999798","500","250","inst","","","","","","",""
"","psychophysics","102","360507","0.0-102.0","6","39","","","","","3162","key"," "," ","16.670142857142892","500","250","instFlank","","","","","0.5","0.3","0"
"","psychophysics","103","361219","0.0-103.0","6","39","","","","","709","key"," "," ","16.66600000000021","500","250","inst","","","","","","",""
"","psychophysics","104","363467","0.0-104.0","6","39","","","","","2236","key"," "," ","16.666000000000047","500","250","flank","","","","","0.5","0.58","1"
"","psychophysics","105","365701","0.0-105.0","6","39","","","","","2231","key"," "," ","16.665999999999848","500","250","flank","","","","","0.5","0.38","0"
"","psychophysics","106","369851","0.0-106.0","6","39","","","","","4146","key"," "," ","16.669641129032243","500","250","flank","","","","","0.7700000000000002","0.76","1"
"","psychophysics","107","372510","0.0-107.0","6","39","","","","","2654","key"," "," ","16.666000000000018","500","250","flank","","","","","0.43999999999999995","0.34","1"
"","psychophysics","108","375000","0.0-108.0","6","39","","","","","2489","key"," "," ","16.66599999999998","500","250","flank","","","","","0.5","0.5","1"
"","psychophysics","109","377124","0.0-109.0","6","39","","","","","2120","key"," "," ","16.665999999999748","500","250","flank","","","","","0.5","0.38","0"
"","psychophysics","110","380886","0.0-110.0","6","39","","","","","3758","key"," "," ","16.67001333333319","500","250","flank","","","","","0.53","0.4","0"
"","psychophysics","111","383468","0.0-111.0","6","39","","","","","2577","key"," "," ","16.666000000000086","500","250","flank","","","","","0.56","0.64","1"
"","psychophysics","112","386150","0.0-112.0","6","39","","","","","2678","key"," "," ","16.665999999999986","500","250","flank","","","","","0.56","0.56","1"
"","psychophysics","113","388999","0.0-113.0","6","39","","","","","2846","key"," "," ","16.671311764705667","500","250","flank","","","","","0.43999999999999995","0.26","1"
"","psychophysics","114","392738","0.0-114.0","6","39","","","","","3735","key"," "," ","16.66599999999992","500","250","flank","","","","","0.8000000000000003","0.66","0"
"","psychophysics","115","396552","0.0-115.0","6","39","","","","","3811","key"," "," ","16.665999999999993","500","250","flank","","","","","0.8000000000000003","0.74","1"
"","psychophysics","116","400152","0.0-116.0","6","39","","","","","3595","key"," "," ","16.67019999999997","500","250","flank","","","","","0.7100000000000002","0.64","1"
"","psychophysics","117","403286","0.0-117.0","6","39","","","","","3131","key"," "," ","16.666000000000086","500","250","flank","","","","","0.6500000000000001","0.6","1"
"","psychophysics","118","407247","0.0-118.0","6","39","","","","","3956","key"," "," ","16.666000000000018","500","250","flank","","","","","0.8900000000000003","0.78","1"
"","psychophysics","119","410575","0.0-119.0","6","39","","","","","3324","key"," "," ","16.670560606060647","500","250","flank","","","","","0.7100000000000002","0.62","0"
"","psychophysics","120","413177","0.0-120.0","6","39","","","","","2597","key"," "," ","16.66599999999988","500","250","flank","","","","","0.4099999999999999","0.28","1"
"","psychophysics","121","415586","0.0-121.0","6","39","","","","","2404","key"," "," ","16.665999999999865","500","250","flank","","","","","0.43999999999999995","0.28","1"
"","psychophysics","122","418194","0.0-122.0","6","39","","","","","2604","key"," "," ","16.66599999999988","500","250","flank","","","","","0.5","0.36","0"
"","psychophysics","123","421460","0.0-123.0","6","39","","","","","3254","key"," "," ","16.6706307692307","500","250","flank","","","","","0.7100000000000002","0.74","1"
"","psychophysics","124","424319","0.0-124.0","6","39","","","","","2853","key"," "," ","16.665999999999993","500","250","flank","","","","","0.6800000000000002","0.64","0"
"","psychophysics","125","426700","0.0-125.0","6","39","","","","","2377","key"," "," ","16.665999999999897","500","250","flank","","","","","0.43999999999999995","0.3","0"
"","psychophysics","126","429940","0.0-126.0","6","39","","","","","3230","key"," "," ","16.67067875647664","500","250","flank","","","","","0.6500000000000001","0.64","1"
"","psychophysics","127","433036","0.0-127.0","6","39","","","","","3091","key"," "," ","16.665999999999798","500","250","flank","","","","","0.8300000000000003","0.72","0"
"","psychophysics","128","435943","0.0-128.0","6","39","","","","","2903","key"," "," ","16.66599999999996","500","250","flank","","","","","0.43999999999999995","0.44","1"
"","psychophysics","129","439269","0.0-129.0","6","39","","","","","3321","key"," "," ","16.670537688442383","500","250","flank","","","","","0.8000000000000003","0.78","0"
"","psychophysics","130","442267","0.0-130.0","6","39","","","","","2994","key"," "," ","16.666000000000203","500","250","flank","","","","","0.6800000000000002","0.7","1"
"","psychophysics","131","445591","0.0-131.0","6","39","","","","","3312","key"," "," ","16.666000000000086","500","250","flank","","","","","0.7100000000000002","0.66","1"
"","psychophysics","132","448511","0.0-132.0","6","39","","","","","2915","key"," "," ","16.671189655172142","500","250","flank","","","","","0.4099999999999999","0.28","1"
"","psychophysics","133","451874","0.0-133.0","6","39","","","","","3358","key"," "," ","16.6659999999999","500","250","flank","","","","","0.8000000000000003","0.76","1"
