"success","trial_type","trial_index","time_elapsed","internal_node_id","pid","sid","timeout","failed_images","failed_audio","failed_video","rt","response_type","key_press","response","avg_frame_time","center_x","center_y","task","ml_len","ml_start","ml_x","ml_y","resp","targ","back"
"true","fullscreen","0","3795","0.0-0.0","57f3b6bfa1100100016d1454","625729b853af61d9ad5f5e5e","","","","","","","","","","","","","","","","","","",""
"true","preload","1","3798","0.0-1.0","57f3b6bfa1100100016d1454","625729b853af61d9ad5f5e5e","false","[]","[]","[]","","","","","","","","","","","","","","",""
"","psychophysics","2","7013","0.0-2.0","57f3b6bfa1100100016d1454","625729b853af61d9ad5f5e5e","","","","","3201","key"," "," ","16.700213541666667","500","250","inst","","","","","","",""
"","psychophysics","3","9381","0.0-3.0","57f3b6bfa1100100016d1454","625729b853af61d9ad5f5e5e","","","","","2365","key"," "," ","16.70043971631206","500","250","inst","","","","","","",""
"","psychophysics","4","27941","0.0-4.0","57f3b6bfa1100100016d1454","625729b853af61d9ad5f5e5e","","","","","18557","key"," "," ","16.70035225225225","500","250","instMl","246","-41","13","28","-20","",""
"","psychophysics","5","50085","0.0-5.0","57f3b6bfa1100100016d1454","625729b853af61d9ad5f5e5e","","","","","22139","key"," "," ","16.70032452830189","500","250","instMl","154","-25.666666666666668","5","21","-25.666666666666686","",""
"","psychophysics","6","65148","0.0-6.0","57f3b6bfa1100100016d1454","625729b853af61d9ad5f5e5e","","","","","15059","key"," "," ","16.700295227524965","500","250","inst","","","","","","",""
"","psychophysics","7","74371","0.0-7.0","57f3b6bfa1100100016d1454","625729b853af61d9ad5f5e5e","","","","","9220","key"," "," ","16.70027536231886","500","250","ml","192","44","11","3","-9","",""
"","psychophysics","8","80995","0.0-8.0","57f3b6bfa1100100016d1454","625729b853af61d9ad5f5e5e","","","","","6622","key"," "," ","16.70044303797469","500","250","ml","182","19","29","25","-9","",""
"","psychophysics","9","85980","0.0-9.0","57f3b6bfa1100100016d1454","625729b853af61d9ad5f5e5e","","","","","4982","key"," "," ","16.70022483221477","500","250","ml","232","-16","-18","-17","-16","",""
"","psychophysics","10","94747","0.0-10.0","57f3b6bfa1100100016d1454","625729b853af61d9ad5f5e5e","","","","","8766","key"," "," ","16.700360687022904","500","250","ml","250","23","-12","-28","-11","",""
"","psychophysics","11","100499","0.0-11.0","57f3b6bfa1100100016d1454","625729b853af61d9ad5f5e5e","","","","","5750","key"," "," ","16.700373177842575","500","250","ml","232","15","-11","-6","-10","",""
"","psychophysics","12","109411","0.0-12.0","57f3b6bfa1100100016d1454","625729b853af61d9ad5f5e5e","","","","","8910","key"," "," ","16.70013508442775","500","250","ml","194","28","25","23","-10","",""
"","psychophysics","13","117348","0.0-13.0","57f3b6bfa1100100016d1454","625729b853af61d9ad5f5e5e","","","","","7934","key"," "," ","16.700371308016866","500","250","ml","228","25","30","15","-13","",""
"","psychophysics","14","124476","0.0-14.0","57f3b6bfa1100100016d1454","625729b853af61d9ad5f5e5e","","","","","7126","key"," "," ","16.700342723004706","500","250","ml","152","0","-2","-20","-11","",""
"","psychophysics","15","132780","0.0-15.0","57f3b6bfa1100100016d1454","625729b853af61d9ad5f5e5e","","","","","8302","key"," "," ","16.700350806451606","500","250","ml","212","-29","-23","12","-20","",""
"","psychophysics","16","141524","0.0-16.0","57f3b6bfa1100100016d1454","625729b853af61d9ad5f5e5e","","","","","8742","key"," "," ","16.70029254302103","500","250","ml","232","26","1","-14","-12","",""
"","psychophysics","17","153812","0.0-17.0","57f3b6bfa1100100016d1454","625729b853af61d9ad5f5e5e","","","","","12285","key"," "," ","16.700280653950944","500","250","ml","164","20","-19","-8","-11","",""
"","psychophysics","18","164596","0.0-18.0","57f3b6bfa1100100016d1454","625729b853af61d9ad5f5e5e","","","","","10780","key"," "," ","16.70036279069767","500","250","ml","192","-44","29","25","-17","",""
"","psychophysics","19","174523","0.0-19.0","57f3b6bfa1100100016d1454","625729b853af61d9ad5f5e5e","","","","","9926","key"," "," ","16.70032659932661","500","250","ml","160","19","-3","-8","-11","",""
"","psychophysics","20","184787","0.0-20.0","57f3b6bfa1100100016d1454","625729b853af61d9ad5f5e5e","","","","","10262","key"," "," ","16.700287112561195","500","250","ml","160","-37","-14","25","-12","",""
"","psychophysics","21","195411","0.0-21.0","57f3b6bfa1100100016d1454","625729b853af61d9ad5f5e5e","","","","","10622","key"," "," ","16.700228346456722","500","250","ml","244","-37","-14","-3","-16","",""
"","psychophysics","22","202035","0.0-22.0","57f3b6bfa1100100016d1454","625729b853af61d9ad5f5e5e","","","","","6620","key"," "," ","16.7003787878788","500","250","inst","","","","","","",""
"","psychophysics","23","215307","0.0-23.0","57f3b6bfa1100100016d1454","625729b853af61d9ad5f5e5e","","","","","13270","key"," "," ","16.700342569269502","500","250","instPog","","","","","130","130",""
"","psychophysics","24","228731","0.0-24.0","57f3b6bfa1100100016d1454","625729b853af61d9ad5f5e5e","","","","","13422","key"," "," ","16.700298879202986","500","250","instPog","","","","","136","130",""
"","psychophysics","25","237778","0.0-25.0","57f3b6bfa1100100016d1454","625729b853af61d9ad5f5e5e","","","","","9044","key"," "," ","16.70018148148148","500","250","instPog","","","","","146","130",""
"","psychophysics","26","247803","0.0-26.0","57f3b6bfa1100100016d1454","625729b853af61d9ad5f5e5e","","","","","10022","key"," "," ","16.700235000000006","500","250","inst","","","","","","",""
"","psychophysics","27","256658","0.0-27.0","57f3b6bfa1100100016d1454","625729b853af61d9ad5f5e5e","","","","","8853","key"," "," ","16.70027221172026","500","250","pog","","","","","208","184",""
"","psychophysics","28","267690","0.0-28.0","57f3b6bfa1100100016d1454","625729b853af61d9ad5f5e5e","","","","","11029","key"," "," ","16.700180576631208","500","250","pog","","","","","192","176",""
"","psychophysics","29","275506","0.0-29.0","57f3b6bfa1100100016d1454","625729b853af61d9ad5f5e5e","","","","","7813","key"," "," ","16.7004325481799","500","250","pog","","","","","156","134",""
"","psychophysics","30","286290","0.0-30.0","57f3b6bfa1100100016d1454","625729b853af61d9ad5f5e5e","","","","","10781","key"," "," ","16.7004186046511","500","250","pog","","","","","171","144",""
"","psychophysics","31","295595","0.0-31.0","57f3b6bfa1100100016d1454","625729b853af61d9ad5f5e5e","","","","","9301","key"," "," ","16.70016546762593","500","250","pog","","","","","176","154",""
"","psychophysics","32","306171","0.0-32.0","57f3b6bfa1100100016d1454","625729b853af61d9ad5f5e5e","","","","","10574","key"," "," ","16.70022748815167","500","250","pog","","","","","185","160",""
"","psychophysics","33","313275","0.0-33.0","57f3b6bfa1100100016d1454","625729b853af61d9ad5f5e5e","","","","","7100","key"," "," ","16.700412735849003","500","250","pog","","","","","197","168",""
"","psychophysics","34","322635","0.0-34.0","57f3b6bfa1100100016d1454","625729b853af61d9ad5f5e5e","","","","","9357","key"," "," ","16.70029874776387","500","250","pog","","","","","162","142",""
"","psychophysics","35","336602","0.0-35.0","57f3b6bfa1100100016d1454","625729b853af61d9ad5f5e5e","","","","","13964","key"," "," ","16.70044976076555","500","250","pog","","","","","145","130",""
"","psychophysics","36","351586","0.0-36.0","57f3b6bfa1100100016d1454","625729b853af61d9ad5f5e5e","","","","","14982","key"," "," ","16.700255580357148","500","250","pog","","","","","157","135",""
"","psychophysics","37","365226","0.0-37.0","57f3b6bfa1100100016d1454","625729b853af61d9ad5f5e5e","","","","","13637","key"," "," ","16.700261029411767","500","250","pog","","","","","157","142",""
"","psychophysics","38","378146","0.0-38.0","57f3b6bfa1100100016d1454","625729b853af61d9ad5f5e5e","","","","","12917","key"," "," ","16.700243523316047","500","250","pog","","","","","146","121",""
"","psychophysics","39","391514","0.0-39.0","57f3b6bfa1100100016d1454","625729b853af61d9ad5f5e5e","","","","","13365","key"," "," ","16.700383750000036","500","250","pog","","","","","200","177",""
"","psychophysics","40","398498","0.0-40.0","57f3b6bfa1100100016d1454","625729b853af61d9ad5f5e5e","","","","","6980","key"," "," ","16.700194244604248","500","250","pog","","","","","144","123",""
"","psychophysics","41","406570","0.0-41.0","57f3b6bfa1100100016d1454","625729b853af61d9ad5f5e5e","","","","","8070","key"," "," ","16.700236514522754","500","250","pog","","","","","199","173",""
"","psychophysics","42","417266","0.0-42.0","57f3b6bfa1100100016d1454","625729b853af61d9ad5f5e5e","","","","","10693","key"," "," ","16.700351562500053","500","250","inst","","","","","","",""
"","psychophysics","43","423026","0.0-43.0","57f3b6bfa1100100016d1454","625729b853af61d9ad5f5e5e","","","","","5758","key"," "," ","16.70034593023254","500","250","instTilt","","","","","NaN","0","0"
"","psychophysics","44","426914","0.0-44.0","57f3b6bfa1100100016d1454","625729b853af61d9ad5f5e5e","","","","","3886","key"," "," ","16.70016810344833","500","250","instTilt","","","","","0","0","0"
"","psychophysics","45","446290","0.0-45.0","57f3b6bfa1100100016d1454","625729b853af61d9ad5f5e5e","","","","","19373","key"," "," ","16.70020189818813","500","250","instTilt","","","","","2","0","0"
"","psychophysics","46","453298","0.0-46.0","57f3b6bfa1100100016d1454","625729b853af61d9ad5f5e5e","","","","","7006","key"," "," ","16.700430622009495","500","250","inst","","","","","","",""
"","psychophysics","47","467250","0.0-47.0","57f3b6bfa1100100016d1454","625729b853af61d9ad5f5e5e","","","","","13949","key"," "," ","16.70039041916168","500","250","tilt","","","","","2","4","0"
"","psychophysics","48","476969","0.0-48.0","57f3b6bfa1100100016d1454","625729b853af61d9ad5f5e5e","","","","","9718","key"," "," ","16.700335628227126","500","250","tilt","","","","","-6","-9","1"
"","psychophysics","49","490425","0.0-49.0","57f3b6bfa1100100016d1454","625729b853af61d9ad5f5e5e","","","","","13454","key"," "," ","16.70035527950306","500","250","tilt","","","","","-5","-2","1"
"","psychophysics","50","496521","0.0-50.0","57f3b6bfa1100100016d1454","625729b853af61d9ad5f5e5e","","","","","6093","key"," "," ","16.70021153846148","500","250","tilt","","","","","2","0","0"
"","psychophysics","51","505633","0.0-51.0","57f3b6bfa1100100016d1454","625729b853af61d9ad5f5e5e","","","","","9110","key"," "," ","16.70040441176474","500","250","tilt","","","","","2","2","0"
"","psychophysics","52","525201","0.0-52.0","57f3b6bfa1100100016d1454","625729b853af61d9ad5f5e5e","","","","","19566","key"," "," ","16.700361229718208","500","250","tilt","","","","","-6","-9","0"
"","psychophysics","53","530481","0.0-53.0","57f3b6bfa1100100016d1454","625729b853af61d9ad5f5e5e","","","","","5278","key"," "," ","16.700485714285502","500","250","tilt","","","","","0","0","1"
"","psychophysics","54","540297","0.0-54.0","57f3b6bfa1100100016d1454","625729b853af61d9ad5f5e5e","","","","","9814","key"," "," ","16.700211243611545","500","250","tilt","","","","","-1","-3","0"
"","psychophysics","55","548481","0.0-55.0","57f3b6bfa1100100016d1454","625729b853af61d9ad5f5e5e","","","","","8182","key"," "," ","16.70033946830269","500","250","tilt","","","","","2","2","0"
"","psychophysics","56","558657","0.0-56.0","57f3b6bfa1100100016d1454","625729b853af61d9ad5f5e5e","","","","","10174","key"," "," ","16.700384868421104","500","250","tilt","","","","","-6","-9","0"
"","psychophysics","57","566289","0.0-57.0","57f3b6bfa1100100016d1454","625729b853af61d9ad5f5e5e","","","","","7629","key"," "," ","16.700282894736645","500","250","tilt","","","","","2","2","0"
"","psychophysics","58","574977","0.0-58.0","57f3b6bfa1100100016d1454","625729b853af61d9ad5f5e5e","","","","","8687","key"," "," ","16.70044038461526","500","250","tilt","","","","","-5","-7","0"
"","psychophysics","59","581193","0.0-59.0","57f3b6bfa1100100016d1454","625729b853af61d9ad5f5e5e","","","","","6213","key"," "," ","16.700099730458124","500","250","tilt","","","","","-3","-6","0"
"","psychophysics","60","594577","0.0-60.0","57f3b6bfa1100100016d1454","625729b853af61d9ad5f5e5e","","","","","13383","key"," "," ","16.700388749999984","500","250","tilt","","","","","-2","-3","0"
"","psychophysics","61","604424","0.0-61.0","57f3b6bfa1100100016d1454","625729b853af61d9ad5f5e5e","","","","","9846","key"," "," ","16.700315789473542","500","250","tilt","","","","","-3","-2","1"
"","psychophysics","62","616073","0.0-62.0","57f3b6bfa1100100016d1454","625729b853af61d9ad5f5e5e","","","","","11647","key"," "," ","16.70028160919533","500","250","tilt","","","","","1","3","1"
"","psychophysics","63","622105","0.0-63.0","57f3b6bfa1100100016d1454","625729b853af61d9ad5f5e5e","","","","","6030","key"," "," ","16.700480555555423","500","250","tilt","","","","","2","7","1"
"","psychophysics","64","631856","0.0-64.0","57f3b6bfa1100100016d1454","625729b853af61d9ad5f5e5e","","","","","9749","key"," "," ","16.700380789022372","500","250","tilt","","","","","4","7","1"
"","psychophysics","65","640688","0.0-65.0","57f3b6bfa1100100016d1454","625729b853af61d9ad5f5e5e","","","","","8829","key"," "," ","16.70039583333335","500","250","tilt","","","","","-7","-9","1"
"","psychophysics","66","651160","0.0-66.0","57f3b6bfa1100100016d1454","625729b853af61d9ad5f5e5e","","","","","10470","key"," "," ","16.70038817891369","500","250","tilt","","","","","5","5","0"
"","psychophysics","67","655872","0.0-67.0","57f3b6bfa1100100016d1454","625729b853af61d9ad5f5e5e","","","","","4710","key"," "," ","16.700629893238357","500","250","tilt","","","","","1","1","0"
"","psychophysics","68","663360","0.0-68.0","57f3b6bfa1100100016d1454","625729b853af61d9ad5f5e5e","","","","","7484","key"," "," ","16.700314732142683","500","250","tilt","","","","","4","7","0"
"","psychophysics","69","675712","0.0-69.0","57f3b6bfa1100100016d1454","625729b853af61d9ad5f5e5e","","","","","12350","key"," "," ","16.700283197831833","500","250","tilt","","","","","7","8","0"
"","psychophysics","70","687264","0.0-70.0","57f3b6bfa1100100016d1454","625729b853af61d9ad5f5e5e","","","","","11549","key"," "," ","16.70048046309697","500","250","tilt","","","","","5","9","1"
"","psychophysics","71","697952","0.0-71.0","57f3b6bfa1100100016d1454","625729b853af61d9ad5f5e5e","","","","","10686","key"," "," ","16.70029420970268","500","250","tilt","","","","","2","5","1"
"","psychophysics","72","707607","0.0-72.0","57f3b6bfa1100100016d1454","625729b853af61d9ad5f5e5e","","","","","9654","key"," "," ","16.700240901213153","500","250","tilt","","","","","-3","-6","1"
"","psychophysics","73","719536","0.0-73.0","57f3b6bfa1100100016d1454","625729b853af61d9ad5f5e5e","","","","","11925","key"," "," ","16.700372549019598","500","250","tilt","","","","","-4","-8","0"
"","psychophysics","74","723264","0.0-74.0","57f3b6bfa1100100016d1454","625729b853af61d9ad5f5e5e","","","","","3726","key"," "," ","16.700162162162105","500","250","tilt","","","","","2","1","0"
"","psychophysics","75","727736","0.0-75.0","57f3b6bfa1100100016d1454","625729b853af61d9ad5f5e5e","","","","","4470","key"," "," ","16.700359550561522","500","250","tilt","","","","","2","3","0"
"","psychophysics","76","736528","0.0-76.0","57f3b6bfa1100100016d1454","625729b853af61d9ad5f5e5e","","","","","8790","key"," "," ","16.700220952380803","500","250","tilt","","","","","3","5","0"
"","psychophysics","77","749440","0.0-77.0","57f3b6bfa1100100016d1454","625729b853af61d9ad5f5e5e","","","","","12910","key"," "," ","16.70022797927461","500","250","inst","","","","","","",""
"","psychophysics","78","753680","0.0-78.0","57f3b6bfa1100100016d1454","625729b853af61d9ad5f5e5e","","","","","4238","key"," "," ","16.700521739130277","500","250","instPz","","","","","50","50",""
"","psychophysics","79","766864","0.0-79.0","57f3b6bfa1100100016d1454","625729b853af61d9ad5f5e5e","","","","","13182","key"," "," ","16.700324461343598","500","250","instPz","","","","","53","50",""
"","psychophysics","80","776463","0.0-80.0","57f3b6bfa1100100016d1454","625729b853af61d9ad5f5e5e","","","","","9597","key"," "," ","16.700390924956206","500","250","instPz","","","","","32","30",""
"","psychophysics","81","781808","0.0-81.0","57f3b6bfa1100100016d1454","625729b853af61d9ad5f5e5e","","","","","5340","key"," "," ","16.700482758620776","500","250","instPz","","","","","15","40",""
"","psychophysics","82","788703","0.0-82.0","57f3b6bfa1100100016d1454","625729b853af61d9ad5f5e5e","","","","","6893","key"," "," ","16.70042475728144","500","250","inst","","","","","","",""
"","psychophysics","83","804463","0.0-83.0","57f3b6bfa1100100016d1454","625729b853af61d9ad5f5e5e","","","","","15758","key"," "," ","16.700267232237614","500","250","pz","","","","","74","56",""
"","psychophysics","84","818519","0.0-84.0","57f3b6bfa1100100016d1454","625729b853af61d9ad5f5e5e","","","","","14053","key"," "," ","16.70030677764564","500","250","pz","","","","","54","46",""
"","psychophysics","85","837695","0.0-85.0","57f3b6bfa1100100016d1454","625729b853af61d9ad5f5e5e","","","","","19173","key"," "," ","16.70028596338274","500","250","pz","","","","","73","60",""
"","psychophysics","86","846543","0.0-86.0","57f3b6bfa1100100016d1454","625729b853af61d9ad5f5e5e","","","","","8846","key"," "," ","16.700266540642705","500","250","pz","","","","","28","23",""
"","psychophysics","87","852935","0.0-87.0","57f3b6bfa1100100016d1454","625729b853af61d9ad5f5e5e","","","","","6389","key"," "," ","16.700343832021012","500","250","pz","","","","","58","40",""
"","psychophysics","88","861207","0.0-88.0","57f3b6bfa1100100016d1454","625729b853af61d9ad5f5e5e","","","","","8269","key"," "," ","16.700305050505193","500","250","pz","","","","","43","32",""
"","psychophysics","89","870439","0.0-89.0","57f3b6bfa1100100016d1454","625729b853af61d9ad5f5e5e","","","","","9230","key"," "," ","16.70029347826093","500","250","pz","","","","","57","39",""
"","psychophysics","90","880383","0.0-90.0","57f3b6bfa1100100016d1454","625729b853af61d9ad5f5e5e","","","","","9942","key"," "," ","16.70029124579124","500","250","pz","","","","","60","39",""
"","psychophysics","91","887343","0.0-91.0","57f3b6bfa1100100016d1454","625729b853af61d9ad5f5e5e","","","","","6957","key"," "," ","16.70044951923074","500","250","pz","","","","","34","24",""
"","psychophysics","92","891855","0.0-92.0","57f3b6bfa1100100016d1454","625729b853af61d9ad5f5e5e","","","","","4509","key"," "," ","16.700342007434916","500","250","pz","","","","","33","23",""
"","psychophysics","93","901447","0.0-93.0","57f3b6bfa1100100016d1454","625729b853af61d9ad5f5e5e","","","","","9590","key"," "," ","16.700321116928624","500","250","pz","","","","","36","28",""
"","psychophysics","94","910542","0.0-94.0","57f3b6bfa1100100016d1454","625729b853af61d9ad5f5e5e","","","","","9092","key"," "," ","16.70047610294098","500","250","pz","","","","","75","56",""
"","psychophysics","95","921943","0.0-95.0","57f3b6bfa1100100016d1454","625729b853af61d9ad5f5e5e","","","","","11398","key"," "," ","16.700274193548474","500","250","pz","","","","","67","50",""
"","psychophysics","96","927254","0.0-96.0","57f3b6bfa1100100016d1454","625729b853af61d9ad5f5e5e","","","","","5308","key"," "," ","16.70039747634055","500","250","pz","","","","","28","21",""
"","psychophysics","97","931566","0.0-97.0","57f3b6bfa1100100016d1454","625729b853af61d9ad5f5e5e","","","","","4309","key"," "," ","16.700260700388895","500","250","pz","","","","","32","24",""
"","psychophysics","98","940030","0.0-98.0","57f3b6bfa1100100016d1454","625729b853af61d9ad5f5e5e","","","","","8462","key"," "," ","16.700320158102926","500","250","inst","","","","","","",""
"","psychophysics","99","944526","0.0-99.0","57f3b6bfa1100100016d1454","625729b853af61d9ad5f5e5e","","","","","4493","key"," "," ","16.700250000000057","500","250","inst","","","","","","",""
"","psychophysics","100","958558","0.0-100.0","57f3b6bfa1100100016d1454","625729b853af61d9ad5f5e5e","","","","","14030","key"," "," ","16.70036233611448","500","250","instFlank","","","","","0.5","0.3","1"
"","psychophysics","101","963526","0.0-101.0","57f3b6bfa1100100016d1454","625729b853af61d9ad5f5e5e","","","","","4966","key"," "," ","16.70028956228928","500","250","inst","","","","","","",""
"","psychophysics","102","979574","0.0-102.0","57f3b6bfa1100100016d1454","625729b853af61d9ad5f5e5e","","","","","16046","key"," "," ","16.700277372262764","500","250","instFlank","","","","","0.2899999999999998","0.3","1"
"","psychophysics","103","983670","0.0-103.0","57f3b6bfa1100100016d1454","625729b853af61d9ad5f5e5e","","","","","4093","key"," "," ","16.70064081632656","500","250","inst","","","","","","",""
"","psychophysics","104","990366","0.0-104.0","57f3b6bfa1100100016d1454","625729b853af61d9ad5f5e5e","","","","","6693","key"," "," ","16.70032749999984","500","250","instFlank","","","","","0.2299999999999998","0.3","0"
"","psychophysics","105","1003486","0.0-105.0","57f3b6bfa1100100016d1454","625729b853af61d9ad5f5e5e","","","","","13118","key"," "," ","16.70028954081633","500","250","inst","","","","","","",""
"","psychophysics","106","1008326","0.0-106.0","57f3b6bfa1100100016d1454","625729b853af61d9ad5f5e5e","","","","","4838","key"," "," ","16.70044636678202","500","250","flank","","","","","0.2599999999999998","0.22","0"
"","psychophysics","107","1012702","0.0-107.0","57f3b6bfa1100100016d1454","625729b853af61d9ad5f5e5e","","","","","4374","key"," "," ","16.70038697317999","500","250","flank","","","","","0.3799999999999999","0.42","0"
"","psychophysics","108","1018373","0.0-108.0","57f3b6bfa1100100016d1454","625729b853af61d9ad5f5e5e","","","","","5669","key"," "," ","16.700265486725705","500","250","flank","","","","","0.5900000000000001","0.56","0"
"","psychophysics","109","1022557","0.0-109.0","57f3b6bfa1100100016d1454","625729b853af61d9ad5f5e5e","","","","","4181","key"," "," ","16.70022891566249","500","250","flank","","","","","0.6800000000000002","0.6","0"
"","psychophysics","110","1026861","0.0-110.0","57f3b6bfa1100100016d1454","625729b853af61d9ad5f5e5e","","","","","4302","key"," "," ","16.70019844357977","500","250","flank","","","","","0.53","0.44","0"
"","psychophysics","111","1031853","0.0-111.0","57f3b6bfa1100100016d1454","625729b853af61d9ad5f5e5e","","","","","4990","key"," "," ","16.700214765100636","500","250","flank","","","","","0.7100000000000002","0.7","1"
"","psychophysics","112","1037405","0.0-112.0","57f3b6bfa1100100016d1454","625729b853af61d9ad5f5e5e","","","","","5550","key"," "," ","16.700407854985134","500","250","flank","","","","","0.1999999999999998","0.24","1"
"","psychophysics","113","1040998","0.0-113.0","57f3b6bfa1100100016d1454","625729b853af61d9ad5f5e5e","","","","","3589","key"," "," ","16.70021860465126","500","250","flank","","","","","0.53","0.42","0"
"","psychophysics","114","1045429","0.0-114.0","57f3b6bfa1100100016d1454","625729b853af61d9ad5f5e5e","","","","","4428","key"," "," ","16.700246212121176","500","250","flank","","","","","0.4099999999999999","0.3","1"
"","psychophysics","115","1049989","0.0-115.0","57f3b6bfa1100100016d1454","625729b853af61d9ad5f5e5e","","","","","4558","key"," "," ","16.700198529411864","500","250","flank","","","","","0.34999999999999987","0.32","1"
"","psychophysics","116","1053949","0.0-116.0","57f3b6bfa1100100016d1454","625729b853af61d9ad5f5e5e","","","","","3958","key"," "," ","16.700122881356144","500","250","flank","","","","","0.34999999999999987","0.26","0"
"","psychophysics","117","1058053","0.0-117.0","57f3b6bfa1100100016d1454","625729b853af61d9ad5f5e5e","","","","","4101","key"," "," ","16.70017959183671","500","250","flank","","","","","0.43999999999999995","0.36","0"
"","psychophysics","118","1061605","0.0-118.0","57f3b6bfa1100100016d1454","625729b853af61d9ad5f5e5e","","","","","3550","key"," "," ","16.700255924170413","500","250","flank","","","","","0.5900000000000001","0.56","1"
"","psychophysics","119","1065821","0.0-119.0","57f3b6bfa1100100016d1454","625729b853af61d9ad5f5e5e","","","","","4212","key"," "," ","16.700170634920518","500","250","flank","","","","","0.53","0.42","0"
"","psychophysics","120","1069405","0.0-120.0","57f3b6bfa1100100016d1454","625729b853af61d9ad5f5e5e","","","","","3582","key"," "," ","16.699920560747916","500","250","flank","","","","","0.5900000000000001","0.54","0"
"","psychophysics","121","1073373","0.0-121.0","57f3b6bfa1100100016d1454","625729b853af61d9ad5f5e5e","","","","","3965","key"," "," ","16.700372881356675","500","250","flank","","","","","0.6800000000000002","0.6","1"
"","psychophysics","122","1078582","0.0-122.0","57f3b6bfa1100100016d1454","625729b853af61d9ad5f5e5e","","","","","5206","key"," "," ","16.700173633440375","500","250","flank","","","","","0.5","0.42","1"
"","psychophysics","123","1083502","0.0-123.0","57f3b6bfa1100100016d1454","625729b853af61d9ad5f5e5e","","","","","4918","key"," "," ","16.700608843537587","500","250","flank","","","","","0.7400000000000002","0.6","0"
"","psychophysics","124","1087590","0.0-124.0","57f3b6bfa1100100016d1454","625729b853af61d9ad5f5e5e","","","","","4086","key"," "," ","16.700353909464965","500","250","flank","","","","","0.6500000000000001","0.62","0"
"","psychophysics","125","1093406","0.0-125.0","57f3b6bfa1100100016d1454","625729b853af61d9ad5f5e5e","","","","","5814","key"," "," ","16.70042816091907","500","250","flank","","","","","0.8000000000000003","0.74","0"
"","psychophysics","126","1097814","0.0-126.0","57f3b6bfa1100100016d1454","625729b853af61d9ad5f5e5e","","","","","4405","key"," "," ","16.70011406844064","500","250","flank","","","","","0.2599999999999998","0.28","1"
"","psychophysics","127","1102614","0.0-127.0","57f3b6bfa1100100016d1454","625729b853af61d9ad5f5e5e","","","","","4797","key"," "," ","16.70036363636365","500","250","flank","","","","","0.53","0.44","0"
"","psychophysics","128","1106965","0.0-128.0","57f3b6bfa1100100016d1454","625729b853af61d9ad5f5e5e","","","","","4350","key"," "," ","16.69984615384601","500","250","flank","","","","","0.7700000000000002","0.7","0"
"","psychophysics","129","1111102","0.0-129.0","57f3b6bfa1100100016d1454","625729b853af61d9ad5f5e5e","","","","","4134","key"," "," ","16.7004634146342","500","250","flank","","","","","0.3799999999999999","0.34","1"
"","psychophysics","130","1114830","0.0-130.0","57f3b6bfa1100100016d1454","625729b853af61d9ad5f5e5e","","","","","3725","key"," "," ","16.70000450450482","500","250","flank","","","","","0.2899999999999998","0.24","1"
"","psychophysics","131","1118709","0.0-131.0","57f3b6bfa1100100016d1454","625729b853af61d9ad5f5e5e","","","","","3877","key"," "," ","16.70045258620742","500","250","flank","","","","","0.6500000000000001","0.52","0"
"","psychophysics","132","1123182","0.0-132.0","57f3b6bfa1100100016d1454","625729b853af61d9ad5f5e5e","","","","","4470","key"," "," ","16.70029213483191","500","250","flank","","","","","0.53","0.4","0"
"","psychophysics","133","1127445","0.0-133.0","57f3b6bfa1100100016d1454","625729b853af61d9ad5f5e5e","","","","","4262","key"," "," ","16.700216535432997","500","250","flank","","","","","0.6500000000000001","0.6","1"
"","psychophysics","134","1131245","0.0-134.0","57f3b6bfa1100100016d1454","625729b853af61d9ad5f5e5e","","","","","3798","key"," "," ","16.700207964601656","500","250","flank","","","","","0.7700000000000002","0.76","1"
"","psychophysics","135","1134629","0.0-135.0","57f3b6bfa1100100016d1454","625729b853af61d9ad5f5e5e","","","","","3380","key"," "," ","16.70014851485116","500","250","flank","","","","","0.43999999999999995","0.4","1"
"true","fullscreen","136","1134632","0.0-136.0","57f3b6bfa1100100016d1454","625729b853af61d9ad5f5e5e","","","","","","","","","","","","","","","","","","",""
"true","fullscreen","0","2858","0.0-0.0","5cec5f7afdd26c00193ba64b","62573bfba530234055809e91","","","","","","","","","","","","","","","","","","",""
"true","preload","1","2860","0.0-1.0","5cec5f7afdd26c00193ba64b","62573bfba530234055809e91","false","[]","[]","[]","","","","","","","","","","","","","","",""
"","psychophysics","2","21337","0.0-2.0","5cec5f7afdd26c00193ba64b","62573bfba530234055809e91","","","","","18465","key"," "," ","16.65215148782687","500","250","inst","","","","","","",""
"","psychophysics","3","23116","0.0-3.0","5cec5f7afdd26c00193ba64b","62573bfba530234055809e91","","","","","1775","key"," "," ","16.652216981132096","500","250","inst","","","","","","",""
"","psychophysics","4","62856","0.0-4.0","5cec5f7afdd26c00193ba64b","62573bfba530234055809e91","","","","","39735","key"," "," ","16.65218825995807","500","250","instMl","250","-41.666666666666664","-2","-19","-25.666666666666686","",""
"","psychophysics","5","75301","0.0-5.0","5cec5f7afdd26c00193ba64b","62573bfba530234055809e91","","","","","12439","key"," "," ","16.652128514056223","500","250","instMl","206","-34.333333333333336","9","-10","-34.333333333333314","",""
"","psychophysics","6","79564","0.0-6.0","5cec5f7afdd26c00193ba64b","62573bfba530234055809e91","","","","","4260","key"," "," ","16.652086274509774","500","250","inst","","","","","","",""
"","psychophysics","7","99623","0.0-7.0","5cec5f7afdd26c00193ba64b","62573bfba530234055809e91","","","","","20056","key"," "," ","16.66598086522463","500","250","ml","172","28","28","-3","-20","",""
"","psychophysics","8","104443","0.0-8.0","5cec5f7afdd26c00193ba64b","62573bfba530234055809e91","","","","","4814","key"," "," ","16.65206228373701","500","250","ml","188","-12","15","-19","-22","",""
"","psychophysics","9","132355","0.0-9.0","5cec5f7afdd26c00193ba64b","62573bfba530234055809e91","","","","","27908","key"," "," ","16.65207761194029","500","250","ml","216","-34","28","23","-24","",""
"","psychophysics","10","142163","0.0-10.0","5cec5f7afdd26c00193ba64b","62573bfba530234055809e91","","","","","9805","key"," "," ","16.65199829931973","500","250","ml","160","-31","-28","-2","-14","",""
"","psychophysics","11","148101","0.0-11.0","5cec5f7afdd26c00193ba64b","62573bfba530234055809e91","","","","","5935","key"," "," ","16.65204225352114","500","250","ml","218","8","27","28","-17","",""
"","psychophysics","12","154054","0.0-12.0","5cec5f7afdd26c00193ba64b","62573bfba530234055809e91","","","","","5948","key"," "," ","16.65210644257702","500","250","ml","190","-46","7","-12","-16","",""
"","psychophysics","13","159722","0.0-13.0","5cec5f7afdd26c00193ba64b","62573bfba530234055809e91","","","","","5664","key"," "," ","16.65190855457228","500","250","ml","208","-52","-26","8","-17","",""
"","psychophysics","14","166921","0.0-14.0","5cec5f7afdd26c00193ba64b","62573bfba530234055809e91","","","","","7194","key"," "," ","16.652141203703717","500","250","ml","192","-42","5","10","-15","",""
"","psychophysics","15","171474","0.0-15.0","5cec5f7afdd26c00193ba64b","62573bfba530234055809e91","","","","","4550","key"," "," ","16.65198897058829","500","250","ml","166","-37","0","9","-22","",""
"","psychophysics","16","174216","0.0-16.0","5cec5f7afdd26c00193ba64b","62573bfba530234055809e91","","","","","2740","key"," "," ","16.651469512195035","500","250","ml","170","-12","-22","-29","-19","",""
"","psychophysics","17","191840","0.0-17.0","5cec5f7afdd26c00193ba64b","62573bfba530234055809e91","","","","","17621","key"," "," ","16.652126773888345","500","250","ml","242","16","20","0","-22","",""
"","psychophysics","18","198928","0.0-18.0","5cec5f7afdd26c00193ba64b","62573bfba530234055809e91","","","","","7086","key"," "," ","16.65254588235293","500","250","ml","224","-49","21","11","-23","",""
"","psychophysics","19","202445","0.0-19.0","5cec5f7afdd26c00193ba64b","62573bfba530234055809e91","","","","","3514","key"," "," ","16.651738095238052","500","250","ml","152","-17","10","-9","-15","",""
"","psychophysics","20","208576","0.0-20.0","5cec5f7afdd26c00193ba64b","62573bfba530234055809e91","","","","","6128","key"," "," ","16.65215258855593","500","250","ml","250","16","27","4","-23","",""
"","psychophysics","21","222549","0.0-21.0","5cec5f7afdd26c00193ba64b","62573bfba530234055809e91","","","","","13970","key"," "," ","16.651978520286406","500","250","ml","226","37","-5","12","-20","",""
"","psychophysics","22","225579","0.0-22.0","5cec5f7afdd26c00193ba64b","62573bfba530234055809e91","","","","","3028","key"," "," ","16.65218232044206","500","250","inst","","","","","","",""
"","psychophysics","23","235475","0.0-23.0","5cec5f7afdd26c00193ba64b","62573bfba530234055809e91","","","","","9893","key"," "," ","16.708505922165795","500","250","instPog","","","","","130","130",""
"","psychophysics","24","247645","0.0-24.0","5cec5f7afdd26c00193ba64b","62573bfba530234055809e91","","","","","12165","key"," "," ","16.652283561643817","500","250","instPog","","","","","135","130",""
"","psychophysics","25","252463","0.0-25.0","5cec5f7afdd26c00193ba64b","62573bfba530234055809e91","","","","","4814","key"," "," ","16.65239792387545","500","250","instPog","","","","","159","130",""
"","psychophysics","26","256977","0.0-26.0","5cec5f7afdd26c00193ba64b","62573bfba530234055809e91","","","","","4511","key"," "," ","16.652355555555552","500","250","inst","","","","","","",""
"","psychophysics","27","263399","0.0-27.0","5cec5f7afdd26c00193ba64b","62573bfba530234055809e91","","","","","6420","key"," "," ","16.652395833333305","500","250","pog","","","","","188","186",""
"","psychophysics","28","266609","0.0-28.0","5cec5f7afdd26c00193ba64b","62573bfba530234055809e91","","","","","3205","key"," "," ","16.65228645833334","500","250","pog","","","","","139","121",""
"","psychophysics","29","270531","0.0-29.0","5cec5f7afdd26c00193ba64b","62573bfba530234055809e91","","","","","3920","key"," "," ","16.651459574468056","500","250","pog","","","","","180","181",""
"","psychophysics","30","275049","0.0-30.0","5cec5f7afdd26c00193ba64b","62573bfba530234055809e91","","","","","4515","key"," "," ","16.652281481481623","500","250","pog","","","","","188","191",""
"","psychophysics","31","276542","0.0-31.0","5cec5f7afdd26c00193ba64b","62573bfba530234055809e91","","","","","1490","key"," "," ","16.651033707864954","500","250","pog","","","","","160","135",""
"","psychophysics","32","278349","0.0-32.0","5cec5f7afdd26c00193ba64b","62573bfba530234055809e91","","","","","1803","key"," "," ","16.652093457944243","500","250","pog","","","","","159","124",""
"","psychophysics","33","284685","0.0-33.0","5cec5f7afdd26c00193ba64b","62573bfba530234055809e91","","","","","6334","key"," "," ","16.65179473684203","500","250","pog","","","","","171","142",""
"","psychophysics","34","289537","0.0-34.0","5cec5f7afdd26c00193ba64b","62573bfba530234055809e91","","","","","4849","key"," "," ","16.65210689655164","500","250","pog","","","","","213","179",""
"","psychophysics","35","293246","0.0-35.0","5cec5f7afdd26c00193ba64b","62573bfba530234055809e91","","","","","3706","key"," "," ","16.65159009009005","500","250","pog","","","","","190","165",""
"","psychophysics","36","296331","0.0-36.0","5cec5f7afdd26c00193ba64b","62573bfba530234055809e91","","","","","3082","key"," "," ","16.652336956521573","500","250","pog","","","","","173","160",""
"","psychophysics","37","302304","0.0-37.0","5cec5f7afdd26c00193ba64b","62573bfba530234055809e91","","","","","5970","key"," "," ","16.65203072625689","500","250","pog","","","","","191","168",""
"","psychophysics","38","306076","0.0-38.0","5cec5f7afdd26c00193ba64b","62573bfba530234055809e91","","","","","3769","key"," "," ","16.651537777777865","500","250","pog","","","","","196","168",""
"","psychophysics","39","313137","0.0-39.0","5cec5f7afdd26c00193ba64b","62573bfba530234055809e91","","","","","7059","key"," "," ","16.69186018957352","500","250","pog","","","","","179","166",""
"","psychophysics","40","314392","0.0-40.0","5cec5f7afdd26c00193ba64b","62573bfba530234055809e91","","","","","1252","key"," "," ","16.64998666666681","500","250","pog","","","","","159","149",""
"","psychophysics","41","317291","0.0-41.0","5cec5f7afdd26c00193ba64b","62573bfba530234055809e91","","","","","2895","key"," "," ","16.65234104046232","500","250","pog","","","","","145","126",""
"","psychophysics","42","318863","0.0-42.0","5cec5f7afdd26c00193ba64b","62573bfba530234055809e91","","","","","1569","key"," "," ","16.652666666666395","500","250","inst","","","","","","",""
"","psychophysics","43","321797","0.0-43.0","5cec5f7afdd26c00193ba64b","62573bfba530234055809e91","","","","","2929","key"," "," ","16.652319999999765","500","250","instTilt","","","","","NaN","0","0"
"","psychophysics","44","325765","0.0-44.0","5cec5f7afdd26c00193ba64b","62573bfba530234055809e91","","","","","3963","key"," "," ","16.72268220338989","500","250","instTilt","","","","","0","0","0"
"","psychophysics","45","340185","0.0-45.0","5cec5f7afdd26c00193ba64b","62573bfba530234055809e91","","","","","14413","key"," "," ","16.65210289017343","500","250","instTilt","","","","","2","0","0"
"","psychophysics","46","344943","0.0-46.0","5cec5f7afdd26c00193ba64b","62573bfba530234055809e91","","","","","4754","key"," "," ","16.651445614035126","500","250","inst","","","","","","",""
"","psychophysics","47","350181","0.0-47.0","5cec5f7afdd26c00193ba64b","62573bfba530234055809e91","","","","","5233","key"," "," ","16.651853503184807","500","250","tilt","","","","","2","-1","0"
"","psychophysics","48","353535","0.0-48.0","5cec5f7afdd26c00193ba64b","62573bfba530234055809e91","","","","","3350","key"," "," ","16.652705000000132","500","250","tilt","","","","","5","8","1"
"","psychophysics","49","356024","0.0-49.0","5cec5f7afdd26c00193ba64b","62573bfba530234055809e91","","","","","2483","key"," "," ","16.651906040268592","500","250","tilt","","","","","-8","-7","1"
"","psychophysics","50","359343","0.0-50.0","5cec5f7afdd26c00193ba64b","62573bfba530234055809e91","","","","","3315","key"," "," ","16.652929292929436","500","250","tilt","","","","","-1","-3","0"
"","psychophysics","51","362394","0.0-51.0","5cec5f7afdd26c00193ba64b","62573bfba530234055809e91","","","","","3048","key"," "," ","16.651835164835276","500","250","tilt","","","","","6","9","0"
"","psychophysics","52","365268","0.0-52.0","5cec5f7afdd26c00193ba64b","62573bfba530234055809e91","","","","","2869","key"," "," ","16.652151162790602","500","250","tilt","","","","","1","0","0"
"","psychophysics","53","365768","0.0-53.0","5cec5f7afdd26c00193ba64b","62573bfba530234055809e91","","","","","497","key"," "," ","16.654178571427888","500","250","tilt","","","","","0","0","0"
"","psychophysics","54","369279","0.0-54.0","5cec5f7afdd26c00193ba64b","62573bfba530234055809e91","","","","","3503","key"," "," ","16.652194312796265","500","250","tilt","","","","","-6","-7","0"
"","psychophysics","55","371514","0.0-55.0","5cec5f7afdd26c00193ba64b","62573bfba530234055809e91","","","","","2232","key"," "," ","16.65208270676702","500","250","tilt","","","","","8","9","0"
"","psychophysics","56","373378","0.0-56.0","5cec5f7afdd26c00193ba64b","62573bfba530234055809e91","","","","","1861","key"," "," ","16.652126126126113","500","250","tilt","","","","","5","2","0"
"","psychophysics","57","376112","0.0-57.0","5cec5f7afdd26c00193ba64b","62573bfba530234055809e91","","","","","2731","key"," "," ","16.652361963190312","500","250","tilt","","","","","12","10","0"
"","psychophysics","58","379283","0.0-58.0","5cec5f7afdd26c00193ba64b","62573bfba530234055809e91","","","","","3168","key"," "," ","16.652682539682637","500","250","tilt","","","","","10","8","1"
"","psychophysics","59","381629","0.0-59.0","5cec5f7afdd26c00193ba64b","62573bfba530234055809e91","","","","","2341","key"," "," ","16.652028571428463","500","250","tilt","","","","","0","-2","0"
"","psychophysics","60","384419","0.0-60.0","5cec5f7afdd26c00193ba64b","62573bfba530234055809e91","","","","","2784","key"," "," ","16.652275449101754","500","250","tilt","","","","","2","6","1"
"","psychophysics","61","386285","0.0-61.0","5cec5f7afdd26c00193ba64b","62573bfba530234055809e91","","","","","1862","key"," "," ","16.652072072072112","500","250","tilt","","","","","-4","-8","0"
"","psychophysics","62","388226","0.0-62.0","5cec5f7afdd26c00193ba64b","62573bfba530234055809e91","","","","","1938","key"," "," ","16.652147826087237","500","250","tilt","","","","","6","8","0"
"","psychophysics","63","391250","0.0-63.0","5cec5f7afdd26c00193ba64b","62573bfba530234055809e91","","","","","3018","key"," "," ","16.652066298342728","500","250","tilt","","","","","-7","-6","1"
"","psychophysics","64","393979","0.0-64.0","5cec5f7afdd26c00193ba64b","62573bfba530234055809e91","","","","","2726","key"," "," ","16.651558282208754","500","250","tilt","","","","","4","5","1"
"","psychophysics","65","397873","0.0-65.0","5cec5f7afdd26c00193ba64b","62573bfba530234055809e91","","","","","3891","key"," "," ","16.652206008583597","500","250","tilt","","","","","-4","-3","0"
"","psychophysics","66","405662","0.0-66.0","5cec5f7afdd26c00193ba64b","62573bfba530234055809e91","","","","","7786","key"," "," ","16.652158458244152","500","250","tilt","","","","","-1","0","1"
"","psychophysics","67","407771","0.0-67.0","5cec5f7afdd26c00193ba64b","62573bfba530234055809e91","","","","","2105","key"," "," ","16.652328000000214","500","250","tilt","","","","","5","4","0"
"","psychophysics","68","409895","0.0-68.0","5cec5f7afdd26c00193ba64b","62573bfba530234055809e91","","","","","2117","key"," "," ","16.650440944882117","500","250","tilt","","","","","1","3","1"
"","psychophysics","69","415297","0.0-69.0","5cec5f7afdd26c00193ba64b","62573bfba530234055809e91","","","","","5399","key"," "," ","16.652656346749104","500","250","tilt","","","","","4","6","0"
"","psychophysics","70","416914","0.0-70.0","5cec5f7afdd26c00193ba64b","62573bfba530234055809e91","","","","","1614","key"," "," ","16.65204166666687","500","250","tilt","","","","","-4","-5","1"
"","psychophysics","71","421770","0.0-71.0","5cec5f7afdd26c00193ba64b","62573bfba530234055809e91","","","","","4850","key"," "," ","16.652371134020505","500","250","tilt","","","","","-4","-8","0"
"","psychophysics","72","423503","0.0-72.0","5cec5f7afdd26c00193ba64b","62573bfba530234055809e91","","","","","1731","key"," "," ","16.65314563106829","500","250","tilt","","","","","5","9","1"
"","psychophysics","73","426072","0.0-73.0","5cec5f7afdd26c00193ba64b","62573bfba530234055809e91","","","","","2565","key"," "," ","16.652124183006688","500","250","tilt","","","","","2","-2","0"
"","psychophysics","74","427296","0.0-74.0","5cec5f7afdd26c00193ba64b","62573bfba530234055809e91","","","","","1219","key"," "," ","16.649794520547914","500","250","tilt","","","","","0","2","0"
"","psychophysics","75","428969","0.0-75.0","5cec5f7afdd26c00193ba64b","62573bfba530234055809e91","","","","","1670","key"," "," ","16.653888888888748","500","250","tilt","","","","","-4","-1","1"
"","psychophysics","76","430862","0.0-76.0","5cec5f7afdd26c00193ba64b","62573bfba530234055809e91","","","","","1888","key"," "," ","16.650433628318165","500","250","tilt","","","","","0","6","1"
"","psychophysics","77","431924","0.0-77.0","5cec5f7afdd26c00193ba64b","62573bfba530234055809e91","","","","","1059","key"," "," ","16.6505079365073","500","250","inst","","","","","","",""
"","psychophysics","78","435715","0.0-78.0","5cec5f7afdd26c00193ba64b","62573bfba530234055809e91","","","","","3788","key"," "," ","16.652274336283398","500","250","instPz","","","","","27","50",""
"","psychophysics","79","438957","0.0-79.0","5cec5f7afdd26c00193ba64b","62573bfba530234055809e91","","","","","3237","key"," "," ","16.651505154639135","500","250","instPz","","","","","14","50",""
"","psychophysics","80","448492","0.0-80.0","5cec5f7afdd26c00193ba64b","62573bfba530234055809e91","","","","","9531","key"," "," ","16.65200699300705","500","250","instPz","","","","","30","30",""
"","psychophysics","81","456289","0.0-81.0","5cec5f7afdd26c00193ba64b","62573bfba530234055809e91","","","","","7794","key"," "," ","16.652209850107056","500","250","instPz","","","","","15","40",""
"","psychophysics","82","459676","0.0-82.0","5cec5f7afdd26c00193ba64b","62573bfba530234055809e91","","","","","3385","key"," "," ","16.652089108910936","500","250","inst","","","","","","",""
"","psychophysics","83","465353","0.0-83.0","5cec5f7afdd26c00193ba64b","62573bfba530234055809e91","","","","","5670","key"," "," ","16.6522470588236","500","250","pz","","","","","44","37",""
"","psychophysics","84","471148","0.0-84.0","5cec5f7afdd26c00193ba64b","62573bfba530234055809e91","","","","","5792","key"," "," ","16.65208933717586","500","250","pz","","","","","62","60",""
"","psychophysics","85","477677","0.0-85.0","5cec5f7afdd26c00193ba64b","62573bfba530234055809e91","","","","","6526","key"," "," ","16.65221227621487","500","250","pz","","","","","61","52",""
"","psychophysics","86","480945","0.0-86.0","5cec5f7afdd26c00193ba64b","62573bfba530234055809e91","","","","","3263","key"," "," ","16.651712820512685","500","250","pz","","","","","37","27",""
"","psychophysics","87","485161","0.0-87.0","5cec5f7afdd26c00193ba64b","62573bfba530234055809e91","","","","","4211","key"," "," ","16.65228853754956","500","250","pz","","","","","61","56",""
"","psychophysics","88","488677","0.0-88.0","5cec5f7afdd26c00193ba64b","62573bfba530234055809e91","","","","","3513","key"," "," ","16.652776190476114","500","250","pz","","","","","62","55",""
"","psychophysics","89","491525","0.0-89.0","5cec5f7afdd26c00193ba64b","62573bfba530234055809e91","","","","","2845","key"," "," ","16.65208823529435","500","250","pz","","","","","65","57",""
"","psychophysics","90","495318","0.0-90.0","5cec5f7afdd26c00193ba64b","62573bfba530234055809e91","","","","","3790","key"," "," ","16.651515418502076","500","250","pz","","","","","58","48",""
"","psychophysics","91","499278","0.0-91.0","5cec5f7afdd26c00193ba64b","62573bfba530234055809e91","","","","","3956","key"," "," ","16.652347457627233","500","250","pz","","","","","53","36",""
"","psychophysics","92","501268","0.0-92.0","5cec5f7afdd26c00193ba64b","62573bfba530234055809e91","","","","","1986","key"," "," ","16.652226890756225","500","250","pz","","","","","31","20",""
"","psychophysics","93","503014","0.0-93.0","5cec5f7afdd26c00193ba64b","62573bfba530234055809e91","","","","","1742","key"," "," ","16.651221153846283","500","250","pz","","","","","42","48",""
"","psychophysics","94","504670","0.0-94.0","5cec5f7afdd26c00193ba64b","62573bfba530234055809e91","","","","","1653","key"," "," ","16.6511836734693","500","250","pz","","","","","40","39",""
"","psychophysics","95","511777","0.0-95.0","5cec5f7afdd26c00193ba64b","62573bfba530234055809e91","","","","","7101","key"," "," ","16.652161971830978","500","250","pz","","","","","52","49",""
"","psychophysics","96","513336","0.0-96.0","5cec5f7afdd26c00193ba64b","62573bfba530234055809e91","","","","","1556","key"," "," ","16.653064516128882","500","250","pz","","","","","38","42",""
"","psychophysics","97","515533","0.0-97.0","5cec5f7afdd26c00193ba64b","62573bfba530234055809e91","","","","","2194","key"," "," ","16.652274809160115","500","250","pz","","","","","59","57",""
"","psychophysics","98","517649","0.0-98.0","5cec5f7afdd26c00193ba64b","62573bfba530234055809e91","","","","","2112","key"," "," ","16.651976190476","500","250","inst","","","","","","",""
"","psychophysics","99","519492","0.0-99.0","5cec5f7afdd26c00193ba64b","62573bfba530234055809e91","","","","","1840","key"," "," ","16.65268807339433","500","250","inst","","","","","","",""
"","psychophysics","100","522390","0.0-100.0","5cec5f7afdd26c00193ba64b","62573bfba530234055809e91","","","","","2891","key"," "," ","16.6521445086705","500","250","instFlank","","","","","0.5","0.3","1"
"","psychophysics","101","527126","0.0-101.0","5cec5f7afdd26c00193ba64b","62573bfba530234055809e91","","","","","4731","key"," "," ","16.65186619718291","500","250","inst","","","","","","",""
"","psychophysics","102","531191","0.0-102.0","5cec5f7afdd26c00193ba64b","62573bfba530234055809e91","","","","","4062","key"," "," ","16.651456790123472","500","250","instFlank","","","","","0.4099999999999999","0.3","1"
"","psychophysics","103","535824","0.0-103.0","5cec5f7afdd26c00193ba64b","62573bfba530234055809e91","","","","","4630","key"," "," ","16.651985559567123","500","250","inst","","","","","","",""
"","psychophysics","104","539718","0.0-104.0","5cec5f7afdd26c00193ba64b","62573bfba530234055809e91","","","","","3890","key"," "," ","16.652124463519094","500","250","instFlank","","","","","0.019999999999999796","0.3","0"
"","psychophysics","105","541161","0.0-105.0","5cec5f7afdd26c00193ba64b","62573bfba530234055809e91","","","","","1440","key"," "," ","16.651302325581256","500","250","inst","","","","","","",""
"","psychophysics","106","545441","0.0-106.0","5cec5f7afdd26c00193ba64b","62573bfba530234055809e91","","","","","4276","key"," "," ","16.6520585937501","500","250","flank","","","","","0.8000000000000003","0.68","0"
"","psychophysics","107","548928","0.0-107.0","5cec5f7afdd26c00193ba64b","62573bfba530234055809e91","","","","","3483","key"," "," ","16.652134615384476","500","250","flank","","","","","0.53","0.46","0"
"","psychophysics","108","553103","0.0-108.0","5cec5f7afdd26c00193ba64b","62573bfba530234055809e91","","","","","4172","key"," "," ","16.652148000000043","500","250","flank","","","","","0.7100000000000002","0.7","1"
"","psychophysics","109","555697","0.0-109.0","5cec5f7afdd26c00193ba64b","62573bfba530234055809e91","","","","","2591","key"," "," ","16.760973684210178","500","250","flank","","","","","0.4099999999999999","0.32","1"
"","psychophysics","110","559057","0.0-110.0","5cec5f7afdd26c00193ba64b","62573bfba530234055809e91","","","","","3354","key"," "," ","16.65209900990064","500","250","flank","","","","","0.53","0.34","0"
"","psychophysics","111","561645","0.0-111.0","5cec5f7afdd26c00193ba64b","62573bfba530234055809e91","","","","","2583","key"," "," ","16.652109677418917","500","250","flank","","","","","0.43999999999999995","0.3","0"
"","psychophysics","112","564991","0.0-112.0","5cec5f7afdd26c00193ba64b","62573bfba530234055809e91","","","","","3341","key"," "," ","16.65207999999984","500","250","flank","","","","","0.6800000000000002","0.58","0"
"","psychophysics","113","568755","0.0-113.0","5cec5f7afdd26c00193ba64b","62573bfba530234055809e91","","","","","3760","key"," "," ","16.65205333333359","500","250","flank","","","","","0.53","0.6","1"
"","psychophysics","114","572660","0.0-114.0","5cec5f7afdd26c00193ba64b","62573bfba530234055809e91","","","","","3902","key"," "," ","16.652051502145735","500","250","flank","","","","","0.7100000000000002","0.78","1"
"","psychophysics","115","575331","0.0-115.0","5cec5f7afdd26c00193ba64b","62573bfba530234055809e91","","","","","2666","key"," "," ","16.65101250000007","500","250","flank","","","","","0.47","0.22","1"
"","psychophysics","116","577930","0.0-116.0","5cec5f7afdd26c00193ba64b","62573bfba530234055809e91","","","","","2594","key"," "," ","16.652399999999833","500","250","flank","","","","","0.5900000000000001","0.56","1"
"","psychophysics","117","581015","0.0-117.0","5cec5f7afdd26c00193ba64b","62573bfba530234055809e91","","","","","3081","key"," "," ","16.652228260869617","500","250","flank","","","","","0.7100000000000002","0.8","0"
"","psychophysics","118","583486","0.0-118.0","5cec5f7afdd26c00193ba64b","62573bfba530234055809e91","","","","","2468","key"," "," ","16.65147619047614","500","250","flank","","","","","0.5","0.4","0"
"","psychophysics","119","586272","0.0-119.0","5cec5f7afdd26c00193ba64b","62573bfba530234055809e91","","","","","2781","key"," "," ","16.652227544910303","500","250","flank","","","","","0.5","0.28","0"
"","psychophysics","120","588842","0.0-120.0","5cec5f7afdd26c00193ba64b","62573bfba530234055809e91","","","","","2565","key"," "," ","16.652058823529504","500","250","flank","","","","","0.47","0.38","1"
"","psychophysics","121","592378","0.0-121.0","5cec5f7afdd26c00193ba64b","62573bfba530234055809e91","","","","","3533","key"," "," ","16.65149289099566","500","250","flank","","","","","0.8000000000000003","0.8","0"
"","psychophysics","122","594784","0.0-122.0","5cec5f7afdd26c00193ba64b","62573bfba530234055809e91","","","","","2400","key"," "," ","16.652166666666744","500","250","flank","","","","","0.43999999999999995","0.28","1"
"","psychophysics","123","597196","0.0-123.0","5cec5f7afdd26c00193ba64b","62573bfba530234055809e91","","","","","2409","key"," "," ","16.6532500000006","500","250","flank","","","","","0.56","0.4","0"
"","psychophysics","124","600360","0.0-124.0","5cec5f7afdd26c00193ba64b","62573bfba530234055809e91","","","","","3160","key"," "," ","16.652984126984073","500","250","flank","","","","","0.6200000000000001","0.58","0"
"","psychophysics","125","603741","0.0-125.0","5cec5f7afdd26c00193ba64b","62573bfba530234055809e91","","","","","3378","key"," "," ","16.651881188119066","500","250","flank","","","","","0.7100000000000002","0.72","0"
"","psychophysics","126","606256","0.0-126.0","5cec5f7afdd26c00193ba64b","62573bfba530234055809e91","","","","","2511","key"," "," ","16.65206666666704","500","250","flank","","","","","0.43999999999999995","0.24","0"
"","psychophysics","127","609511","0.0-127.0","5cec5f7afdd26c00193ba64b","62573bfba530234055809e91","","","","","3251","key"," "," ","16.65191752577294","500","250","flank","","","","","0.4099999999999999","0.38","1"
"","psychophysics","128","612491","0.0-128.0","5cec5f7afdd26c00193ba64b","62573bfba530234055809e91","","","","","2977","key"," "," ","16.651640449438684","500","250","flank","","","","","0.43999999999999995","0.52","1"
"","psychophysics","129","615030","0.0-129.0","5cec5f7afdd26c00193ba64b","62573bfba530234055809e91","","","","","2535","key"," "," ","16.65265789473702","500","250","flank","","","","","0.4099999999999999","0.4","1"
"","psychophysics","130","617978","0.0-130.0","5cec5f7afdd26c00193ba64b","62573bfba530234055809e91","","","","","2944","key"," "," ","16.652153409091458","500","250","flank","","","","","0.6500000000000001","0.56","0"
"","psychophysics","131","622677","0.0-131.0","5cec5f7afdd26c00193ba64b","62573bfba530234055809e91","","","","","4696","key"," "," ","16.651473309608587","500","250","flank","","","","","0.7400000000000002","0.78","0"
"","psychophysics","132","625906","0.0-132.0","5cec5f7afdd26c00193ba64b","62573bfba530234055809e91","","","","","3226","key"," "," ","16.652782383419506","500","250","flank","","","","","0.6800000000000002","0.74","0"
"","psychophysics","133","628827","0.0-133.0","5cec5f7afdd26c00193ba64b","62573bfba530234055809e91","","","","","2918","key"," "," ","16.65205747126428","500","250","flank","","","","","0.4099999999999999","0.36","0"
"","psychophysics","134","631729","0.0-134.0","5cec5f7afdd26c00193ba64b","62573bfba530234055809e91","","","","","2898","key"," "," ","16.653231213873283","500","250","flank","","","","","0.31999999999999984","0.22","0"
"","psychophysics","135","634185","0.0-135.0","5cec5f7afdd26c00193ba64b","62573bfba530234055809e91","","","","","2450","key"," "," ","16.652469387755502","500","250","flank","","","","","0.5900000000000001","0.52","0"
"true","fullscreen","136","634187","0.0-136.0","5cec5f7afdd26c00193ba64b","62573bfba530234055809e91","","","","","","","","","","","","","","","","","","",""
"true","fullscreen","0","4136","0.0-0.0","5d5035c5d87393001af70561","62572a4cef06efa46bcba3df","","","","","","","","","","","","","","","","","","",""
"true","preload","1","4140","0.0-1.0","5d5035c5d87393001af70561","62572a4cef06efa46bcba3df","false","[]","[]","[]","","","","","","","","","","","","","","",""
"","psychophysics","2","8895","0.0-2.0","5d5035c5d87393001af70561","62572a4cef06efa46bcba3df","","","","","4725","key"," "," ","16.742190140845068","500","250","inst","","","","","","",""
"","psychophysics","3","10607","0.0-3.0","5d5035c5d87393001af70561","62572a4cef06efa46bcba3df","","","","","1707","key"," "," ","16.684264705882352","500","250","inst","","","","","","",""
"","psychophysics","4","35600","0.0-4.0","5d5035c5d87393001af70561","62572a4cef06efa46bcba3df","","","","","24988","key"," "," ","16.683316633266536","500","250","instMl","184","-30.666666666666668","23","19","-16.666666666666742","",""
"","psychophysics","5","49903","0.0-5.0","5d5035c5d87393001af70561","62572a4cef06efa46bcba3df","","","","","14298","key"," "," ","16.68318808411215","500","250","instMl","224","-37.333333333333336","13","15","-23.333333333333314","",""
"","psychophysics","6","54791","0.0-6.0","5d5035c5d87393001af70561","62572a4cef06efa46bcba3df","","","","","4882","key"," "," ","16.683613013698622","500","250","inst","","","","","","",""
"","psychophysics","7","71103","0.0-7.0","5d5035c5d87393001af70561","62572a4cef06efa46bcba3df","","","","","16306","key"," "," ","16.68333162743091","500","250","ml","174","-12","26","0","-13","",""
"","psychophysics","8","78967","0.0-8.0","5d5035c5d87393001af70561","62572a4cef06efa46bcba3df","","","","","7859","key"," "," ","16.68360638297872","500","250","ml","156","-21","12","-30","-17","",""
"","psychophysics","9","90455","0.0-9.0","5d5035c5d87393001af70561","62572a4cef06efa46bcba3df","","","","","11480","key"," "," ","16.683412790697666","500","250","ml","176","27","7","-26","-10","",""
"","psychophysics","10","103897","0.0-10.0","5d5035c5d87393001af70561","62572a4cef06efa46bcba3df","","","","","13437","key"," "," ","16.683195031055913","500","250","ml","156","37","25","-5","-5","",""
"","psychophysics","11","123327","0.0-11.0","5d5035c5d87393001af70561","62572a4cef06efa46bcba3df","","","","","19425","key"," "," ","16.683401547721413","500","250","ml","178","-29","19","5","-19","",""
"","psychophysics","12","129591","0.0-12.0","5d5035c5d87393001af70561","62572a4cef06efa46bcba3df","","","","","6255","key"," "," ","16.683226666666684","500","250","ml","218","45","-20","6","-15","",""
"","psychophysics","13","133047","0.0-13.0","5d5035c5d87393001af70561","62572a4cef06efa46bcba3df","","","","","3452","key"," "," ","16.683713592233016","500","250","ml","240","-8","22","3","-11","",""
"","psychophysics","14","141617","0.0-14.0","5d5035c5d87393001af70561","62572a4cef06efa46bcba3df","","","","","8566","key"," "," ","16.683210937500007","500","250","ml","208","25","22","-17","-8","",""
"","psychophysics","15","154264","0.0-15.0","5d5035c5d87393001af70561","62572a4cef06efa46bcba3df","","","","","12642","key"," "," ","16.683177014531054","500","250","ml","166","-10","11","-8","-10","",""
"","psychophysics","16","160239","0.0-16.0","5d5035c5d87393001af70561","62572a4cef06efa46bcba3df","","","","","5968","key"," "," ","16.683156424581025","500","250","ml","180","-24","29","17","-14","",""
"","psychophysics","17","166863","0.0-17.0","5d5035c5d87393001af70561","62572a4cef06efa46bcba3df","","","","","6621","key"," "," ","16.682936868686866","500","250","ml","154","-36","-24","27","-14","",""
"","psychophysics","18","169791","0.0-18.0","5d5035c5d87393001af70561","62572a4cef06efa46bcba3df","","","","","2924","key"," "," ","16.68248850574711","500","250","ml","176","-4","1","-30","-11","",""
"","psychophysics","19","174232","0.0-19.0","5d5035c5d87393001af70561","62572a4cef06efa46bcba3df","","","","","4432","key"," "," ","16.683388679245276","500","250","ml","236","-10","10","6","-16","",""
"","psychophysics","20","176927","0.0-20.0","5d5035c5d87393001af70561","62572a4cef06efa46bcba3df","","","","","2689","key"," "," ","16.682720496894262","500","250","ml","190","-23","-22","-18","-22","",""
"","psychophysics","21","181903","0.0-21.0","5d5035c5d87393001af70561","62572a4cef06efa46bcba3df","","","","","4970","key"," "," ","16.6840942760943","500","250","ml","154","-20","27","-6","-15","",""
"","psychophysics","22","184695","0.0-22.0","5d5035c5d87393001af70561","62572a4cef06efa46bcba3df","","","","","2784","key"," "," ","16.683287425149683","500","250","inst","","","","","","",""
"","psychophysics","23","208216","0.0-23.0","5d5035c5d87393001af70561","62572a4cef06efa46bcba3df","","","","","23517","key"," "," ","16.683190340909093","500","250","instPog","","","","","154","130",""
"","psychophysics","24","223511","0.0-24.0","5d5035c5d87393001af70561","62572a4cef06efa46bcba3df","","","","","15288","key"," "," ","16.683086244541478","500","250","instPog","","","","","158","130",""
"","psychophysics","25","242295","0.0-25.0","5d5035c5d87393001af70561","62572a4cef06efa46bcba3df","","","","","18777","key"," "," ","16.683278222222217","500","250","instPog","","","","","162","130",""
"","psychophysics","26","248449","0.0-26.0","5d5035c5d87393001af70561","62572a4cef06efa46bcba3df","","","","","6149","key"," "," ","16.683328804347816","500","250","inst","","","","","","",""
"","psychophysics","27","257391","0.0-27.0","5d5035c5d87393001af70561","62572a4cef06efa46bcba3df","","","","","8938","key"," "," ","16.683336448598116","500","250","pog","","","","","188","172",""
"","psychophysics","28","268095","0.0-28.0","5d5035c5d87393001af70561","62572a4cef06efa46bcba3df","","","","","10700","key"," "," ","16.68332917316692","500","250","pog","","","","","140","129",""
"","psychophysics","29","277575","0.0-29.0","5d5035c5d87393001af70561","62572a4cef06efa46bcba3df","","","","","9476","key"," "," ","16.683261022927663","500","250","pog","","","","","199","195",""
"","psychophysics","30","280751","0.0-30.0","5d5035c5d87393001af70561","62572a4cef06efa46bcba3df","","","","","3172","key"," "," ","16.683465608465546","500","250","pog","","","","","160","155",""
"","psychophysics","31","292616","0.0-31.0","5d5035c5d87393001af70561","62572a4cef06efa46bcba3df","","","","","11859","key"," "," ","16.683395774647902","500","250","pog","","","","","190","190",""
"","psychophysics","32","301231","0.0-32.0","5d5035c5d87393001af70561","62572a4cef06efa46bcba3df","","","","","8609","key"," "," ","16.683321705426323","500","250","pog","","","","","168","161",""
"","psychophysics","33","335047","0.0-33.0","5d5035c5d87393001af70561","62572a4cef06efa46bcba3df","","","","","33812","key"," "," ","16.683304540967423","500","250","pog","","","","","176","171",""
"","psychophysics","34","337855","0.0-34.0","5d5035c5d87393001af70561","62572a4cef06efa46bcba3df","","","","","2804","key"," "," ","16.683383233532933","500","250","pog","","","","","160","152",""
"","psychophysics","35","348327","0.0-35.0","5d5035c5d87393001af70561","62572a4cef06efa46bcba3df","","","","","10468","key"," "," ","16.68326156299845","500","250","pog","","","","","190","186",""
"","psychophysics","36","358887","0.0-36.0","5d5035c5d87393001af70561","62572a4cef06efa46bcba3df","","","","","10556","key"," "," ","16.683335443038","500","250","pog","","","","","177","171",""
"","psychophysics","37","367594","0.0-37.0","5d5035c5d87393001af70561","62572a4cef06efa46bcba3df","","","","","8703","key"," "," ","16.683292307692373","500","250","pog","","","","","170","162",""
"","psychophysics","38","376040","0.0-38.0","5d5035c5d87393001af70561","62572a4cef06efa46bcba3df","","","","","8440","key"," "," ","16.68327470355724","500","250","pog","","","","","176","170",""
"","psychophysics","39","384577","0.0-39.0","5d5035c5d87393001af70561","62572a4cef06efa46bcba3df","","","","","8533","key"," "," ","16.683315068493147","500","250","pog","","","","","146","135",""
"","psychophysics","40","416983","0.0-40.0","5d5035c5d87393001af70561","62572a4cef06efa46bcba3df","","","","","32402","key"," "," ","16.683296239052062","500","250","pog","","","","","171","168",""
"","psychophysics","41","423607","0.0-41.0","5d5035c5d87393001af70561","62572a4cef06efa46bcba3df","","","","","6620","key"," "," ","16.683679292929202","500","250","pog","","","","","172","169",""
"","psychophysics","42","425954","0.0-42.0","5d5035c5d87393001af70561","62572a4cef06efa46bcba3df","","","","","2343","key"," "," ","16.6832714285714","500","250","inst","","","","","","",""
"","psychophysics","43","430527","0.0-43.0","5d5035c5d87393001af70561","62572a4cef06efa46bcba3df","","","","","4565","key"," "," ","17.252162878787864","500","250","instTilt","","","","","NaN","0","0"
"","psychophysics","44","434679","0.0-44.0","5d5035c5d87393001af70561","62572a4cef06efa46bcba3df","","","","","4147","key"," "," ","16.683471774193507","500","250","instTilt","","","","","0","0","0"
"","psychophysics","45","440705","0.0-45.0","5d5035c5d87393001af70561","62572a4cef06efa46bcba3df","","","","","6021","key"," "," ","16.68320277777772","500","250","instTilt","","","","","0","0","0"
"","psychophysics","46","443111","0.0-46.0","5d5035c5d87393001af70561","62572a4cef06efa46bcba3df","","","","","2402","key"," "," ","16.683363636363772","500","250","inst","","","","","","",""
"","psychophysics","47","456711","0.0-47.0","5d5035c5d87393001af70561","62572a4cef06efa46bcba3df","","","","","13591","key"," "," ","16.68330835380834","500","250","tilt","","","","","-4","-3","1"
"","psychophysics","48","461991","0.0-48.0","5d5035c5d87393001af70561","62572a4cef06efa46bcba3df","","","","","5271","key"," "," ","16.683458860759487","500","250","tilt","","","","","0","0","1"
"","psychophysics","49","467944","0.0-49.0","5d5035c5d87393001af70561","62572a4cef06efa46bcba3df","","","","","5948","key"," "," ","16.683308988764132","500","250","tilt","","","","","-3","-5","0"
"","psychophysics","50","474266","0.0-50.0","5d5035c5d87393001af70561","62572a4cef06efa46bcba3df","","","","","6317","key"," "," ","16.683259259259252","500","250","tilt","","","","","-8","-7","0"
"","psychophysics","51","495239","0.0-51.0","5d5035c5d87393001af70561","62572a4cef06efa46bcba3df","","","","","20968","key"," "," ","16.683285031847138","500","250","tilt","","","","","5","5","1"
"","psychophysics","52","505207","0.0-52.0","5d5035c5d87393001af70561","62572a4cef06efa46bcba3df","","","","","9963","key"," "," ","16.68322651006708","500","250","tilt","","","","","-9","-9","1"
"","psychophysics","53","510439","0.0-53.0","5d5035c5d87393001af70561","62572a4cef06efa46bcba3df","","","","","5222","key"," "," ","16.683281150159832","500","250","tilt","","","","","-3","-1","1"
"","psychophysics","54","514943","0.0-54.0","5d5035c5d87393001af70561","62572a4cef06efa46bcba3df","","","","","4499","key"," "," ","16.683144981412653","500","250","tilt","","","","","6","6","0"
"","psychophysics","55","520119","0.0-55.0","5d5035c5d87393001af70561","62572a4cef06efa46bcba3df","","","","","5171","key"," "," ","16.683145631067788","500","250","tilt","","","","","3","0","0"
"","psychophysics","56","526871","0.0-56.0","5d5035c5d87393001af70561","62572a4cef06efa46bcba3df","","","","","6748","key"," "," ","16.682962871287025","500","250","tilt","","","","","3","6","1"
"","psychophysics","57","529999","0.0-57.0","5d5035c5d87393001af70561","62572a4cef06efa46bcba3df","","","","","3123","key"," "," ","16.683806451612718","500","250","tilt","","","","","0","2","1"
"","psychophysics","58","555543","0.0-58.0","5d5035c5d87393001af70561","62572a4cef06efa46bcba3df","","","","","25533","key"," "," ","16.68327189542481","500","250","tilt","","","","","-1","-1","0"
"","psychophysics","59","560018","0.0-59.0","5d5035c5d87393001af70561","62572a4cef06efa46bcba3df","","","","","4469","key"," "," ","16.683347014925328","500","250","tilt","","","","","3","5","1"
"","psychophysics","60","563463","0.0-60.0","5d5035c5d87393001af70561","62572a4cef06efa46bcba3df","","","","","3439","key"," "," ","16.683863414634338","500","250","tilt","","","","","4","5","0"
"","psychophysics","61","568978","0.0-61.0","5d5035c5d87393001af70561","62572a4cef06efa46bcba3df","","","","","5503","key"," "," ","16.683248484848335","500","250","tilt","","","","","-2","-2","0"
"","psychophysics","62","573023","0.0-62.0","5d5035c5d87393001af70561","62572a4cef06efa46bcba3df","","","","","4040","key"," "," ","16.683215767634486","500","250","tilt","","","","","-3","-5","0"
"","psychophysics","63","578400","0.0-63.0","5d5035c5d87393001af70561","62572a4cef06efa46bcba3df","","","","","5369","key"," "," ","16.683395638629268","500","250","tilt","","","","","2","7","1"
"","psychophysics","64","583143","0.0-64.0","5d5035c5d87393001af70561","62572a4cef06efa46bcba3df","","","","","4733","key"," "," ","16.683323943662018","500","250","tilt","","","","","4","10","1"
"","psychophysics","65","587287","0.0-65.0","5d5035c5d87393001af70561","62572a4cef06efa46bcba3df","","","","","4139","key"," "," ","16.683425101214503","500","250","tilt","","","","","-6","-4","1"
"","psychophysics","66","591319","0.0-66.0","5d5035c5d87393001af70561","62572a4cef06efa46bcba3df","","","","","4021","key"," "," ","16.683170124481208","500","250","tilt","","","","","0","-1","0"
"","psychophysics","67","599431","0.0-67.0","5d5035c5d87393001af70561","62572a4cef06efa46bcba3df","","","","","8105","key"," "," ","16.68330103092774","500","250","tilt","","","","","-7","-6","1"
"","psychophysics","68","603071","0.0-68.0","5d5035c5d87393001af70561","62572a4cef06efa46bcba3df","","","","","3630","key"," "," ","16.683248847926333","500","250","tilt","","","","","8","8","0"
"","psychophysics","69","607520","0.0-69.0","5d5035c5d87393001af70561","62572a4cef06efa46bcba3df","","","","","4439","key"," "," ","16.68322556390938","500","250","tilt","","","","","-8","-8","1"
"","psychophysics","70","624871","0.0-70.0","5d5035c5d87393001af70561","62572a4cef06efa46bcba3df","","","","","17345","key"," "," ","16.683118383060645","500","250","tilt","","","","","-2","-3","0"
"","psychophysics","71","627727","0.0-71.0","5d5035c5d87393001af70561","62572a4cef06efa46bcba3df","","","","","2851","key"," "," ","16.683258823529297","500","250","tilt","","","","","4","6","1"
"","psychophysics","72","630943","0.0-72.0","5d5035c5d87393001af70561","62572a4cef06efa46bcba3df","","","","","3209","key"," "," ","16.68343229166688","500","250","tilt","","","","","-1","-1","0"
"","psychophysics","73","633161","0.0-73.0","5d5035c5d87393001af70561","62572a4cef06efa46bcba3df","","","","","2214","key"," "," ","16.68332061068713","500","250","tilt","","","","","3","5","0"
"","psychophysics","74","636887","0.0-74.0","5d5035c5d87393001af70561","62572a4cef06efa46bcba3df","","","","","3718","key"," "," ","16.676596412555767","500","250","tilt","","","","","-4","-4","0"
"","psychophysics","75","640055","0.0-75.0","5d5035c5d87393001af70561","62572a4cef06efa46bcba3df","","","","","3156","key"," "," ","16.683285714285425","500","250","tilt","","","","","4","4","0"
"","psychophysics","76","642848","0.0-76.0","5d5035c5d87393001af70561","62572a4cef06efa46bcba3df","","","","","2787","key"," "," ","16.683524096385344","500","250","tilt","","","","","6","10","0"
"","psychophysics","77","644510","0.0-77.0","5d5035c5d87393001af70561","62572a4cef06efa46bcba3df","","","","","1654","key"," "," ","16.68325252525245","500","250","inst","","","","","","",""
"","psychophysics","78","648288","0.0-78.0","5d5035c5d87393001af70561","62572a4cef06efa46bcba3df","","","","","3772","key"," "," ","16.68336888888851","500","250","instPz","","","","","50","50",""
"","psychophysics","79","653928","0.0-79.0","5d5035c5d87393001af70561","62572a4cef06efa46bcba3df","","","","","5632","key"," "," ","16.683281065088824","500","250","instPz","","","","","15","50",""
"","psychophysics","80","667111","0.0-80.0","5d5035c5d87393001af70561","62572a4cef06efa46bcba3df","","","","","13179","key"," "," ","16.683333333333362","500","250","instPz","","","","","4","30",""
"","psychophysics","81","692568","0.0-81.0","5d5035c5d87393001af70561","62572a4cef06efa46bcba3df","","","","","25452","key"," "," ","16.683317377049185","500","250","instPz","","","","","53","40",""
"","psychophysics","82","695359","0.0-82.0","5d5035c5d87393001af70561","62572a4cef06efa46bcba3df","","","","","2787","key"," "," ","16.683198795180505","500","250","inst","","","","","","",""
"","psychophysics","83","700609","0.0-83.0","5d5035c5d87393001af70561","62572a4cef06efa46bcba3df","","","","","5244","key"," "," ","16.683226114649855","500","250","pz","","","","","48","44",""
"","psychophysics","84","706498","0.0-84.0","5d5035c5d87393001af70561","62572a4cef06efa46bcba3df","","","","","5883","key"," "," ","16.683289772727054","500","250","pz","","","","","36","23",""
"","psychophysics","85","711719","0.0-85.0","5d5035c5d87393001af70561","62572a4cef06efa46bcba3df","","","","","5215","key"," "," ","16.683317307692143","500","250","pz","","","","","40","36",""
"","psychophysics","86","715888","0.0-86.0","5d5035c5d87393001af70561","62572a4cef06efa46bcba3df","","","","","4164","key"," "," ","16.683322580645306","500","250","pz","","","","","64","57",""
"","psychophysics","87","721383","0.0-87.0","5d5035c5d87393001af70561","62572a4cef06efa46bcba3df","","","","","5487","key"," "," ","16.68328875379947","500","250","pz","","","","","59","58",""
"","psychophysics","88","723910","0.0-88.0","5d5035c5d87393001af70561","62572a4cef06efa46bcba3df","","","","","2522","key"," "," ","16.683226666667032","500","250","pz","","","","","26","22",""
"","psychophysics","89","727807","0.0-89.0","5d5035c5d87393001af70561","62572a4cef06efa46bcba3df","","","","","3887","key"," "," ","16.683442060085707","500","250","pz","","","","","27","26",""
"","psychophysics","90","734424","0.0-90.0","5d5035c5d87393001af70561","62572a4cef06efa46bcba3df","","","","","6610","key"," "," ","16.6833443037974","500","250","pz","","","","","59","58",""
"","psychophysics","91","738807","0.0-91.0","5d5035c5d87393001af70561","62572a4cef06efa46bcba3df","","","","","4376","key"," "," ","16.683393129770987","500","250","pz","","","","","59","49",""
"","psychophysics","92","743402","0.0-92.0","5d5035c5d87393001af70561","62572a4cef06efa46bcba3df","","","","","4587","key"," "," ","16.683334545454603","500","250","pz","","","","","31","32",""
"","psychophysics","93","747737","0.0-93.0","5d5035c5d87393001af70561","62572a4cef06efa46bcba3df","","","","","4329","key"," "," ","16.683236434108167","500","250","pz","","","","","56","53",""
"","psychophysics","94","752999","0.0-94.0","5d5035c5d87393001af70561","62572a4cef06efa46bcba3df","","","","","5255","key"," "," ","16.683412698412774","500","250","pz","","","","","26","22",""
"","psychophysics","95","756699","0.0-95.0","5d5035c5d87393001af70561","62572a4cef06efa46bcba3df","","","","","3694","key"," "," ","16.683180995475148","500","250","pz","","","","","25","24",""
"","psychophysics","96","762431","0.0-96.0","5d5035c5d87393001af70561","62572a4cef06efa46bcba3df","","","","","5728","key"," "," ","16.6833684210528","500","250","pz","","","","","33","32",""
"","psychophysics","97","768087","0.0-97.0","5d5035c5d87393001af70561","62572a4cef06efa46bcba3df","","","","","5647","key"," "," ","16.683334319526466","500","250","pz","","","","","74","56",""
"","psychophysics","98","769719","0.0-98.0","5d5035c5d87393001af70561","62572a4cef06efa46bcba3df","","","","","1623","key"," "," ","16.68300000000049","500","250","inst","","","","","","",""
"","psychophysics","99","774015","0.0-99.0","5d5035c5d87393001af70561","62572a4cef06efa46bcba3df","","","","","4293","key"," "," ","16.683237354085392","500","250","inst","","","","","","",""
"","psychophysics","100","776958","0.0-100.0","5d5035c5d87393001af70561","62572a4cef06efa46bcba3df","","","","","2935","key"," "," ","16.683291428571433","500","250","instFlank","","","","","0.5","0.3","1"
"","psychophysics","101","782919","0.0-101.0","5d5035c5d87393001af70561","62572a4cef06efa46bcba3df","","","","","5956","key"," "," ","16.68335112359563","500","250","inst","","","","","","",""
"","psychophysics","102","788887","0.0-102.0","5d5035c5d87393001af70561","62572a4cef06efa46bcba3df","","","","","5958","key"," "," ","16.683313725490112","500","250","instFlank","","","","","1","0.3","1"
"","psychophysics","103","792434","0.0-103.0","5d5035c5d87393001af70561","62572a4cef06efa46bcba3df","","","","","3543","key"," "," ","16.683183962263975","500","250","inst","","","","","","",""
"","psychophysics","104","800599","0.0-104.0","5d5035c5d87393001af70561","62572a4cef06efa46bcba3df","","","","","8158","key"," "," ","16.683272540983676","500","250","instFlank","","","","","0.049999999999999795","0.3","0"
"","psychophysics","105","805223","0.0-105.0","5d5035c5d87393001af70561","62572a4cef06efa46bcba3df","","","","","4620","key"," "," ","16.68334782608714","500","250","inst","","","","","","",""
"","psychophysics","106","810295","0.0-106.0","5d5035c5d87393001af70561","62572a4cef06efa46bcba3df","","","","","5060","key"," "," ","16.683379537953453","500","250","flank","","","","","0.9500000000000004","0.72","1"
"","psychophysics","107","818031","0.0-107.0","5d5035c5d87393001af70561","62572a4cef06efa46bcba3df","","","","","7727","key"," "," ","16.683269978401835","500","250","flank","","","","","0.9500000000000004","0.58","1"
"","psychophysics","108","822719","0.0-108.0","5d5035c5d87393001af70561","62572a4cef06efa46bcba3df","","","","","4682","key"," "," ","16.68390357142863","500","250","flank","","","","","1","0.68","1"
"","psychophysics","109","827263","0.0-109.0","5d5035c5d87393001af70561","62572a4cef06efa46bcba3df","","","","","4538","key"," "," ","16.683387453874875","500","250","flank","","","","","0.9500000000000004","0.26","1"
"","psychophysics","110","834287","0.0-110.0","5d5035c5d87393001af70561","62572a4cef06efa46bcba3df","","","","","7014","key"," "," ","16.683309523809502","500","250","flank","","","","","0.0799999999999998","0.78","0"
"","psychophysics","111","841072","0.0-111.0","5d5035c5d87393001af70561","62572a4cef06efa46bcba3df","","","","","6775","key"," "," ","16.683413793103487","500","250","flank","","","","","0.9800000000000004","0.7","1"
"","psychophysics","112","845720","0.0-112.0","5d5035c5d87393001af70561","62572a4cef06efa46bcba3df","","","","","4640","key"," "," ","16.68317266187016","500","250","flank","","","","","0.9500000000000004","0.24","1"
"","psychophysics","113","850367","0.0-113.0","5d5035c5d87393001af70561","62572a4cef06efa46bcba3df","","","","","4640","key"," "," ","16.683342960288677","500","250","flank","","","","","0.9800000000000004","0.24","1"
"","psychophysics","114","856898","0.0-114.0","5d5035c5d87393001af70561","62572a4cef06efa46bcba3df","","","","","6522","key"," "," ","16.683375959079164","500","250","flank","","","","","0.0799999999999998","0.28","0"
"","psychophysics","115","861791","0.0-115.0","5d5035c5d87393001af70561","62572a4cef06efa46bcba3df","","","","","4887","key"," "," ","16.683294520548333","500","250","flank","","","","","0.9800000000000004","0.24","1"
"","psychophysics","116","867441","0.0-116.0","5d5035c5d87393001af70561","62572a4cef06efa46bcba3df","","","","","5644","key"," "," ","16.683532544378654","500","250","flank","","","","","0.0799999999999998","0.6","0"
"","psychophysics","117","873351","0.0-117.0","5d5035c5d87393001af70561","62572a4cef06efa46bcba3df","","","","","5904","key"," "," ","16.683158640226708","500","250","flank","","","","","1","0.36","1"
"","psychophysics","118","878770","0.0-118.0","5d5035c5d87393001af70561","62572a4cef06efa46bcba3df","","","","","5413","key"," "," ","16.683246913580167","500","250","flank","","","","","1","0.54","1"
"","psychophysics","119","887399","0.0-119.0","5d5035c5d87393001af70561","62572a4cef06efa46bcba3df","","","","","8623","key"," "," ","16.682705426356726","500","250","flank","","","","","0.06999999999999937","0.52","0"
"","psychophysics","120","891527","0.0-120.0","5d5035c5d87393001af70561","62572a4cef06efa46bcba3df","","","","","4119","key"," "," ","16.683268292683056","500","250","flank","","","","","1","0.74","1"
"","psychophysics","121","896095","0.0-121.0","5d5035c5d87393001af70561","62572a4cef06efa46bcba3df","","","","","4558","key"," "," ","16.683380952381253","500","250","flank","","","","","0.9500000000000004","0.54","1"
"","psychophysics","122","900599","0.0-122.0","5d5035c5d87393001af70561","62572a4cef06efa46bcba3df","","","","","4494","key"," "," ","16.68329739776963","500","250","flank","","","","","0","0.78","0"
"","psychophysics","123","906497","0.0-123.0","5d5035c5d87393001af70561","62572a4cef06efa46bcba3df","","","","","5891","key"," "," ","16.683444759206946","500","250","flank","","","","","0.9800000000000004","0.76","1"
"","psychophysics","124","910633","0.0-124.0","5d5035c5d87393001af70561","62572a4cef06efa46bcba3df","","","","","4128","key"," "," ","16.684390243902854","500","250","flank","","","","","0.10999999999999979","0.3","0"
"","psychophysics","125","916079","0.0-125.0","5d5035c5d87393001af70561","62572a4cef06efa46bcba3df","","","","","5436","key"," "," ","16.683349693251525","500","250","flank","","","","","0.0799999999999998","0.2","0"
"","psychophysics","126","920071","0.0-126.0","5d5035c5d87393001af70561","62572a4cef06efa46bcba3df","","","","","3987","key"," "," ","16.683289915966476","500","250","flank","","","","","0.049999999999999795","0.64","0"
"","psychophysics","127","923799","0.0-127.0","5d5035c5d87393001af70561","62572a4cef06efa46bcba3df","","","","","3717","key"," "," ","16.68343049327367","500","250","flank","","","","","0.0799999999999998","0.66","0"
"","psychophysics","128","927727","0.0-128.0","5d5035c5d87393001af70561","62572a4cef06efa46bcba3df","","","","","3923","key"," "," ","16.683311965812045","500","250","flank","","","","","0.0799999999999998","0.6","0"
"","psychophysics","129","932351","0.0-129.0","5d5035c5d87393001af70561","62572a4cef06efa46bcba3df","","","","","4604","key"," "," ","16.683438405796945","500","250","flank","","","","","0.9800000000000004","0.2","1"
"","psychophysics","130","937680","0.0-130.0","5d5035c5d87393001af70561","62572a4cef06efa46bcba3df","","","","","5321","key"," "," ","16.683391849529713","500","250","flank","","","","","0.9500000000000004","0.22","1"
"","psychophysics","131","944817","0.0-131.0","5d5035c5d87393001af70561","62572a4cef06efa46bcba3df","","","","","7130","key"," "," ","16.68329107981233","500","250","flank","","","","","0.10999999999999979","0.42","0"
"","psychophysics","132","948631","0.0-132.0","5d5035c5d87393001af70561","62572a4cef06efa46bcba3df","","","","","3804","key"," "," ","16.683302631579224","500","250","flank","","","","","0.019999999999999796","0.6","0"
"","psychophysics","133","954929","0.0-133.0","5d5035c5d87393001af70561","62572a4cef06efa46bcba3df","","","","","6287","key"," "," ","16.683230769231024","500","250","flank","","","","","0.9500000000000004","0.72","1"
"","psychophysics","134","960639","0.0-134.0","5d5035c5d87393001af70561","62572a4cef06efa46bcba3df","","","","","5704","key"," "," ","16.683372434017336","500","250","flank","","","","","0.9500000000000004","0.74","1"
"","psychophysics","135","964695","0.0-135.0","5d5035c5d87393001af70561","62572a4cef06efa46bcba3df","","","","","4050","key"," "," ","16.683433884297774","500","250","flank","","","","","1","0.2","1"
"true","fullscreen","136","964700","0.0-136.0","5d5035c5d87393001af70561","62572a4cef06efa46bcba3df","","","","","","","","","","","","","","","","","","",""
"true","fullscreen","0","5102","0.0-0.0","5e6bf9f5b66f921aeb75b5b7","62573bf9ff97d79cccc47dcb","","","","","","","","","","","","","","","","","","",""
"true","preload","1","5108","0.0-1.0","5e6bf9f5b66f921aeb75b5b7","62573bf9ff97d79cccc47dcb","false","[]","[]","[]","","","","","","","","","","","","","","",""
"","psychophysics","2","10084","0.0-2.0","5e6bf9f5b66f921aeb75b5b7","62573bf9ff97d79cccc47dcb","","","","","4934","key"," "," ","16.902044217687074","500","250","inst","","","","","","",""
"","psychophysics","3","12712","0.0-3.0","5e6bf9f5b66f921aeb75b5b7","62573bf9ff97d79cccc47dcb","","","","","2624","key"," "," ","16.674318471337582","500","250","inst","","","","","","",""
"","psychophysics","4","46676","0.0-4.0","5e6bf9f5b66f921aeb75b5b7","62573bf9ff97d79cccc47dcb","","","","","33956","key"," "," ","17.016973420260783","500","250","instMl","242","-40.333333333333336","-24","22","116.66666666666674","",""
"","psychophysics","5","75724","0.0-5.0","5e6bf9f5b66f921aeb75b5b7","62573bf9ff97d79cccc47dcb","","","","","29037","key"," "," ","16.683706490522688","500","250","instMl","184","-30.666666666666668","-17","-30","-25.666666666666686","",""
"","psychophysics","6","80515","0.0-6.0","5e6bf9f5b66f921aeb75b5b7","62573bf9ff97d79cccc47dcb","","","","","4787","key"," "," ","16.674237762237794","500","250","inst","","","","","","",""
"","psychophysics","7","88218","0.0-7.0","5e6bf9f5b66f921aeb75b5b7","62573bf9ff97d79cccc47dcb","","","","","7700","key"," "," ","16.67421041214751","500","250","ml","192","-26","-22","-7","-26","",""
"","psychophysics","8","95262","0.0-8.0","5e6bf9f5b66f921aeb75b5b7","62573bf9ff97d79cccc47dcb","","","","","7040","key"," "," ","16.674068883610442","500","250","ml","166","-34","-24","-11","-18","",""
"","psychophysics","9","100435","0.0-9.0","5e6bf9f5b66f921aeb75b5b7","62573bf9ff97d79cccc47dcb","","","","","5166","key"," "," ","16.67409677419355","500","250","ml","232","-18","-15","7","-22","",""
"","psychophysics","10","107667","0.0-10.0","5e6bf9f5b66f921aeb75b5b7","62573bf9ff97d79cccc47dcb","","","","","7228","key"," "," ","16.674081018518503","500","250","ml","210","-41","29","-24","-22","",""
"","psychophysics","11","111226","0.0-11.0","5e6bf9f5b66f921aeb75b5b7","62573bf9ff97d79cccc47dcb","","","","","3552","key"," "," ","16.674117370892017","500","250","ml","196","-14","-20","3","-17","",""
"","psychophysics","12","117443","0.0-12.0","5e6bf9f5b66f921aeb75b5b7","62573bf9ff97d79cccc47dcb","","","","","6214","key"," "," ","16.67402419354837","500","250","ml","178","-37","18","-13","-27","",""
"","psychophysics","13","132971","0.0-13.0","5e6bf9f5b66f921aeb75b5b7","62573bf9ff97d79cccc47dcb","","","","","15524","key"," "," ","16.692094725511325","500","250","ml","160","-1","-10","4","-13","",""
"","psychophysics","14","135065","0.0-14.0","5e6bf9f5b66f921aeb75b5b7","62573bf9ff97d79cccc47dcb","","","","","2091","key"," "," ","16.67418399999989","500","250","ml","156","-8","-17","-7","-13","",""
"","psychophysics","15","139142","0.0-15.0","5e6bf9f5b66f921aeb75b5b7","62573bf9ff97d79cccc47dcb","","","","","4071","key"," "," ","16.673983539094614","500","250","ml","172","4","-18","-7","-12","",""
"","psychophysics","16","146448","0.0-16.0","5e6bf9f5b66f921aeb75b5b7","62573bf9ff97d79cccc47dcb","","","","","7303","key"," "," ","16.674160183066313","500","250","ml","232","35","-7","-20","-15","",""
"","psychophysics","17","151339","0.0-17.0","5e6bf9f5b66f921aeb75b5b7","62573bf9ff97d79cccc47dcb","","","","","4884","key"," "," ","16.67413651877132","500","250","ml","178","23","7","-22","-9","",""
"","psychophysics","18","154269","0.0-18.0","5e6bf9f5b66f921aeb75b5b7","62573bf9ff97d79cccc47dcb","","","","","2925","key"," "," ","16.67413218390804","500","250","ml","164","-8","14","-29","-14","",""
"","psychophysics","19","159222","0.0-19.0","5e6bf9f5b66f921aeb75b5b7","62573bf9ff97d79cccc47dcb","","","","","4949","key"," "," ","16.67422635135134","500","250","ml","242","21","-6","29","-10","",""
"","psychophysics","20","166460","0.0-20.0","5e6bf9f5b66f921aeb75b5b7","62573bf9ff97d79cccc47dcb","","","","","7232","key"," "," ","16.674136258660536","500","250","ml","242","-56","1","0","-19","",""
"","psychophysics","21","171694","0.0-21.0","5e6bf9f5b66f921aeb75b5b7","62573bf9ff97d79cccc47dcb","","","","","5228","key"," "," ","16.67416293929705","500","250","ml","178","-41","15","8","-17","",""
"","psychophysics","22","174225","0.0-22.0","5e6bf9f5b66f921aeb75b5b7","62573bf9ff97d79cccc47dcb","","","","","2524","key"," "," ","16.67411258278144","500","250","inst","","","","","","",""
"","psychophysics","23","181468","0.0-23.0","5e6bf9f5b66f921aeb75b5b7","62573bf9ff97d79cccc47dcb","","","","","7240","key"," "," ","16.67414087759813","500","250","instPog","","","","","160","130",""
"","psychophysics","24","186918","0.0-24.0","5e6bf9f5b66f921aeb75b5b7","62573bf9ff97d79cccc47dcb","","","","","5442","key"," "," ","16.674141104294534","500","250","instPog","","","","","137","130",""
"","psychophysics","25","191772","0.0-25.0","5e6bf9f5b66f921aeb75b5b7","62573bf9ff97d79cccc47dcb","","","","","4849","key"," "," ","16.674213793103437","500","250","instPog","","","","","149","130",""
"","psychophysics","26","193087","0.0-26.0","5e6bf9f5b66f921aeb75b5b7","62573bf9ff97d79cccc47dcb","","","","","1310","key"," "," ","16.674051282051295","500","250","inst","","","","","","",""
"","psychophysics","27","198758","0.0-27.0","5e6bf9f5b66f921aeb75b5b7","62573bf9ff97d79cccc47dcb","","","","","5666","key"," "," ","16.674056047197652","500","250","pog","","","","","159","144",""
"","psychophysics","28","206102","0.0-28.0","5e6bf9f5b66f921aeb75b5b7","62573bf9ff97d79cccc47dcb","","","","","7339","key"," "," ","16.674165909090913","500","250","pog","","","","","148","124",""
"","psychophysics","29","219979","0.0-29.0","5e6bf9f5b66f921aeb75b5b7","62573bf9ff97d79cccc47dcb","","","","","13873","key"," "," ","16.674116726835127","500","250","pog","","","","","181","164",""
"","psychophysics","30","224660","0.0-30.0","5e6bf9f5b66f921aeb75b5b7","62573bf9ff97d79cccc47dcb","","","","","4679","key"," "," ","16.67404642857135","500","250","pog","","","","","168","150",""
"","psychophysics","31","232084","0.0-31.0","5e6bf9f5b66f921aeb75b5b7","62573bf9ff97d79cccc47dcb","","","","","7419","key"," "," ","16.674198198198226","500","250","pog","","","","","188","169",""
"","psychophysics","32","238649","0.0-32.0","5e6bf9f5b66f921aeb75b5b7","62573bf9ff97d79cccc47dcb","","","","","6562","key"," "," ","16.674170483460543","500","250","pog","","","","","197","180",""
"","psychophysics","33","244309","0.0-33.0","5e6bf9f5b66f921aeb75b5b7","62573bf9ff97d79cccc47dcb","","","","","5656","key"," "," ","16.72364094955489","500","250","pog","","","","","181","163",""
"","psychophysics","34","250709","0.0-34.0","5e6bf9f5b66f921aeb75b5b7","62573bf9ff97d79cccc47dcb","","","","","6395","key"," "," ","16.674112271540462","500","250","pog","","","","","160","147",""
"","psychophysics","35","257319","0.0-35.0","5e6bf9f5b66f921aeb75b5b7","62573bf9ff97d79cccc47dcb","","","","","6605","key"," "," ","17.84579189189197","500","250","pog","","","","","199","186",""
"","psychophysics","36","262297","0.0-36.0","5e6bf9f5b66f921aeb75b5b7","62573bf9ff97d79cccc47dcb","","","","","4974","key"," "," ","16.674181818181783","500","250","pog","","","","","176","172",""
"","psychophysics","37","268211","0.0-37.0","5e6bf9f5b66f921aeb75b5b7","62573bf9ff97d79cccc47dcb","","","","","5911","key"," "," ","16.674186440677996","500","250","pog","","","","","176","159",""
"","psychophysics","38","275175","0.0-38.0","5e6bf9f5b66f921aeb75b5b7","62573bf9ff97d79cccc47dcb","","","","","6961","key"," "," ","16.67413701923075","500","250","pog","","","","","155","132",""
"","psychophysics","39","275867","0.0-39.0","5e6bf9f5b66f921aeb75b5b7","62573bf9ff97d79cccc47dcb","","","","","686","key"," "," ","16.673487804878345","500","250","pog","","","","","160","130",""
"","psychophysics","40","282486","0.0-40.0","5e6bf9f5b66f921aeb75b5b7","62573bf9ff97d79cccc47dcb","","","","","6616","key"," "," ","16.758766497462","500","250","pog","","","","","179","161",""
"","psychophysics","41","289611","0.0-41.0","5e6bf9f5b66f921aeb75b5b7","62573bf9ff97d79cccc47dcb","","","","","7120","key"," "," ","18.166723785166273","500","250","pog","","","","","164","142",""
"","psychophysics","42","292436","0.0-42.0","5e6bf9f5b66f921aeb75b5b7","62573bf9ff97d79cccc47dcb","","","","","2814","key"," "," ","16.6739881656807","500","250","inst","","","","","","",""
"","psychophysics","43","300027","0.0-43.0","5e6bf9f5b66f921aeb75b5b7","62573bf9ff97d79cccc47dcb","","","","","7565","key"," "," ","16.93537360178976","500","250","instTilt","","","","","NaN","0","0"
"","psychophysics","44","303661","0.0-44.0","5e6bf9f5b66f921aeb75b5b7","62573bf9ff97d79cccc47dcb","","","","","3629","key"," "," ","16.674111111111145","500","250","instTilt","","","","","0","0","0"
"","psychophysics","45","321424","0.0-45.0","5e6bf9f5b66f921aeb75b5b7","62573bf9ff97d79cccc47dcb","","","","","17758","key"," "," ","16.674124882629133","500","250","instTilt","","","","","-30","0","0"
"","psychophysics","46","324094","0.0-46.0","5e6bf9f5b66f921aeb75b5b7","62573bf9ff97d79cccc47dcb","","","","","2666","key"," "," ","16.674056603773877","500","250","inst","","","","","","",""
"","psychophysics","47","329164","0.0-47.0","5e6bf9f5b66f921aeb75b5b7","62573bf9ff97d79cccc47dcb","","","","","5060","key"," "," ","16.67413861386147","500","250","tilt","","","","","-29","1","0"
"","psychophysics","48","345150","0.0-48.0","5e6bf9f5b66f921aeb75b5b7","62573bf9ff97d79cccc47dcb","","","","","15979","key"," "," ","16.674149269311087","500","250","tilt","","","","","14","-2","1"
"","psychophysics","49","361618","0.0-49.0","5e6bf9f5b66f921aeb75b5b7","62573bf9ff97d79cccc47dcb","","","","","16465","key"," "," ","16.674113475177283","500","250","tilt","","","","","-26","2","0"
"","psychophysics","50","366001","0.0-50.0","5e6bf9f5b66f921aeb75b5b7","62573bf9ff97d79cccc47dcb","","","","","4379","key"," "," ","16.674270992366576","500","250","tilt","","","","","16","-1","1"
"","psychophysics","51","370549","0.0-51.0","5e6bf9f5b66f921aeb75b5b7","62573bf9ff97d79cccc47dcb","","","","","4544","key"," "," ","16.67390405904047","500","250","tilt","","","","","-27","-3","0"
"","psychophysics","52","375677","0.0-52.0","5e6bf9f5b66f921aeb75b5b7","62573bf9ff97d79cccc47dcb","","","","","5123","key"," "," ","16.674241042345177","500","250","tilt","","","","","17","4","1"
"","psychophysics","53","380547","0.0-53.0","5e6bf9f5b66f921aeb75b5b7","62573bf9ff97d79cccc47dcb","","","","","4866","key"," "," ","16.67410996563563","500","250","tilt","","","","","20","-4","1"
"","psychophysics","54","387591","0.0-54.0","5e6bf9f5b66f921aeb75b5b7","62573bf9ff97d79cccc47dcb","","","","","7041","key"," "," ","16.674125890736274","500","250","tilt","","","","","21","-7","1"
"","psychophysics","55","395460","0.0-55.0","5e6bf9f5b66f921aeb75b5b7","62573bf9ff97d79cccc47dcb","","","","","7862","key"," "," ","16.674176220806817","500","250","tilt","","","","","21","6","1"
"","psychophysics","56","399455","0.0-56.0","5e6bf9f5b66f921aeb75b5b7","62573bf9ff97d79cccc47dcb","","","","","3991","key"," "," ","16.674259414225887","500","250","tilt","","","","","17","3","1"
"","psychophysics","57","405394","0.0-57.0","5e6bf9f5b66f921aeb75b5b7","62573bf9ff97d79cccc47dcb","","","","","5936","key"," "," ","16.67403380281692","500","250","tilt","","","","","13","10","1"
"","psychophysics","58","419412","0.0-58.0","5e6bf9f5b66f921aeb75b5b7","62573bf9ff97d79cccc47dcb","","","","","14015","key"," "," ","16.674170238095254","500","250","tilt","","","","","-26","-5","0"
"","psychophysics","59","423396","0.0-59.0","5e6bf9f5b66f921aeb75b5b7","62573bf9ff97d79cccc47dcb","","","","","3980","key"," "," ","16.674138655462215","500","250","tilt","","","","","14","10","1"
"","psychophysics","60","429443","0.0-60.0","5e6bf9f5b66f921aeb75b5b7","62573bf9ff97d79cccc47dcb","","","","","6041","key"," "," ","16.674088642659335","500","250","tilt","","","","","-10","-9","1"
"","psychophysics","61","434837","0.0-61.0","5e6bf9f5b66f921aeb75b5b7","62573bf9ff97d79cccc47dcb","","","","","5387","key"," "," ","16.67402476780192","500","250","tilt","","","","","6","5","0"
"","psychophysics","62","438010","0.0-62.0","5e6bf9f5b66f921aeb75b5b7","62573bf9ff97d79cccc47dcb","","","","","3170","key"," "," ","16.674047619047716","500","250","tilt","","","","","0","1","1"
"","psychophysics","63","442264","0.0-63.0","5e6bf9f5b66f921aeb75b5b7","62573bf9ff97d79cccc47dcb","","","","","4251","key"," "," ","16.67421653543303","500","250","tilt","","","","","-6","-10","0"
"","psychophysics","64","448722","0.0-64.0","5e6bf9f5b66f921aeb75b5b7","62573bf9ff97d79cccc47dcb","","","","","6450","key"," "," ","16.67413178294565","500","250","tilt","","","","","-6","-6","0"
"","psychophysics","65","455938","0.0-65.0","5e6bf9f5b66f921aeb75b5b7","62573bf9ff97d79cccc47dcb","","","","","7213","key"," "," ","16.67414153132249","500","250","tilt","","","","","7","9","0"
"","psychophysics","66","457680","0.0-66.0","5e6bf9f5b66f921aeb75b5b7","62573bf9ff97d79cccc47dcb","","","","","1736","key"," "," ","16.67404807692331","500","250","tilt","","","","","0","1","0"
"","psychophysics","67","459549","0.0-67.0","5e6bf9f5b66f921aeb75b5b7","62573bf9ff97d79cccc47dcb","","","","","1864","key"," "," ","16.674153153153203","500","250","tilt","","","","","0","-2","0"
"","psychophysics","68","464461","0.0-68.0","5e6bf9f5b66f921aeb75b5b7","62573bf9ff97d79cccc47dcb","","","","","4907","key"," "," ","16.674133105802074","500","250","tilt","","","","","-9","-6","1"
"","psychophysics","69","468680","0.0-69.0","5e6bf9f5b66f921aeb75b5b7","62573bf9ff97d79cccc47dcb","","","","","4211","key"," "," ","16.67419841269859","500","250","tilt","","","","","-17","-10","0"
"","psychophysics","70","472874","0.0-70.0","5e6bf9f5b66f921aeb75b5b7","62573bf9ff97d79cccc47dcb","","","","","4187","key"," "," ","16.673956175298805","500","250","tilt","","","","","5","5","0"
"","psychophysics","71","475080","0.0-71.0","5e6bf9f5b66f921aeb75b5b7","62573bf9ff97d79cccc47dcb","","","","","2201","key"," "," ","16.674106870229153","500","250","tilt","","","","","2","10","1"
"","psychophysics","72","478199","0.0-72.0","5e6bf9f5b66f921aeb75b5b7","62573bf9ff97d79cccc47dcb","","","","","3112","key"," "," ","19.62881645569585","500","250","tilt","","","","","-1","-3","1"
"","psychophysics","73","507194","0.0-73.0","5e6bf9f5b66f921aeb75b5b7","62573bf9ff97d79cccc47dcb","","","","","28990","key"," "," ","16.674151323360178","500","250","tilt","","","","","6","8","0"
"","psychophysics","74","510858","0.0-74.0","5e6bf9f5b66f921aeb75b5b7","62573bf9ff97d79cccc47dcb","","","","","3658","key"," "," ","16.67393607305938","500","250","tilt","","","","","5","5","0"
"","psychophysics","75","516273","0.0-75.0","5e6bf9f5b66f921aeb75b5b7","62573bf9ff97d79cccc47dcb","","","","","5411","key"," "," ","16.674293209876602","500","250","tilt","","","","","7","4","0"
"","psychophysics","76","519761","0.0-76.0","5e6bf9f5b66f921aeb75b5b7","62573bf9ff97d79cccc47dcb","","","","","3484","key"," "," ","16.674057692307823","500","250","tilt","","","","","12","10","0"
"","psychophysics","77","521442","0.0-77.0","5e6bf9f5b66f921aeb75b5b7","62573bf9ff97d79cccc47dcb","","","","","1679","key"," "," ","16.67423999999999","500","250","inst","","","","","","",""
"","psychophysics","78","524467","0.0-78.0","5e6bf9f5b66f921aeb75b5b7","62573bf9ff97d79cccc47dcb","","","","","3019","key"," "," ","16.673861111111343","500","250","instPz","","","","","50","50",""
"","psychophysics","79","532296","0.0-79.0","5e6bf9f5b66f921aeb75b5b7","62573bf9ff97d79cccc47dcb","","","","","7822","key"," "," ","18.102293981481463","500","250","instPz","","","","","52","50",""
"","psychophysics","80","579585","0.0-80.0","5e6bf9f5b66f921aeb75b5b7","62573bf9ff97d79cccc47dcb","","","","","47281","key"," "," ","16.6976789120452","500","250","instPz","","","","","34","30",""
"","psychophysics","81","585139","0.0-81.0","5e6bf9f5b66f921aeb75b5b7","62573bf9ff97d79cccc47dcb","","","","","5546","key"," "," ","16.72445921450143","500","250","instPz","","","","","42","40",""
"","psychophysics","82","586869","0.0-82.0","5e6bf9f5b66f921aeb75b5b7","62573bf9ff97d79cccc47dcb","","","","","1727","key"," "," ","16.673902912621468","500","250","inst","","","","","","",""
"","psychophysics","83","591944","0.0-83.0","5e6bf9f5b66f921aeb75b5b7","62573bf9ff97d79cccc47dcb","","","","","5070","key"," "," ","16.674132013201664","500","250","pz","","","","","43","40",""
"","psychophysics","84","592504","0.0-84.0","5e6bf9f5b66f921aeb75b5b7","62573bf9ff97d79cccc47dcb","","","","","555","key"," "," ","16.673727272727497","500","250","pz","","","","","15","40",""
