"success","trial_type","trial_index","time_elapsed","internal_node_id","pid","sid","timeout","failed_images","failed_audio","failed_video","rt","response_type","key_press","response","avg_frame_time","center_x","center_y","task","ml_len","ml_start","ml_x","ml_y","resp","targ","back"
"true","fullscreen","0","3795","0.0-0.0","57f3b6bfa1100100016d1454","625729b853af61d9ad5f5e5e","","","","","","","","","","","","","","","","","","",""
"true","preload","1","3798","0.0-1.0","57f3b6bfa1100100016d1454","625729b853af61d9ad5f5e5e","false","[]","[]","[]","","","","","","","","","","","","","","",""
"","psychophysics","2","7013","0.0-2.0","57f3b6bfa1100100016d1454","625729b853af61d9ad5f5e5e","","","","","3201","key"," "," ","16.700213541666667","500","250","inst","","","","","","",""
"","psychophysics","3","9381","0.0-3.0","57f3b6bfa1100100016d1454","625729b853af61d9ad5f5e5e","","","","","2365","key"," "," ","16.70043971631206","500","250","inst","","","","","","",""
"","psychophysics","4","27941","0.0-4.0","57f3b6bfa1100100016d1454","625729b853af61d9ad5f5e5e","","","","","18557","key"," "," ","16.70035225225225","500","250","instMl","246","-41","13","28","-20","",""
"","psychophysics","5","50085","0.0-5.0","57f3b6bfa1100100016d1454","625729b853af61d9ad5f5e5e","","","","","22139","key"," "," ","16.70032452830189","500","250","instMl","154","-25.666666666666668","5","21","-25.666666666666686","",""
"","psychophysics","6","65148","0.0-6.0","57f3b6bfa1100100016d1454","625729b853af61d9ad5f5e5e","","","","","15059","key"," "," ","16.700295227524965","500","250","inst","","","","","","",""
"","psychophysics","7","74371","0.0-7.0","57f3b6bfa1100100016d1454","625729b853af61d9ad5f5e5e","","","","","9220","key"," "," ","16.70027536231886","500","250","ml","192","44","11","3","-9","",""
"","psychophysics","8","80995","0.0-8.0","57f3b6bfa1100100016d1454","625729b853af61d9ad5f5e5e","","","","","6622","key"," "," ","16.70044303797469","500","250","ml","182","19","29","25","-9","",""
"","psychophysics","9","85980","0.0-9.0","57f3b6bfa1100100016d1454","625729b853af61d9ad5f5e5e","","","","","4982","key"," "," ","16.70022483221477","500","250","ml","232","-16","-18","-17","-16","",""
"","psychophysics","10","94747","0.0-10.0","57f3b6bfa1100100016d1454","625729b853af61d9ad5f5e5e","","","","","8766","key"," "," ","16.700360687022904","500","250","ml","250","23","-12","-28","-11","",""
"","psychophysics","11","100499","0.0-11.0","57f3b6bfa1100100016d1454","625729b853af61d9ad5f5e5e","","","","","5750","key"," "," ","16.700373177842575","500","250","ml","232","15","-11","-6","-10","",""
"","psychophysics","12","109411","0.0-12.0","57f3b6bfa1100100016d1454","625729b853af61d9ad5f5e5e","","","","","8910","key"," "," ","16.70013508442775","500","250","ml","194","28","25","23","-10","",""
"","psychophysics","13","117348","0.0-13.0","57f3b6bfa1100100016d1454","625729b853af61d9ad5f5e5e","","","","","7934","key"," "," ","16.700371308016866","500","250","ml","228","25","30","15","-13","",""
"","psychophysics","14","124476","0.0-14.0","57f3b6bfa1100100016d1454","625729b853af61d9ad5f5e5e","","","","","7126","key"," "," ","16.700342723004706","500","250","ml","152","0","-2","-20","-11","",""
"","psychophysics","15","132780","0.0-15.0","57f3b6bfa1100100016d1454","625729b853af61d9ad5f5e5e","","","","","8302","key"," "," ","16.700350806451606","500","250","ml","212","-29","-23","12","-20","",""
"","psychophysics","16","141524","0.0-16.0","57f3b6bfa1100100016d1454","625729b853af61d9ad5f5e5e","","","","","8742","key"," "," ","16.70029254302103","500","250","ml","232","26","1","-14","-12","",""
"","psychophysics","17","153812","0.0-17.0","57f3b6bfa1100100016d1454","625729b853af61d9ad5f5e5e","","","","","12285","key"," "," ","16.700280653950944","500","250","ml","164","20","-19","-8","-11","",""
"","psychophysics","18","164596","0.0-18.0","57f3b6bfa1100100016d1454","625729b853af61d9ad5f5e5e","","","","","10780","key"," "," ","16.70036279069767","500","250","ml","192","-44","29","25","-17","",""
"","psychophysics","19","174523","0.0-19.0","57f3b6bfa1100100016d1454","625729b853af61d9ad5f5e5e","","","","","9926","key"," "," ","16.70032659932661","500","250","ml","160","19","-3","-8","-11","",""
"","psychophysics","20","184787","0.0-20.0","57f3b6bfa1100100016d1454","625729b853af61d9ad5f5e5e","","","","","10262","key"," "," ","16.700287112561195","500","250","ml","160","-37","-14","25","-12","",""
"","psychophysics","21","195411","0.0-21.0","57f3b6bfa1100100016d1454","625729b853af61d9ad5f5e5e","","","","","10622","key"," "," ","16.700228346456722","500","250","ml","244","-37","-14","-3","-16","",""
"","psychophysics","22","202035","0.0-22.0","57f3b6bfa1100100016d1454","625729b853af61d9ad5f5e5e","","","","","6620","key"," "," ","16.7003787878788","500","250","inst","","","","","","",""
"","psychophysics","23","215307","0.0-23.0","57f3b6bfa1100100016d1454","625729b853af61d9ad5f5e5e","","","","","13270","key"," "," ","16.700342569269502","500","250","instPog","","","","","130","130",""
"","psychophysics","24","228731","0.0-24.0","57f3b6bfa1100100016d1454","625729b853af61d9ad5f5e5e","","","","","13422","key"," "," ","16.700298879202986","500","250","instPog","","","","","136","130",""
"","psychophysics","25","237778","0.0-25.0","57f3b6bfa1100100016d1454","625729b853af61d9ad5f5e5e","","","","","9044","key"," "," ","16.70018148148148","500","250","instPog","","","","","146","130",""
"","psychophysics","26","247803","0.0-26.0","57f3b6bfa1100100016d1454","625729b853af61d9ad5f5e5e","","","","","10022","key"," "," ","16.700235000000006","500","250","inst","","","","","","",""
"","psychophysics","27","256658","0.0-27.0","57f3b6bfa1100100016d1454","625729b853af61d9ad5f5e5e","","","","","8853","key"," "," ","16.70027221172026","500","250","pog","","","","","208","184",""
"","psychophysics","28","267690","0.0-28.0","57f3b6bfa1100100016d1454","625729b853af61d9ad5f5e5e","","","","","11029","key"," "," ","16.700180576631208","500","250","pog","","","","","192","176",""
"","psychophysics","29","275506","0.0-29.0","57f3b6bfa1100100016d1454","625729b853af61d9ad5f5e5e","","","","","7813","key"," "," ","16.7004325481799","500","250","pog","","","","","156","134",""
"","psychophysics","30","286290","0.0-30.0","57f3b6bfa1100100016d1454","625729b853af61d9ad5f5e5e","","","","","10781","key"," "," ","16.7004186046511","500","250","pog","","","","","171","144",""
"","psychophysics","31","295595","0.0-31.0","57f3b6bfa1100100016d1454","625729b853af61d9ad5f5e5e","","","","","9301","key"," "," ","16.70016546762593","500","250","pog","","","","","176","154",""
"","psychophysics","32","306171","0.0-32.0","57f3b6bfa1100100016d1454","625729b853af61d9ad5f5e5e","","","","","10574","key"," "," ","16.70022748815167","500","250","pog","","","","","185","160",""
"","psychophysics","33","313275","0.0-33.0","57f3b6bfa1100100016d1454","625729b853af61d9ad5f5e5e","","","","","7100","key"," "," ","16.700412735849003","500","250","pog","","","","","197","168",""
"","psychophysics","34","322635","0.0-34.0","57f3b6bfa1100100016d1454","625729b853af61d9ad5f5e5e","","","","","9357","key"," "," ","16.70029874776387","500","250","pog","","","","","162","142",""
"","psychophysics","35","336602","0.0-35.0","57f3b6bfa1100100016d1454","625729b853af61d9ad5f5e5e","","","","","13964","key"," "," ","16.70044976076555","500","250","pog","","","","","145","130",""
"","psychophysics","36","351586","0.0-36.0","57f3b6bfa1100100016d1454","625729b853af61d9ad5f5e5e","","","","","14982","key"," "," ","16.700255580357148","500","250","pog","","","","","157","135",""
"","psychophysics","37","365226","0.0-37.0","57f3b6bfa1100100016d1454","625729b853af61d9ad5f5e5e","","","","","13637","key"," "," ","16.700261029411767","500","250","pog","","","","","157","142",""
"","psychophysics","38","378146","0.0-38.0","57f3b6bfa1100100016d1454","625729b853af61d9ad5f5e5e","","","","","12917","key"," "," ","16.700243523316047","500","250","pog","","","","","146","121",""
"","psychophysics","39","391514","0.0-39.0","57f3b6bfa1100100016d1454","625729b853af61d9ad5f5e5e","","","","","13365","key"," "," ","16.700383750000036","500","250","pog","","","","","200","177",""
"","psychophysics","40","398498","0.0-40.0","57f3b6bfa1100100016d1454","625729b853af61d9ad5f5e5e","","","","","6980","key"," "," ","16.700194244604248","500","250","pog","","","","","144","123",""
"","psychophysics","41","406570","0.0-41.0","57f3b6bfa1100100016d1454","625729b853af61d9ad5f5e5e","","","","","8070","key"," "," ","16.700236514522754","500","250","pog","","","","","199","173",""
"","psychophysics","42","417266","0.0-42.0","57f3b6bfa1100100016d1454","625729b853af61d9ad5f5e5e","","","","","10693","key"," "," ","16.700351562500053","500","250","inst","","","","","","",""
"","psychophysics","43","423026","0.0-43.0","57f3b6bfa1100100016d1454","625729b853af61d9ad5f5e5e","","","","","5758","key"," "," ","16.70034593023254","500","250","instTilt","","","","","NaN","0","0"
"","psychophysics","44","426914","0.0-44.0","57f3b6bfa1100100016d1454","625729b853af61d9ad5f5e5e","","","","","3886","key"," "," ","16.70016810344833","500","250","instTilt","","","","","0","0","0"
"","psychophysics","45","446290","0.0-45.0","57f3b6bfa1100100016d1454","625729b853af61d9ad5f5e5e","","","","","19373","key"," "," ","16.70020189818813","500","250","instTilt","","","","","2","0","0"
"","psychophysics","46","453298","0.0-46.0","57f3b6bfa1100100016d1454","625729b853af61d9ad5f5e5e","","","","","7006","key"," "," ","16.700430622009495","500","250","inst","","","","","","",""
"","psychophysics","47","467250","0.0-47.0","57f3b6bfa1100100016d1454","625729b853af61d9ad5f5e5e","","","","","13949","key"," "," ","16.70039041916168","500","250","tilt","","","","","2","4","0"
"","psychophysics","48","476969","0.0-48.0","57f3b6bfa1100100016d1454","625729b853af61d9ad5f5e5e","","","","","9718","key"," "," ","16.700335628227126","500","250","tilt","","","","","-6","-9","1"
"","psychophysics","49","490425","0.0-49.0","57f3b6bfa1100100016d1454","625729b853af61d9ad5f5e5e","","","","","13454","key"," "," ","16.70035527950306","500","250","tilt","","","","","-5","-2","1"
"","psychophysics","50","496521","0.0-50.0","57f3b6bfa1100100016d1454","625729b853af61d9ad5f5e5e","","","","","6093","key"," "," ","16.70021153846148","500","250","tilt","","","","","2","0","0"
"","psychophysics","51","505633","0.0-51.0","57f3b6bfa1100100016d1454","625729b853af61d9ad5f5e5e","","","","","9110","key"," "," ","16.70040441176474","500","250","tilt","","","","","2","2","0"
"","psychophysics","52","525201","0.0-52.0","57f3b6bfa1100100016d1454","625729b853af61d9ad5f5e5e","","","","","19566","key"," "," ","16.700361229718208","500","250","tilt","","","","","-6","-9","0"
"","psychophysics","53","530481","0.0-53.0","57f3b6bfa1100100016d1454","625729b853af61d9ad5f5e5e","","","","","5278","key"," "," ","16.700485714285502","500","250","tilt","","","","","0","0","1"
"","psychophysics","54","540297","0.0-54.0","57f3b6bfa1100100016d1454","625729b853af61d9ad5f5e5e","","","","","9814","key"," "," ","16.700211243611545","500","250","tilt","","","","","-1","-3","0"
"","psychophysics","55","548481","0.0-55.0","57f3b6bfa1100100016d1454","625729b853af61d9ad5f5e5e","","","","","8182","key"," "," ","16.70033946830269","500","250","tilt","","","","","2","2","0"
"","psychophysics","56","558657","0.0-56.0","57f3b6bfa1100100016d1454","625729b853af61d9ad5f5e5e","","","","","10174","key"," "," ","16.700384868421104","500","250","tilt","","","","","-6","-9","0"
"","psychophysics","57","566289","0.0-57.0","57f3b6bfa1100100016d1454","625729b853af61d9ad5f5e5e","","","","","7629","key"," "," ","16.700282894736645","500","250","tilt","","","","","2","2","0"
"","psychophysics","58","574977","0.0-58.0","57f3b6bfa1100100016d1454","625729b853af61d9ad5f5e5e","","","","","8687","key"," "," ","16.70044038461526","500","250","tilt","","","","","-5","-7","0"
"","psychophysics","59","581193","0.0-59.0","57f3b6bfa1100100016d1454","625729b853af61d9ad5f5e5e","","","","","6213","key"," "," ","16.700099730458124","500","250","tilt","","","","","-3","-6","0"
"","psychophysics","60","594577","0.0-60.0","57f3b6bfa1100100016d1454","625729b853af61d9ad5f5e5e","","","","","13383","key"," "," ","16.700388749999984","500","250","tilt","","","","","-2","-3","0"
"","psychophysics","61","604424","0.0-61.0","57f3b6bfa1100100016d1454","625729b853af61d9ad5f5e5e","","","","","9846","key"," "," ","16.700315789473542","500","250","tilt","","","","","-3","-2","1"
"","psychophysics","62","616073","0.0-62.0","57f3b6bfa1100100016d1454","625729b853af61d9ad5f5e5e","","","","","11647","key"," "," ","16.70028160919533","500","250","tilt","","","","","1","3","1"
"","psychophysics","63","622105","0.0-63.0","57f3b6bfa1100100016d1454","625729b853af61d9ad5f5e5e","","","","","6030","key"," "," ","16.700480555555423","500","250","tilt","","","","","2","7","1"
"","psychophysics","64","631856","0.0-64.0","57f3b6bfa1100100016d1454","625729b853af61d9ad5f5e5e","","","","","9749","key"," "," ","16.700380789022372","500","250","tilt","","","","","4","7","1"
"","psychophysics","65","640688","0.0-65.0","57f3b6bfa1100100016d1454","625729b853af61d9ad5f5e5e","","","","","8829","key"," "," ","16.70039583333335","500","250","tilt","","","","","-7","-9","1"
"","psychophysics","66","651160","0.0-66.0","57f3b6bfa1100100016d1454","625729b853af61d9ad5f5e5e","","","","","10470","key"," "," ","16.70038817891369","500","250","tilt","","","","","5","5","0"
"","psychophysics","67","655872","0.0-67.0","57f3b6bfa1100100016d1454","625729b853af61d9ad5f5e5e","","","","","4710","key"," "," ","16.700629893238357","500","250","tilt","","","","","1","1","0"
"","psychophysics","68","663360","0.0-68.0","57f3b6bfa1100100016d1454","625729b853af61d9ad5f5e5e","","","","","7484","key"," "," ","16.700314732142683","500","250","tilt","","","","","4","7","0"
"","psychophysics","69","675712","0.0-69.0","57f3b6bfa1100100016d1454","625729b853af61d9ad5f5e5e","","","","","12350","key"," "," ","16.700283197831833","500","250","tilt","","","","","7","8","0"
"","psychophysics","70","687264","0.0-70.0","57f3b6bfa1100100016d1454","625729b853af61d9ad5f5e5e","","","","","11549","key"," "," ","16.70048046309697","500","250","tilt","","","","","5","9","1"
"","psychophysics","71","697952","0.0-71.0","57f3b6bfa1100100016d1454","625729b853af61d9ad5f5e5e","","","","","10686","key"," "," ","16.70029420970268","500","250","tilt","","","","","2","5","1"
"","psychophysics","72","707607","0.0-72.0","57f3b6bfa1100100016d1454","625729b853af61d9ad5f5e5e","","","","","9654","key"," "," ","16.700240901213153","500","250","tilt","","","","","-3","-6","1"
"","psychophysics","73","719536","0.0-73.0","57f3b6bfa1100100016d1454","625729b853af61d9ad5f5e5e","","","","","11925","key"," "," ","16.700372549019598","500","250","tilt","","","","","-4","-8","0"
"","psychophysics","74","723264","0.0-74.0","57f3b6bfa1100100016d1454","625729b853af61d9ad5f5e5e","","","","","3726","key"," "," ","16.700162162162105","500","250","tilt","","","","","2","1","0"
"","psychophysics","75","727736","0.0-75.0","57f3b6bfa1100100016d1454","625729b853af61d9ad5f5e5e","","","","","4470","key"," "," ","16.700359550561522","500","250","tilt","","","","","2","3","0"
"","psychophysics","76","736528","0.0-76.0","57f3b6bfa1100100016d1454","625729b853af61d9ad5f5e5e","","","","","8790","key"," "," ","16.700220952380803","500","250","tilt","","","","","3","5","0"
"","psychophysics","77","749440","0.0-77.0","57f3b6bfa1100100016d1454","625729b853af61d9ad5f5e5e","","","","","12910","key"," "," ","16.70022797927461","500","250","inst","","","","","","",""
"","psychophysics","78","753680","0.0-78.0","57f3b6bfa1100100016d1454","625729b853af61d9ad5f5e5e","","","","","4238","key"," "," ","16.700521739130277","500","250","instPz","","","","","50","50",""
"","psychophysics","79","766864","0.0-79.0","57f3b6bfa1100100016d1454","625729b853af61d9ad5f5e5e","","","","","13182","key"," "," ","16.700324461343598","500","250","instPz","","","","","53","50",""
"","psychophysics","80","776463","0.0-80.0","57f3b6bfa1100100016d1454","625729b853af61d9ad5f5e5e","","","","","9597","key"," "," ","16.700390924956206","500","250","instPz","","","","","32","30",""
"","psychophysics","81","781808","0.0-81.0","57f3b6bfa1100100016d1454","625729b853af61d9ad5f5e5e","","","","","5340","key"," "," ","16.700482758620776","500","250","instPz","","","","","15","40",""
"","psychophysics","82","788703","0.0-82.0","57f3b6bfa1100100016d1454","625729b853af61d9ad5f5e5e","","","","","6893","key"," "," ","16.70042475728144","500","250","inst","","","","","","",""
"","psychophysics","83","804463","0.0-83.0","57f3b6bfa1100100016d1454","625729b853af61d9ad5f5e5e","","","","","15758","key"," "," ","16.700267232237614","500","250","pz","","","","","74","56",""
"","psychophysics","84","818519","0.0-84.0","57f3b6bfa1100100016d1454","625729b853af61d9ad5f5e5e","","","","","14053","key"," "," ","16.70030677764564","500","250","pz","","","","","54","46",""
"","psychophysics","85","837695","0.0-85.0","57f3b6bfa1100100016d1454","625729b853af61d9ad5f5e5e","","","","","19173","key"," "," ","16.70028596338274","500","250","pz","","","","","73","60",""
"","psychophysics","86","846543","0.0-86.0","57f3b6bfa1100100016d1454","625729b853af61d9ad5f5e5e","","","","","8846","key"," "," ","16.700266540642705","500","250","pz","","","","","28","23",""
"","psychophysics","87","852935","0.0-87.0","57f3b6bfa1100100016d1454","625729b853af61d9ad5f5e5e","","","","","6389","key"," "," ","16.700343832021012","500","250","pz","","","","","58","40",""
"","psychophysics","88","861207","0.0-88.0","57f3b6bfa1100100016d1454","625729b853af61d9ad5f5e5e","","","","","8269","key"," "," ","16.700305050505193","500","250","pz","","","","","43","32",""
"","psychophysics","89","870439","0.0-89.0","57f3b6bfa1100100016d1454","625729b853af61d9ad5f5e5e","","","","","9230","key"," "," ","16.70029347826093","500","250","pz","","","","","57","39",""
"","psychophysics","90","880383","0.0-90.0","57f3b6bfa1100100016d1454","625729b853af61d9ad5f5e5e","","","","","9942","key"," "," ","16.70029124579124","500","250","pz","","","","","60","39",""
"","psychophysics","91","887343","0.0-91.0","57f3b6bfa1100100016d1454","625729b853af61d9ad5f5e5e","","","","","6957","key"," "," ","16.70044951923074","500","250","pz","","","","","34","24",""
"","psychophysics","92","891855","0.0-92.0","57f3b6bfa1100100016d1454","625729b853af61d9ad5f5e5e","","","","","4509","key"," "," ","16.700342007434916","500","250","pz","","","","","33","23",""
"","psychophysics","93","901447","0.0-93.0","57f3b6bfa1100100016d1454","625729b853af61d9ad5f5e5e","","","","","9590","key"," "," ","16.700321116928624","500","250","pz","","","","","36","28",""
"","psychophysics","94","910542","0.0-94.0","57f3b6bfa1100100016d1454","625729b853af61d9ad5f5e5e","","","","","9092","key"," "," ","16.70047610294098","500","250","pz","","","","","75","56",""
"","psychophysics","95","921943","0.0-95.0","57f3b6bfa1100100016d1454","625729b853af61d9ad5f5e5e","","","","","11398","key"," "," ","16.700274193548474","500","250","pz","","","","","67","50",""
"","psychophysics","96","927254","0.0-96.0","57f3b6bfa1100100016d1454","625729b853af61d9ad5f5e5e","","","","","5308","key"," "," ","16.70039747634055","500","250","pz","","","","","28","21",""
"","psychophysics","97","931566","0.0-97.0","57f3b6bfa1100100016d1454","625729b853af61d9ad5f5e5e","","","","","4309","key"," "," ","16.700260700388895","500","250","pz","","","","","32","24",""
"","psychophysics","98","940030","0.0-98.0","57f3b6bfa1100100016d1454","625729b853af61d9ad5f5e5e","","","","","8462","key"," "," ","16.700320158102926","500","250","inst","","","","","","",""
"","psychophysics","99","944526","0.0-99.0","57f3b6bfa1100100016d1454","625729b853af61d9ad5f5e5e","","","","","4493","key"," "," ","16.700250000000057","500","250","inst","","","","","","",""
"","psychophysics","100","958558","0.0-100.0","57f3b6bfa1100100016d1454","625729b853af61d9ad5f5e5e","","","","","14030","key"," "," ","16.70036233611448","500","250","instFlank","","","","","0.5","0.3","1"
"","psychophysics","101","963526","0.0-101.0","57f3b6bfa1100100016d1454","625729b853af61d9ad5f5e5e","","","","","4966","key"," "," ","16.70028956228928","500","250","inst","","","","","","",""
"","psychophysics","102","979574","0.0-102.0","57f3b6bfa1100100016d1454","625729b853af61d9ad5f5e5e","","","","","16046","key"," "," ","16.700277372262764","500","250","instFlank","","","","","0.2899999999999998","0.3","1"
"","psychophysics","103","983670","0.0-103.0","57f3b6bfa1100100016d1454","625729b853af61d9ad5f5e5e","","","","","4093","key"," "," ","16.70064081632656","500","250","inst","","","","","","",""
"","psychophysics","104","990366","0.0-104.0","57f3b6bfa1100100016d1454","625729b853af61d9ad5f5e5e","","","","","6693","key"," "," ","16.70032749999984","500","250","instFlank","","","","","0.2299999999999998","0.3","0"
"","psychophysics","105","1003486","0.0-105.0","57f3b6bfa1100100016d1454","625729b853af61d9ad5f5e5e","","","","","13118","key"," "," ","16.70028954081633","500","250","inst","","","","","","",""
"","psychophysics","106","1008326","0.0-106.0","57f3b6bfa1100100016d1454","625729b853af61d9ad5f5e5e","","","","","4838","key"," "," ","16.70044636678202","500","250","flank","","","","","0.2599999999999998","0.22","0"
"","psychophysics","107","1012702","0.0-107.0","57f3b6bfa1100100016d1454","625729b853af61d9ad5f5e5e","","","","","4374","key"," "," ","16.70038697317999","500","250","flank","","","","","0.3799999999999999","0.42","0"
"","psychophysics","108","1018373","0.0-108.0","57f3b6bfa1100100016d1454","625729b853af61d9ad5f5e5e","","","","","5669","key"," "," ","16.700265486725705","500","250","flank","","","","","0.5900000000000001","0.56","0"
"","psychophysics","109","1022557","0.0-109.0","57f3b6bfa1100100016d1454","625729b853af61d9ad5f5e5e","","","","","4181","key"," "," ","16.70022891566249","500","250","flank","","","","","0.6800000000000002","0.6","0"
"","psychophysics","110","1026861","0.0-110.0","57f3b6bfa1100100016d1454","625729b853af61d9ad5f5e5e","","","","","4302","key"," "," ","16.70019844357977","500","250","flank","","","","","0.53","0.44","0"
"","psychophysics","111","1031853","0.0-111.0","57f3b6bfa1100100016d1454","625729b853af61d9ad5f5e5e","","","","","4990","key"," "," ","16.700214765100636","500","250","flank","","","","","0.7100000000000002","0.7","1"
"","psychophysics","112","1037405","0.0-112.0","57f3b6bfa1100100016d1454","625729b853af61d9ad5f5e5e","","","","","5550","key"," "," ","16.700407854985134","500","250","flank","","","","","0.1999999999999998","0.24","1"
"","psychophysics","113","1040998","0.0-113.0","57f3b6bfa1100100016d1454","625729b853af61d9ad5f5e5e","","","","","3589","key"," "," ","16.70021860465126","500","250","flank","","","","","0.53","0.42","0"
"","psychophysics","114","1045429","0.0-114.0","57f3b6bfa1100100016d1454","625729b853af61d9ad5f5e5e","","","","","4428","key"," "," ","16.700246212121176","500","250","flank","","","","","0.4099999999999999","0.3","1"
"","psychophysics","115","1049989","0.0-115.0","57f3b6bfa1100100016d1454","625729b853af61d9ad5f5e5e","","","","","4558","key"," "," ","16.700198529411864","500","250","flank","","","","","0.34999999999999987","0.32","1"
"","psychophysics","116","1053949","0.0-116.0","57f3b6bfa1100100016d1454","625729b853af61d9ad5f5e5e","","","","","3958","key"," "," ","16.700122881356144","500","250","flank","","","","","0.34999999999999987","0.26","0"
"","psychophysics","117","1058053","0.0-117.0","57f3b6bfa1100100016d1454","625729b853af61d9ad5f5e5e","","","","","4101","key"," "," ","16.70017959183671","500","250","flank","","","","","0.43999999999999995","0.36","0"
"","psychophysics","118","1061605","0.0-118.0","57f3b6bfa1100100016d1454","625729b853af61d9ad5f5e5e","","","","","3550","key"," "," ","16.700255924170413","500","250","flank","","","","","0.5900000000000001","0.56","1"
"","psychophysics","119","1065821","0.0-119.0","57f3b6bfa1100100016d1454","625729b853af61d9ad5f5e5e","","","","","4212","key"," "," ","16.700170634920518","500","250","flank","","","","","0.53","0.42","0"
"","psychophysics","120","1069405","0.0-120.0","57f3b6bfa1100100016d1454","625729b853af61d9ad5f5e5e","","","","","3582","key"," "," ","16.699920560747916","500","250","flank","","","","","0.5900000000000001","0.54","0"
"","psychophysics","121","1073373","0.0-121.0","57f3b6bfa1100100016d1454","625729b853af61d9ad5f5e5e","","","","","3965","key"," "," ","16.700372881356675","500","250","flank","","","","","0.6800000000000002","0.6","1"
"","psychophysics","122","1078582","0.0-122.0","57f3b6bfa1100100016d1454","625729b853af61d9ad5f5e5e","","","","","5206","key"," "," ","16.700173633440375","500","250","flank","","","","","0.5","0.42","1"
"","psychophysics","123","1083502","0.0-123.0","57f3b6bfa1100100016d1454","625729b853af61d9ad5f5e5e","","","","","4918","key"," "," ","16.700608843537587","500","250","flank","","","","","0.7400000000000002","0.6","0"
"","psychophysics","124","1087590","0.0-124.0","57f3b6bfa1100100016d1454","625729b853af61d9ad5f5e5e","","","","","4086","key"," "," ","16.700353909464965","500","250","flank","","","","","0.6500000000000001","0.62","0"
"","psychophysics","125","1093406","0.0-125.0","57f3b6bfa1100100016d1454","625729b853af61d9ad5f5e5e","","","","","5814","key"," "," ","16.70042816091907","500","250","flank","","","","","0.8000000000000003","0.74","0"
"","psychophysics","126","1097814","0.0-126.0","57f3b6bfa1100100016d1454","625729b853af61d9ad5f5e5e","","","","","4405","key"," "," ","16.70011406844064","500","250","flank","","","","","0.2599999999999998","0.28","1"
"","psychophysics","127","1102614","0.0-127.0","57f3b6bfa1100100016d1454","625729b853af61d9ad5f5e5e","","","","","4797","key"," "," ","16.70036363636365","500","250","flank","","","","","0.53","0.44","0"
"","psychophysics","128","1106965","0.0-128.0","57f3b6bfa1100100016d1454","625729b853af61d9ad5f5e5e","","","","","4350","key"," "," ","16.69984615384601","500","250","flank","","","","","0.7700000000000002","0.7","0"
"","psychophysics","129","1111102","0.0-129.0","57f3b6bfa1100100016d1454","625729b853af61d9ad5f5e5e","","","","","4134","key"," "," ","16.7004634146342","500","250","flank","","","","","0.3799999999999999","0.34","1"
"","psychophysics","130","1114830","0.0-130.0","57f3b6bfa1100100016d1454","625729b853af61d9ad5f5e5e","","","","","3725","key"," "," ","16.70000450450482","500","250","flank","","","","","0.2899999999999998","0.24","1"
"","psychophysics","131","1118709","0.0-131.0","57f3b6bfa1100100016d1454","625729b853af61d9ad5f5e5e","","","","","3877","key"," "," ","16.70045258620742","500","250","flank","","","","","0.6500000000000001","0.52","0"
"","psychophysics","132","1123182","0.0-132.0","57f3b6bfa1100100016d1454","625729b853af61d9ad5f5e5e","","","","","4470","key"," "," ","16.70029213483191","500","250","flank","","","","","0.53","0.4","0"
"","psychophysics","133","1127445","0.0-133.0","57f3b6bfa1100100016d1454","625729b853af61d9ad5f5e5e","","","","","4262","key"," "," ","16.700216535432997","500","250","flank","","","","","0.6500000000000001","0.6","1"
"","psychophysics","134","1131245","0.0-134.0","57f3b6bfa1100100016d1454","625729b853af61d9ad5f5e5e","","","","","3798","key"," "," ","16.700207964601656","500","250","flank","","","","","0.7700000000000002","0.76","1"
"","psychophysics","135","1134629","0.0-135.0","57f3b6bfa1100100016d1454","625729b853af61d9ad5f5e5e","","","","","3380","key"," "," ","16.70014851485116","500","250","flank","","","","","0.43999999999999995","0.4","1"
"true","fullscreen","136","1134632","0.0-136.0","57f3b6bfa1100100016d1454","625729b853af61d9ad5f5e5e","","","","","","","","","","","","","","","","","","",""
"true","fullscreen","0","4136","0.0-0.0","5d5035c5d87393001af70561","62572a4cef06efa46bcba3df","","","","","","","","","","","","","","","","","","",""
"true","preload","1","4140","0.0-1.0","5d5035c5d87393001af70561","62572a4cef06efa46bcba3df","false","[]","[]","[]","","","","","","","","","","","","","","",""
"","psychophysics","2","8895","0.0-2.0","5d5035c5d87393001af70561","62572a4cef06efa46bcba3df","","","","","4725","key"," "," ","16.742190140845068","500","250","inst","","","","","","",""
"","psychophysics","3","10607","0.0-3.0","5d5035c5d87393001af70561","62572a4cef06efa46bcba3df","","","","","1707","key"," "," ","16.684264705882352","500","250","inst","","","","","","",""
"","psychophysics","4","35600","0.0-4.0","5d5035c5d87393001af70561","62572a4cef06efa46bcba3df","","","","","24988","key"," "," ","16.683316633266536","500","250","instMl","184","-30.666666666666668","23","19","-16.666666666666742","",""
"","psychophysics","5","49903","0.0-5.0","5d5035c5d87393001af70561","62572a4cef06efa46bcba3df","","","","","14298","key"," "," ","16.68318808411215","500","250","instMl","224","-37.333333333333336","13","15","-23.333333333333314","",""
"","psychophysics","6","54791","0.0-6.0","5d5035c5d87393001af70561","62572a4cef06efa46bcba3df","","","","","4882","key"," "," ","16.683613013698622","500","250","inst","","","","","","",""
"","psychophysics","7","71103","0.0-7.0","5d5035c5d87393001af70561","62572a4cef06efa46bcba3df","","","","","16306","key"," "," ","16.68333162743091","500","250","ml","174","-12","26","0","-13","",""
"","psychophysics","8","78967","0.0-8.0","5d5035c5d87393001af70561","62572a4cef06efa46bcba3df","","","","","7859","key"," "," ","16.68360638297872","500","250","ml","156","-21","12","-30","-17","",""
"","psychophysics","9","90455","0.0-9.0","5d5035c5d87393001af70561","62572a4cef06efa46bcba3df","","","","","11480","key"," "," ","16.683412790697666","500","250","ml","176","27","7","-26","-10","",""
"","psychophysics","10","103897","0.0-10.0","5d5035c5d87393001af70561","62572a4cef06efa46bcba3df","","","","","13437","key"," "," ","16.683195031055913","500","250","ml","156","37","25","-5","-5","",""
"","psychophysics","11","123327","0.0-11.0","5d5035c5d87393001af70561","62572a4cef06efa46bcba3df","","","","","19425","key"," "," ","16.683401547721413","500","250","ml","178","-29","19","5","-19","",""
"","psychophysics","12","129591","0.0-12.0","5d5035c5d87393001af70561","62572a4cef06efa46bcba3df","","","","","6255","key"," "," ","16.683226666666684","500","250","ml","218","45","-20","6","-15","",""
"","psychophysics","13","133047","0.0-13.0","5d5035c5d87393001af70561","62572a4cef06efa46bcba3df","","","","","3452","key"," "," ","16.683713592233016","500","250","ml","240","-8","22","3","-11","",""
"","psychophysics","14","141617","0.0-14.0","5d5035c5d87393001af70561","62572a4cef06efa46bcba3df","","","","","8566","key"," "," ","16.683210937500007","500","250","ml","208","25","22","-17","-8","",""
"","psychophysics","15","154264","0.0-15.0","5d5035c5d87393001af70561","62572a4cef06efa46bcba3df","","","","","12642","key"," "," ","16.683177014531054","500","250","ml","166","-10","11","-8","-10","",""
"","psychophysics","16","160239","0.0-16.0","5d5035c5d87393001af70561","62572a4cef06efa46bcba3df","","","","","5968","key"," "," ","16.683156424581025","500","250","ml","180","-24","29","17","-14","",""
"","psychophysics","17","166863","0.0-17.0","5d5035c5d87393001af70561","62572a4cef06efa46bcba3df","","","","","6621","key"," "," ","16.682936868686866","500","250","ml","154","-36","-24","27","-14","",""
"","psychophysics","18","169791","0.0-18.0","5d5035c5d87393001af70561","62572a4cef06efa46bcba3df","","","","","2924","key"," "," ","16.68248850574711","500","250","ml","176","-4","1","-30","-11","",""
"","psychophysics","19","174232","0.0-19.0","5d5035c5d87393001af70561","62572a4cef06efa46bcba3df","","","","","4432","key"," "," ","16.683388679245276","500","250","ml","236","-10","10","6","-16","",""
"","psychophysics","20","176927","0.0-20.0","5d5035c5d87393001af70561","62572a4cef06efa46bcba3df","","","","","2689","key"," "," ","16.682720496894262","500","250","ml","190","-23","-22","-18","-22","",""
"","psychophysics","21","181903","0.0-21.0","5d5035c5d87393001af70561","62572a4cef06efa46bcba3df","","","","","4970","key"," "," ","16.6840942760943","500","250","ml","154","-20","27","-6","-15","",""
"","psychophysics","22","184695","0.0-22.0","5d5035c5d87393001af70561","62572a4cef06efa46bcba3df","","","","","2784","key"," "," ","16.683287425149683","500","250","inst","","","","","","",""
"","psychophysics","23","208216","0.0-23.0","5d5035c5d87393001af70561","62572a4cef06efa46bcba3df","","","","","23517","key"," "," ","16.683190340909093","500","250","instPog","","","","","154","130",""
"","psychophysics","24","223511","0.0-24.0","5d5035c5d87393001af70561","62572a4cef06efa46bcba3df","","","","","15288","key"," "," ","16.683086244541478","500","250","instPog","","","","","158","130",""
"","psychophysics","25","242295","0.0-25.0","5d5035c5d87393001af70561","62572a4cef06efa46bcba3df","","","","","18777","key"," "," ","16.683278222222217","500","250","instPog","","","","","162","130",""
"","psychophysics","26","248449","0.0-26.0","5d5035c5d87393001af70561","62572a4cef06efa46bcba3df","","","","","6149","key"," "," ","16.683328804347816","500","250","inst","","","","","","",""
"","psychophysics","27","257391","0.0-27.0","5d5035c5d87393001af70561","62572a4cef06efa46bcba3df","","","","","8938","key"," "," ","16.683336448598116","500","250","pog","","","","","188","172",""
"","psychophysics","28","268095","0.0-28.0","5d5035c5d87393001af70561","62572a4cef06efa46bcba3df","","","","","10700","key"," "," ","16.68332917316692","500","250","pog","","","","","140","129",""
"","psychophysics","29","277575","0.0-29.0","5d5035c5d87393001af70561","62572a4cef06efa46bcba3df","","","","","9476","key"," "," ","16.683261022927663","500","250","pog","","","","","199","195",""
"","psychophysics","30","280751","0.0-30.0","5d5035c5d87393001af70561","62572a4cef06efa46bcba3df","","","","","3172","key"," "," ","16.683465608465546","500","250","pog","","","","","160","155",""
"","psychophysics","31","292616","0.0-31.0","5d5035c5d87393001af70561","62572a4cef06efa46bcba3df","","","","","11859","key"," "," ","16.683395774647902","500","250","pog","","","","","190","190",""
"","psychophysics","32","301231","0.0-32.0","5d5035c5d87393001af70561","62572a4cef06efa46bcba3df","","","","","8609","key"," "," ","16.683321705426323","500","250","pog","","","","","168","161",""
"","psychophysics","33","335047","0.0-33.0","5d5035c5d87393001af70561","62572a4cef06efa46bcba3df","","","","","33812","key"," "," ","16.683304540967423","500","250","pog","","","","","176","171",""
"","psychophysics","34","337855","0.0-34.0","5d5035c5d87393001af70561","62572a4cef06efa46bcba3df","","","","","2804","key"," "," ","16.683383233532933","500","250","pog","","","","","160","152",""
"","psychophysics","35","348327","0.0-35.0","5d5035c5d87393001af70561","62572a4cef06efa46bcba3df","","","","","10468","key"," "," ","16.68326156299845","500","250","pog","","","","","190","186",""
"","psychophysics","36","358887","0.0-36.0","5d5035c5d87393001af70561","62572a4cef06efa46bcba3df","","","","","10556","key"," "," ","16.683335443038","500","250","pog","","","","","177","171",""
"","psychophysics","37","367594","0.0-37.0","5d5035c5d87393001af70561","62572a4cef06efa46bcba3df","","","","","8703","key"," "," ","16.683292307692373","500","250","pog","","","","","170","162",""
"","psychophysics","38","376040","0.0-38.0","5d5035c5d87393001af70561","62572a4cef06efa46bcba3df","","","","","8440","key"," "," ","16.68327470355724","500","250","pog","","","","","176","170",""
"","psychophysics","39","384577","0.0-39.0","5d5035c5d87393001af70561","62572a4cef06efa46bcba3df","","","","","8533","key"," "," ","16.683315068493147","500","250","pog","","","","","146","135",""
"","psychophysics","40","416983","0.0-40.0","5d5035c5d87393001af70561","62572a4cef06efa46bcba3df","","","","","32402","key"," "," ","16.683296239052062","500","250","pog","","","","","171","168",""
"","psychophysics","41","423607","0.0-41.0","5d5035c5d87393001af70561","62572a4cef06efa46bcba3df","","","","","6620","key"," "," ","16.683679292929202","500","250","pog","","","","","172","169",""
"","psychophysics","42","425954","0.0-42.0","5d5035c5d87393001af70561","62572a4cef06efa46bcba3df","","","","","2343","key"," "," ","16.6832714285714","500","250","inst","","","","","","",""
"","psychophysics","43","430527","0.0-43.0","5d5035c5d87393001af70561","62572a4cef06efa46bcba3df","","","","","4565","key"," "," ","17.252162878787864","500","250","instTilt","","","","","NaN","0","0"
"","psychophysics","44","434679","0.0-44.0","5d5035c5d87393001af70561","62572a4cef06efa46bcba3df","","","","","4147","key"," "," ","16.683471774193507","500","250","instTilt","","","","","0","0","0"
"","psychophysics","45","440705","0.0-45.0","5d5035c5d87393001af70561","62572a4cef06efa46bcba3df","","","","","6021","key"," "," ","16.68320277777772","500","250","instTilt","","","","","0","0","0"
"","psychophysics","46","443111","0.0-46.0","5d5035c5d87393001af70561","62572a4cef06efa46bcba3df","","","","","2402","key"," "," ","16.683363636363772","500","250","inst","","","","","","",""
"","psychophysics","47","456711","0.0-47.0","5d5035c5d87393001af70561","62572a4cef06efa46bcba3df","","","","","13591","key"," "," ","16.68330835380834","500","250","tilt","","","","","-4","-3","1"
"","psychophysics","48","461991","0.0-48.0","5d5035c5d87393001af70561","62572a4cef06efa46bcba3df","","","","","5271","key"," "," ","16.683458860759487","500","250","tilt","","","","","0","0","1"
"","psychophysics","49","467944","0.0-49.0","5d5035c5d87393001af70561","62572a4cef06efa46bcba3df","","","","","5948","key"," "," ","16.683308988764132","500","250","tilt","","","","","-3","-5","0"
"","psychophysics","50","474266","0.0-50.0","5d5035c5d87393001af70561","62572a4cef06efa46bcba3df","","","","","6317","key"," "," ","16.683259259259252","500","250","tilt","","","","","-8","-7","0"
"","psychophysics","51","495239","0.0-51.0","5d5035c5d87393001af70561","62572a4cef06efa46bcba3df","","","","","20968","key"," "," ","16.683285031847138","500","250","tilt","","","","","5","5","1"
"","psychophysics","52","505207","0.0-52.0","5d5035c5d87393001af70561","62572a4cef06efa46bcba3df","","","","","9963","key"," "," ","16.68322651006708","500","250","tilt","","","","","-9","-9","1"
"","psychophysics","53","510439","0.0-53.0","5d5035c5d87393001af70561","62572a4cef06efa46bcba3df","","","","","5222","key"," "," ","16.683281150159832","500","250","tilt","","","","","-3","-1","1"
"","psychophysics","54","514943","0.0-54.0","5d5035c5d87393001af70561","62572a4cef06efa46bcba3df","","","","","4499","key"," "," ","16.683144981412653","500","250","tilt","","","","","6","6","0"
"","psychophysics","55","520119","0.0-55.0","5d5035c5d87393001af70561","62572a4cef06efa46bcba3df","","","","","5171","key"," "," ","16.683145631067788","500","250","tilt","","","","","3","0","0"
"","psychophysics","56","526871","0.0-56.0","5d5035c5d87393001af70561","62572a4cef06efa46bcba3df","","","","","6748","key"," "," ","16.682962871287025","500","250","tilt","","","","","3","6","1"
"","psychophysics","57","529999","0.0-57.0","5d5035c5d87393001af70561","62572a4cef06efa46bcba3df","","","","","3123","key"," "," ","16.683806451612718","500","250","tilt","","","","","0","2","1"
"","psychophysics","58","555543","0.0-58.0","5d5035c5d87393001af70561","62572a4cef06efa46bcba3df","","","","","25533","key"," "," ","16.68327189542481","500","250","tilt","","","","","-1","-1","0"
"","psychophysics","59","560018","0.0-59.0","5d5035c5d87393001af70561","62572a4cef06efa46bcba3df","","","","","4469","key"," "," ","16.683347014925328","500","250","tilt","","","","","3","5","1"
"","psychophysics","60","563463","0.0-60.0","5d5035c5d87393001af70561","62572a4cef06efa46bcba3df","","","","","3439","key"," "," ","16.683863414634338","500","250","tilt","","","","","4","5","0"
"","psychophysics","61","568978","0.0-61.0","5d5035c5d87393001af70561","62572a4cef06efa46bcba3df","","","","","5503","key"," "," ","16.683248484848335","500","250","tilt","","","","","-2","-2","0"
"","psychophysics","62","573023","0.0-62.0","5d5035c5d87393001af70561","62572a4cef06efa46bcba3df","","","","","4040","key"," "," ","16.683215767634486","500","250","tilt","","","","","-3","-5","0"
"","psychophysics","63","578400","0.0-63.0","5d5035c5d87393001af70561","62572a4cef06efa46bcba3df","","","","","5369","key"," "," ","16.683395638629268","500","250","tilt","","","","","2","7","1"
"","psychophysics","64","583143","0.0-64.0","5d5035c5d87393001af70561","62572a4cef06efa46bcba3df","","","","","4733","key"," "," ","16.683323943662018","500","250","tilt","","","","","4","10","1"
"","psychophysics","65","587287","0.0-65.0","5d5035c5d87393001af70561","62572a4cef06efa46bcba3df","","","","","4139","key"," "," ","16.683425101214503","500","250","tilt","","","","","-6","-4","1"
"","psychophysics","66","591319","0.0-66.0","5d5035c5d87393001af70561","62572a4cef06efa46bcba3df","","","","","4021","key"," "," ","16.683170124481208","500","250","tilt","","","","","0","-1","0"
"","psychophysics","67","599431","0.0-67.0","5d5035c5d87393001af70561","62572a4cef06efa46bcba3df","","","","","8105","key"," "," ","16.68330103092774","500","250","tilt","","","","","-7","-6","1"
"","psychophysics","68","603071","0.0-68.0","5d5035c5d87393001af70561","62572a4cef06efa46bcba3df","","","","","3630","key"," "," ","16.683248847926333","500","250","tilt","","","","","8","8","0"
"","psychophysics","69","607520","0.0-69.0","5d5035c5d87393001af70561","62572a4cef06efa46bcba3df","","","","","4439","key"," "," ","16.68322556390938","500","250","tilt","","","","","-8","-8","1"
"","psychophysics","70","624871","0.0-70.0","5d5035c5d87393001af70561","62572a4cef06efa46bcba3df","","","","","17345","key"," "," ","16.683118383060645","500","250","tilt","","","","","-2","-3","0"
"","psychophysics","71","627727","0.0-71.0","5d5035c5d87393001af70561","62572a4cef06efa46bcba3df","","","","","2851","key"," "," ","16.683258823529297","500","250","tilt","","","","","4","6","1"
"","psychophysics","72","630943","0.0-72.0","5d5035c5d87393001af70561","62572a4cef06efa46bcba3df","","","","","3209","key"," "," ","16.68343229166688","500","250","tilt","","","","","-1","-1","0"
"","psychophysics","73","633161","0.0-73.0","5d5035c5d87393001af70561","62572a4cef06efa46bcba3df","","","","","2214","key"," "," ","16.68332061068713","500","250","tilt","","","","","3","5","0"
"","psychophysics","74","636887","0.0-74.0","5d5035c5d87393001af70561","62572a4cef06efa46bcba3df","","","","","3718","key"," "," ","16.676596412555767","500","250","tilt","","","","","-4","-4","0"
"","psychophysics","75","640055","0.0-75.0","5d5035c5d87393001af70561","62572a4cef06efa46bcba3df","","","","","3156","key"," "," ","16.683285714285425","500","250","tilt","","","","","4","4","0"
"","psychophysics","76","642848","0.0-76.0","5d5035c5d87393001af70561","62572a4cef06efa46bcba3df","","","","","2787","key"," "," ","16.683524096385344","500","250","tilt","","","","","6","10","0"
"","psychophysics","77","644510","0.0-77.0","5d5035c5d87393001af70561","62572a4cef06efa46bcba3df","","","","","1654","key"," "," ","16.68325252525245","500","250","inst","","","","","","",""
"","psychophysics","78","648288","0.0-78.0","5d5035c5d87393001af70561","62572a4cef06efa46bcba3df","","","","","3772","key"," "," ","16.68336888888851","500","250","instPz","","","","","50","50",""
"","psychophysics","79","653928","0.0-79.0","5d5035c5d87393001af70561","62572a4cef06efa46bcba3df","","","","","5632","key"," "," ","16.683281065088824","500","250","instPz","","","","","15","50",""
"","psychophysics","80","667111","0.0-80.0","5d5035c5d87393001af70561","62572a4cef06efa46bcba3df","","","","","13179","key"," "," ","16.683333333333362","500","250","instPz","","","","","4","30",""
"","psychophysics","81","692568","0.0-81.0","5d5035c5d87393001af70561","62572a4cef06efa46bcba3df","","","","","25452","key"," "," ","16.683317377049185","500","250","instPz","","","","","53","40",""
"","psychophysics","82","695359","0.0-82.0","5d5035c5d87393001af70561","62572a4cef06efa46bcba3df","","","","","2787","key"," "," ","16.683198795180505","500","250","inst","","","","","","",""
"","psychophysics","83","700609","0.0-83.0","5d5035c5d87393001af70561","62572a4cef06efa46bcba3df","","","","","5244","key"," "," ","16.683226114649855","500","250","pz","","","","","48","44",""
"","psychophysics","84","706498","0.0-84.0","5d5035c5d87393001af70561","62572a4cef06efa46bcba3df","","","","","5883","key"," "," ","16.683289772727054","500","250","pz","","","","","36","23",""
"","psychophysics","85","711719","0.0-85.0","5d5035c5d87393001af70561","62572a4cef06efa46bcba3df","","","","","5215","key"," "," ","16.683317307692143","500","250","pz","","","","","40","36",""
"","psychophysics","86","715888","0.0-86.0","5d5035c5d87393001af70561","62572a4cef06efa46bcba3df","","","","","4164","key"," "," ","16.683322580645306","500","250","pz","","","","","64","57",""
"","psychophysics","87","721383","0.0-87.0","5d5035c5d87393001af70561","62572a4cef06efa46bcba3df","","","","","5487","key"," "," ","16.68328875379947","500","250","pz","","","","","59","58",""
"","psychophysics","88","723910","0.0-88.0","5d5035c5d87393001af70561","62572a4cef06efa46bcba3df","","","","","2522","key"," "," ","16.683226666667032","500","250","pz","","","","","26","22",""
"","psychophysics","89","727807","0.0-89.0","5d5035c5d87393001af70561","62572a4cef06efa46bcba3df","","","","","3887","key"," "," ","16.683442060085707","500","250","pz","","","","","27","26",""
"","psychophysics","90","734424","0.0-90.0","5d5035c5d87393001af70561","62572a4cef06efa46bcba3df","","","","","6610","key"," "," ","16.6833443037974","500","250","pz","","","","","59","58",""
"","psychophysics","91","738807","0.0-91.0","5d5035c5d87393001af70561","62572a4cef06efa46bcba3df","","","","","4376","key"," "," ","16.683393129770987","500","250","pz","","","","","59","49",""
"","psychophysics","92","743402","0.0-92.0","5d5035c5d87393001af70561","62572a4cef06efa46bcba3df","","","","","4587","key"," "," ","16.683334545454603","500","250","pz","","","","","31","32",""
"","psychophysics","93","747737","0.0-93.0","5d5035c5d87393001af70561","62572a4cef06efa46bcba3df","","","","","4329","key"," "," ","16.683236434108167","500","250","pz","","","","","56","53",""
"","psychophysics","94","752999","0.0-94.0","5d5035c5d87393001af70561","62572a4cef06efa46bcba3df","","","","","5255","key"," "," ","16.683412698412774","500","250","pz","","","","","26","22",""
"","psychophysics","95","756699","0.0-95.0","5d5035c5d87393001af70561","62572a4cef06efa46bcba3df","","","","","3694","key"," "," ","16.683180995475148","500","250","pz","","","","","25","24",""
"","psychophysics","96","762431","0.0-96.0","5d5035c5d87393001af70561","62572a4cef06efa46bcba3df","","","","","5728","key"," "," ","16.6833684210528","500","250","pz","","","","","33","32",""
"","psychophysics","97","768087","0.0-97.0","5d5035c5d87393001af70561","62572a4cef06efa46bcba3df","","","","","5647","key"," "," ","16.683334319526466","500","250","pz","","","","","74","56",""
"","psychophysics","98","769719","0.0-98.0","5d5035c5d87393001af70561","62572a4cef06efa46bcba3df","","","","","1623","key"," "," ","16.68300000000049","500","250","inst","","","","","","",""
"","psychophysics","99","774015","0.0-99.0","5d5035c5d87393001af70561","62572a4cef06efa46bcba3df","","","","","4293","key"," "," ","16.683237354085392","500","250","inst","","","","","","",""
"","psychophysics","100","776958","0.0-100.0","5d5035c5d87393001af70561","62572a4cef06efa46bcba3df","","","","","2935","key"," "," ","16.683291428571433","500","250","instFlank","","","","","0.5","0.3","1"
"","psychophysics","101","782919","0.0-101.0","5d5035c5d87393001af70561","62572a4cef06efa46bcba3df","","","","","5956","key"," "," ","16.68335112359563","500","250","inst","","","","","","",""
"","psychophysics","102","788887","0.0-102.0","5d5035c5d87393001af70561","62572a4cef06efa46bcba3df","","","","","5958","key"," "," ","16.683313725490112","500","250","instFlank","","","","","1","0.3","1"
"","psychophysics","103","792434","0.0-103.0","5d5035c5d87393001af70561","62572a4cef06efa46bcba3df","","","","","3543","key"," "," ","16.683183962263975","500","250","inst","","","","","","",""
"","psychophysics","104","800599","0.0-104.0","5d5035c5d87393001af70561","62572a4cef06efa46bcba3df","","","","","8158","key"," "," ","16.683272540983676","500","250","instFlank","","","","","0.049999999999999795","0.3","0"
"","psychophysics","105","805223","0.0-105.0","5d5035c5d87393001af70561","62572a4cef06efa46bcba3df","","","","","4620","key"," "," ","16.68334782608714","500","250","inst","","","","","","",""
"","psychophysics","106","810295","0.0-106.0","5d5035c5d87393001af70561","62572a4cef06efa46bcba3df","","","","","5060","key"," "," ","16.683379537953453","500","250","flank","","","","","0.9500000000000004","0.72","1"
"","psychophysics","107","818031","0.0-107.0","5d5035c5d87393001af70561","62572a4cef06efa46bcba3df","","","","","7727","key"," "," ","16.683269978401835","500","250","flank","","","","","0.9500000000000004","0.58","1"
"","psychophysics","108","822719","0.0-108.0","5d5035c5d87393001af70561","62572a4cef06efa46bcba3df","","","","","4682","key"," "," ","16.68390357142863","500","250","flank","","","","","1","0.68","1"
"","psychophysics","109","827263","0.0-109.0","5d5035c5d87393001af70561","62572a4cef06efa46bcba3df","","","","","4538","key"," "," ","16.683387453874875","500","250","flank","","","","","0.9500000000000004","0.26","1"
"","psychophysics","110","834287","0.0-110.0","5d5035c5d87393001af70561","62572a4cef06efa46bcba3df","","","","","7014","key"," "," ","16.683309523809502","500","250","flank","","","","","0.0799999999999998","0.78","0"
"","psychophysics","111","841072","0.0-111.0","5d5035c5d87393001af70561","62572a4cef06efa46bcba3df","","","","","6775","key"," "," ","16.683413793103487","500","250","flank","","","","","0.9800000000000004","0.7","1"
"","psychophysics","112","845720","0.0-112.0","5d5035c5d87393001af70561","62572a4cef06efa46bcba3df","","","","","4640","key"," "," ","16.68317266187016","500","250","flank","","","","","0.9500000000000004","0.24","1"
"","psychophysics","113","850367","0.0-113.0","5d5035c5d87393001af70561","62572a4cef06efa46bcba3df","","","","","4640","key"," "," ","16.683342960288677","500","250","flank","","","","","0.9800000000000004","0.24","1"
"","psychophysics","114","856898","0.0-114.0","5d5035c5d87393001af70561","62572a4cef06efa46bcba3df","","","","","6522","key"," "," ","16.683375959079164","500","250","flank","","","","","0.0799999999999998","0.28","0"
"","psychophysics","115","861791","0.0-115.0","5d5035c5d87393001af70561","62572a4cef06efa46bcba3df","","","","","4887","key"," "," ","16.683294520548333","500","250","flank","","","","","0.9800000000000004","0.24","1"
"","psychophysics","116","867441","0.0-116.0","5d5035c5d87393001af70561","62572a4cef06efa46bcba3df","","","","","5644","key"," "," ","16.683532544378654","500","250","flank","","","","","0.0799999999999998","0.6","0"
"","psychophysics","117","873351","0.0-117.0","5d5035c5d87393001af70561","62572a4cef06efa46bcba3df","","","","","5904","key"," "," ","16.683158640226708","500","250","flank","","","","","1","0.36","1"
"","psychophysics","118","878770","0.0-118.0","5d5035c5d87393001af70561","62572a4cef06efa46bcba3df","","","","","5413","key"," "," ","16.683246913580167","500","250","flank","","","","","1","0.54","1"
"","psychophysics","119","887399","0.0-119.0","5d5035c5d87393001af70561","62572a4cef06efa46bcba3df","","","","","8623","key"," "," ","16.682705426356726","500","250","flank","","","","","0.06999999999999937","0.52","0"
"","psychophysics","120","891527","0.0-120.0","5d5035c5d87393001af70561","62572a4cef06efa46bcba3df","","","","","4119","key"," "," ","16.683268292683056","500","250","flank","","","","","1","0.74","1"
"","psychophysics","121","896095","0.0-121.0","5d5035c5d87393001af70561","62572a4cef06efa46bcba3df","","","","","4558","key"," "," ","16.683380952381253","500","250","flank","","","","","0.9500000000000004","0.54","1"
"","psychophysics","122","900599","0.0-122.0","5d5035c5d87393001af70561","62572a4cef06efa46bcba3df","","","","","4494","key"," "," ","16.68329739776963","500","250","flank","","","","","0","0.78","0"
"","psychophysics","123","906497","0.0-123.0","5d5035c5d87393001af70561","62572a4cef06efa46bcba3df","","","","","5891","key"," "," ","16.683444759206946","500","250","flank","","","","","0.9800000000000004","0.76","1"
"","psychophysics","124","910633","0.0-124.0","5d5035c5d87393001af70561","62572a4cef06efa46bcba3df","","","","","4128","key"," "," ","16.684390243902854","500","250","flank","","","","","0.10999999999999979","0.3","0"
"","psychophysics","125","916079","0.0-125.0","5d5035c5d87393001af70561","62572a4cef06efa46bcba3df","","","","","5436","key"," "," ","16.683349693251525","500","250","flank","","","","","0.0799999999999998","0.2","0"
"","psychophysics","126","920071","0.0-126.0","5d5035c5d87393001af70561","62572a4cef06efa46bcba3df","","","","","3987","key"," "," ","16.683289915966476","500","250","flank","","","","","0.049999999999999795","0.64","0"
"","psychophysics","127","923799","0.0-127.0","5d5035c5d87393001af70561","62572a4cef06efa46bcba3df","","","","","3717","key"," "," ","16.68343049327367","500","250","flank","","","","","0.0799999999999998","0.66","0"
"","psychophysics","128","927727","0.0-128.0","5d5035c5d87393001af70561","62572a4cef06efa46bcba3df","","","","","3923","key"," "," ","16.683311965812045","500","250","flank","","","","","0.0799999999999998","0.6","0"
"","psychophysics","129","932351","0.0-129.0","5d5035c5d87393001af70561","62572a4cef06efa46bcba3df","","","","","4604","key"," "," ","16.683438405796945","500","250","flank","","","","","0.9800000000000004","0.2","1"
"","psychophysics","130","937680","0.0-130.0","5d5035c5d87393001af70561","62572a4cef06efa46bcba3df","","","","","5321","key"," "," ","16.683391849529713","500","250","flank","","","","","0.9500000000000004","0.22","1"
"","psychophysics","131","944817","0.0-131.0","5d5035c5d87393001af70561","62572a4cef06efa46bcba3df","","","","","7130","key"," "," ","16.68329107981233","500","250","flank","","","","","0.10999999999999979","0.42","0"
"","psychophysics","132","948631","0.0-132.0","5d5035c5d87393001af70561","62572a4cef06efa46bcba3df","","","","","3804","key"," "," ","16.683302631579224","500","250","flank","","","","","0.019999999999999796","0.6","0"
"","psychophysics","133","954929","0.0-133.0","5d5035c5d87393001af70561","62572a4cef06efa46bcba3df","","","","","6287","key"," "," ","16.683230769231024","500","250","flank","","","","","0.9500000000000004","0.72","1"
"","psychophysics","134","960639","0.0-134.0","5d5035c5d87393001af70561","62572a4cef06efa46bcba3df","","","","","5704","key"," "," ","16.683372434017336","500","250","flank","","","","","0.9500000000000004","0.74","1"
"","psychophysics","135","964695","0.0-135.0","5d5035c5d87393001af70561","62572a4cef06efa46bcba3df","","","","","4050","key"," "," ","16.683433884297774","500","250","flank","","","","","1","0.2","1"
"true","fullscreen","136","964700","0.0-136.0","5d5035c5d87393001af70561","62572a4cef06efa46bcba3df","","","","","","","","","","","","","","","","","","",""
"true","fullscreen","0","3251","0.0-0.0","6108c4101a5434271640ebf5","62572ab52abf71955f20a788","","","","","","","","","","","","","","","","","","",""
"true","preload","1","3252","0.0-1.0","6108c4101a5434271640ebf5","62572ab52abf71955f20a788","false","[]","[]","[]","","","","","","","","","","","","","","",""
"","psychophysics","2","7118","0.0-2.0","6108c4101a5434271640ebf5","62572ab52abf71955f20a788","","","","","3853","key"," "," ","16.675150862068968","500","250","inst","","","","","","",""
"","psychophysics","3","8237","0.0-3.0","6108c4101a5434271640ebf5","62572ab52abf71955f20a788","","","","","1117","key"," "," ","16.675424242424235","500","250","inst","","","","","","",""
"","psychophysics","4","19949","0.0-4.0","6108c4101a5434271640ebf5","62572ab52abf71955f20a788","","","","","11709","key"," "," ","16.674861626248216","500","250","instMl","210","-35","1","3","-20","",""
"","psychophysics","5","29181","0.0-5.0","6108c4101a5434271640ebf5","62572ab52abf71955f20a788","","","","","9229","key"," "," ","16.674824593128392","500","250","instMl","198","-33","-13","7","-17","",""
"","psychophysics","6","31997","0.0-6.0","6108c4101a5434271640ebf5","62572ab52abf71955f20a788","","","","","2814","key"," "," ","16.674809523809536","500","250","inst","","","","","","",""
"","psychophysics","7","37277","0.0-7.0","6108c4101a5434271640ebf5","62572ab52abf71955f20a788","","","","","5277","key"," "," ","16.67482857142856","500","250","ml","156","24","-23","-18","-11","",""
"","psychophysics","8","48333","0.0-8.0","6108c4101a5434271640ebf5","62572ab52abf71955f20a788","","","","","11053","key"," "," ","16.674865558912384","500","250","ml","250","44","-14","30","-18","",""
"","psychophysics","9","56013","0.0-9.0","6108c4101a5434271640ebf5","62572ab52abf71955f20a788","","","","","7677","key"," "," ","16.674958695652172","500","250","ml","160","-33","0","28","-13","",""
"","psychophysics","10","59389","0.0-10.0","6108c4101a5434271640ebf5","62572ab52abf71955f20a788","","","","","3373","key"," "," ","16.674860696517435","500","250","ml","248","-52","18","3","-16","",""
"","psychophysics","11","63037","0.0-11.0","6108c4101a5434271640ebf5","62572ab52abf71955f20a788","","","","","3645","key"," "," ","16.67492201834863","500","250","ml","160","36","19","-28","-12","",""
"","psychophysics","12","66573","0.0-12.0","6108c4101a5434271640ebf5","62572ab52abf71955f20a788","","","","","3534","key"," "," ","16.674928909952587","500","250","ml","206","20","-27","-20","-18","",""
"","psychophysics","13","69229","0.0-13.0","6108c4101a5434271640ebf5","62572ab52abf71955f20a788","","","","","2654","key"," "," ","16.67470440251567","500","250","ml","184","-20","29","-17","-21","",""
"","psychophysics","14","71821","0.0-14.0","6108c4101a5434271640ebf5","62572ab52abf71955f20a788","","","","","2590","key"," "," ","16.674798701298666","500","250","ml","198","-22","-28","-29","-19","",""
"","psychophysics","15","75885","0.0-15.0","6108c4101a5434271640ebf5","62572ab52abf71955f20a788","","","","","4062","key"," "," ","16.67478189300409","500","250","ml","186","24","-22","-2","-15","",""
"","psychophysics","16","80540","0.0-16.0","6108c4101a5434271640ebf5","62572ab52abf71955f20a788","","","","","4653","key"," "," ","16.67490647482013","500","250","ml","242","32","4","30","-14","",""
"","psychophysics","17","85980","0.0-17.0","6108c4101a5434271640ebf5","62572ab52abf71955f20a788","","","","","5438","key"," "," ","16.674920000000007","500","250","ml","180","-5","-24","-30","-17","",""
"","psychophysics","18","89389","0.0-18.0","6108c4101a5434271640ebf5","62572ab52abf71955f20a788","","","","","3406","key"," "," ","16.674789215686236","500","250","ml","202","9","30","-29","-22","",""
"","psychophysics","19","92700","0.0-19.0","6108c4101a5434271640ebf5","62572ab52abf71955f20a788","","","","","3309","key"," "," ","16.674852791878152","500","250","ml","158","30","-21","-23","-14","",""
"","psychophysics","20","97388","0.0-20.0","6108c4101a5434271640ebf5","62572ab52abf71955f20a788","","","","","4686","key"," "," ","16.6748607142857","500","250","ml","210","46","-12","15","-16","",""
"","psychophysics","21","99949","0.0-21.0","6108c4101a5434271640ebf5","62572ab52abf71955f20a788","","","","","2558","key"," "," ","16.674849673202665","500","250","ml","168","5","7","30","-19","",""
"","psychophysics","22","101372","0.0-22.0","6108c4101a5434271640ebf5","62572ab52abf71955f20a788","","","","","1421","key"," "," ","16.674809523809625","500","250","inst","","","","","","",""
"","psychophysics","23","112204","0.0-23.0","6108c4101a5434271640ebf5","62572ab52abf71955f20a788","","","","","10830","key"," "," ","16.674835130970713","500","250","instPog","","","","","130","130",""
"","psychophysics","24","122748","0.0-24.0","6108c4101a5434271640ebf5","62572ab52abf71955f20a788","","","","","10542","key"," "," ","16.67488114104597","500","250","instPog","","","","","143","130",""
"","psychophysics","25","131132","0.0-25.0","6108c4101a5434271640ebf5","62572ab52abf71955f20a788","","","","","8382","key"," "," ","16.67485657370516","500","250","instPog","","","","","151","130",""
"","psychophysics","26","132172","0.0-26.0","6108c4101a5434271640ebf5","62572ab52abf71955f20a788","","","","","1038","key"," "," ","16.674573770491882","500","250","inst","","","","","","",""
"","psychophysics","27","134461","0.0-27.0","6108c4101a5434271640ebf5","62572ab52abf71955f20a788","","","","","2286","key"," "," ","16.674941605839447","500","250","pog","","","","","155","128",""
"","psychophysics","28","138188","0.0-28.0","6108c4101a5434271640ebf5","62572ab52abf71955f20a788","","","","","3726","key"," "," ","16.674851351351396","500","250","pog","","","","","166","152",""
"","psychophysics","29","141197","0.0-29.0","6108c4101a5434271640ebf5","62572ab52abf71955f20a788","","","","","3006","key"," "," ","16.674850000000152","500","250","pog","","","","","157","131",""
"","psychophysics","30","145260","0.0-30.0","6108c4101a5434271640ebf5","62572ab52abf71955f20a788","","","","","4061","key"," "," ","16.674863636363558","500","250","pog","","","","","165","147",""
"","psychophysics","31","153484","0.0-31.0","6108c4101a5434271640ebf5","62572ab52abf71955f20a788","","","","","8222","key"," "," ","16.67482926829269","500","250","pog","","","","","143","125",""
"","psychophysics","32","160460","0.0-32.0","6108c4101a5434271640ebf5","62572ab52abf71955f20a788","","","","","6974","key"," "," ","16.67492583732059","500","250","pog","","","","","148","126",""
"","psychophysics","33","165964","0.0-33.0","6108c4101a5434271640ebf5","62572ab52abf71955f20a788","","","","","5502","key"," "," ","16.67486626139814","500","250","pog","","","","","161","140",""
"","psychophysics","34","171532","0.0-34.0","6108c4101a5434271640ebf5","62572ab52abf71955f20a788","","","","","5565","key"," "," ","16.674867867867867","500","250","pog","","","","","205","186",""
"","psychophysics","35","176028","0.0-35.0","6108c4101a5434271640ebf5","62572ab52abf71955f20a788","","","","","4495","key"," "," ","16.674850746268714","500","250","pog","","","","","210","194",""
"","psychophysics","36","179420","0.0-36.0","6108c4101a5434271640ebf5","62572ab52abf71955f20a788","","","","","3389","key"," "," ","16.674970443349753","500","250","pog","","","","","179","159",""
"","psychophysics","37","185516","0.0-37.0","6108c4101a5434271640ebf5","62572ab52abf71955f20a788","","","","","6094","key"," "," ","16.674818681318737","500","250","pog","","","","","154","135",""
"","psychophysics","38","189516","0.0-38.0","6108c4101a5434271640ebf5","62572ab52abf71955f20a788","","","","","3997","key"," "," ","16.67494979079508","500","250","pog","","","","","188","184",""
"","psychophysics","39","193708","0.0-39.0","6108c4101a5434271640ebf5","62572ab52abf71955f20a788","","","","","4189","key"," "," ","16.67493625498002","500","250","pog","","","","","163","149",""
"","psychophysics","40","198556","0.0-40.0","6108c4101a5434271640ebf5","62572ab52abf71955f20a788","","","","","4845","key"," "," ","16.67496885813156","500","250","pog","","","","","173","159",""
"","psychophysics","41","204236","0.0-41.0","6108c4101a5434271640ebf5","62572ab52abf71955f20a788","","","","","5678","key"," "," ","16.67492352941173","500","250","pog","","","","","181","167",""
"","psychophysics","42","205180","0.0-42.0","6108c4101a5434271640ebf5","62572ab52abf71955f20a788","","","","","942","key"," "," ","16.674821428571573","500","250","inst","","","","","","",""
"","psychophysics","43","208380","0.0-43.0","6108c4101a5434271640ebf5","62572ab52abf71955f20a788","","","","","3198","key"," "," ","16.674748691099516","500","250","instTilt","","","","","NaN","0","0"
"","psychophysics","44","210236","0.0-44.0","6108c4101a5434271640ebf5","62572ab52abf71955f20a788","","","","","1853","key"," "," ","16.675","500","250","instTilt","","","","","0","0","0"
"","psychophysics","45","220316","0.0-45.0","6108c4101a5434271640ebf5","62572ab52abf71955f20a788","","","","","10078","key"," "," ","16.674864013266998","500","250","instTilt","","","","","0","0","0"
"","psychophysics","46","221516","0.0-46.0","6108c4101a5434271640ebf5","62572ab52abf71955f20a788","","","","","1197","key"," "," ","16.674492957746825","500","250","inst","","","","","","",""
"","psychophysics","47","228300","0.0-47.0","6108c4101a5434271640ebf5","62572ab52abf71955f20a788","","","","","6782","key"," "," ","16.674921182266036","500","250","tilt","","","","","0","-1","1"
"","psychophysics","48","233868","0.0-48.0","6108c4101a5434271640ebf5","62572ab52abf71955f20a788","","","","","5566","key"," "," ","16.674810810810808","500","250","tilt","","","","","-5","-2","1"
"","psychophysics","49","235868","0.0-49.0","6108c4101a5434271640ebf5","62572ab52abf71955f20a788","","","","","1999","key"," "," ","16.674873949579812","500","250","tilt","","","","","0","0","0"
"","psychophysics","50","237516","0.0-50.0","6108c4101a5434271640ebf5","62572ab52abf71955f20a788","","","","","1646","key"," "," ","16.674612244897894","500","250","tilt","","","","","0","-2","0"
"","psychophysics","51","242236","0.0-51.0","6108c4101a5434271640ebf5","62572ab52abf71955f20a788","","","","","4718","key"," "," ","16.674833333333282","500","250","tilt","","","","","-8","-5","1"
"","psychophysics","52","245372","0.0-52.0","6108c4101a5434271640ebf5","62572ab52abf71955f20a788","","","","","3134","key"," "," ","16.67481283422461","500","250","tilt","","","","","4","6","1"
"","psychophysics","53","250028","0.0-53.0","6108c4101a5434271640ebf5","62572ab52abf71955f20a788","","","","","4655","key"," "," ","16.674935251798605","500","250","tilt","","","","","3","2","0"
"","psychophysics","54","251356","0.0-54.0","6108c4101a5434271640ebf5","62572ab52abf71955f20a788","","","","","1326","key"," "," ","16.674721518987525","500","250","tilt","","","","","0","-3","0"
"","psychophysics","55","256428","0.0-55.0","6108c4101a5434271640ebf5","62572ab52abf71955f20a788","","","","","5071","key"," "," ","16.674815181518095","500","250","tilt","","","","","-7","-4","1"
"","psychophysics","56","258556","0.0-56.0","6108c4101a5434271640ebf5","62572ab52abf71955f20a788","","","","","2126","key"," "," ","16.67442519685018","500","250","tilt","","","","","4","7","0"
"","psychophysics","57","262540","0.0-57.0","6108c4101a5434271640ebf5","62572ab52abf71955f20a788","","","","","3983","key"," "," ","16.674827731092424","500","250","tilt","","","","","2","3","1"
"","psychophysics","58","264651","0.0-58.0","6108c4101a5434271640ebf5","62572ab52abf71955f20a788","","","","","2110","key"," "," ","16.674672000000253","500","250","tilt","","","","","4","6","1"
"","psychophysics","59","268603","0.0-59.0","6108c4101a5434271640ebf5","62572ab52abf71955f20a788","","","","","3951","key"," "," ","16.67488559322028","500","250","tilt","","","","","5","3","0"
"","psychophysics","60","271356","0.0-60.0","6108c4101a5434271640ebf5","62572ab52abf71955f20a788","","","","","2751","key"," "," ","16.674810975609724","500","250","tilt","","","","","4","5","1"
"","psychophysics","61","273340","0.0-61.0","6108c4101a5434271640ebf5","62572ab52abf71955f20a788","","","","","1982","key"," "," ","16.674737288135645","500","250","tilt","","","","","-6","-4","1"
"","psychophysics","62","276604","0.0-62.0","6108c4101a5434271640ebf5","62572ab52abf71955f20a788","","","","","3262","key"," "," ","16.67475897435887","500","250","tilt","","","","","0","1","1"
"","psychophysics","63","278124","0.0-63.0","6108c4101a5434271640ebf5","62572ab52abf71955f20a788","","","","","1518","key"," "," ","16.6748000000002","500","250","tilt","","","","","2","3","0"
"","psychophysics","64","281212","0.0-64.0","6108c4101a5434271640ebf5","62572ab52abf71955f20a788","","","","","3086","key"," "," ","16.674885869565237","500","250","tilt","","","","","6","6","0"
"","psychophysics","65","283291","0.0-65.0","6108c4101a5434271640ebf5","62572ab52abf71955f20a788","","","","","2078","key"," "," ","16.67479838709668","500","250","tilt","","","","","3","5","0"
"","psychophysics","66","285500","0.0-66.0","6108c4101a5434271640ebf5","62572ab52abf71955f20a788","","","","","2207","key"," "," ","16.67484848484861","500","250","tilt","","","","","7","9","0"
"","psychophysics","67","287916","0.0-67.0","6108c4101a5434271640ebf5","62572ab52abf71955f20a788","","","","","2414","key"," "," ","16.674832167832093","500","250","tilt","","","","","7","7","0"
"","psychophysics","68","290428","0.0-68.0","6108c4101a5434271640ebf5","62572ab52abf71955f20a788","","","","","2509","key"," "," ","16.674966666666634","500","250","tilt","","","","","5","7","1"
"","psychophysics","69","296300","0.0-69.0","6108c4101a5434271640ebf5","62572ab52abf71955f20a788","","","","","5870","key"," "," ","16.674863247863186","500","250","tilt","","","","","6","7","0"
"","psychophysics","70","297436","0.0-70.0","6108c4101a5434271640ebf5","62572ab52abf71955f20a788","","","","","1134","key"," "," ","16.67449253731331","500","250","tilt","","","","","0","3","0"
"","psychophysics","71","299899","0.0-71.0","6108c4101a5434271640ebf5","62572ab52abf71955f20a788","","","","","2462","key"," "," ","16.675244897959175","500","250","tilt","","","","","-2","0","1"
"","psychophysics","72","301964","0.0-72.0","6108c4101a5434271640ebf5","62572ab52abf71955f20a788","","","","","2063","key"," "," ","16.67486991869935","500","250","tilt","","","","","-6","-7","1"
"","psychophysics","73","304044","0.0-73.0","6108c4101a5434271640ebf5","62572ab52abf71955f20a788","","","","","2079","key"," "," ","16.674935483871284","500","250","tilt","","","","","7","10","1"
"","psychophysics","74","307516","0.0-74.0","6108c4101a5434271640ebf5","62572ab52abf71955f20a788","","","","","3470","key"," "," ","16.674763285024046","500","250","tilt","","","","","-9","-5","0"
"","psychophysics","75","310171","0.0-75.0","6108c4101a5434271640ebf5","62572ab52abf71955f20a788","","","","","2654","key"," "," ","16.674930379746993","500","250","tilt","","","","","2","4","1"
"","psychophysics","76","312027","0.0-76.0","6108c4101a5434271640ebf5","62572ab52abf71955f20a788","","","","","1855","key"," "," ","16.674745454545533","500","250","tilt","","","","","0","1","0"
"","psychophysics","77","313531","0.0-77.0","6108c4101a5434271640ebf5","62572ab52abf71955f20a788","","","","","1501","key"," "," ","16.674911111111417","500","250","inst","","","","","","",""
"","psychophysics","78","315964","0.0-78.0","6108c4101a5434271640ebf5","62572ab52abf71955f20a788","","","","","2429","key"," "," ","16.674930555555573","500","250","instPz","","","","","50","50",""
"","psychophysics","79","327291","0.0-79.0","6108c4101a5434271640ebf5","62572ab52abf71955f20a788","","","","","11325","key"," "," ","16.674911634757017","500","250","instPz","","","","","41","50",""
"","psychophysics","80","331595","0.0-80.0","6108c4101a5434271640ebf5","62572ab52abf71955f20a788","","","","","4302","key"," "," ","16.674922178988165","500","250","instPz","","","","","29","30",""
"","psychophysics","81","342412","0.0-81.0","6108c4101a5434271640ebf5","62572ab52abf71955f20a788","","","","","10815","key"," "," ","16.67482561728388","500","250","instPz","","","","","40","40",""
"","psychophysics","82","343883","0.0-82.0","6108c4101a5434271640ebf5","62572ab52abf71955f20a788","","","","","1469","key"," "," ","16.67485057471264","500","250","inst","","","","","","",""
"","psychophysics","83","347195","0.0-83.0","6108c4101a5434271640ebf5","62572ab52abf71955f20a788","","","","","3310","key"," "," ","16.674832487309548","500","250","pz","","","","","35","32",""
"","psychophysics","84","350539","0.0-84.0","6108c4101a5434271640ebf5","62572ab52abf71955f20a788","","","","","3341","key"," "," ","16.67491000000009","500","250","pz","","","","","46","44",""
"","psychophysics","85","355275","0.0-85.0","6108c4101a5434271640ebf5","62572ab52abf71955f20a788","","","","","4734","key"," "," ","16.674858657243767","500","250","pz","","","","","60","60",""
"","psychophysics","86","358619","0.0-86.0","6108c4101a5434271640ebf5","62572ab52abf71955f20a788","","","","","3342","key"," "," ","16.67489499999996","500","250","pz","","","","","22","21",""
"","psychophysics","87","361259","0.0-87.0","6108c4101a5434271640ebf5","62572ab52abf71955f20a788","","","","","2638","key"," "," ","16.67485350318465","500","250","pz","","","","","36","33",""
"","psychophysics","88","364411","0.0-88.0","6108c4101a5434271640ebf5","62572ab52abf71955f20a788","","","","","3150","key"," "," ","16.67484574468077","500","250","pz","","","","","30","21",""
"","psychophysics","89","368155","0.0-89.0","6108c4101a5434271640ebf5","62572ab52abf71955f20a788","","","","","3742","key"," "," ","16.67484304932731","500","250","pz","","","","","56","55",""
"","psychophysics","90","372107","0.0-90.0","6108c4101a5434271640ebf5","62572ab52abf71955f20a788","","","","","3949","key"," "," ","16.67497457627116","500","250","pz","","","","","41","38",""
"","psychophysics","91","375323","0.0-91.0","6108c4101a5434271640ebf5","62572ab52abf71955f20a788","","","","","3213","key"," "," ","16.674973958333187","500","250","pz","","","","","46","48",""
"","psychophysics","92","379772","0.0-92.0","6108c4101a5434271640ebf5","62572ab52abf71955f20a788","","","","","4446","key"," "," ","16.6748383458646","500","250","pz","","","","","42","35",""
"","psychophysics","93","383324","0.0-93.0","6108c4101a5434271640ebf5","62572ab52abf71955f20a788","","","","","3550","key"," "," ","16.674764150943616","500","250","pz","","","","","31","23",""
"","psychophysics","94","386300","0.0-94.0","6108c4101a5434271640ebf5","62572ab52abf71955f20a788","","","","","2974","key"," "," ","16.674977528089933","500","250","pz","","","","","42","35",""
"","psychophysics","95","389244","0.0-95.0","6108c4101a5434271640ebf5","62572ab52abf71955f20a788","","","","","2940","key"," "," ","16.67484000000005","500","250","pz","","","","","28","20",""
"","psychophysics","96","392572","0.0-96.0","6108c4101a5434271640ebf5","62572ab52abf71955f20a788","","","","","3326","key"," "," ","16.674864321607796","500","250","pz","","","","","53","49",""
"","psychophysics","97","397628","0.0-97.0","6108c4101a5434271640ebf5","62572ab52abf71955f20a788","","","","","5054","key"," "," ","16.67478807947027","500","250","pz","","","","","52","42",""
"","psychophysics","98","399164","0.0-98.0","6108c4101a5434271640ebf5","62572ab52abf71955f20a788","","","","","1534","key"," "," ","16.674999999999873","500","250","inst","","","","","","",""
"","psychophysics","99","415980","0.0-99.0","6108c4101a5434271640ebf5","62572ab52abf71955f20a788","","","","","16814","key"," "," ","16.674862959285004","500","250","inst","","","","","","",""
"","psychophysics","100","420956","0.0-100.0","6108c4101a5434271640ebf5","62572ab52abf71955f20a788","","","","","4972","key"," "," ","16.67494295302024","500","250","instFlank","","","","","0.5","0.3","1"
"","psychophysics","101","427772","0.0-101.0","6108c4101a5434271640ebf5","62572ab52abf71955f20a788","","","","","6814","key"," "," ","16.674860294117632","500","250","inst","","","","","","",""
"","psychophysics","102","437100","0.0-102.0","6108c4101a5434271640ebf5","62572ab52abf71955f20a788","","","","","9326","key"," "," ","16.67484229390687","500","250","instFlank","","","","","0.5","0.3","1"
"","psychophysics","103","440028","0.0-103.0","6108c4101a5434271640ebf5","62572ab52abf71955f20a788","","","","","2926","key"," "," ","16.67485714285734","500","250","inst","","","","","","",""
"","psychophysics","104","445452","0.0-104.0","6108c4101a5434271640ebf5","62572ab52abf71955f20a788","","","","","5421","key"," "," ","16.674848765432138","500","250","instFlank","","","","","0.53","0.3","0"
"","psychophysics","105","446380","0.0-105.0","6108c4101a5434271640ebf5","62572ab52abf71955f20a788","","","","","926","key"," "," ","16.674836363636","500","250","inst","","","","","","",""
"","psychophysics","106","451020","0.0-106.0","6108c4101a5434271640ebf5","62572ab52abf71955f20a788","","","","","4637","key"," "," ","16.674844765342858","500","250","flank","","","","","0.6800000000000002","0.76","0"
"","psychophysics","107","453628","0.0-107.0","6108c4101a5434271640ebf5","62572ab52abf71955f20a788","","","","","2606","key"," "," ","16.674741935484008","500","250","flank","","","","","0.5","0.48","0"
"","psychophysics","108","455964","0.0-108.0","6108c4101a5434271640ebf5","62572ab52abf71955f20a788","","","","","2334","key"," "," ","16.675021582733667","500","250","flank","","","","","0.5","0.52","1"
"","psychophysics","109","458476","0.0-109.0","6108c4101a5434271640ebf5","62572ab52abf71955f20a788","","","","","2510","key"," "," ","16.67501333333319","500","250","flank","","","","","0.5","0.52","0"
"","psychophysics","110","463996","0.0-110.0","6108c4101a5434271640ebf5","62572ab52abf71955f20a788","","","","","5518","key"," "," ","16.674866666666684","500","250","flank","","","","","0.8000000000000003","0.78","1"
"","psychophysics","111","468541","0.0-111.0","6108c4101a5434271640ebf5","62572ab52abf71955f20a788","","","","","4543","key"," "," ","16.674863970588323","500","250","flank","","","","","0.43999999999999995","0.34","1"
"","psychophysics","112","472700","0.0-112.0","6108c4101a5434271640ebf5","62572ab52abf71955f20a788","","","","","4157","key"," "," ","16.674866935483745","500","250","flank","","","","","0.7100000000000002","0.72","1"
"","psychophysics","113","476076","0.0-113.0","6108c4101a5434271640ebf5","62572ab52abf71955f20a788","","","","","3374","key"," "," ","16.674761194030033","500","250","flank","","","","","0.5","0.46","0"
"","psychophysics","114","482620","0.0-114.0","6108c4101a5434271640ebf5","62572ab52abf71955f20a788","","","","","6541","key"," "," ","16.674977040816366","500","250","flank","","","","","0.2599999999999998","0.2","1"
"","psychophysics","115","487308","0.0-115.0","6108c4101a5434271640ebf5","62572ab52abf71955f20a788","","","","","4686","key"," "," ","16.674853571428475","500","250","flank","","","","","0.4099999999999999","0.36","0"
"","psychophysics","116","492076","0.0-116.0","6108c4101a5434271640ebf5","62572ab52abf71955f20a788","","","","","4765","key"," "," ","16.67483508771943","500","250","flank","","","","","0.4099999999999999","0.38","0"
"","psychophysics","117","495708","0.0-117.0","6108c4101a5434271640ebf5","62572ab52abf71955f20a788","","","","","3630","key"," "," ","16.67483870967743","500","250","flank","","","","","0.43999999999999995","0.3","0"
"","psychophysics","118","498940","0.0-118.0","6108c4101a5434271640ebf5","62572ab52abf71955f20a788","","","","","3230","key"," "," ","16.674751295336858","500","250","flank","","","","","0.53","0.52","0"
"","psychophysics","119","501996","0.0-119.0","6108c4101a5434271640ebf5","62572ab52abf71955f20a788","","","","","3054","key"," "," ","16.67484065934064","500","250","flank","","","","","0.56","0.58","1"
"","psychophysics","120","505500","0.0-120.0","6108c4101a5434271640ebf5","62572ab52abf71955f20a788","","","","","3501","key"," "," ","16.674909090909008","500","250","flank","","","","","0.4099999999999999","0.3","1"
"","psychophysics","121","508988","0.0-121.0","6108c4101a5434271640ebf5","62572ab52abf71955f20a788","","","","","3486","key"," "," ","16.674836538461722","500","250","flank","","","","","0.34999999999999987","0.38","1"
"","psychophysics","122","512956","0.0-122.0","6108c4101a5434271640ebf5","62572ab52abf71955f20a788","","","","","3965","key"," "," ","16.67487341772155","500","250","flank","","","","","0.6500000000000001","0.6","0"
"","psychophysics","123","516300","0.0-123.0","6108c4101a5434271640ebf5","62572ab52abf71955f20a788","","","","","3342","key"," "," ","16.674860000000045","500","250","flank","","","","","0.53","0.38","0"
"","psychophysics","124","520508","0.0-124.0","6108c4101a5434271640ebf5","62572ab52abf71955f20a788","","","","","4206","key"," "," ","16.674784860557708","500","250","flank","","","","","0.7700000000000002","0.68","1"
"","psychophysics","125","524380","0.0-125.0","6108c4101a5434271640ebf5","62572ab52abf71955f20a788","","","","","3870","key"," "," ","16.674922077921853","500","250","flank","","","","","0.7700000000000002","0.76","0"
"","psychophysics","126","527948","0.0-126.0","6108c4101a5434271640ebf5","62572ab52abf71955f20a788","","","","","3565","key"," "," ","16.6748544600942","500","250","flank","","","","","0.7400000000000002","0.7","0"
"","psychophysics","127","531100","0.0-127.0","6108c4101a5434271640ebf5","62572ab52abf71955f20a788","","","","","3150","key"," "," ","16.674750000000014","500","250","flank","","","","","0.4099999999999999","0.34","1"
"","psychophysics","128","534780","0.0-128.0","6108c4101a5434271640ebf5","62572ab52abf71955f20a788","","","","","3678","key"," "," ","16.674777272727276","500","250","flank","","","","","0.5","0.32","0"
"","psychophysics","129","539468","0.0-129.0","6108c4101a5434271640ebf5","62572ab52abf71955f20a788","","","","","4686","key"," "," ","16.6749178571427","500","250","flank","","","","","0.8300000000000003","0.8","0"
"","psychophysics","130","609931","0.0-130.0","6108c4101a5434271640ebf5","62572ab52abf71955f20a788","","","","","70461","key"," "," ","16.67486674556211","500","250","flank","","","","","0.5","0.7","0"
"","psychophysics","131","613707","0.0-131.0","6108c4101a5434271640ebf5","62572ab52abf71955f20a788","","","","","3774","key"," "," ","16.674799999999813","500","250","flank","","","","","0.6200000000000001","0.52","1"
"","psychophysics","132","616043","0.0-132.0","6108c4101a5434271640ebf5","62572ab52abf71955f20a788","","","","","2334","key"," "," ","16.67501438848872","500","250","flank","","","","","0.5","0.48","0"
"","psychophysics","133","619435","0.0-133.0","6108c4101a5434271640ebf5","62572ab52abf71955f20a788","","","","","3389","key"," "," ","16.674733990147878","500","250","flank","","","","","0.8000000000000003","0.78","0"
"","psychophysics","134","623916","0.0-134.0","6108c4101a5434271640ebf5","62572ab52abf71955f20a788","","","","","4478","key"," "," ","16.674992537313166","500","250","flank","","","","","0.7700000000000002","0.66","0"
"","psychophysics","135","626939","0.0-135.0","6108c4101a5434271640ebf5","62572ab52abf71955f20a788","","","","","3021","key"," "," ","16.67486111111098","500","250","flank","","","","","0.3799999999999999","0.3","0"
"true","fullscreen","136","626941","0.0-136.0","6108c4101a5434271640ebf5","62572ab52abf71955f20a788","","","","","","","","","","","","","","","","","","",""
"true","fullscreen","0","2373","0.0-0.0","612648079fa0866dd2bce10b","6257282fc99b23dda33d61f6","","","","","","","","","","","","","","","","","","",""
"true","preload","1","2376","0.0-1.0","612648079fa0866dd2bce10b","6257282fc99b23dda33d61f6","false","[]","[]","[]","","","","","","","","","","","","","","",""
"","psychophysics","2","5864","0.0-2.0","612648079fa0866dd2bce10b","6257282fc99b23dda33d61f6","","","","","3474","key"," "," ","16.653492822966506","499.7083333333333","249.575","inst","","","","","","",""
"","psychophysics","3","7136","0.0-3.0","612648079fa0866dd2bce10b","6257282fc99b23dda33d61f6","","","","","1270","key"," "," ","16.66293333333334","499.7083333333333","249.575","inst","","","","","","",""
"","psychophysics","4","27232","0.0-4.0","612648079fa0866dd2bce10b","6257282fc99b23dda33d61f6","","","","","20091","key"," "," ","16.66688796680498","499.7083333333333","249.575","instMl","176","-29.333333333333332","8","-24","-12.333333333333314","",""
"","psychophysics","5","39656","0.0-5.0","612648079fa0866dd2bce10b","6257282fc99b23dda33d61f6","","","","","12421","key"," "," ","16.66628187919463","499.7083333333333","249.575","instMl","196","-32.666666666666664","-17","28","-8.666666666666686","",""
"","psychophysics","6","42359","0.0-6.0","612648079fa0866dd2bce10b","6257282fc99b23dda33d61f6","","","","","2702","key"," "," ","16.67068322981364","499.7083333333333","249.575","inst","","","","","","",""
"","psychophysics","7","47896","0.0-7.0","612648079fa0866dd2bce10b","6257282fc99b23dda33d61f6","","","","","5534","key"," "," ","16.66803625377642","499.7083333333333","249.575","ml","216","38","10","-21","-16","",""
"","psychophysics","8","53288","0.0-8.0","612648079fa0866dd2bce10b","6257282fc99b23dda33d61f6","","","","","5390","key"," "," ","16.66652173913042","499.7083333333333","249.575","ml","178","13","26","-30","-17","",""
"","psychophysics","9","60688","0.0-9.0","612648079fa0866dd2bce10b","6257282fc99b23dda33d61f6","","","","","7395","key"," "," ","16.66555304740407","499.7083333333333","249.575","ml","248","-38","29","-5","-15","",""
"","psychophysics","10","68232","0.0-10.0","612648079fa0866dd2bce10b","6257282fc99b23dda33d61f6","","","","","7541","key"," "," ","16.665663716814155","499.7083333333333","249.575","ml","244","34","17","20","-18","",""
"","psychophysics","11","73336","0.0-11.0","612648079fa0866dd2bce10b","6257282fc99b23dda33d61f6","","","","","5103","key"," "," ","16.668327868852447","499.7083333333333","249.575","ml","218","53","-4","-4","-17","",""
"","psychophysics","12","79096","0.0-12.0","612648079fa0866dd2bce10b","6257282fc99b23dda33d61f6","","","","","5754","key"," "," ","16.6665507246377","499.7083333333333","249.575","ml","162","3","-22","30","-11","",""
"","psychophysics","13","83320","0.0-13.0","612648079fa0866dd2bce10b","6257282fc99b23dda33d61f6","","","","","4222","key"," "," ","16.667539682539687","499.7083333333333","249.575","ml","194","6","21","-29","-11","",""
"","psychophysics","14","90112","0.0-14.0","612648079fa0866dd2bce10b","6257282fc99b23dda33d61f6","","","","","6789","key"," "," ","16.6656511056511","499.7083333333333","249.575","ml","160","-37","12","-17","-6","",""
"","psychophysics","15","95599","0.0-15.0","612648079fa0866dd2bce10b","6257282fc99b23dda33d61f6","","","","","5486","key"," "," ","16.66719512195121","499.7083333333333","249.575","ml","200","-39","8","-21","-10","",""
"","psychophysics","16","98343","0.0-16.0","612648079fa0866dd2bce10b","6257282fc99b23dda33d61f6","","","","","2742","key"," "," ","16.662804878048764","499.7083333333333","249.575","ml","170","-1","1","-28","-10","",""
"","psychophysics","17","103575","0.0-17.0","612648079fa0866dd2bce10b","6257282fc99b23dda33d61f6","","","","","5230","key"," "," ","16.667156549520744","499.7083333333333","249.575","ml","226","46","-29","5","-10","",""
"","psychophysics","18","107337","0.0-18.0","612648079fa0866dd2bce10b","6257282fc99b23dda33d61f6","","","","","3759","key"," "," ","16.669553571428555","499.7083333333333","249.575","ml","220","-39","28","-30","-16","",""
"","psychophysics","19","110296","0.0-19.0","612648079fa0866dd2bce10b","6257282fc99b23dda33d61f6","","","","","2955","key"," "," ","16.6628248587571","499.7083333333333","249.575","ml","250","-2","10","7","-13","",""
"","psychophysics","20","171431","0.0-20.0","612648079fa0866dd2bce10b","6257282fc99b23dda33d61f6","","","","","61134","key"," "," ","16.67592360163711","499.7083333333333","249.575","ml","228","-1","24","-6","-20","",""
"","psychophysics","21","175503","0.0-21.0","612648079fa0866dd2bce10b","6257282fc99b23dda33d61f6","","","","","4069","key"," "," ","16.662798353909455","499.7083333333333","249.575","ml","230","-18","-6","-17","-11","",""
"","psychophysics","22","292407","0.0-22.0","612648079fa0866dd2bce10b","6257282fc99b23dda33d61f6","","","","","116901","key"," "," ","16.666737952666097","499.7083333333333","249.575","inst","","","","","","",""
"","psychophysics","23","302751","0.0-23.0","612648079fa0866dd2bce10b","6257282fc99b23dda33d61f6","","","","","10343","key"," "," ","16.66691437802909","499.7083333333333","249.575","instPog","","","","","130","130",""
"","psychophysics","24","312071","0.0-24.0","612648079fa0866dd2bce10b","6257282fc99b23dda33d61f6","","","","","9319","key"," "," ","16.664838709677387","499.7083333333333","249.575","instPog","","","","","135","130",""
"","psychophysics","25","322726","0.0-25.0","612648079fa0866dd2bce10b","6257282fc99b23dda33d61f6","","","","","10653","key"," "," ","16.66475743348978","499.7083333333333","249.575","instPog","","","","","140","130",""
"","psychophysics","26","324694","0.0-26.0","612648079fa0866dd2bce10b","6257282fc99b23dda33d61f6","","","","","1966","key"," "," ","16.673675213674777","499.7083333333333","249.575","inst","","","","","","",""
"","psychophysics","27","332863","0.0-27.0","612648079fa0866dd2bce10b","6257282fc99b23dda33d61f6","","","","","8166","key"," "," ","16.665357873210606","499.7083333333333","249.575","pog","","","","","142","133",""
"","psychophysics","28","338391","0.0-28.0","612648079fa0866dd2bce10b","6257282fc99b23dda33d61f6","","","","","5528","key"," "," ","16.66785498489425","499.7083333333333","249.575","pog","","","","","151","138",""
"","psychophysics","29","342351","0.0-29.0","612648079fa0866dd2bce10b","6257282fc99b23dda33d61f6","","","","","3958","key"," "," ","16.66737288135593","499.7083333333333","249.575","pog","","","","","180","168",""
"","psychophysics","30","345191","0.0-30.0","612648079fa0866dd2bce10b","6257282fc99b23dda33d61f6","","","","","2839","key"," "," ","16.662823529412066","499.7083333333333","249.575","pog","","","","","150","143",""
"","psychophysics","31","351015","0.0-31.0","612648079fa0866dd2bce10b","6257282fc99b23dda33d61f6","","","","","5821","key"," "," ","16.66649425287357","499.7083333333333","249.575","pog","","","","","196","185",""
"","psychophysics","32","355319","0.0-32.0","612648079fa0866dd2bce10b","6257282fc99b23dda33d61f6","","","","","4303","key"," "," ","16.6681712062258","499.7083333333333","249.575","pog","","","","","173","165",""
"","psychophysics","33","361990","0.0-33.0","612648079fa0866dd2bce10b","6257282fc99b23dda33d61f6","","","","","6670","key"," "," ","16.66625","499.7083333333333","249.575","pog","","","","","200","180",""
"","psychophysics","34","369903","0.0-34.0","612648079fa0866dd2bce10b","6257282fc99b23dda33d61f6","","","","","7912","key"," "," ","16.6659196617337","499.7083333333333","249.575","pog","","","","","175","162",""
"","psychophysics","35","374775","0.0-35.0","612648079fa0866dd2bce10b","6257282fc99b23dda33d61f6","","","","","4870","key"," "," ","16.666917808219146","499.7083333333333","249.575","pog","","","","","152","143",""
"","psychophysics","36","377894","0.0-36.0","612648079fa0866dd2bce10b","6257282fc99b23dda33d61f6","","","","","3119","key"," "," ","16.67053763440845","499.7083333333333","249.575","pog","","","","","164","156",""
"","psychophysics","37","382047","0.0-37.0","612648079fa0866dd2bce10b","6257282fc99b23dda33d61f6","","","","","4151","key"," "," ","16.66766129032241","499.7083333333333","249.575","pog","","","","","193","182",""
"","psychophysics","38","386407","0.0-38.0","612648079fa0866dd2bce10b","6257282fc99b23dda33d61f6","","","","","4360","key"," "," ","16.662758620689583","499.7083333333333","249.575","pog","","","","","211","198",""
"","psychophysics","39","391222","0.0-39.0","612648079fa0866dd2bce10b","6257282fc99b23dda33d61f6","","","","","4813","key"," "," ","16.667083333333316","499.7083333333333","249.575","pog","","","","","204","192",""
"","psychophysics","40","404376","0.0-40.0","612648079fa0866dd2bce10b","6257282fc99b23dda33d61f6","","","","","13151","key"," "," ","16.667715736040652","499.7083333333333","249.575","pog","","","","","132","120",""
"","psychophysics","41","409887","0.0-41.0","612648079fa0866dd2bce10b","6257282fc99b23dda33d61f6","","","","","5511","key"," "," ","16.66662613981765","499.7083333333333","249.575","pog","","","","","174","163",""
"","psychophysics","42","411183","0.0-42.0","612648079fa0866dd2bce10b","6257282fc99b23dda33d61f6","","","","","1291","key"," "," ","16.662597402597644","499.7083333333333","249.575","inst","","","","","","",""
"","psychophysics","43","414168","0.0-43.0","612648079fa0866dd2bce10b","6257282fc99b23dda33d61f6","","","","","2980","key"," "," ","16.662696629213603","499.7083333333333","249.575","instTilt","","","","","NaN","0","0"
"","psychophysics","44","416943","0.0-44.0","612648079fa0866dd2bce10b","6257282fc99b23dda33d61f6","","","","","2773","key"," "," ","16.671445783132306","499.7083333333333","249.575","instTilt","","","","","-2","0","0"
"","psychophysics","45","425062","0.0-45.0","612648079fa0866dd2bce10b","6257282fc99b23dda33d61f6","","","","","8118","key"," "," ","16.665390946502068","499.7083333333333","249.575","instTilt","","","","","0","0","0"
"","psychophysics","46","433959","0.0-46.0","612648079fa0866dd2bce10b","6257282fc99b23dda33d61f6","","","","","8896","key"," "," ","16.667317073170718","499.7083333333333","249.575","inst","","","","","","",""
"","psychophysics","47","436879","0.0-47.0","612648079fa0866dd2bce10b","6257282fc99b23dda33d61f6","","","","","2919","key"," "," ","16.67045977011513","499.7083333333333","249.575","tilt","","","","","5","3","0"
"","psychophysics","48","439527","0.0-48.0","612648079fa0866dd2bce10b","6257282fc99b23dda33d61f6","","","","","2644","key"," "," ","16.662784810126773","499.7083333333333","249.575","tilt","","","","","0","0","1"
"","psychophysics","49","442663","0.0-49.0","612648079fa0866dd2bce10b","6257282fc99b23dda33d61f6","","","","","3133","key"," "," ","16.668663101604167","499.7083333333333","249.575","tilt","","","","","-7","-7","1"
"","psychophysics","50","444863","0.0-50.0","612648079fa0866dd2bce10b","6257282fc99b23dda33d61f6","","","","","2197","key"," "," ","16.662748091603106","499.7083333333333","249.575","tilt","","","","","3","4","1"
"","psychophysics","51","447494","0.0-51.0","612648079fa0866dd2bce10b","6257282fc99b23dda33d61f6","","","","","2628","key"," "," ","16.67031847133752","499.7083333333333","249.575","tilt","","","","","0","2","1"
"","psychophysics","52","451966","0.0-52.0","612648079fa0866dd2bce10b","6257282fc99b23dda33d61f6","","","","","4469","key"," "," ","16.667415730337122","499.7083333333333","249.575","tilt","","","","","-3","-4","0"
"","psychophysics","53","453158","0.0-53.0","612648079fa0866dd2bce10b","6257282fc99b23dda33d61f6","","","","","1189","key"," "," ","16.66281690140842","499.7083333333333","249.575","tilt","","","","","0","1","1"
"","psychophysics","54","455423","0.0-54.0","612648079fa0866dd2bce10b","6257282fc99b23dda33d61f6","","","","","2263","key"," "," ","16.662814814814677","499.7083333333333","249.575","tilt","","","","","-7","-8","0"
"","psychophysics","55","457951","0.0-55.0","612648079fa0866dd2bce10b","6257282fc99b23dda33d61f6","","","","","2525","key"," "," ","16.66279999999989","499.7083333333333","249.575","tilt","","","","","10","9","0"
"","psychophysics","56","460479","0.0-56.0","612648079fa0866dd2bce10b","6257282fc99b23dda33d61f6","","","","","2526","key"," "," ","16.673377483443662","499.7083333333333","249.575","tilt","","","","","8","8","1"
"","psychophysics","57","462991","0.0-57.0","612648079fa0866dd2bce10b","6257282fc99b23dda33d61f6","","","","","2510","key"," "," ","16.66279999999989","499.7083333333333","249.575","tilt","","","","","-10","-9","1"
"","psychophysics","58","466487","0.0-58.0","612648079fa0866dd2bce10b","6257282fc99b23dda33d61f6","","","","","3493","key"," "," ","16.66903846153834","499.7083333333333","249.575","tilt","","","","","-11","-9","1"
"","psychophysics","59","467672","0.0-59.0","612648079fa0866dd2bce10b","6257282fc99b23dda33d61f6","","","","","1181","key"," "," ","16.662857142856645","499.7083333333333","249.575","tilt","","","","","0","1","0"
"","psychophysics","60","470367","0.0-60.0","612648079fa0866dd2bce10b","6257282fc99b23dda33d61f6","","","","","2693","key"," "," ","16.662857142856968","499.7083333333333","249.575","tilt","","","","","5","9","0"
"","psychophysics","61","473023","0.0-61.0","612648079fa0866dd2bce10b","6257282fc99b23dda33d61f6","","","","","2654","key"," "," ","16.672327044024936","499.7083333333333","249.575","tilt","","","","","-4","-9","0"
"","psychophysics","62","475190","0.0-62.0","612648079fa0866dd2bce10b","6257282fc99b23dda33d61f6","","","","","2164","key"," "," ","16.662790697674417","499.7083333333333","249.575","tilt","","","","","7","7","0"
"","psychophysics","63","477670","0.0-63.0","612648079fa0866dd2bce10b","6257282fc99b23dda33d61f6","","","","","2479","key"," "," ","16.671700680272046","499.7083333333333","249.575","tilt","","","","","-3","-4","0"
"","psychophysics","64","478886","0.0-64.0","612648079fa0866dd2bce10b","6257282fc99b23dda33d61f6","","","","","1213","key"," "," ","16.66277777777739","499.7083333333333","249.575","tilt","","","","","0","-2","0"
"","psychophysics","65","480798","0.0-65.0","612648079fa0866dd2bce10b","6257282fc99b23dda33d61f6","","","","","1907","key"," "," ","16.66280701754384","499.7083333333333","249.575","tilt","","","","","5","7","0"
"","psychophysics","66","483175","0.0-66.0","612648079fa0866dd2bce10b","6257282fc99b23dda33d61f6","","","","","2374","key"," "," ","16.671408450703996","499.7083333333333","249.575","tilt","","","","","-7","-7","1"
"","psychophysics","67","485710","0.0-67.0","612648079fa0866dd2bce10b","6257282fc99b23dda33d61f6","","","","","2532","key"," "," ","16.662781456953365","499.7083333333333","249.575","tilt","","","","","9","5","0"
"","psychophysics","68","488102","0.0-68.0","612648079fa0866dd2bce10b","6257282fc99b23dda33d61f6","","","","","2390","key"," "," ","16.67239436619705","499.7083333333333","249.575","tilt","","","","","6","4","0"
"","psychophysics","69","490086","0.0-69.0","612648079fa0866dd2bce10b","6257282fc99b23dda33d61f6","","","","","1983","key"," "," ","16.662881355931965","499.7083333333333","249.575","tilt","","","","","-4","-9","0"
"","psychophysics","70","491878","0.0-70.0","612648079fa0866dd2bce10b","6257282fc99b23dda33d61f6","","","","","1791","key"," "," ","16.66280373831815","499.7083333333333","249.575","tilt","","","","","-2","-4","0"
"","psychophysics","71","494063","0.0-71.0","612648079fa0866dd2bce10b","6257282fc99b23dda33d61f6","","","","","2182","key"," "," ","16.66276923076948","499.7083333333333","249.575","tilt","","","","","-3","-1","1"
"","psychophysics","72","495151","0.0-72.0","612648079fa0866dd2bce10b","6257282fc99b23dda33d61f6","","","","","1087","key"," "," ","16.662812499999745","499.7083333333333","249.575","tilt","","","","","0","3","1"
"","psychophysics","73","498599","0.0-73.0","612648079fa0866dd2bce10b","6257282fc99b23dda33d61f6","","","","","3444","key"," "," ","16.671067961165285","499.7083333333333","249.575","tilt","","","","","-8","-9","0"
"","psychophysics","74","501431","0.0-74.0","612648079fa0866dd2bce10b","6257282fc99b23dda33d61f6","","","","","2829","key"," "," ","16.667573964497084","499.7083333333333","249.575","tilt","","","","","4","0","0"
"","psychophysics","75","503478","0.0-75.0","612648079fa0866dd2bce10b","6257282fc99b23dda33d61f6","","","","","2045","key"," "," ","16.662786885246263","499.7083333333333","249.575","tilt","","","","","5","10","1"
"","psychophysics","76","505039","0.0-76.0","612648079fa0866dd2bce10b","6257282fc99b23dda33d61f6","","","","","1557","key"," "," ","16.675053763440534","499.7083333333333","249.575","tilt","","","","","5","7","1"
"","psychophysics","77","506206","0.0-77.0","612648079fa0866dd2bce10b","6257282fc99b23dda33d61f6","","","","","1165","key"," "," ","16.662898550724503","499.7083333333333","249.575","inst","","","","","","",""
"","psychophysics","78","507911","0.0-78.0","612648079fa0866dd2bce10b","6257282fc99b23dda33d61f6","","","","","1701","key"," "," ","16.662772277227745","499.7083333333333","249.575","instPz","","","","","50","50",""
