"success","trial_type","trial_index","time_elapsed","internal_node_id","pid","sid","timeout","failed_images","failed_audio","failed_video","rt","response_type","key_press","response","avg_frame_time","center_x","center_y","task","ml_len","ml_start","ml_x","ml_y","resp","targ","back"
"true","fullscreen","0","2590","0.0-0.0","5484949efdf99b0379939cc6","625756be5d5907f0f74e914b","","","","","","","","","","","","","","","","","","",""
"true","preload","1","2591","0.0-1.0","5484949efdf99b0379939cc6","625756be5d5907f0f74e914b","false","[]","[]","[]","","","","","","","","","","","","","","",""
"","psychophysics","2","8160","0.0-2.0","5484949efdf99b0379939cc6","625756be5d5907f0f74e914b","","","","","5554","key"," "," ","16.659520958083835","500","250","inst","","","","","","",""
"","psychophysics","3","9166","0.0-3.0","5484949efdf99b0379939cc6","625756be5d5907f0f74e914b","","","","","1003","key"," "," ","16.697627118644064","500","250","inst","","","","","","",""
"","psychophysics","4","20052","0.0-4.0","5484949efdf99b0379939cc6","625756be5d5907f0f74e914b","","","","","10883","key"," "," ","16.696958525345625","500","250","instMl","234","-39","-16","-14","-24","",""
"","psychophysics","5","28838","0.0-5.0","5484949efdf99b0379939cc6","625756be5d5907f0f74e914b","","","","","8786","key"," "," ","16.69695238095238","500","250","instMl","192","-32","27","25","-21","",""
"","psychophysics","6","31280","0.0-6.0","5484949efdf99b0379939cc6","625756be5d5907f0f74e914b","","","","","2441","key"," "," ","16.696827586206904","500","250","inst","","","","","","",""
"","psychophysics","7","36108","0.0-7.0","5484949efdf99b0379939cc6","625756be5d5907f0f74e914b","","","","","4825","key"," "," ","16.697024221453294","500","250","ml","240","16","-26","-10","-21","",""
"","psychophysics","8","39344","0.0-8.0","5484949efdf99b0379939cc6","625756be5d5907f0f74e914b","","","","","3237","key"," "," ","16.696875000000016","500","250","ml","208","-28","17","-19","-24","",""
"","psychophysics","9","45238","0.0-9.0","5484949efdf99b0379939cc6","625756be5d5907f0f74e914b","","","","","5892","key"," "," ","16.69687500000001","500","250","ml","158","28","-17","-21","-18","",""
"","psychophysics","10","48197","0.0-10.0","5484949efdf99b0379939cc6","625756be5d5907f0f74e914b","","","","","2957","key"," "," ","16.69706214689268","500","250","ml","150","-25","-30","12","-19","",""
"","psychophysics","11","54315","0.0-11.0","5484949efdf99b0379939cc6","625756be5d5907f0f74e914b","","","","","6119","key"," "," ","16.696931506849328","500","250","ml","194","47","-9","27","-19","",""
"","psychophysics","12","56693","0.0-12.0","5484949efdf99b0379939cc6","625756be5d5907f0f74e914b","","","","","2374","key"," "," ","16.697304964539004","500","250","ml","174","-13","-13","29","-23","",""
"","psychophysics","13","60438","0.0-13.0","5484949efdf99b0379939cc6","625756be5d5907f0f74e914b","","","","","3744","key"," "," ","16.69669642857145","500","250","ml","236","6","-21","11","-22","",""
"","psychophysics","14","64345","0.0-14.0","5484949efdf99b0379939cc6","625756be5d5907f0f74e914b","","","","","3906","key"," "," ","16.696995708154514","500","250","ml","206","10","-10","15","-20","",""
"","psychophysics","15","67407","0.0-15.0","5484949efdf99b0379939cc6","625756be5d5907f0f74e914b","","","","","3060","key"," "," ","16.696703296703312","500","250","ml","172","9","-19","-26","-12","",""
"","psychophysics","16","70292","0.0-16.0","5484949efdf99b0379939cc6","625756be5d5907f0f74e914b","","","","","2883","key"," "," ","16.69720930232557","500","250","ml","182","-25","-30","30","-19","",""
"","psychophysics","17","72803","0.0-17.0","5484949efdf99b0379939cc6","625756be5d5907f0f74e914b","","","","","2503","key"," "," ","16.697181208053724","500","250","ml","230","-12","-7","-20","-22","",""
"","psychophysics","18","76143","0.0-18.0","5484949efdf99b0379939cc6","625756be5d5907f0f74e914b","","","","","3337","key"," "," ","16.696683417085424","500","250","ml","226","1","2","20","-22","",""
"","psychophysics","19","80422","0.0-19.0","5484949efdf99b0379939cc6","625756be5d5907f0f74e914b","","","","","4278","key"," "," ","16.696875000000034","500","250","ml","226","49","-13","10","-18","",""
"","psychophysics","20","83990","0.0-20.0","5484949efdf99b0379939cc6","625756be5d5907f0f74e914b","","","","","3568","key"," "," ","16.69716981132077","500","250","ml","158","-26","5","29","-19","",""
"","psychophysics","21","86367","0.0-21.0","5484949efdf99b0379939cc6","625756be5d5907f0f74e914b","","","","","2371","key"," "," ","16.69690140845075","500","250","ml","214","-7","-15","0","-22","",""
"","psychophysics","22","87309","0.0-22.0","5484949efdf99b0379939cc6","625756be5d5907f0f74e914b","","","","","940","key"," "," ","16.69599999999998","500","250","inst","","","","","","",""
"","psychophysics","23","98490","0.0-23.0","5484949efdf99b0379939cc6","625756be5d5907f0f74e914b","","","","","11180","key"," "," ","16.696980568011956","500","250","instPog","","","","","130","130",""
"","psychophysics","24","105964","0.0-24.0","5484949efdf99b0379939cc6","625756be5d5907f0f74e914b","","","","","7473","key"," "," ","16.696905829596428","500","250","instPog","","","","","131","130",""
"","psychophysics","25","110127","0.0-25.0","5484949efdf99b0379939cc6","625756be5d5907f0f74e914b","","","","","4162","key"," "," ","16.696947791164632","500","250","instPog","","","","","146","130",""
"","psychophysics","26","111092","0.0-26.0","5484949efdf99b0379939cc6","625756be5d5907f0f74e914b","","","","","964","key"," "," ","16.696428571428573","500","250","inst","","","","","","",""
"","psychophysics","27","119796","0.0-27.0","5484949efdf99b0379939cc6","625756be5d5907f0f74e914b","","","","","8704","key"," "," ","16.69700575815739","500","250","pog","","","","","168","160",""
"","psychophysics","28","123731","0.0-28.0","5484949efdf99b0379939cc6","625756be5d5907f0f74e914b","","","","","3936","key"," "," ","16.696851063829826","500","250","pog","","","","","127","121",""
"","psychophysics","29","128441","0.0-29.0","5484949efdf99b0379939cc6","625756be5d5907f0f74e914b","","","","","4709","key"," "," ","16.696868327402107","500","250","pog","","","","","187","178",""
"","psychophysics","30","131102","0.0-30.0","5484949efdf99b0379939cc6","625756be5d5907f0f74e914b","","","","","2658","key"," "," ","16.69721518987344","500","250","pog","","","","","159","149",""
"","psychophysics","31","134378","0.0-31.0","5484949efdf99b0379939cc6","625756be5d5907f0f74e914b","","","","","3274","key"," "," ","16.697128205128216","500","250","pog","","","","","149","137",""
"","psychophysics","32","142461","0.0-32.0","5484949efdf99b0379939cc6","625756be5d5907f0f74e914b","","","","","8082","key"," "," ","16.696853002070366","500","250","pog","","","","","200","196",""
"","psychophysics","33","144870","0.0-33.0","5484949efdf99b0379939cc6","625756be5d5907f0f74e914b","","","","","2404","key"," "," ","16.696944444444348","500","250","pog","","","","","154","149",""
"","psychophysics","34","149090","0.0-34.0","5484949efdf99b0379939cc6","625756be5d5907f0f74e914b","","","","","4219","key"," "," ","16.696892430278936","500","250","pog","","","","","135","131",""
"","psychophysics","35","153223","0.0-35.0","5484949efdf99b0379939cc6","625756be5d5907f0f74e914b","","","","","4133","key"," "," ","16.696761133603264","500","250","pog","","","","","140","133",""
"","psychophysics","36","163741","0.0-36.0","5484949efdf99b0379939cc6","625756be5d5907f0f74e914b","","","","","10517","key"," "," ","16.69701112877581","500","250","pog","","","","","199","191",""
"","psychophysics","37","168830","0.0-37.0","5484949efdf99b0379939cc6","625756be5d5907f0f74e914b","","","","","5089","key"," "," ","16.696907894736892","500","250","pog","","","","","125","123",""
"","psychophysics","38","171752","0.0-38.0","5484949efdf99b0379939cc6","625756be5d5907f0f74e914b","","","","","2921","key"," "," ","16.69712643678171","500","250","pog","","","","","166","156",""
"","psychophysics","39","178752","0.0-39.0","5484949efdf99b0379939cc6","625756be5d5907f0f74e914b","","","","","6999","key"," "," ","16.696937799043077","500","250","pog","","","","","192","185",""
"","psychophysics","40","185368","0.0-40.0","5484949efdf99b0379939cc6","625756be5d5907f0f74e914b","","","","","6615","key"," "," ","16.696962025316427","500","250","pog","","","","","172","162",""
"","psychophysics","41","189822","0.0-41.0","5484949efdf99b0379939cc6","625756be5d5907f0f74e914b","","","","","4453","key"," "," ","16.696691729323334","500","250","pog","","","","","154","143",""
"","psychophysics","42","191003","0.0-42.0","5484949efdf99b0379939cc6","625756be5d5907f0f74e914b","","","","","1179","key"," "," ","16.697681159420494","500","250","inst","","","","","","",""
"","psychophysics","43","193891","0.0-43.0","5484949efdf99b0379939cc6","625756be5d5907f0f74e914b","","","","","2887","key"," "," ","16.696994219653106","500","250","instTilt","","","","","NaN","0","0"
"","psychophysics","44","197752","0.0-44.0","5484949efdf99b0379939cc6","625756be5d5907f0f74e914b","","","","","3860","key"," "," ","16.696782608695692","500","250","instTilt","","","","","-20","0","0"
"","psychophysics","45","204784","0.0-45.0","5484949efdf99b0379939cc6","625756be5d5907f0f74e914b","","","","","7033","key"," "," ","16.697000000000045","500","250","instTilt","","","","","1","0","0"
"","psychophysics","46","206575","0.0-46.0","5484949efdf99b0379939cc6","625756be5d5907f0f74e914b","","","","","1780","key"," "," ","16.69735849056616","500","250","inst","","","","","","",""
"","psychophysics","47","210898","0.0-47.0","5484949efdf99b0379939cc6","625756be5d5907f0f74e914b","","","","","4322","key"," "," ","16.696821705426352","500","250","tilt","","","","","4","2","0"
"","psychophysics","48","215045","0.0-48.0","5484949efdf99b0379939cc6","625756be5d5907f0f74e914b","","","","","4147","key"," "," ","16.696680161943267","500","250","tilt","","","","","-3","-1","1"
"","psychophysics","49","217251","0.0-49.0","5484949efdf99b0379939cc6","625756be5d5907f0f74e914b","","","","","2205","key"," "," ","16.69727272727279","500","250","tilt","","","","","5","8","1"
"","psychophysics","50","222053","0.0-50.0","5484949efdf99b0379939cc6","625756be5d5907f0f74e914b","","","","","4793","key"," "," ","16.696923076923103","500","250","tilt","","","","","-2","0","1"
"","psychophysics","51","224836","0.0-51.0","5484949efdf99b0379939cc6","625756be5d5907f0f74e914b","","","","","2775","key"," "," ","16.69674698795183","500","250","tilt","","","","","5","9","1"
"","psychophysics","52","228553","0.0-52.0","5484949efdf99b0379939cc6","625756be5d5907f0f74e914b","","","","","3715","key"," "," ","16.69710407239818","500","250","tilt","","","","","7","2","0"
"","psychophysics","53","231795","0.0-53.0","5484949efdf99b0379939cc6","625756be5d5907f0f74e914b","","","","","3241","key"," "," ","16.69659793814425","500","250","tilt","","","","","-8","-5","1"
"","psychophysics","54","237496","0.0-54.0","5484949efdf99b0379939cc6","625756be5d5907f0f74e914b","","","","","5700","key"," "," ","16.69705882352941","500","250","tilt","","","","","3","7","1"
"","psychophysics","55","242370","0.0-55.0","5484949efdf99b0379939cc6","625756be5d5907f0f74e914b","","","","","4873","key"," "," ","16.69704467353951","500","250","tilt","","","","","1","2","0"
"","psychophysics","56","247884","0.0-56.0","5484949efdf99b0379939cc6","625756be5d5907f0f74e914b","","","","","5513","key"," "," ","16.697021276595766","500","250","tilt","","","","","-8","-10","0"
"","psychophysics","57","250296","0.0-57.0","5484949efdf99b0379939cc6","625756be5d5907f0f74e914b","","","","","2411","key"," "," ","16.69722222222218","500","250","tilt","","","","","4","4","1"
"","psychophysics","58","256602","0.0-58.0","5484949efdf99b0379939cc6","625756be5d5907f0f74e914b","","","","","6305","key"," "," ","16.696755319148963","500","250","tilt","","","","","4","2","0"
"","psychophysics","59","260154","0.0-59.0","5484949efdf99b0379939cc6","625756be5d5907f0f74e914b","","","","","3552","key"," "," ","16.69735849056602","500","250","tilt","","","","","-5","1","1"
"","psychophysics","60","263894","0.0-60.0","5484949efdf99b0379939cc6","625756be5d5907f0f74e914b","","","","","3739","key"," "," ","16.696681614349842","500","250","tilt","","","","","6","9","1"
"","psychophysics","61","269394","0.0-61.0","5484949efdf99b0379939cc6","625756be5d5907f0f74e914b","","","","","5500","key"," "," ","16.697012195121935","500","250","tilt","","","","","0","4","1"
"","psychophysics","62","274334","0.0-62.0","5484949efdf99b0379939cc6","625756be5d5907f0f74e914b","","","","","4938","key"," "," ","16.696745762711792","500","250","tilt","","","","","5","5","0"
"","psychophysics","63","278459","0.0-63.0","5484949efdf99b0379939cc6","625756be5d5907f0f74e914b","","","","","4123","key"," "," ","16.6972357723578","500","250","tilt","","","","","1","-3","0"
"","psychophysics","64","282055","0.0-64.0","5484949efdf99b0379939cc6","625756be5d5907f0f74e914b","","","","","3594","key"," "," ","16.69683720930209","500","250","tilt","","","","","10","9","0"
"","psychophysics","65","287030","0.0-65.0","5484949efdf99b0379939cc6","625756be5d5907f0f74e914b","","","","","4973","key"," "," ","16.696835016835088","500","250","tilt","","","","","9","9","0"
"","psychophysics","66","290914","0.0-66.0","5484949efdf99b0379939cc6","625756be5d5907f0f74e914b","","","","","3882","key"," "," ","16.696969696969695","500","250","tilt","","","","","-3","-6","0"
"","psychophysics","67","293915","0.0-67.0","5484949efdf99b0379939cc6","625756be5d5907f0f74e914b","","","","","3000","key"," "," ","16.696871508380163","500","250","tilt","","","","","-2","-4","0"
"","psychophysics","68","296056","0.0-68.0","5484949efdf99b0379939cc6","625756be5d5907f0f74e914b","","","","","2140","key"," "," ","16.697480314960757","500","250","tilt","","","","","2","3","1"
"","psychophysics","69","299119","0.0-69.0","5484949efdf99b0379939cc6","625756be5d5907f0f74e914b","","","","","3061","key"," "," ","16.69661202185782","500","250","tilt","","","","","7","9","0"
"","psychophysics","70","301270","0.0-70.0","5484949efdf99b0379939cc6","625756be5d5907f0f74e914b","","","","","2151","key"," "," ","16.697343750000073","500","250","tilt","","","","","-3","-7","0"
"","psychophysics","71","304921","0.0-71.0","5484949efdf99b0379939cc6","625756be5d5907f0f74e914b","","","","","3650","key"," "," ","16.69695852534558","500","250","tilt","","","","","9","8","0"
"","psychophysics","72","307504","0.0-72.0","5484949efdf99b0379939cc6","625756be5d5907f0f74e914b","","","","","2582","key"," "," ","16.697012987013153","500","250","tilt","","","","","3","7","1"
"","psychophysics","73","313133","0.0-73.0","5484949efdf99b0379939cc6","625756be5d5907f0f74e914b","","","","","5627","key"," "," ","16.696964285714266","500","250","tilt","","","","","7","7","0"
"","psychophysics","74","316017","0.0-74.0","5484949efdf99b0379939cc6","625756be5d5907f0f74e914b","","","","","2883","key"," "," ","16.6968604651162","500","250","tilt","","","","","2","6","1"
"","psychophysics","75","317975","0.0-75.0","5484949efdf99b0379939cc6","625756be5d5907f0f74e914b","","","","","1959","key"," "," ","16.697068965517122","500","250","tilt","","","","","2","-1","0"
"","psychophysics","76","320880","0.0-76.0","5484949efdf99b0379939cc6","625756be5d5907f0f74e914b","","","","","2903","key"," "," ","16.697456647398695","500","250","tilt","","","","","-1","1","1"
"","psychophysics","77","322702","0.0-77.0","5484949efdf99b0379939cc6","625756be5d5907f0f74e914b","","","","","1821","key"," "," ","16.696296296296403","500","250","inst","","","","","","",""
"","psychophysics","78","324823","0.0-78.0","5484949efdf99b0379939cc6","625756be5d5907f0f74e914b","","","","","2119","key"," "," ","16.69650793650801","500","250","instPz","","","","","50","50",""
"","psychophysics","79","329033","0.0-79.0","5484949efdf99b0379939cc6","625756be5d5907f0f74e914b","","","","","4210","key"," "," ","16.696972111553794","500","250","instPz","","","","","15","50",""
"","psychophysics","80","332928","0.0-80.0","5484949efdf99b0379939cc6","625756be5d5907f0f74e914b","","","","","3887","key"," "," ","16.697081545064307","500","250","instPz","","","","","34","30",""
"","psychophysics","81","339681","0.0-81.0","5484949efdf99b0379939cc6","625756be5d5907f0f74e914b","","","","","6754","key"," "," ","16.696873449131576","500","250","instPz","","","","","37","40",""
"","psychophysics","82","340661","0.0-82.0","5484949efdf99b0379939cc6","625756be5d5907f0f74e914b","","","","","978","key"," "," ","16.698275862068964","500","250","inst","","","","","","",""
"","psychophysics","83","345794","0.0-83.0","5484949efdf99b0379939cc6","625756be5d5907f0f74e914b","","","","","5131","key"," "," ","16.69686274509801","500","250","pz","","","","","51","55",""
"","psychophysics","84","348796","0.0-84.0","5484949efdf99b0379939cc6","625756be5d5907f0f74e914b","","","","","3001","key"," "," ","16.69720670391055","500","250","pz","","","","","23","23",""
"","psychophysics","85","354588","0.0-85.0","5484949efdf99b0379939cc6","625756be5d5907f0f74e914b","","","","","5782","key"," "," ","16.69693641618501","500","250","pz","","","","","53","48",""
"","psychophysics","86","358397","0.0-86.0","5484949efdf99b0379939cc6","625756be5d5907f0f74e914b","","","","","3808","key"," "," ","16.697092511013174","500","250","pz","","","","","57","52",""
"","psychophysics","87","362000","0.0-87.0","5484949efdf99b0379939cc6","625756be5d5907f0f74e914b","","","","","3602","key"," "," ","16.69702325581389","500","250","pz","","","","","43","44",""
"","psychophysics","88","365174","0.0-88.0","5484949efdf99b0379939cc6","625756be5d5907f0f74e914b","","","","","3173","key"," "," ","16.69671957671954","500","250","pz","","","","","27","26",""
"","psychophysics","89","369034","0.0-89.0","5484949efdf99b0379939cc6","625756be5d5907f0f74e914b","","","","","3860","key"," "," ","16.6970434782609","500","250","pz","","","","","49","46",""
"","psychophysics","90","373958","0.0-90.0","5484949efdf99b0379939cc6","625756be5d5907f0f74e914b","","","","","4918","key"," "," ","16.696734693877637","500","250","pz","","","","","57","53",""
"","psychophysics","91","378428","0.0-91.0","5484949efdf99b0379939cc6","625756be5d5907f0f74e914b","","","","","4470","key"," "," ","16.697078651685377","500","250","pz","","","","","67","60",""
"","psychophysics","92","381161","0.0-92.0","5484949efdf99b0379939cc6","625756be5d5907f0f74e914b","","","","","2731","key"," "," ","16.697037037036935","500","250","pz","","","","","24","24",""
"","psychophysics","93","384925","0.0-93.0","5484949efdf99b0379939cc6","625756be5d5907f0f74e914b","","","","","3764","key"," "," ","16.69697777777781","500","250","pz","","","","","31","27",""
"","psychophysics","94","389474","0.0-94.0","5484949efdf99b0379939cc6","625756be5d5907f0f74e914b","","","","","4549","key"," "," ","16.69653136531369","500","250","pz","","","","","39","34",""
"","psychophysics","95","393532","0.0-95.0","5484949efdf99b0379939cc6","625756be5d5907f0f74e914b","","","","","4054","key"," "," ","16.69727272727269","500","250","pz","","","","","35","30",""
"","psychophysics","96","396795","0.0-96.0","5484949efdf99b0379939cc6","625756be5d5907f0f74e914b","","","","","3262","key"," "," ","16.696820512820537","500","250","pz","","","","","29","25",""
"","psychophysics","97","400724","0.0-97.0","5484949efdf99b0379939cc6","625756be5d5907f0f74e914b","","","","","3928","key"," "," ","16.696923076922896","500","250","pz","","","","","60","47",""
"","psychophysics","98","401746","0.0-98.0","5484949efdf99b0379939cc6","625756be5d5907f0f74e914b","","","","","1021","key"," "," ","16.697666666667406","500","250","inst","","","","","","",""
"","psychophysics","99","403394","0.0-99.0","5484949efdf99b0379939cc6","625756be5d5907f0f74e914b","","","","","1647","key"," "," ","16.69693877551068","500","250","inst","","","","","","",""
"","psychophysics","100","410565","0.0-100.0","5484949efdf99b0379939cc6","625756be5d5907f0f74e914b","","","","","7170","key"," "," ","16.696822429906522","500","250","instFlank","","","","","0.5","0.3","1"
"","psychophysics","101","414979","0.0-101.0","5484949efdf99b0379939cc6","625756be5d5907f0f74e914b","","","","","4414","key"," "," ","16.696969696969695","500","250","inst","","","","","","",""
"","psychophysics","102","419615","0.0-102.0","5484949efdf99b0379939cc6","625756be5d5907f0f74e914b","","","","","4634","key"," "," ","16.69673913043474","500","250","instFlank","","","","","0.2899999999999998","0.3","1"
"","psychophysics","103","422581","0.0-103.0","5484949efdf99b0379939cc6","625756be5d5907f0f74e914b","","","","","2964","key"," "," ","16.69728813559313","500","250","inst","","","","","","",""
"","psychophysics","104","426019","0.0-104.0","5484949efdf99b0379939cc6","625756be5d5907f0f74e914b","","","","","3437","key"," "," ","16.6965853658536","500","250","instFlank","","","","","0.43999999999999995","0.3","0"
"","psychophysics","105","426966","0.0-105.0","5484949efdf99b0379939cc6","625756be5d5907f0f74e914b","","","","","947","key"," "," ","16.697142857143522","500","250","inst","","","","","","",""
"","psychophysics","106","429546","0.0-106.0","5484949efdf99b0379939cc6","625756be5d5907f0f74e914b","","","","","2577","key"," "," ","16.69712418300675","500","250","flank","","","","","0.53","0.48","0"
"","psychophysics","107","432852","0.0-107.0","5484949efdf99b0379939cc6","625756be5d5907f0f74e914b","","","","","3305","key"," "," ","16.69705583756319","500","250","flank","","","","","0.7400000000000002","0.68","1"
"","psychophysics","108","435415","0.0-108.0","5484949efdf99b0379939cc6","625756be5d5907f0f74e914b","","","","","2562","key"," "," ","16.69686274509801","500","250","flank","","","","","0.43999999999999995","0.5","1"
"","psychophysics","109","438092","0.0-109.0","5484949efdf99b0379939cc6","625756be5d5907f0f74e914b","","","","","2676","key"," "," ","16.696603773584965","500","250","flank","","","","","0.6200000000000001","0.52","1"
"","psychophysics","110","440635","0.0-110.0","5484949efdf99b0379939cc6","625756be5d5907f0f74e914b","","","","","2542","key"," "," ","16.69721854304616","500","250","flank","","","","","0.47","0.24","0"
"","psychophysics","111","443162","0.0-111.0","5484949efdf99b0379939cc6","625756be5d5907f0f74e914b","","","","","2528","key"," "," ","16.696953642384045","500","250","flank","","","","","0.5900000000000001","0.38","0"
"","psychophysics","112","446106","0.0-112.0","5484949efdf99b0379939cc6","625756be5d5907f0f74e914b","","","","","2943","key"," "," ","16.697028571428465","500","250","flank","","","","","0.8000000000000003","0.76","0"
"","psychophysics","113","448949","0.0-113.0","5484949efdf99b0379939cc6","625756be5d5907f0f74e914b","","","","","2836","key"," "," ","16.696804733727866","500","250","flank","","","","","0.8000000000000003","0.68","0"
"","psychophysics","114","451878","0.0-114.0","5484949efdf99b0379939cc6","625756be5d5907f0f74e914b","","","","","2927","key"," "," ","16.69668571428562","500","250","flank","","","","","0.6200000000000001","0.58","1"
"","psychophysics","115","454598","0.0-115.0","5484949efdf99b0379939cc6","625756be5d5907f0f74e914b","","","","","2714","key"," "," ","16.697283950617415","500","250","flank","","","","","0.6800000000000002","0.52","0"
"","psychophysics","116","458154","0.0-116.0","5484949efdf99b0379939cc6","625756be5d5907f0f74e914b","","","","","3550","key"," "," ","16.696886792452787","500","250","flank","","","","","0.8600000000000003","0.8","0"
"","psychophysics","117","461566","0.0-117.0","5484949efdf99b0379939cc6","625756be5d5907f0f74e914b","","","","","3412","key"," "," ","16.69674876847292","500","250","flank","","","","","0.5900000000000001","0.52","1"
"","psychophysics","118","464576","0.0-118.0","5484949efdf99b0379939cc6","625756be5d5907f0f74e914b","","","","","3004","key"," "," ","16.697094972067195","500","250","flank","","","","","0.7400000000000002","0.7","1"
"","psychophysics","119","467486","0.0-119.0","5484949efdf99b0379939cc6","625756be5d5907f0f74e914b","","","","","2910","key"," "," ","16.696994219652936","500","250","flank","","","","","0.5","0.36","0"
"","psychophysics","120","470218","0.0-120.0","5484949efdf99b0379939cc6","625756be5d5907f0f74e914b","","","","","2730","key"," "," ","16.697055214723896","500","250","flank","","","","","0.6800000000000002","0.64","1"
"","psychophysics","121","473245","0.0-121.0","5484949efdf99b0379939cc6","625756be5d5907f0f74e914b","","","","","3025","key"," "," ","16.696888888888903","500","250","flank","","","","","0.43999999999999995","0.26","1"
"","psychophysics","122","476108","0.0-122.0","5484949efdf99b0379939cc6","625756be5d5907f0f74e914b","","","","","2862","key"," "," ","16.696959064327785","500","250","flank","","","","","0.47","0.34","1"
"","psychophysics","123","478685","0.0-123.0","5484949efdf99b0379939cc6","625756be5d5907f0f74e914b","","","","","2577","key"," "," ","16.69699346405238","500","250","flank","","","","","0.47","0.38","1"
"","psychophysics","124","481500","0.0-124.0","5484949efdf99b0379939cc6","625756be5d5907f0f74e914b","","","","","2814","key"," "," ","16.69714285714283","500","250","flank","","","","","0.7700000000000002","0.7","0"
"","psychophysics","125","484451","0.0-125.0","5484949efdf99b0379939cc6","625756be5d5907f0f74e914b","","","","","2950","key"," "," ","16.69668571428562","500","250","flank","","","","","0.7400000000000002","0.7","1"
"","psychophysics","126","487696","0.0-126.0","5484949efdf99b0379939cc6","625756be5d5907f0f74e914b","","","","","3243","key"," "," ","16.69731958762901","500","250","flank","","","","","0.8900000000000003","0.78","0"
"","psychophysics","127","490909","0.0-127.0","5484949efdf99b0379939cc6","625756be5d5907f0f74e914b","","","","","3212","key"," "," ","16.69654450261769","500","250","flank","","","","","0.31999999999999984","0.22","1"
"","psychophysics","128","494169","0.0-128.0","5484949efdf99b0379939cc6","625756be5d5907f0f74e914b","","","","","3261","key"," "," ","16.696923076922896","500","250","flank","","","","","0.34999999999999987","0.2","0"
"","psychophysics","129","497537","0.0-129.0","5484949efdf99b0379939cc6","625756be5d5907f0f74e914b","","","","","3367","key"," "," ","16.697000000000116","500","250","flank","","","","","0.8600000000000003","0.78","0"
"","psychophysics","130","500779","0.0-130.0","5484949efdf99b0379939cc6","625756be5d5907f0f74e914b","","","","","3243","key"," "," ","16.696994818652644","500","250","flank","","","","","0.7700000000000002","0.74","0"
"","psychophysics","131","504262","0.0-131.0","5484949efdf99b0379939cc6","625756be5d5907f0f74e914b","","","","","3481","key"," "," ","16.696923076923177","500","250","flank","","","","","0.7100000000000002","0.5","1"
"","psychophysics","132","507223","0.0-132.0","5484949efdf99b0379939cc6","625756be5d5907f0f74e914b","","","","","2959","key"," "," ","16.696590909091107","500","250","flank","","","","","0.47","0.54","1"
"","psychophysics","133","510335","0.0-133.0","5484949efdf99b0379939cc6","625756be5d5907f0f74e914b","","","","","3111","key"," "," ","16.69709677419341","500","250","flank","","","","","0.43999999999999995","0.26","0"
"","psychophysics","134","513082","0.0-134.0","5484949efdf99b0379939cc6","625756be5d5907f0f74e914b","","","","","2746","key"," "," ","16.69680981595102","500","250","flank","","","","","0.6800000000000002","0.64","1"
"","psychophysics","135","516019","0.0-135.0","5484949efdf99b0379939cc6","625756be5d5907f0f74e914b","","","","","2935","key"," "," ","16.697142857142858","500","250","flank","","","","","0.7700000000000002","0.64","0"
"true","fullscreen","136","516020","0.0-136.0","5484949efdf99b0379939cc6","625756be5d5907f0f74e914b","","","","","","","","","","","","","","","","","","",""
"true","fullscreen","0","2440","0.0-0.0","55a43278fdf99b02ff6caf89","625756e3113fd948da0cbae4","","","","","","","","","","","","","","","","","","",""
"true","preload","1","2442","0.0-1.0","55a43278fdf99b02ff6caf89","625756e3113fd948da0cbae4","false","[]","[]","[]","","","","","","","","","","","","","","",""
"","psychophysics","2","5284","0.0-2.0","55a43278fdf99b02ff6caf89","625756e3113fd948da0cbae4","","","","","2837","key"," "," ","16.596374269005846","500","250","inst","","","","","","",""
"","psychophysics","3","6367","0.0-3.0","55a43278fdf99b02ff6caf89","625756e3113fd948da0cbae4","","","","","1081","key"," "," ","16.666562500000012","500","250","inst","","","","","","",""
"","psychophysics","4","33462","0.0-4.0","55a43278fdf99b02ff6caf89","625756e3113fd948da0cbae4","","","","","27088","key"," "," ","16.667253694581284","500","250","instMl","152","-25.333333333333332","18","10","-12.333333333333258","",""
"","psychophysics","5","44070","0.0-5.0","55a43278fdf99b02ff6caf89","625756e3113fd948da0cbae4","","","","","10593","key"," "," ","16.667578616352206","500","250","instMl","212","-35.333333333333336","-19","30","-15.333333333333314","",""
"","psychophysics","6","47011","0.0-6.0","55a43278fdf99b02ff6caf89","625756e3113fd948da0cbae4","","","","","2938","key"," "," ","16.666742857142857","500","250","inst","","","","","","",""
"","psychophysics","7","53107","0.0-7.0","55a43278fdf99b02ff6caf89","625756e3113fd948da0cbae4","","","","","6092","key"," "," ","16.66668493150686","500","250","ml","172","28","29","-9","-14","",""
"","psychophysics","8","58277","0.0-8.0","55a43278fdf99b02ff6caf89","625756e3113fd948da0cbae4","","","","","5170","key"," "," ","16.666666666666668","500","250","ml","174","6","-19","15","-15","",""
"","psychophysics","9","62509","0.0-9.0","55a43278fdf99b02ff6caf89","625756e3113fd948da0cbae4","","","","","4227","key"," "," ","16.666719367588932","500","250","ml","162","28","-5","-28","-15","",""
"","psychophysics","10","65364","0.0-10.0","55a43278fdf99b02ff6caf89","625756e3113fd948da0cbae4","","","","","2852","key"," "," ","16.666705882352964","500","250","ml","184","-4","23","-29","-15","",""
"","psychophysics","11","69885","0.0-11.0","55a43278fdf99b02ff6caf89","625756e3113fd948da0cbae4","","","","","4516","key"," "," ","16.666715867158647","500","250","ml","250","62","0","-7","-22","",""
"","psychophysics","12","73174","0.0-12.0","55a43278fdf99b02ff6caf89","625756e3113fd948da0cbae4","","","","","3285","key"," "," ","16.666632653061242","500","250","ml","226","-37","16","18","-16","",""
"","psychophysics","13","76028","0.0-13.0","55a43278fdf99b02ff6caf89","625756e3113fd948da0cbae4","","","","","2847","key"," "," ","16.66658823529416","500","250","ml","174","-16","-2","-20","-17","",""
"","psychophysics","14","83861","0.0-14.0","55a43278fdf99b02ff6caf89","625756e3113fd948da0cbae4","","","","","7832","key"," "," ","16.666652452025595","500","250","ml","188","-47","13","26","-16","",""
"","psychophysics","15","88269","0.0-15.0","55a43278fdf99b02ff6caf89","625756e3113fd948da0cbae4","","","","","4403","key"," "," ","16.666666666666668","500","250","ml","244","48","-6","-7","-14","",""
"","psychophysics","16","90317","0.0-16.0","55a43278fdf99b02ff6caf89","625756e3113fd948da0cbae4","","","","","2044","key"," "," ","16.666557377049237","500","250","ml","234","-2","-3","-8","-19","",""
"","psychophysics","17","94820","0.0-17.0","55a43278fdf99b02ff6caf89","625756e3113fd948da0cbae4","","","","","4501","key"," "," ","16.666617100371774","500","250","ml","210","47","21","6","-16","",""
"","psychophysics","18","99301","0.0-18.0","55a43278fdf99b02ff6caf89","625756e3113fd948da0cbae4","","","","","4478","key"," "," ","16.66664179104479","500","250","ml","180","41","5","30","-14","",""
"","psychophysics","19","101885","0.0-19.0","55a43278fdf99b02ff6caf89","625756e3113fd948da0cbae4","","","","","2583","key"," "," ","16.666753246753203","500","250","ml","214","-31","8","-12","-20","",""
"","psychophysics","20","105270","0.0-20.0","55a43278fdf99b02ff6caf89","625756e3113fd948da0cbae4","","","","","3380","key"," "," ","16.666633663366355","500","250","ml","174","4","-19","-25","-13","",""
"","psychophysics","21","109103","0.0-21.0","55a43278fdf99b02ff6caf89","625756e3113fd948da0cbae4","","","","","3829","key"," "," ","16.66663755458517","500","250","ml","230","4","13","-28","-19","",""
"","psychophysics","22","110093","0.0-22.0","55a43278fdf99b02ff6caf89","625756e3113fd948da0cbae4","","","","","986","key"," "," ","16.66689655172402","500","250","inst","","","","","","",""
"","psychophysics","23","125853","0.0-23.0","55a43278fdf99b02ff6caf89","625756e3113fd948da0cbae4","","","","","15757","key"," "," ","16.668275132275138","500","250","instPog","","","","","130","130",""
"","psychophysics","24","135782","0.0-24.0","55a43278fdf99b02ff6caf89","625756e3113fd948da0cbae4","","","","","9926","key"," "," ","16.666666666666693","500","250","instPog","","","","","136","130",""
"","psychophysics","25","144597","0.0-25.0","55a43278fdf99b02ff6caf89","625756e3113fd948da0cbae4","","","","","8802","key"," "," ","16.667462121212147","500","250","instPog","","","","","143","130",""
"","psychophysics","26","145989","0.0-26.0","55a43278fdf99b02ff6caf89","625756e3113fd948da0cbae4","","","","","1381","key"," "," ","16.666746987951765","500","250","inst","","","","","","",""
"","psychophysics","27","150014","0.0-27.0","55a43278fdf99b02ff6caf89","625756e3113fd948da0cbae4","","","","","4019","key"," "," ","16.666666666666668","500","250","pog","","","","","140","120",""
"","psychophysics","28","157244","0.0-28.0","55a43278fdf99b02ff6caf89","625756e3113fd948da0cbae4","","","","","7222","key"," "," ","16.66669745958428","500","250","pog","","","","","150","136",""
"","psychophysics","29","160718","0.0-29.0","55a43278fdf99b02ff6caf89","625756e3113fd948da0cbae4","","","","","3472","key"," "," ","16.666666666666668","500","250","pog","","","","","148","134",""
"","psychophysics","30","167303","0.0-30.0","55a43278fdf99b02ff6caf89","625756e3113fd948da0cbae4","","","","","6580","key"," "," ","16.66668354430379","500","250","pog","","","","","211","199",""
"","psychophysics","31","170303","0.0-31.0","55a43278fdf99b02ff6caf89","625756e3113fd948da0cbae4","","","","","2997","key"," "," ","16.666592178770987","500","250","pog","","","","","141","123",""
"","psychophysics","32","177509","0.0-32.0","55a43278fdf99b02ff6caf89","625756e3113fd948da0cbae4","","","","","7203","key"," "," ","16.666635730858484","500","250","pog","","","","","210","196",""
"","psychophysics","33","181077","0.0-33.0","55a43278fdf99b02ff6caf89","625756e3113fd948da0cbae4","","","","","3565","key"," "," ","16.666666666666668","500","250","pog","","","","","165","151",""
"","psychophysics","34","183319","0.0-34.0","55a43278fdf99b02ff6caf89","625756e3113fd948da0cbae4","","","","","2239","key"," "," ","16.66661654135341","500","250","pog","","","","","168","161",""
"","psychophysics","35","186140","0.0-35.0","55a43278fdf99b02ff6caf89","625756e3113fd948da0cbae4","","","","","2814","key"," "," ","16.66662721893493","500","250","pog","","","","","148","129",""
"","psychophysics","36","194039","0.0-36.0","55a43278fdf99b02ff6caf89","625756e3113fd948da0cbae4","","","","","7897","key"," "," ","16.666680761099357","500","250","pog","","","","","190","179",""
"","psychophysics","37","203389","0.0-37.0","55a43278fdf99b02ff6caf89","625756e3113fd948da0cbae4","","","","","9346","key"," "," ","16.666678571428566","500","250","pog","","","","","145","135",""
"","psychophysics","38","205173","0.0-38.0","55a43278fdf99b02ff6caf89","625756e3113fd948da0cbae4","","","","","1780","key"," "," ","16.666792452830123","500","250","pog","","","","","160","146",""
"","psychophysics","39","211020","0.0-39.0","55a43278fdf99b02ff6caf89","625756e3113fd948da0cbae4","","","","","5845","key"," "," ","16.666685714285705","500","250","pog","","","","","139","123",""
"","psychophysics","40","213637","0.0-40.0","55a43278fdf99b02ff6caf89","625756e3113fd948da0cbae4","","","","","2615","key"," "," ","16.666666666666668","500","250","pog","","","","","159","140",""
"","psychophysics","41","219909","0.0-41.0","55a43278fdf99b02ff6caf89","625756e3113fd948da0cbae4","","","","","6268","key"," "," ","16.670399999999983","500","250","pog","","","","","208","196",""
"","psychophysics","42","220902","0.0-42.0","55a43278fdf99b02ff6caf89","625756e3113fd948da0cbae4","","","","","991","key"," "," ","16.666551724137992","500","250","inst","","","","","","",""
"","psychophysics","43","223508","0.0-43.0","55a43278fdf99b02ff6caf89","625756e3113fd948da0cbae4","","","","","2597","key"," "," ","16.666666666666668","500","250","instTilt","","","","","NaN","0","0"
"","psychophysics","44","224677","0.0-44.0","55a43278fdf99b02ff6caf89","625756e3113fd948da0cbae4","","","","","1166","key"," "," ","16.666666666666668","500","250","instTilt","","","","","0","0","0"
"","psychophysics","45","237060","0.0-45.0","55a43278fdf99b02ff6caf89","625756e3113fd948da0cbae4","","","","","12381","key"," "," ","16.66668463611859","500","250","instTilt","","","","","1","0","0"
"","psychophysics","46","238492","0.0-46.0","55a43278fdf99b02ff6caf89","625756e3113fd948da0cbae4","","","","","1430","key"," "," ","16.66658823529416","500","250","inst","","","","","","",""
"","psychophysics","47","242500","0.0-47.0","55a43278fdf99b02ff6caf89","625756e3113fd948da0cbae4","","","","","4006","key"," "," ","16.666610878661118","500","250","tilt","","","","","-6","-7","0"
"","psychophysics","48","244965","0.0-48.0","55a43278fdf99b02ff6caf89","625756e3113fd948da0cbae4","","","","","2462","key"," "," ","16.666666666666668","500","250","tilt","","","","","5","6","1"
"","psychophysics","49","247997","0.0-49.0","55a43278fdf99b02ff6caf89","625756e3113fd948da0cbae4","","","","","3020","key"," "," ","16.666629834254163","500","250","tilt","","","","","2","2","0"
"","psychophysics","50","249885","0.0-50.0","55a43278fdf99b02ff6caf89","625756e3113fd948da0cbae4","","","","","1885","key"," "," ","16.666607142857174","500","250","tilt","","","","","-4","-4","0"
"","psychophysics","51","254843","0.0-51.0","55a43278fdf99b02ff6caf89","625756e3113fd948da0cbae4","","","","","4950","key"," "," ","16.666666666666668","500","250","tilt","","","","","-9","-9","1"
"","psychophysics","52","257661","0.0-52.0","55a43278fdf99b02ff6caf89","625756e3113fd948da0cbae4","","","","","2816","key"," "," ","16.666666666666668","500","250","tilt","","","","","0","-1","0"
"","psychophysics","53","260101","0.0-53.0","55a43278fdf99b02ff6caf89","625756e3113fd948da0cbae4","","","","","2436","key"," "," ","16.666620689655197","500","250","tilt","","","","","6","6","0"
"","psychophysics","54","263222","0.0-54.0","55a43278fdf99b02ff6caf89","625756e3113fd948da0cbae4","","","","","3114","key"," "," ","16.6666310160428","500","250","tilt","","","","","4","2","0"
"","psychophysics","55","266829","0.0-55.0","55a43278fdf99b02ff6caf89","625756e3113fd948da0cbae4","","","","","3601","key"," "," ","16.666697674418725","500","250","tilt","","","","","8","8","1"
"","psychophysics","56","268040","0.0-56.0","55a43278fdf99b02ff6caf89","625756e3113fd948da0cbae4","","","","","1205","key"," "," ","16.666666666666668","500","250","tilt","","","","","0","-1","0"
"","psychophysics","57","272399","0.0-57.0","55a43278fdf99b02ff6caf89","625756e3113fd948da0cbae4","","","","","4354","key"," "," ","16.666640926640827","500","250","tilt","","","","","-7","-6","1"
"","psychophysics","58","274091","0.0-58.0","55a43278fdf99b02ff6caf89","625756e3113fd948da0cbae4","","","","","1681","key"," "," ","16.66653465346484","500","250","tilt","","","","","2","1","0"
"","psychophysics","59","275942","0.0-59.0","55a43278fdf99b02ff6caf89","625756e3113fd948da0cbae4","","","","","1849","key"," "," ","16.666545454544988","500","250","tilt","","","","","-1","-1","0"
"","psychophysics","60","278006","0.0-60.0","55a43278fdf99b02ff6caf89","625756e3113fd948da0cbae4","","","","","2059","key"," "," ","16.666666666666668","500","250","tilt","","","","","3","3","1"
"","psychophysics","61","280108","0.0-61.0","55a43278fdf99b02ff6caf89","625756e3113fd948da0cbae4","","","","","2099","key"," "," ","16.666720000000204","500","250","tilt","","","","","-5","-4","0"
"","psychophysics","62","282517","0.0-62.0","55a43278fdf99b02ff6caf89","625756e3113fd948da0cbae4","","","","","2407","key"," "," ","16.666713286713467","500","250","tilt","","","","","6","6","1"
"","psychophysics","63","284583","0.0-63.0","55a43278fdf99b02ff6caf89","625756e3113fd948da0cbae4","","","","","2056","key"," "," ","16.666666666666668","500","250","tilt","","","","","-6","-4","0"
"","psychophysics","64","286597","0.0-64.0","55a43278fdf99b02ff6caf89","625756e3113fd948da0cbae4","","","","","2006","key"," "," ","16.666666666666668","500","250","tilt","","","","","6","7","1"
"","psychophysics","65","288893","0.0-65.0","55a43278fdf99b02ff6caf89","625756e3113fd948da0cbae4","","","","","2294","key"," "," ","16.66656934306532","500","250","tilt","","","","","4","3","0"
"","psychophysics","66","291013","0.0-66.0","55a43278fdf99b02ff6caf89","625756e3113fd948da0cbae4","","","","","2117","key"," "," ","16.666666666666668","500","250","tilt","","","","","6","5","0"
"","psychophysics","67","292239","0.0-67.0","55a43278fdf99b02ff6caf89","625756e3113fd948da0cbae4","","","","","1221","key"," "," ","16.666575342465404","500","250","tilt","","","","","2","4","1"
"","psychophysics","68","295475","0.0-68.0","55a43278fdf99b02ff6caf89","625756e3113fd948da0cbae4","","","","","3234","key"," "," ","16.666632124352198","500","250","tilt","","","","","1","3","1"
"","psychophysics","69","297700","0.0-69.0","55a43278fdf99b02ff6caf89","625756e3113fd948da0cbae4","","","","","2222","key"," "," ","16.666666666666668","500","250","tilt","","","","","5","7","1"
"","psychophysics","70","300149","0.0-70.0","55a43278fdf99b02ff6caf89","625756e3113fd948da0cbae4","","","","","2447","key"," "," ","16.6667123287669","500","250","tilt","","","","","5","7","1"
"","psychophysics","71","304381","0.0-71.0","55a43278fdf99b02ff6caf89","625756e3113fd948da0cbae4","","","","","4229","key"," "," ","16.66664031620543","500","250","tilt","","","","","-11","-10","1"
"","psychophysics","72","306391","0.0-72.0","55a43278fdf99b02ff6caf89","625756e3113fd948da0cbae4","","","","","1993","key"," "," ","16.666666666666668","500","250","tilt","","","","","-2","-2","0"
"","psychophysics","73","308644","0.0-73.0","55a43278fdf99b02ff6caf89","625756e3113fd948da0cbae4","","","","","2249","key"," "," ","16.666567164178723","500","250","tilt","","","","","3","6","1"
"","psychophysics","74","310916","0.0-74.0","55a43278fdf99b02ff6caf89","625756e3113fd948da0cbae4","","","","","2270","key"," "," ","16.666666666666668","500","250","tilt","","","","","9","10","0"
"","psychophysics","75","313341","0.0-75.0","55a43278fdf99b02ff6caf89","625756e3113fd948da0cbae4","","","","","2425","key"," "," ","16.666620689654994","500","250","tilt","","","","","1","2","0"
"","psychophysics","76","315061","0.0-76.0","55a43278fdf99b02ff6caf89","625756e3113fd948da0cbae4","","","","","1716","key"," "," ","16.666666666666668","500","250","tilt","","","","","-5","-4","1"
"","psychophysics","77","316412","0.0-77.0","55a43278fdf99b02ff6caf89","625756e3113fd948da0cbae4","","","","","1348","key"," "," ","16.66675000000032","500","250","inst","","","","","","",""
"","psychophysics","78","318655","0.0-78.0","55a43278fdf99b02ff6caf89","625756e3113fd948da0cbae4","","","","","2239","key"," "," ","16.66661654135319","500","250","instPz","","","","","50","50",""
"","psychophysics","79","326823","0.0-79.0","55a43278fdf99b02ff6caf89","625756e3113fd948da0cbae4","","","","","8150","key"," "," ","16.666653061224437","500","250","instPz","","","","","47","50",""
"","psychophysics","80","330693","0.0-80.0","55a43278fdf99b02ff6caf89","625756e3113fd948da0cbae4","","","","","3868","key"," "," ","16.666753246753327","500","250","instPz","","","","","28","30",""
"","psychophysics","81","338694","0.0-81.0","55a43278fdf99b02ff6caf89","625756e3113fd948da0cbae4","","","","","7993","key"," "," ","16.66668058455108","500","250","instPz","","","","","42","40",""
"","psychophysics","82","339612","0.0-82.0","55a43278fdf99b02ff6caf89","625756e3113fd948da0cbae4","","","","","916","key"," "," ","16.666666666666668","500","250","inst","","","","","","",""
"","psychophysics","83","344261","0.0-83.0","55a43278fdf99b02ff6caf89","625756e3113fd948da0cbae4","","","","","4645","key"," "," ","16.666690647482106","500","250","pz","","","","","56","58",""
"","psychophysics","84","346939","0.0-84.0","55a43278fdf99b02ff6caf89","625756e3113fd948da0cbae4","","","","","2674","key"," "," ","16.666749999999958","500","250","pz","","","","","25","25",""
"","psychophysics","85","349932","0.0-85.0","55a43278fdf99b02ff6caf89","625756e3113fd948da0cbae4","","","","","2992","key"," "," ","16.666629213483002","500","250","pz","","","","","27","27",""
"","psychophysics","86","353597","0.0-86.0","55a43278fdf99b02ff6caf89","625756e3113fd948da0cbae4","","","","","3662","key"," "," ","16.666666666666668","500","250","pz","","","","","60","56",""
"","psychophysics","87","356868","0.0-87.0","55a43278fdf99b02ff6caf89","625756e3113fd948da0cbae4","","","","","3267","key"," "," ","16.666666666666668","500","250","pz","","","","","46","43",""
"","psychophysics","88","362062","0.0-88.0","55a43278fdf99b02ff6caf89","625756e3113fd948da0cbae4","","","","","5192","key"," "," ","16.66668810289397","500","250","pz","","","","","60","56",""
"","psychophysics","89","364796","0.0-89.0","55a43278fdf99b02ff6caf89","625756e3113fd948da0cbae4","","","","","2731","key"," "," ","16.666748466257626","500","250","pz","","","","","64","50",""
"","psychophysics","90","371533","0.0-90.0","55a43278fdf99b02ff6caf89","625756e3113fd948da0cbae4","","","","","6734","key"," "," ","16.666650124069417","500","250","pz","","","","","63","57",""
"","psychophysics","91","375029","0.0-91.0","55a43278fdf99b02ff6caf89","625756e3113fd948da0cbae4","","","","","3493","key"," "," ","16.66660287081343","500","250","pz","","","","","45","36",""
"","psychophysics","92","378045","0.0-92.0","55a43278fdf99b02ff6caf89","625756e3113fd948da0cbae4","","","","","3013","key"," "," ","16.666666666666668","500","250","pz","","","","","62","54",""
"","psychophysics","93","385197","0.0-93.0","55a43278fdf99b02ff6caf89","625756e3113fd948da0cbae4","","","","","7147","key"," "," ","16.67014018691577","500","250","pz","","","","","64","52",""
"","psychophysics","94","389301","0.0-94.0","55a43278fdf99b02ff6caf89","625756e3113fd948da0cbae4","","","","","4101","key"," "," ","16.66661224489775","500","250","pz","","","","","31","25",""
"","psychophysics","95","393510","0.0-95.0","55a43278fdf99b02ff6caf89","625756e3113fd948da0cbae4","","","","","4202","key"," "," ","16.666666666666668","500","250","pz","","","","","35","25",""
"","psychophysics","96","396678","0.0-96.0","55a43278fdf99b02ff6caf89","625756e3113fd948da0cbae4","","","","","3166","key"," "," ","16.666666666666668","500","250","pz","","","","","65","57",""
"","psychophysics","97","398804","0.0-97.0","55a43278fdf99b02ff6caf89","625756e3113fd948da0cbae4","","","","","2125","key"," "," ","16.666666666666668","500","250","pz","","","","","36","29",""
"","psychophysics","98","399557","0.0-98.0","55a43278fdf99b02ff6caf89","625756e3113fd948da0cbae4","","","","","749","key"," "," ","16.666666666666668","500","250","inst","","","","","","",""
"","psychophysics","99","402452","0.0-99.0","55a43278fdf99b02ff6caf89","625756e3113fd948da0cbae4","","","","","2893","key"," "," ","16.666627906976597","500","250","inst","","","","","","",""
"","psychophysics","100","417366","0.0-100.0","55a43278fdf99b02ff6caf89","625756e3113fd948da0cbae4","","","","","14912","key"," "," ","16.666666666666668","500","250","instFlank","","","","","0.5","0.3","1"
"","psychophysics","101","421070","0.0-101.0","55a43278fdf99b02ff6caf89","625756e3113fd948da0cbae4","","","","","3701","key"," "," ","16.6666968325793","500","250","inst","","","","","","",""
"","psychophysics","102","428511","0.0-102.0","55a43278fdf99b02ff6caf89","625756e3113fd948da0cbae4","","","","","7430","key"," "," ","16.706022471910096","500","250","instFlank","","","","","0.2899999999999998","0.3","1"
"","psychophysics","103","430268","0.0-103.0","55a43278fdf99b02ff6caf89","625756e3113fd948da0cbae4","","","","","1755","key"," "," ","16.666730769230455","500","250","inst","","","","","","",""
"","psychophysics","104","434693","0.0-104.0","55a43278fdf99b02ff6caf89","625756e3113fd948da0cbae4","","","","","4423","key"," "," ","16.666716981132048","500","250","instFlank","","","","","0.4099999999999999","0.3","0"
"","psychophysics","105","435788","0.0-105.0","55a43278fdf99b02ff6caf89","625756e3113fd948da0cbae4","","","","","1090","key"," "," ","16.66656250000051","500","250","inst","","","","","","",""
"","psychophysics","106","438662","0.0-106.0","55a43278fdf99b02ff6caf89","625756e3113fd948da0cbae4","","","","","2873","key"," "," ","16.666627906976597","500","250","flank","","","","","0.43999999999999995","0.34","0"
"","psychophysics","107","441546","0.0-107.0","55a43278fdf99b02ff6caf89","625756e3113fd948da0cbae4","","","","","2874","key"," "," ","16.666744186046472","500","250","flank","","","","","0.47","0.32","0"
"","psychophysics","108","445444","0.0-108.0","55a43278fdf99b02ff6caf89","625756e3113fd948da0cbae4","","","","","3891","key"," "," ","16.666695278970067","500","250","flank","","","","","0.7100000000000002","0.7","0"
"","psychophysics","109","448589","0.0-109.0","55a43278fdf99b02ff6caf89","625756e3113fd948da0cbae4","","","","","3141","key"," "," ","16.666631016042956","500","250","flank","","","","","0.7100000000000002","0.64","1"
"","psychophysics","110","452837","0.0-110.0","55a43278fdf99b02ff6caf89","625756e3113fd948da0cbae4","","","","","4243","key"," "," ","16.666614173228375","500","250","flank","","","","","0.56","0.46","1"
"","psychophysics","111","456420","0.0-111.0","55a43278fdf99b02ff6caf89","625756e3113fd948da0cbae4","","","","","3575","key"," "," ","16.666635514018573","500","250","flank","","","","","0.2899999999999998","0.22","0"
"","psychophysics","112","459365","0.0-112.0","55a43278fdf99b02ff6caf89","625756e3113fd948da0cbae4","","","","","2943","key"," "," ","16.666704545454362","500","250","flank","","","","","0.31999999999999984","0.28","1"
"","psychophysics","113","463940","0.0-113.0","55a43278fdf99b02ff6caf89","625756e3113fd948da0cbae4","","","","","4573","key"," "," ","16.666715328467127","500","250","flank","","","","","0.56","0.56","1"
"","psychophysics","114","467197","0.0-114.0","55a43278fdf99b02ff6caf89","625756e3113fd948da0cbae4","","","","","3255","key"," "," ","16.666701030927968","500","250","flank","","","","","0.3799999999999999","0.3","1"
"","psychophysics","115","469644","0.0-115.0","55a43278fdf99b02ff6caf89","625756e3113fd948da0cbae4","","","","","2444","key"," "," ","16.6667123287673","500","250","flank","","","","","0.5900000000000001","0.56","1"
"","psychophysics","116","472365","0.0-116.0","55a43278fdf99b02ff6caf89","625756e3113fd948da0cbae4","","","","","2718","key"," "," ","16.666666666666668","500","250","flank","","","","","0.3799999999999999","0.28","1"
"","psychophysics","117","475294","0.0-117.0","55a43278fdf99b02ff6caf89","625756e3113fd948da0cbae4","","","","","2927","key"," "," ","16.66674285714282","500","250","flank","","","","","0.5","0.44","1"
"","psychophysics","118","479182","0.0-118.0","55a43278fdf99b02ff6caf89","625756e3113fd948da0cbae4","","","","","3883","key"," "," ","16.66663793103462","500","250","flank","","","","","0.7100000000000002","0.68","0"
"","psychophysics","119","482397","0.0-119.0","55a43278fdf99b02ff6caf89","625756e3113fd948da0cbae4","","","","","3212","key"," "," ","16.666666666666668","500","250","flank","","","","","0.6200000000000001","0.56","1"
"","psychophysics","120","485094","0.0-120.0","55a43278fdf99b02ff6caf89","625756e3113fd948da0cbae4","","","","","2695","key"," "," ","16.66670807453432","500","250","flank","","","","","0.43999999999999995","0.38","1"
"","psychophysics","121","487365","0.0-121.0","55a43278fdf99b02ff6caf89","625756e3113fd948da0cbae4","","","","","2268","key"," "," ","16.666666666666668","500","250","flank","","","","","0.5900000000000001","0.6","1"
"","psychophysics","122","490342","0.0-122.0","55a43278fdf99b02ff6caf89","625756e3113fd948da0cbae4","","","","","2975","key"," "," ","16.66674157303367","500","250","flank","","","","","0.43999999999999995","0.32","0"
"","psychophysics","123","493197","0.0-123.0","55a43278fdf99b02ff6caf89","625756e3113fd948da0cbae4","","","","","2851","key"," "," ","16.666705882353092","500","250","flank","","","","","0.4099999999999999","0.3","0"
"","psychophysics","124","495711","0.0-124.0","55a43278fdf99b02ff6caf89","625756e3113fd948da0cbae4","","","","","2510","key"," "," ","16.666666666666668","500","250","flank","","","","","0.43999999999999995","0.38","1"
"","psychophysics","125","498630","0.0-125.0","55a43278fdf99b02ff6caf89","625756e3113fd948da0cbae4","","","","","2915","key"," "," ","16.666666666666668","500","250","flank","","","","","0.34999999999999987","0.36","1"
"","psychophysics","126","501754","0.0-126.0","55a43278fdf99b02ff6caf89","625756e3113fd948da0cbae4","","","","","3120","key"," "," ","16.666666666666668","500","250","flank","","","","","0.34999999999999987","0.22","0"
"","psychophysics","127","504550","0.0-127.0","55a43278fdf99b02ff6caf89","625756e3113fd948da0cbae4","","","","","2780","key"," "," ","16.67556886227549","500","250","flank","","","","","0.34999999999999987","0.22","0"
"","psychophysics","128","508476","0.0-128.0","55a43278fdf99b02ff6caf89","625756e3113fd948da0cbae4","","","","","3915","key"," "," ","16.666638297872478","500","250","flank","","","","","0.8000000000000003","0.76","0"
"","psychophysics","129","511494","0.0-129.0","55a43278fdf99b02ff6caf89","625756e3113fd948da0cbae4","","","","","3011","key"," "," ","16.666666666666668","500","250","flank","","","","","0.7100000000000002","0.62","1"
"","psychophysics","130","513892","0.0-130.0","55a43278fdf99b02ff6caf89","625756e3113fd948da0cbae4","","","","","2388","key"," "," ","16.666713286713467","500","250","flank","","","","","0.3799999999999999","0.26","1"
"","psychophysics","131","516494","0.0-131.0","55a43278fdf99b02ff6caf89","625756e3113fd948da0cbae4","","","","","2600","key"," "," ","16.66670967741952","500","250","flank","","","","","0.3799999999999999","0.3","1"
"","psychophysics","132","519461","0.0-132.0","55a43278fdf99b02ff6caf89","625756e3113fd948da0cbae4","","","","","2963","key"," "," ","16.666666666666668","500","250","flank","","","","","0.47","0.4","0"
"","psychophysics","133","523365","0.0-133.0","55a43278fdf99b02ff6caf89","625756e3113fd948da0cbae4","","","","","3901","key"," "," ","16.666695278970067","500","250","flank","","","","","0.8600000000000003","0.78","0"
"","psychophysics","134","527630","0.0-134.0","55a43278fdf99b02ff6caf89","625756e3113fd948da0cbae4","","","","","4261","key"," "," ","16.666666666666668","500","250","flank","","","","","0.8600000000000003","0.8","1"
"","psychophysics","135","530547","0.0-135.0","55a43278fdf99b02ff6caf89","625756e3113fd948da0cbae4","","","","","2915","key"," "," ","16.666666666666668","500","250","flank","","","","","0.3799999999999999","0.3","0"
"true","fullscreen","136","530550","0.0-136.0","55a43278fdf99b02ff6caf89","625756e3113fd948da0cbae4","","","","","","","","","","","","","","","","","","",""
"true","fullscreen","0","2803","0.0-0.0","56333f762840d2000a22e4a3","625754bad375e6d0efcfcb6d","","","","","","","","","","","","","","","","","","",""
"true","preload","1","2805","0.0-1.0","56333f762840d2000a22e4a3","625754bad375e6d0efcfcb6d","false","[]","[]","[]","","","","","","","","","","","","","","",""
"","psychophysics","2","5240","0.0-2.0","56333f762840d2000a22e4a3","625754bad375e6d0efcfcb6d","","","","","2425","key"," "," ","7.024259365994236","500","250","inst","","","","","","",""
"","psychophysics","3","6353","0.0-3.0","56333f762840d2000a22e4a3","625754bad375e6d0efcfcb6d","","","","","1112","key"," "," ","7.077634615384615","500","250","inst","","","","","","",""
"","psychophysics","4","32334","0.0-4.0","56333f762840d2000a22e4a3","625754bad375e6d0efcfcb6d","","","","","25978","key"," "," ","6.944281550802139","500","250","instMl","242","-40.333333333333336","-5","-25","-32.333333333333314","",""
"","psychophysics","5","53851","0.0-5.0","56333f762840d2000a22e4a3","625754bad375e6d0efcfcb6d","","","","","21513","key"," "," ","6.9442905100064545","500","250","instMl","248","-41.333333333333336","-25","-27","-32.333333333333314","",""
"","psychophysics","6","57397","0.0-6.0","56333f762840d2000a22e4a3","625754bad375e6d0efcfcb6d","","","","","3545","key"," "," ","6.944253438113949","500","250","inst","","","","","","",""
"","psychophysics","7","66327","0.0-7.0","56333f762840d2000a22e4a3","625754bad375e6d0efcfcb6d","","","","","8928","key"," "," ","6.9442536964980555","500","250","ml","168","22","5","8","-23","",""
"","psychophysics","8","78338","0.0-8.0","56333f762840d2000a22e4a3","625754bad375e6d0efcfcb6d","","","","","12009","key"," "," ","6.944271255060731","500","250","ml","182","0","22","-25","-26","",""
"","psychophysics","9","83787","0.0-9.0","56333f762840d2000a22e4a3","625754bad375e6d0efcfcb6d","","","","","5447","key"," "," ","6.944281887755096","500","250","ml","170","-8","-3","-10","-24","",""
"","psychophysics","10","92796","0.0-10.0","56333f762840d2000a22e4a3","625754bad375e6d0efcfcb6d","","","","","9006","key"," "," ","6.94423688271606","500","250","ml","152","-28","-20","-6","-18","",""
"","psychophysics","11","103955","0.0-11.0","56333f762840d2000a22e4a3","625754bad375e6d0efcfcb6d","","","","","11157","key"," "," ","6.944270859277706","500","250","ml","246","-31","15","0","-23","",""
"","psychophysics","12","114261","0.0-12.0","56333f762840d2000a22e4a3","625754bad375e6d0efcfcb6d","","","","","10304","key"," "," ","6.944291975724878","500","250","ml","224","-56","16","-26","-21","",""
"","psychophysics","13","125412","0.0-13.0","56333f762840d2000a22e4a3","625754bad375e6d0efcfcb6d","","","","","11147","key"," "," ","6.944295327102802","500","250","ml","238","-49","2","-29","-21","",""
"","psychophysics","14","133383","0.0-14.0","56333f762840d2000a22e4a3","625754bad375e6d0efcfcb6d","","","","","7969","key"," "," ","6.944313862249343","500","250","ml","222","-38","-25","22","-23","",""
"","psychophysics","15","141290","0.0-15.0","56333f762840d2000a22e4a3","625754bad375e6d0efcfcb6d","","","","","7906","key"," "," ","6.944248021108167","500","250","ml","168","-42","30","21","-19","",""
"","psychophysics","16","147183","0.0-16.0","56333f762840d2000a22e4a3","625754bad375e6d0efcfcb6d","","","","","5891","key"," "," ","6.944303066037736","500","250","ml","182","5","29","-21","-18","",""
"","psychophysics","17","157372","0.0-17.0","56333f762840d2000a22e4a3","625754bad375e6d0efcfcb6d","","","","","10187","key"," "," ","6.94428376534789","500","250","ml","234","34","-19","-13","-18","",""
"","psychophysics","18","171659","0.0-18.0","56333f762840d2000a22e4a3","625754bad375e6d0efcfcb6d","","","","","14284","key"," "," ","6.944278074866312","500","250","ml","218","-45","-16","6","-19","",""
"","psychophysics","19","181000","0.0-19.0","56333f762840d2000a22e4a3","625754bad375e6d0efcfcb6d","","","","","9338","key"," "," ","6.944290922619054","500","250","ml","180","22","17","11","-18","",""
"","psychophysics","20","188235","0.0-20.0","56333f762840d2000a22e4a3","625754bad375e6d0efcfcb6d","","","","","7233","key"," "," ","6.944268972142168","500","250","ml","216","12","-21","14","-17","",""
"","psychophysics","21","200012","0.0-21.0","56333f762840d2000a22e4a3","625754bad375e6d0efcfcb6d","","","","","11775","key"," "," ","6.944279646017701","500","250","ml","234","35","24","-22","-21","",""
"","psychophysics","22","201629","0.0-22.0","56333f762840d2000a22e4a3","625754bad375e6d0efcfcb6d","","","","","1615","key"," "," ","6.9439696969697","500","250","inst","","","","","","",""
"","psychophysics","23","216268","0.0-23.0","56333f762840d2000a22e4a3","625754bad375e6d0efcfcb6d","","","","","14637","key"," "," ","6.944331593927886","500","250","instPog","","","","","130","130",""
"","psychophysics","24","237289","0.0-24.0","56333f762840d2000a22e4a3","625754bad375e6d0efcfcb6d","","","","","21017","key"," "," ","6.94426305353602","500","250","instPog","","","","","131","130",""
"","psychophysics","25","249726","0.0-25.0","56333f762840d2000a22e4a3","625754bad375e6d0efcfcb6d","","","","","12435","key"," "," ","6.944252513966497","500","250","instPog","","","","","163","130",""
"","psychophysics","26","251006","0.0-26.0","56333f762840d2000a22e4a3","625754bad375e6d0efcfcb6d","","","","","1276","key"," "," ","6.9438852459016385","500","250","inst","","","","","","",""
"","psychophysics","27","272823","0.0-27.0","56333f762840d2000a22e4a3","625754bad375e6d0efcfcb6d","","","","","21814","key"," "," ","6.944307226997777","500","250","pog","","","","","191","159",""
"","psychophysics","28","282579","0.0-28.0","56333f762840d2000a22e4a3","625754bad375e6d0efcfcb6d","","","","","9754","key"," "," ","6.944296296296308","500","250","pog","","","","","197","169",""
"","psychophysics","29","295577","0.0-29.0","56333f762840d2000a22e4a3","625754bad375e6d0efcfcb6d","","","","","12996","key"," "," ","6.944303743315507","500","250","pog","","","","","199","171",""
"","psychophysics","30","305919","0.0-30.0","56333f762840d2000a22e4a3","625754bad375e6d0efcfcb6d","","","","","10340","key"," "," ","6.944319006044335","500","250","pog","","","","","200","182",""
"","psychophysics","31","316323","0.0-31.0","56333f762840d2000a22e4a3","625754bad375e6d0efcfcb6d","","","","","10402","key"," "," ","6.944222444889772","500","250","pog","","","","","165","140",""
"","psychophysics","32","332610","0.0-32.0","56333f762840d2000a22e4a3","625754bad375e6d0efcfcb6d","","","","","16285","key"," "," ","6.944270051194541","500","250","pog","","","","","215","191",""
"","psychophysics","33","347208","0.0-33.0","56333f762840d2000a22e4a3","625754bad375e6d0efcfcb6d","","","","","14597","key"," "," ","6.944257972394097","500","250","pog","","","","","213","192",""
"","psychophysics","34","358643","0.0-34.0","56333f762840d2000a22e4a3","625754bad375e6d0efcfcb6d","","","","","11433","key"," "," ","6.944291616038885","500","250","pog","","","","","219","198",""
"","psychophysics","35","367433","0.0-35.0","56333f762840d2000a22e4a3","625754bad375e6d0efcfcb6d","","","","","8787","key"," "," ","6.944339920948637","500","250","pog","","","","","149","123",""
"","psychophysics","36","373133","0.0-36.0","56333f762840d2000a22e4a3","625754bad375e6d0efcfcb6d","","","","","5697","key"," "," ","6.944378048780434","500","250","pog","","","","","150","124",""
"","psychophysics","37","380077","0.0-37.0","56333f762840d2000a22e4a3","625754bad375e6d0efcfcb6d","","","","","6941","key"," "," ","6.944253507014019","500","250","pog","","","","","199","174",""
"","psychophysics","38","389075","0.0-38.0","56333f762840d2000a22e4a3","625754bad375e6d0efcfcb6d","","","","","8996","key"," "," ","6.944253281853297","500","250","pog","","","","","165","138",""
"","psychophysics","39","396991","0.0-39.0","56333f762840d2000a22e4a3","625754bad375e6d0efcfcb6d","","","","","7913","key"," "," ","6.94425812115892","500","250","pog","","","","","177","152",""
"","psychophysics","40","401778","0.0-40.0","56333f762840d2000a22e4a3","625754bad375e6d0efcfcb6d","","","","","4784","key"," "," ","6.944279069767427","500","250","pog","","","","","162","132",""
"","psychophysics","41","405750","0.0-41.0","56333f762840d2000a22e4a3","625754bad375e6d0efcfcb6d","","","","","3970","key"," "," ","6.943872154115589","500","250","pog","","","","","165","138",""
"","psychophysics","42","407119","0.0-42.0","56333f762840d2000a22e4a3","625754bad375e6d0efcfcb6d","","","","","1366","key"," "," ","6.944472081218503","500","250","inst","","","","","","",""
"","psychophysics","43","412004","0.0-43.0","56333f762840d2000a22e4a3","625754bad375e6d0efcfcb6d","","","","","4883","key"," "," ","6.954186875891597","500","250","instTilt","","","","","NaN","0","0"
"","psychophysics","44","412709","0.0-44.0","56333f762840d2000a22e4a3","625754bad375e6d0efcfcb6d","","","","","703","key"," "," ","6.94443564356413","500","250","instTilt","","","","","0","0","0"
"","psychophysics","45","412877","0.0-45.0","56333f762840d2000a22e4a3","625754bad375e6d0efcfcb6d","","","","","166","key"," "," ","6.9408695652154675","500","250","instTilt","","","","","0","0","0"
"","psychophysics","46","418171","0.0-46.0","56333f762840d2000a22e4a3","625754bad375e6d0efcfcb6d","","","","","5291","key"," "," ","6.944300919842252","500","250","inst","","","","","","",""
"","psychophysics","47","428321","0.0-47.0","56333f762840d2000a22e4a3","625754bad375e6d0efcfcb6d","","","","","10147","key"," "," ","6.944288843258023","500","250","tilt","","","","","2","2","0"
"","psychophysics","48","433775","0.0-48.0","56333f762840d2000a22e4a3","625754bad375e6d0efcfcb6d","","","","","5453","key"," "," ","6.944239795918422","500","250","tilt","","","","","8","8","0"
"","psychophysics","49","437985","0.0-49.0","56333f762840d2000a22e4a3","625754bad375e6d0efcfcb6d","","","","","4208","key"," "," ","6.9442607260726215","500","250","tilt","","","","","-7","-6","1"
"","psychophysics","50","442108","0.0-50.0","56333f762840d2000a22e4a3","625754bad375e6d0efcfcb6d","","","","","4121","key"," "," ","6.944180743243271","500","250","tilt","","","","","-6","-3","1"
"","psychophysics","51","444625","0.0-51.0","56333f762840d2000a22e4a3","625754bad375e6d0efcfcb6d","","","","","2514","key"," "," ","6.944364640883939","500","250","tilt","","","","","6","4","0"
"","psychophysics","52","449726","0.0-52.0","56333f762840d2000a22e4a3","625754bad375e6d0efcfcb6d","","","","","5098","key"," "," ","6.94406548431105","500","250","tilt","","","","","-9","-10","0"
"","psychophysics","53","453348","0.0-53.0","56333f762840d2000a22e4a3","625754bad375e6d0efcfcb6d","","","","","3619","key"," "," ","6.944255278311043","500","250","tilt","","","","","9","10","1"
"","psychophysics","54","457651","0.0-54.0","56333f762840d2000a22e4a3","625754bad375e6d0efcfcb6d","","","","","4300","key"," "," ","6.944326860841396","500","250","tilt","","","","","-7","0","1"
"","psychophysics","55","461958","0.0-55.0","56333f762840d2000a22e4a3","625754bad375e6d0efcfcb6d","","","","","4305","key"," "," ","6.944214516129033","500","250","tilt","","","","","-5","0","1"
"","psychophysics","56","466952","0.0-56.0","56333f762840d2000a22e4a3","625754bad375e6d0efcfcb6d","","","","","4991","key"," "," ","6.94439832869086","500","250","tilt","","","","","-14","-9","1"
"","psychophysics","57","471010","0.0-57.0","56333f762840d2000a22e4a3","625754bad375e6d0efcfcb6d","","","","","4056","key"," "," ","6.9442504288165035","500","250","tilt","","","","","-11","-5","1"
"","psychophysics","58","474707","0.0-58.0","56333f762840d2000a22e4a3","625754bad375e6d0efcfcb6d","","","","","3694","key"," "," ","6.944349624060205","500","250","tilt","","","","","5","3","0"
"","psychophysics","59","477749","0.0-59.0","56333f762840d2000a22e4a3","625754bad375e6d0efcfcb6d","","","","","3040","key"," "," ","6.9442929061785295","500","250","tilt","","","","","4","0","0"
"","psychophysics","60","481137","0.0-60.0","56333f762840d2000a22e4a3","625754bad375e6d0efcfcb6d","","","","","3386","key"," "," ","6.944412731006167","500","250","tilt","","","","","4","7","1"
"","psychophysics","61","483402","0.0-61.0","56333f762840d2000a22e4a3","625754bad375e6d0efcfcb6d","","","","","2263","key"," "," ","6.944326153846207","500","250","tilt","","","","","-5","-1","1"
"","psychophysics","62","486319","0.0-62.0","56333f762840d2000a22e4a3","625754bad375e6d0efcfcb6d","","","","","2915","key"," "," ","6.944408114558461","500","250","tilt","","","","","-5","2","1"
"","psychophysics","63","489576","0.0-63.0","56333f762840d2000a22e4a3","625754bad375e6d0efcfcb6d","","","","","3255","key"," "," ","6.9443418803418595","500","250","tilt","","","","","-12","-5","1"
"","psychophysics","64","493274","0.0-64.0","56333f762840d2000a22e4a3","625754bad375e6d0efcfcb6d","","","","","3695","key"," "," ","6.944295668549855","500","250","tilt","","","","","10","9","0"
"","psychophysics","65","496277","0.0-65.0","56333f762840d2000a22e4a3","625754bad375e6d0efcfcb6d","","","","","3000","key"," "," ","6.944212962963017","500","250","tilt","","","","","7","5","1"
"","psychophysics","66","499451","0.0-66.0","56333f762840d2000a22e4a3","625754bad375e6d0efcfcb6d","","","","","3172","key"," "," ","6.9444144736841915","500","250","tilt","","","","","9","9","1"
"","psychophysics","67","502966","0.0-67.0","56333f762840d2000a22e4a3","625754bad375e6d0efcfcb6d","","","","","3514","key"," "," ","6.944322772277289","500","250","tilt","","","","","-10","-7","0"
"","psychophysics","68","505537","0.0-68.0","56333f762840d2000a22e4a3","625754bad375e6d0efcfcb6d","","","","","2568","key"," "," ","6.944355013550147","500","250","tilt","","","","","-6","-2","0"
"","psychophysics","69","508289","0.0-69.0","56333f762840d2000a22e4a3","625754bad375e6d0efcfcb6d","","","","","2749","key"," "," ","6.944234848484888","500","250","tilt","","","","","7","5","0"
"","psychophysics","70","511309","0.0-70.0","56333f762840d2000a22e4a3","625754bad375e6d0efcfcb6d","","","","","3017","key"," "," ","6.944279445727398","500","250","tilt","","","","","-12","-7","0"
"","psychophysics","71","514821","0.0-71.0","56333f762840d2000a22e4a3","625754bad375e6d0efcfcb6d","","","","","3510","key"," "," ","6.944348514851385","500","250","tilt","","","","","8","9","1"
"","psychophysics","72","520957","0.0-72.0","56333f762840d2000a22e4a3","625754bad375e6d0efcfcb6d","","","","","6133","key"," "," ","6.944353340883354","500","250","tilt","","","","","5","5","0"
"","psychophysics","73","524056","0.0-73.0","56333f762840d2000a22e4a3","625754bad375e6d0efcfcb6d","","","","","3097","key"," "," ","6.944384269663028","500","250","tilt","","","","","8","7","0"
"","psychophysics","74","535456","0.0-74.0","56333f762840d2000a22e4a3","625754bad375e6d0efcfcb6d","","","","","11399","key"," "," ","6.944279098110858","500","250","tilt","","","","","3","-1","0"
"","psychophysics","75","539022","0.0-75.0","56333f762840d2000a22e4a3","625754bad375e6d0efcfcb6d","","","","","3564","key"," "," ","6.9445312499999545","500","250","tilt","","","","","-9","-8","0"
"","psychophysics","76","543006","0.0-76.0","56333f762840d2000a22e4a3","625754bad375e6d0efcfcb6d","","","","","3981","key"," "," ","6.944275741710207","500","250","tilt","","","","","4","3","1"
"","psychophysics","77","543978","0.0-77.0","56333f762840d2000a22e4a3","625754bad375e6d0efcfcb6d","","","","","970","key"," "," ","6.944266187050547","500","250","inst","","","","","","",""
"","psychophysics","78","546928","0.0-78.0","56333f762840d2000a22e4a3","625754bad375e6d0efcfcb6d","","","","","2948","key"," "," ","6.944334905660209","500","250","instPz","","","","","50","50",""
"","psychophysics","79","562622","0.0-79.0","56333f762840d2000a22e4a3","625754bad375e6d0efcfcb6d","","","","","15693","key"," "," ","6.944265161575906","500","250","instPz","","","","","51","50",""
"","psychophysics","80","571782","0.0-80.0","56333f762840d2000a22e4a3","625754bad375e6d0efcfcb6d","","","","","9158","key"," "," ","6.944273899848222","500","250","instPz","","","","","34","30",""
"","psychophysics","81","578775","0.0-81.0","56333f762840d2000a22e4a3","625754bad375e6d0efcfcb6d","","","","","6990","key"," "," ","6.944330019880758","500","250","instPz","","","","","15","40",""
"","psychophysics","82","580718","0.0-82.0","56333f762840d2000a22e4a3","625754bad375e6d0efcfcb6d","","","","","1940","key"," "," ","6.9442903225808355","500","250","inst","","","","","","",""
"","psychophysics","83","586969","0.0-83.0","56333f762840d2000a22e4a3","625754bad375e6d0efcfcb6d","","","","","6247","key"," "," ","6.944414905450479","500","250","pz","","","","","32","24",""
"","psychophysics","84","595703","0.0-84.0","56333f762840d2000a22e4a3","625754bad375e6d0efcfcb6d","","","","","8732","key"," "," ","6.944306284805105","500","250","pz","","","","","52","39",""
"","psychophysics","85","602460","0.0-85.0","56333f762840d2000a22e4a3","625754bad375e6d0efcfcb6d","","","","","6755","key"," "," ","6.9442397119341335","500","250","pz","","","","","78","60",""
"","psychophysics","86","608582","0.0-86.0","56333f762840d2000a22e4a3","625754bad375e6d0efcfcb6d","","","","","6120","key"," "," ","6.944278409090872","500","250","pz","","","","","68","50",""
"","psychophysics","87","612834","0.0-87.0","56333f762840d2000a22e4a3","625754bad375e6d0efcfcb6d","","","","","4250","key"," "," ","6.9443235294117285","500","250","pz","","","","","33","24",""
"","psychophysics","88","623356","0.0-88.0","56333f762840d2000a22e4a3","625754bad375e6d0efcfcb6d","","","","","10520","key"," "," ","6.944267503302461","500","250","pz","","","","","73","55",""
"","psychophysics","89","627968","0.0-89.0","56333f762840d2000a22e4a3","625754bad375e6d0efcfcb6d","","","","","4610","key"," "," ","6.944263951734571","500","250","pz","","","","","53","40",""
"","psychophysics","90","632066","0.0-90.0","56333f762840d2000a22e4a3","625754bad375e6d0efcfcb6d","","","","","4094","key"," "," ","6.944331069609525","500","250","pz","","","","","38","30",""
"","psychophysics","91","638211","0.0-91.0","56333f762840d2000a22e4a3","625754bad375e6d0efcfcb6d","","","","","6142","key"," "," ","6.944180995475067","500","250","pz","","","","","54","41",""
"","psychophysics","92","646265","0.0-92.0","56333f762840d2000a22e4a3","625754bad375e6d0efcfcb6d","","","","","8052","key"," "," ","6.944344262295078","500","250","pz","","","","","62","51",""
"","psychophysics","93","649167","0.0-93.0","56333f762840d2000a22e4a3","625754bad375e6d0efcfcb6d","","","","","2900","key"," "," ","6.944577937649799","500","250","pz","","","","","28","20",""
"","psychophysics","94","660092","0.0-94.0","56333f762840d2000a22e4a3","625754bad375e6d0efcfcb6d","","","","","10923","key"," "," ","6.944260178117035","500","250","pz","","","","","91","60",""
"","psychophysics","95","664646","0.0-95.0","56333f762840d2000a22e4a3","625754bad375e6d0efcfcb6d","","","","","4550","key"," "," ","6.944302290076397","500","250","pz","","","","","36","22",""
"","psychophysics","96","672382","0.0-96.0","56333f762840d2000a22e4a3","625754bad375e6d0efcfcb6d","","","","","7734","key"," "," ","6.944312668463524","500","250","pz","","","","","50","32",""
"","psychophysics","97","679580","0.0-97.0","56333f762840d2000a22e4a3","625754bad375e6d0efcfcb6d","","","","","7194","key"," "," ","6.944273429951666","500","250","pz","","","","","46","26",""
"","psychophysics","98","680743","0.0-98.0","56333f762840d2000a22e4a3","625754bad375e6d0efcfcb6d","","","","","1159","key"," "," ","6.944640718562902","500","250","inst","","","","","","",""
"","psychophysics","99","682322","0.0-99.0","56333f762840d2000a22e4a3","625754bad375e6d0efcfcb6d","","","","","1578","key"," "," ","6.944061946902687","500","250","inst","","","","","","",""
"","psychophysics","100","691368","0.0-100.0","56333f762840d2000a22e4a3","625754bad375e6d0efcfcb6d","","","","","9043","key"," "," ","6.944298003072215","500","250","instFlank","","","","","0.5","0.3","1"
"","psychophysics","101","697631","0.0-101.0","56333f762840d2000a22e4a3","625754bad375e6d0efcfcb6d","","","","","6260","key"," "," ","6.944167591564871","500","250","inst","","","","","","",""
"","psychophysics","102","707976","0.0-102.0","56333f762840d2000a22e4a3","625754bad375e6d0efcfcb6d","","","","","10342","key"," "," ","6.944274193548359","500","250","instFlank","","","","","1","0.3","1"
"","psychophysics","103","711371","0.0-103.0","56333f762840d2000a22e4a3","625754bad375e6d0efcfcb6d","","","","","3393","key"," "," ","6.944389344262461","500","250","inst","","","","","","",""
"","psychophysics","104","717740","0.0-104.0","56333f762840d2000a22e4a3","625754bad375e6d0efcfcb6d","","","","","6367","key"," "," ","6.944279475982492","500","250","instFlank","","","","","0.03","0.3","0"
"","psychophysics","105","719451","0.0-105.0","56333f762840d2000a22e4a3","625754bad375e6d0efcfcb6d","","","","","1709","key"," "," ","6.944085365853639","500","250","inst","","","","","","",""
"","psychophysics","106","724588","0.0-106.0","56333f762840d2000a22e4a3","625754bad375e6d0efcfcb6d","","","","","5134","key"," "," ","6.944224627875516","500","250","flank","","","","","0","0.26","0"
"","psychophysics","107","730241","0.0-107.0","56333f762840d2000a22e4a3","625754bad375e6d0efcfcb6d","","","","","5650","key"," "," ","6.944323493234915","500","250","flank","","","","","0.03","0.36","0"
"","psychophysics","108","737218","0.0-108.0","56333f762840d2000a22e4a3","625754bad375e6d0efcfcb6d","","","","","6975","key"," "," ","6.9443050847456815","500","250","flank","","","","","1","0.26","1"
"","psychophysics","109","743831","0.0-109.0","56333f762840d2000a22e4a3","625754bad375e6d0efcfcb6d","","","","","6611","key"," "," ","6.944303571428647","500","250","flank","","","","","1","0.22","1"
"","psychophysics","110","749774","0.0-110.0","56333f762840d2000a22e4a3","625754bad375e6d0efcfcb6d","","","","","5940","key"," "," ","6.944243559718925","500","250","flank","","","","","0.049999999999999795","0.62","0"
"","psychophysics","111","755242","0.0-111.0","56333f762840d2000a22e4a3","625754bad375e6d0efcfcb6d","","","","","5465","key"," "," ","6.944336721728043","500","250","flank","","","","","0.03","0.74","0"
"","psychophysics","112","759278","0.0-112.0","56333f762840d2000a22e4a3","625754bad375e6d0efcfcb6d","","","","","4034","key"," "," ","6.944275862069054","500","250","flank","","","","","0","0.62","0"
"","psychophysics","113","765096","0.0-113.0","56333f762840d2000a22e4a3","625754bad375e6d0efcfcb6d","","","","","5816","key"," "," ","6.944227001194707","500","250","flank","","","","","1","0.58","1"
"","psychophysics","114","770620","0.0-114.0","56333f762840d2000a22e4a3","625754bad375e6d0efcfcb6d","","","","","5520","key"," "," ","6.944347607052793","500","250","flank","","","","","1","0.38","1"
"","psychophysics","115","775553","0.0-115.0","56333f762840d2000a22e4a3","625754bad375e6d0efcfcb6d","","","","","4930","key"," "," ","6.9443718309858555","500","250","flank","","","","","1","0.58","1"
"","psychophysics","116","780116","0.0-116.0","56333f762840d2000a22e4a3","625754bad375e6d0efcfcb6d","","","","","4561","key"," "," ","6.944134146341395","500","250","flank","","","","","1","0.52","1"
"","psychophysics","117","784804","0.0-117.0","56333f762840d2000a22e4a3","625754bad375e6d0efcfcb6d","","","","","4686","key"," "," ","6.944320474777375","500","250","flank","","","","","1","0.72","1"
"","psychophysics","118","788527","0.0-118.0","56333f762840d2000a22e4a3","625754bad375e6d0efcfcb6d","","","","","3722","key"," "," ","6.944241121495317","500","250","flank","","","","","1","0.2","1"
"","psychophysics","119","793294","0.0-119.0","56333f762840d2000a22e4a3","625754bad375e6d0efcfcb6d","","","","","4764","key"," "," ","6.944370802919666","500","250","flank","","","","","0.049999999999999795","0.42","0"
"","psychophysics","120","798098","0.0-120.0","56333f762840d2000a22e4a3","625754bad375e6d0efcfcb6d","","","","","4801","key"," "," ","6.944305354558631","500","250","flank","","","","","0.03","0.24","0"
"","psychophysics","121","804349","0.0-121.0","56333f762840d2000a22e4a3","625754bad375e6d0efcfcb6d","","","","","6248","key"," "," ","6.944274749721968","500","250","flank","","","","","1","0.54","1"
"","psychophysics","122","809166","0.0-122.0","56333f762840d2000a22e4a3","625754bad375e6d0efcfcb6d","","","","","4815","key"," "," ","6.944344877344852","500","250","flank","","","","","0.03","0.44","0"
"","psychophysics","123","814741","0.0-123.0","56333f762840d2000a22e4a3","625754bad375e6d0efcfcb6d","","","","","5573","key"," "," ","6.944229426433912","500","250","flank","","","","","1","0.36","1"
"","psychophysics","124","820878","0.0-124.0","56333f762840d2000a22e4a3","625754bad375e6d0efcfcb6d","","","","","6135","key"," "," ","6.9442695356738815","500","250","flank","","","","","1","0.5","1"
"","psychophysics","125","824643","0.0-125.0","56333f762840d2000a22e4a3","625754bad375e6d0efcfcb6d","","","","","3762","key"," "," ","6.944591497227312","500","250","flank","","","","","1","0.52","1"
"","psychophysics","126","829808","0.0-126.0","56333f762840d2000a22e4a3","625754bad375e6d0efcfcb6d","","","","","5163","key"," "," ","6.9443041722745855","500","250","flank","","","","","0.019999999999999796","0.72","0"
"","psychophysics","127","836247","0.0-127.0","56333f762840d2000a22e4a3","625754bad375e6d0efcfcb6d","","","","","6436","key"," "," ","6.944286177105815","500","250","flank","","","","","0.019999999999999796","0.66","0"
"","psychophysics","128","841202","0.0-128.0","56333f762840d2000a22e4a3","625754bad375e6d0efcfcb6d","","","","","4953","key"," "," ","6.944189606741623","500","250","flank","","","","","0.03","0.32","0"
"","psychophysics","129","847063","0.0-129.0","56333f762840d2000a22e4a3","625754bad375e6d0efcfcb6d","","","","","5858","key"," "," ","6.944291814946689","500","250","flank","","","","","0.03","0.68","0"
"","psychophysics","130","852371","0.0-130.0","56333f762840d2000a22e4a3","625754bad375e6d0efcfcb6d","","","","","5306","key"," "," ","6.944373036649124","500","250","flank","","","","","1","0.34","1"
"","psychophysics","131","856550","0.0-131.0","56333f762840d2000a22e4a3","625754bad375e6d0efcfcb6d","","","","","4176","key"," "," ","6.94432166666685","500","250","flank","","","","","0.03","0.58","0"
"","psychophysics","132","861549","0.0-132.0","56333f762840d2000a22e4a3","625754bad375e6d0efcfcb6d","","","","","4996","key"," "," ","6.944406119610477","500","250","flank","","","","","1","0.68","1"
"","psychophysics","133","865457","0.0-133.0","56333f762840d2000a22e4a3","625754bad375e6d0efcfcb6d","","","","","3905","key"," "," ","6.944421708185078","500","250","flank","","","","","0.049999999999999795","0.26","0"
"","psychophysics","134","871877","0.0-134.0","56333f762840d2000a22e4a3","625754bad375e6d0efcfcb6d","","","","","6418","key"," "," ","6.94465692640694","500","250","flank","","","","","0.049999999999999795","0.7","0"
"","psychophysics","135","877531","0.0-135.0","56333f762840d2000a22e4a3","625754bad375e6d0efcfcb6d","","","","","5652","key"," "," ","6.9441894218942775","500","250","flank","","","","","0.019999999999999796","0.36","0"
"true","fullscreen","136","877534","0.0-136.0","56333f762840d2000a22e4a3","625754bad375e6d0efcfcb6d","","","","","","","","","","","","","","","","","","",""
"true","fullscreen","0","23643","0.0-0.0","57581be800ca3200072679b3","625757b0db950a57cc6dead1","","","","","","","","","","","","","","","","","","",""
"true","preload","1","23647","0.0-1.0","57581be800ca3200072679b3","625757b0db950a57cc6dead1","false","[]","[]","[]","","","","","","","","","","","","","","",""
"","psychophysics","2","28052","0.0-2.0","57581be800ca3200072679b3","625757b0db950a57cc6dead1","","","","","4363","key"," "," ","18.034717213114746","500","250","inst","","","","","","",""
"","psychophysics","3","29605","0.0-3.0","57581be800ca3200072679b3","625757b0db950a57cc6dead1","","","","","1549","key"," "," ","16.660760869565227","500","250","inst","","","","","","",""
"","psychophysics","4","55499","0.0-4.0","57581be800ca3200072679b3","625757b0db950a57cc6dead1","","","","","25890","key"," "," ","16.7323257918552","500","250","instMl","168","-28","-5","9","-22","",""
"","psychophysics","5","76906","0.0-5.0","57581be800ca3200072679b3","625757b0db950a57cc6dead1","","","","","21403","key"," "," ","16.66749883086516","500","250","instMl","168","-28","21","27","-23","",""
"","psychophysics","6","81572","0.0-6.0","57581be800ca3200072679b3","625757b0db950a57cc6dead1","","","","","4662","key"," "," ","16.668032258064496","500","250","inst","","","","","","",""
"","psychophysics","7","95029","0.0-7.0","57581be800ca3200072679b3","625757b0db950a57cc6dead1","","","","","13451","key"," "," ","16.667704714640216","500","250","ml","216","43","-11","21","-18","",""
"","psychophysics","8","100261","0.0-8.0","57581be800ca3200072679b3","625757b0db950a57cc6dead1","","","","","5223","key"," "," ","16.66827476038338","500","250","ml","228","-25","-7","-16","-23","",""
"","psychophysics","9","111516","0.0-9.0","57581be800ca3200072679b3","625757b0db950a57cc6dead1","","","","","11248","key"," "," ","16.66795400593472","500","250","ml","218","47","-1","-5","-17","",""
"","psychophysics","10","121424","0.0-10.0","57581be800ca3200072679b3","625757b0db950a57cc6dead1","","","","","9887","key"," "," ","16.667767676767692","500","250","ml","156","24","-21","-3","-13","",""
"","psychophysics","11","131216","0.0-11.0","57581be800ca3200072679b3","625757b0db950a57cc6dead1","","","","","9765","key"," "," ","16.66789078498292","500","250","ml","182","13","28","16","-15","",""
"","psychophysics","12","139060","0.0-12.0","57581be800ca3200072679b3","625757b0db950a57cc6dead1","","","","","7837","key"," "," ","16.667687234042543","500","250","ml","164","-16","19","-14","-12","",""
"","psychophysics","13","147380","0.0-13.0","57581be800ca3200072679b3","625757b0db950a57cc6dead1","","","","","8308","key"," "," ","16.668098393574276","500","250","ml","174","15","-11","21","-11","",""
"","psychophysics","14","153834","0.0-14.0","57581be800ca3200072679b3","625757b0db950a57cc6dead1","","","","","6451","key"," "," ","16.667585492227964","500","250","ml","234","-6","-6","-26","-14","",""
"","psychophysics","15","158846","0.0-15.0","57581be800ca3200072679b3","625757b0db950a57cc6dead1","","","","","5003","key"," "," ","16.668073333333304","500","250","ml","172","-15","-13","25","-12","",""
"","psychophysics","16","164865","0.0-16.0","57581be800ca3200072679b3","625757b0db950a57cc6dead1","","","","","6015","key"," "," ","16.668286111111147","500","250","ml","206","8","-7","-11","-14","",""
"","psychophysics","17","167848","0.0-17.0","57581be800ca3200072679b3","625757b0db950a57cc6dead1","","","","","2980","key"," "," ","16.667202247191106","500","250","ml","190","-21","-1","-26","-19","",""
"","psychophysics","18","174644","0.0-18.0","57581be800ca3200072679b3","625757b0db950a57cc6dead1","","","","","6793","key"," "," ","16.667825552825608","500","250","ml","190","3","-20","30","-12","",""
"","psychophysics","19","181231","0.0-19.0","57581be800ca3200072679b3","625757b0db950a57cc6dead1","","","","","6583","key"," "," ","16.66767258883255","500","250","ml","214","-2","-7","11","-12","",""
"","psychophysics","20","187728","0.0-20.0","57581be800ca3200072679b3","625757b0db950a57cc6dead1","","","","","6493","key"," "," ","16.667498714652897","500","250","ml","196","-6","-4","-28","-15","",""
"","psychophysics","21","197232","0.0-21.0","57581be800ca3200072679b3","625757b0db950a57cc6dead1","","","","","9501","key"," "," ","16.66758875219685","500","250","ml","202","50","-29","-7","-10","",""
"","psychophysics","22","198842","0.0-22.0","57581be800ca3200072679b3","625757b0db950a57cc6dead1","","","","","1606","key"," "," ","16.66819791666664","500","250","inst","","","","","","",""
"","psychophysics","23","217872","0.0-23.0","57581be800ca3200072679b3","625757b0db950a57cc6dead1","","","","","19023","key"," "," ","16.667814912280708","500","250","instPog","","","","","130","130",""
"","psychophysics","24","228376","0.0-24.0","57581be800ca3200072679b3","625757b0db950a57cc6dead1","","","","","10498","key"," "," ","16.667838095238114","500","250","instPog","","","","","141","130",""
"","psychophysics","25","234159","0.0-25.0","57581be800ca3200072679b3","625757b0db950a57cc6dead1","","","","","5780","key"," "," ","16.66767826086953","500","250","instPog","","","","","160","130",""
"","psychophysics","26","236822","0.0-26.0","57581be800ca3200072679b3","625757b0db950a57cc6dead1","","","","","2657","key"," "," ","16.667704402515774","500","250","inst","","","","","","",""
"","psychophysics","27","244056","0.0-27.0","57581be800ca3200072679b3","625757b0db950a57cc6dead1","","","","","7227","key"," "," ","16.668595842956204","500","250","pog","","","","","158","135",""
"","psychophysics","28","256445","0.0-28.0","57581be800ca3200072679b3","625757b0db950a57cc6dead1","","","","","12381","key"," "," ","16.667197846567973","500","250","pog","","","","","176","152",""
"","psychophysics","29","263688","0.0-29.0","57581be800ca3200072679b3","625757b0db950a57cc6dead1","","","","","7241","key"," "," ","16.669226327944493","500","250","pog","","","","","197","173",""
"","psychophysics","30","270212","0.0-30.0","57581be800ca3200072679b3","625757b0db950a57cc6dead1","","","","","6521","key"," "," ","16.667156010230197","500","250","pog","","","","","182","159",""
"","psychophysics","31","276459","0.0-31.0","57581be800ca3200072679b3","625757b0db950a57cc6dead1","","","","","6244","key"," "," ","16.668415549597746","500","250","pog","","","","","199","168",""
"","psychophysics","32","281597","0.0-32.0","57581be800ca3200072679b3","625757b0db950a57cc6dead1","","","","","5131","key"," "," ","16.668149350649283","500","250","pog","","","","","185","156",""
"","psychophysics","33","285393","0.0-33.0","57581be800ca3200072679b3","625757b0db950a57cc6dead1","","","","","3793","key"," "," ","16.66850442477874","500","250","pog","","","","","180","151",""
"","psychophysics","34","290155","0.0-34.0","57581be800ca3200072679b3","625757b0db950a57cc6dead1","","","","","4757","key"," "," ","16.667912280701895","500","250","pog","","","","","193","170",""
"","psychophysics","35","296614","0.0-35.0","57581be800ca3200072679b3","625757b0db950a57cc6dead1","","","","","6456","key"," "," ","16.667343669250613","500","250","pog","","","","","148","120",""
"","psychophysics","36","300460","0.0-36.0","57581be800ca3200072679b3","625757b0db950a57cc6dead1","","","","","3844","key"," "," ","16.74174561403516","500","250","pog","","","","","161","145",""
"","psychophysics","37","308736","0.0-37.0","57581be800ca3200072679b3","625757b0db950a57cc6dead1","","","","","8270","key"," "," ","16.66804233870965","500","250","pog","","","","","224","198",""
"","psychophysics","38","313651","0.0-38.0","57581be800ca3200072679b3","625757b0db950a57cc6dead1","","","","","4913","key"," "," ","16.666721088435384","500","250","pog","","","","","196","168",""
"","psychophysics","39","315394","0.0-39.0","57581be800ca3200072679b3","625757b0db950a57cc6dead1","","","","","1740","key"," "," ","16.669427184466027","500","250","pog","","","","","160","131",""
"","psychophysics","40","325209","0.0-40.0","57581be800ca3200072679b3","625757b0db950a57cc6dead1","","","","","9808","key"," "," ","16.667534013605458","500","250","pog","","","","","194","168",""
"","psychophysics","41","328612","0.0-41.0","57581be800ca3200072679b3","625757b0db950a57cc6dead1","","","","","3400","key"," "," ","16.750495049504835","500","250","pog","","","","","165","136",""
"","psychophysics","42","330675","0.0-42.0","57581be800ca3200072679b3","625757b0db950a57cc6dead1","","","","","2055","key"," "," ","16.667544715447214","500","250","inst","","","","","","",""
"","psychophysics","43","334923","0.0-43.0","57581be800ca3200072679b3","625757b0db950a57cc6dead1","","","","","4242","key"," "," ","16.66525984251955","500","250","instTilt","","","","","NaN","0","0"
"","psychophysics","44","338412","0.0-44.0","57581be800ca3200072679b3","625757b0db950a57cc6dead1","","","","","3486","key"," "," ","16.74771497584542","500","250","instTilt","","","","","0","0","0"
"","psychophysics","45","347902","0.0-45.0","57581be800ca3200072679b3","625757b0db950a57cc6dead1","","","","","9484","key"," "," ","16.667910369068487","500","250","instTilt","","","","","0","0","0"
"","psychophysics","46","351720","0.0-46.0","57581be800ca3200072679b3","625757b0db950a57cc6dead1","","","","","3814","key"," "," ","16.668412280701695","500","250","inst","","","","","","",""
"","psychophysics","47","360384","0.0-47.0","57581be800ca3200072679b3","625757b0db950a57cc6dead1","","","","","8661","key"," "," ","16.6675907335908","500","250","tilt","","","","","5","8","1"
"","psychophysics","48","366045","0.0-48.0","57581be800ca3200072679b3","625757b0db950a57cc6dead1","","","","","5655","key"," "," ","16.66806194690265","500","250","tilt","","","","","0","-2","0"
"","psychophysics","49","373107","0.0-49.0","57581be800ca3200072679b3","625757b0db950a57cc6dead1","","","","","7055","key"," "," ","16.667690307328513","500","250","tilt","","","","","-1","-2","0"
"","psychophysics","50","377160","0.0-50.0","57581be800ca3200072679b3","625757b0db950a57cc6dead1","","","","","4048","key"," "," ","16.66732644628106","500","250","tilt","","","","","6","4","0"
"","psychophysics","51","380889","0.0-51.0","57581be800ca3200072679b3","625757b0db950a57cc6dead1","","","","","3726","key"," "," ","16.668390134529048","500","250","tilt","","","","","4","1","0"
"","psychophysics","52","387368","0.0-52.0","57581be800ca3200072679b3","625757b0db950a57cc6dead1","","","","","6476","key"," "," ","16.667976804123683","500","250","tilt","","","","","-5","-9","1"
"","psychophysics","53","391959","0.0-53.0","57581be800ca3200072679b3","625757b0db950a57cc6dead1","","","","","4587","key"," "," ","16.667321167883284","500","250","tilt","","","","","0","2","1"
"","psychophysics","54","396344","0.0-54.0","57581be800ca3200072679b3","625757b0db950a57cc6dead1","","","","","4382","key"," "," ","16.66935114503815","500","250","tilt","","","","","5","9","1"
"","psychophysics","55","400062","0.0-55.0","57581be800ca3200072679b3","625757b0db950a57cc6dead1","","","","","3714","key"," "," ","16.666833333333383","500","250","tilt","","","","","2","2","1"
"","psychophysics","56","404449","0.0-56.0","57581be800ca3200072679b3","625757b0db950a57cc6dead1","","","","","4383","key"," "," ","16.667744274809245","500","250","tilt","","","","","6","6","0"
"","psychophysics","57","412353","0.0-57.0","57581be800ca3200072679b3","625757b0db950a57cc6dead1","","","","","7899","key"," "," ","16.668056962025286","500","250","tilt","","","","","-4","-4","1"
"","psychophysics","58","415752","0.0-58.0","57581be800ca3200072679b3","625757b0db950a57cc6dead1","","","","","3393","key"," "," ","16.66804455445548","500","250","tilt","","","","","-6","-6","1"
"","psychophysics","59","420440","0.0-59.0","57581be800ca3200072679b3","625757b0db950a57cc6dead1","","","","","4682","key"," "," ","16.668028469750944","500","250","tilt","","","","","3","7","1"
"","psychophysics","60","423791","0.0-60.0","57581be800ca3200072679b3","625757b0db950a57cc6dead1","","","","","3349","key"," "," ","16.66898499999981","500","250","tilt","","","","","-6","-4","1"
"","psychophysics","61","428873","0.0-61.0","57581be800ca3200072679b3","625757b0db950a57cc6dead1","","","","","5077","key"," "," ","16.72159405940588","500","250","tilt","","","","","-5","-5","1"
"","psychophysics","62","432295","0.0-62.0","57581be800ca3200072679b3","625757b0db950a57cc6dead1","","","","","3418","key"," "," ","16.668558823529406","500","250","tilt","","","","","7","5","0"
"","psychophysics","63","439635","0.0-63.0","57581be800ca3200072679b3","625757b0db950a57cc6dead1","","","","","7336","key"," "," ","16.667596810933833","500","250","tilt","","","","","5","10","1"
"","psychophysics","64","445117","0.0-64.0","57581be800ca3200072679b3","625757b0db950a57cc6dead1","","","","","5474","key"," "," ","16.668597560975574","500","250","tilt","","","","","-4","-7","0"
"","psychophysics","65","448155","0.0-65.0","57581be800ca3200072679b3","625757b0db950a57cc6dead1","","","","","3031","key"," "," ","16.66707734806651","500","250","tilt","","","","","4","5","0"
"","psychophysics","66","450628","0.0-66.0","57581be800ca3200072679b3","625757b0db950a57cc6dead1","","","","","2467","key"," "," ","16.674466216216192","500","250","tilt","","","","","0","-3","0"
"","psychophysics","67","453374","0.0-67.0","57581be800ca3200072679b3","625757b0db950a57cc6dead1","","","","","2741","key"," "," ","16.667748466257628","500","250","tilt","","","","","4","1","0"
"","psychophysics","68","461428","0.0-68.0","57581be800ca3200072679b3","625757b0db950a57cc6dead1","","","","","8048","key"," "," ","16.70166597510381","500","250","tilt","","","","","0","-1","0"
"","psychophysics","69","465340","0.0-69.0","57581be800ca3200072679b3","625757b0db950a57cc6dead1","","","","","3907","key"," "," ","16.6677905982905","500","250","tilt","","","","","-8","-9","1"
"","psychophysics","70","469484","0.0-70.0","57581be800ca3200072679b3","625757b0db950a57cc6dead1","","","","","4139","key"," "," ","16.66774898785405","500","250","tilt","","","","","-3","-6","0"
"","psychophysics","71","471366","0.0-71.0","57581be800ca3200072679b3","625757b0db950a57cc6dead1","","","","","1880","key"," "," ","16.66681250000017","500","250","tilt","","","","","0","-3","0"
"","psychophysics","72","474850","0.0-72.0","57581be800ca3200072679b3","625757b0db950a57cc6dead1","","","","","3480","key"," "," ","16.749285024154656","500","250","tilt","","","","","4","4","1"
"","psychophysics","73","483391","0.0-73.0","57581be800ca3200072679b3","625757b0db950a57cc6dead1","","","","","8537","key"," "," ","16.667207031249973","500","250","tilt","","","","","-5","-10","1"
"","psychophysics","74","490142","0.0-74.0","57581be800ca3200072679b3","625757b0db950a57cc6dead1","","","","","6748","key"," "," ","16.792361596009886","500","250","tilt","","","","","3","7","1"
"","psychophysics","75","492994","0.0-75.0","57581be800ca3200072679b3","625757b0db950a57cc6dead1","","","","","2846","key"," "," ","16.663282352941014","500","250","tilt","","","","","5","3","0"
"","psychophysics","76","495310","0.0-76.0","57581be800ca3200072679b3","625757b0db950a57cc6dead1","","","","","2313","key"," "," ","16.66968115942048","500","250","tilt","","","","","-6","-5","1"
"","psychophysics","77","496468","0.0-77.0","57581be800ca3200072679b3","625757b0db950a57cc6dead1","","","","","1154","key"," "," ","16.667867647058515","500","250","inst","","","","","","",""
"","psychophysics","78","501068","0.0-78.0","57581be800ca3200072679b3","625757b0db950a57cc6dead1","","","","","4597","key"," "," ","16.728854014598348","500","250","instPz","","","","","50","50",""
"","psychophysics","79","510620","0.0-79.0","57581be800ca3200072679b3","625757b0db950a57cc6dead1","","","","","9549","key"," "," ","16.667716783216797","500","250","instPz","","","","","48","50",""
"","psychophysics","80","516025","0.0-80.0","57581be800ca3200072679b3","625757b0db950a57cc6dead1","","","","","5401","key"," "," ","16.66858513931882","500","250","instPz","","","","","29","30",""
"","psychophysics","81","529905","0.0-81.0","57581be800ca3200072679b3","625757b0db950a57cc6dead1","","","","","13872","key"," "," ","16.728001206272662","500","250","instPz","","","","","48","40",""
"","psychophysics","82","533553","0.0-82.0","57581be800ca3200072679b3","625757b0db950a57cc6dead1","","","","","3640","key"," "," ","16.667600917431244","500","250","inst","","","","","","",""
"","psychophysics","83","541947","0.0-83.0","57581be800ca3200072679b3","625757b0db950a57cc6dead1","","","","","8389","key"," "," ","16.668139165009986","500","250","pz","","","","","64","57",""
"","psychophysics","84","546241","0.0-84.0","57581be800ca3200072679b3","625757b0db950a57cc6dead1","","","","","4290","key"," "," ","16.6655976562497","500","250","pz","","","","","34","26",""
"","psychophysics","85","551080","0.0-85.0","57581be800ca3200072679b3","625757b0db950a57cc6dead1","","","","","4833","key"," "," ","16.668982758620707","500","250","pz","","","","","37","33",""
"","psychophysics","86","557191","0.0-86.0","57581be800ca3200072679b3","625757b0db950a57cc6dead1","","","","","6106","key"," "," ","16.668016438356165","500","250","pz","","","","","58","47",""
"","psychophysics","87","562855","0.0-87.0","57581be800ca3200072679b3","625757b0db950a57cc6dead1","","","","","5658","key"," "," ","16.71788165680465","500","250","pz","","","","","47","36",""
