"success","trial_type","trial_index","time_elapsed","internal_node_id","pid","sid","timeout","failed_images","failed_audio","failed_video","rt","response_type","key_press","response","avg_frame_time","center_x","center_y","task","ml_len","ml_start","ml_x","ml_y","resp","targ","back"
"true","fullscreen","0","9297","0.0-0.0","5b75d448be28580001b5a603","6255e2378234969c150dcdf8","","","","","","","","","","","","","","","","","","",""
"true","preload","1","9300","0.0-1.0","5b75d448be28580001b5a603","6255e2378234969c150dcdf8","false","[]","[]","[]","","","","","","","","","","","","","","",""
"","psychophysics","2","15511","0.0-2.0","5b75d448be28580001b5a603","6255e2378234969c150dcdf8","","","","","6199","key"," "," ","16.711792452830192","500","250","inst","","","","","","",""
"","psychophysics","3","17526","0.0-3.0","5b75d448be28580001b5a603","6255e2378234969c150dcdf8","","","","","2013","key"," "," ","16.66654166666667","500","250","inst","","","","","","",""
"","psychophysics","4","36444","0.0-4.0","5b75d448be28580001b5a603","6255e2378234969c150dcdf8","","","","","18915","key"," "," ","16.666913580246913","500","250","instMl","162","-27","3","30","-14","",""
"","psychophysics","5","53572","0.0-5.0","5b75d448be28580001b5a603","6255e2378234969c150dcdf8","","","","","17124","key"," "," ","16.666823758519957","500","250","ml","216","-36","2","14","-15","",""
"","psychophysics","6","58320","0.0-6.0","5b75d448be28580001b5a603","6255e2378234969c150dcdf8","","","","","4744","key"," "," ","16.667292253521122","500","250","inst","","","","","","",""
"","psychophysics","7","67536","0.0-7.0","5b75d448be28580001b5a603","6255e2378234969c150dcdf8","","","","","9213","key"," "," ","16.66683152173912","500","250","","164","24","-20","24","-8","",""
"","psychophysics","8","74642","0.0-8.0","5b75d448be28580001b5a603","6255e2378234969c150dcdf8","","","","","7103","key"," "," ","16.666788235294106","500","250","","178","22","-2","16","-7","",""
"","psychophysics","9","82271","0.0-9.0","5b75d448be28580001b5a603","6255e2378234969c150dcdf8","","","","","7625","key"," "," ","16.666816192560177","500","250","","234","-42","-16","-16","-8","",""
"","psychophysics","10","87087","0.0-10.0","5b75d448be28580001b5a603","6255e2378234969c150dcdf8","","","","","4814","key"," "," ","16.666541666666642","500","250","","178","16","2","-11","-12","",""
"","psychophysics","11","94129","0.0-11.0","5b75d448be28580001b5a603","6255e2378234969c150dcdf8","","","","","7040","key"," "," ","16.666938242280292","500","250","","204","-45","-15","-14","-11","",""
"","psychophysics","12","100808","0.0-12.0","5b75d448be28580001b5a603","6255e2378234969c150dcdf8","","","","","6677","key"," "," ","16.66659499999998","500","250","","154","33","21","19","-6","",""
"","psychophysics","13","106935","0.0-13.0","5b75d448be28580001b5a603","6255e2378234969c150dcdf8","","","","","6124","key"," "," ","16.666847411444163","500","250","","214","-24","20","-26","-14","",""
"","psychophysics","14","112016","0.0-14.0","5b75d448be28580001b5a603","6255e2378234969c150dcdf8","","","","","5079","key"," "," ","16.666930921052643","500","250","","158","-11","7","30","-12","",""
"","psychophysics","15","121009","0.0-15.0","5b75d448be28580001b5a603","6255e2378234969c150dcdf8","","","","","8992","key"," "," ","16.66672304832714","500","250","","244","-50","23","-27","-13","",""
"","psychophysics","16","140479","0.0-16.0","5b75d448be28580001b5a603","6255e2378234969c150dcdf8","","","","","19467","key"," "," ","16.666940017137964","500","250","","196","8","-17","-20","-11","",""
"","psychophysics","17","145972","0.0-17.0","5b75d448be28580001b5a603","6255e2378234969c150dcdf8","","","","","5491","key"," "," ","16.66673556231003","500","250","","164","-26","-27","-11","-10","",""
"","psychophysics","18","153000","0.0-18.0","5b75d448be28580001b5a603","6255e2378234969c150dcdf8","","","","","7027","key"," "," ","16.666869358669782","500","250","","184","34","22","-20","-11","",""
"","psychophysics","19","156459","0.0-19.0","5b75d448be28580001b5a603","6255e2378234969c150dcdf8","","","","","3455","key"," "," ","16.666490291262093","500","250","","160","-10","22","-3","-11","",""
"","psychophysics","20","163203","0.0-20.0","5b75d448be28580001b5a603","6255e2378234969c150dcdf8","","","","","6742","key"," "," ","16.666797029702966","500","250","","164","11","-2","16","-10","",""
"","psychophysics","21","169958","0.0-21.0","5b75d448be28580001b5a603","6255e2378234969c150dcdf8","","","","","6752","key"," "," ","16.666757425742563","500","250","","196","43","-5","-5","-10","",""
"","psychophysics","22","172265","0.0-22.0","5b75d448be28580001b5a603","6255e2378234969c150dcdf8","","","","","2305","key"," "," ","16.667499999999933","500","250","inst","","","","","","",""
"","psychophysics","23","183534","0.0-23.0","5b75d448be28580001b5a603","6255e2378234969c150dcdf8","","","","","11266","key"," "," ","16.66688888888888","500","250","instPog","","","","","130","130",""
"","psychophysics","24","191870","0.0-24.0","5b75d448be28580001b5a603","6255e2378234969c150dcdf8","","","","","8333","key"," "," ","16.666977955911793","500","250","instPog","","","","","133","130",""
"","psychophysics","25","199868","0.0-25.0","5b75d448be28580001b5a603","6255e2378234969c150dcdf8","","","","","7995","key"," "," ","16.66681837160755","500","250","instPog","","","","","135","130",""
"","psychophysics","26","202152","0.0-26.0","5b75d448be28580001b5a603","6255e2378234969c150dcdf8","","","","","2281","key"," "," ","16.66627205882362","500","250","inst","","","","","","",""
"","psychophysics","27","206069","0.0-27.0","5b75d448be28580001b5a603","6255e2378234969c150dcdf8","","","","","3914","key"," "," ","16.667000000000037","500","250","pog","","","","","141","130",""
"","psychophysics","28","210845","0.0-28.0","5b75d448be28580001b5a603","6255e2378234969c150dcdf8","","","","","4774","key"," "," ","16.667291228070123","500","250","pog","","","","","173","174",""
"","psychophysics","29","216241","0.0-29.0","5b75d448be28580001b5a603","6255e2378234969c150dcdf8","","","","","5394","key"," "," ","16.666854489164088","500","250","pog","","","","","171","170",""
"","psychophysics","30","224651","0.0-30.0","5b75d448be28580001b5a603","6255e2378234969c150dcdf8","","","","","8407","key"," "," ","16.66671626984126","500","250","pog","","","","","143","134",""
"","psychophysics","31","230428","0.0-31.0","5b75d448be28580001b5a603","6255e2378234969c150dcdf8","","","","","5774","key"," "," ","16.66690144927538","500","250","pog","","","","","182","179",""
"","psychophysics","32","236104","0.0-32.0","5b75d448be28580001b5a603","6255e2378234969c150dcdf8","","","","","5674","key"," "," ","16.66681764705889","500","250","pog","","","","","142","136",""
"","psychophysics","33","238372","0.0-33.0","5b75d448be28580001b5a603","6255e2378234969c150dcdf8","","","","","2267","key"," "," ","16.66780000000015","500","250","pog","","","","","162","153",""
"","psychophysics","34","245168","0.0-34.0","5b75d448be28580001b5a603","6255e2378234969c150dcdf8","","","","","6793","key"," "," ","16.667068796068804","500","250","pog","","","","","167","157",""
"","psychophysics","35","251391","0.0-35.0","5b75d448be28580001b5a603","6255e2378234969c150dcdf8","","","","","6220","key"," "," ","16.666650537634425","500","250","pog","","","","","202","198",""
"","psychophysics","36","255504","0.0-36.0","5b75d448be28580001b5a603","6255e2378234969c150dcdf8","","","","","4109","key"," "," ","16.666784552845566","500","250","pog","","","","","201","200",""
"","psychophysics","37","258534","0.0-37.0","5b75d448be28580001b5a603","6255e2378234969c150dcdf8","","","","","3028","key"," "," ","16.66702209944751","500","250","pog","","","","","156","145",""
"","psychophysics","38","263807","0.0-38.0","5b75d448be28580001b5a603","6255e2378234969c150dcdf8","","","","","5270","key"," "," ","16.666971428571305","500","250","pog","","","","","203","200",""
"","psychophysics","39","265686","0.0-39.0","5b75d448be28580001b5a603","6255e2378234969c150dcdf8","","","","","1877","key"," "," ","16.66650892857121","500","250","pog","","","","","159","147",""
"","psychophysics","40","269019","0.0-40.0","5b75d448be28580001b5a603","6255e2378234969c150dcdf8","","","","","3330","key"," "," ","16.666733668341674","500","250","pog","","","","","179","172",""
"","psychophysics","41","283747","0.0-41.0","5b75d448be28580001b5a603","6255e2378234969c150dcdf8","","","","","14726","key"," "," ","16.666829931972824","500","250","pog","","","","","129","120",""
"","psychophysics","42","286070","0.0-42.0","5b75d448be28580001b5a603","6255e2378234969c150dcdf8","","","","","2321","key"," "," ","16.667007194244448","500","250","inst","","","","","","",""
"","psychophysics","43","289113","0.0-43.0","5b75d448be28580001b5a603","6255e2378234969c150dcdf8","","","","","3042","key"," "," ","16.666972375690655","500","250","instTilt","","","","","NaN","0","0"
"","psychophysics","44","291724","0.0-44.0","5b75d448be28580001b5a603","6255e2378234969c150dcdf8","","","","","2609","key"," "," ","16.666846153846098","500","250","instTilt","","","","","0","0","0"
"","psychophysics","45","309305","0.0-45.0","5b75d448be28580001b5a603","6255e2378234969c150dcdf8","","","","","17579","key"," "," ","16.666821631878573","500","250","instTilt","","","","","0","0","0"
"","psychophysics","46","314373","0.0-46.0","5b75d448be28580001b5a603","6255e2378234969c150dcdf8","","","","","5066","key"," "," ","16.667145214521323","500","250","inst","","","","","","",""
"","psychophysics","47","318306","0.0-47.0","5b75d448be28580001b5a603","6255e2378234969c150dcdf8","","","","","3930","key"," "," ","16.66698297872332","500","250","tilt","","","","","-2","0","1"
"","psychophysics","48","322474","0.0-48.0","5b75d448be28580001b5a603","6255e2378234969c150dcdf8","","","","","4164","key"," "," ","16.666710843373487","500","250","tilt","","","","","5","9","1"
"","psychophysics","49","326434","0.0-49.0","5b75d448be28580001b5a603","6255e2378234969c150dcdf8","","","","","3958","key"," "," ","16.666459915611817","500","250","tilt","","","","","-7","-7","0"
"","psychophysics","50","329625","0.0-50.0","5b75d448be28580001b5a603","6255e2378234969c150dcdf8","","","","","3189","key"," "," ","16.667031578947544","500","250","tilt","","","","","8","7","0"
"","psychophysics","51","334210","0.0-51.0","5b75d448be28580001b5a603","6255e2378234969c150dcdf8","","","","","4582","key"," "," ","16.666558394160752","500","250","tilt","","","","","-5","-8","0"
"","psychophysics","52","338456","0.0-52.0","5b75d448be28580001b5a603","6255e2378234969c150dcdf8","","","","","4244","key"," "," ","16.666669291338707","500","250","tilt","","","","","-5","-9","0"
"","psychophysics","53","342028","0.0-53.0","5b75d448be28580001b5a603","6255e2378234969c150dcdf8","","","","","3569","key"," "," ","16.666488262910796","500","250","tilt","","","","","5","5","1"
"","psychophysics","54","346271","0.0-54.0","5b75d448be28580001b5a603","6255e2378234969c150dcdf8","","","","","4240","key"," "," ","16.667307086614112","500","250","tilt","","","","","6","9","1"
"","psychophysics","55","350309","0.0-55.0","5b75d448be28580001b5a603","6255e2378234969c150dcdf8","","","","","4036","key"," "," ","16.666792531120272","500","250","tilt","","","","","1","1","1"
"","psychophysics","56","353098","0.0-56.0","5b75d448be28580001b5a603","6255e2378234969c150dcdf8","","","","","2786","key"," "," ","16.6676686746987","500","250","tilt","","","","","-3","-1","1"
"","psychophysics","57","356649","0.0-57.0","5b75d448be28580001b5a603","6255e2378234969c150dcdf8","","","","","3549","key"," "," ","17.07311219512201","500","250","tilt","","","","","9","10","0"
"","psychophysics","58","360619","0.0-58.0","5b75d448be28580001b5a603","6255e2378234969c150dcdf8","","","","","3966","key"," "," ","17.241392241379423","500","250","tilt","","","","","5","7","1"
"","psychophysics","59","363684","0.0-59.0","5b75d448be28580001b5a603","6255e2378234969c150dcdf8","","","","","3061","key"," "," ","17.0635892857144","500","250","tilt","","","","","-4","-3","1"
"","psychophysics","60","367261","0.0-60.0","5b75d448be28580001b5a603","6255e2378234969c150dcdf8","","","","","3573","key"," "," ","17.307769230769246","500","250","tilt","","","","","4","3","0"
"","psychophysics","61","369031","0.0-61.0","5b75d448be28580001b5a603","6255e2378234969c150dcdf8","","","","","1768","key"," "," ","17.307634615384675","500","250","tilt","","","","","2","2","0"
"","psychophysics","62","372136","0.0-62.0","5b75d448be28580001b5a603","6255e2378234969c150dcdf8","","","","","3100","key"," "," ","17.033291208791255","500","250","tilt","","","","","5","7","1"
"","psychophysics","63","374108","0.0-63.0","5b75d448be28580001b5a603","6255e2378234969c150dcdf8","","","","","1970","key"," "," ","17.105245614035276","500","250","tilt","","","","","-4","-8","0"
"","psychophysics","64","376615","0.0-64.0","5b75d448be28580001b5a603","6255e2378234969c150dcdf8","","","","","2504","key"," "," ","17.245833333333092","500","250","tilt","","","","","3","6","1"
"","psychophysics","65","380068","0.0-65.0","5b75d448be28580001b5a603","6255e2378234969c150dcdf8","","","","","3451","key"," "," ","17.250054999999993","500","250","tilt","","","","","-7","-5","1"
"","psychophysics","66","383107","0.0-66.0","5b75d448be28580001b5a603","6255e2378234969c150dcdf8","","","","","3036","key"," "," ","17.049959770115105","500","250","tilt","","","","","-4","-4","0"
"","psychophysics","67","388258","0.0-67.0","5b75d448be28580001b5a603","6255e2378234969c150dcdf8","","","","","5148","key"," "," ","17.33570568561869","500","250","tilt","","","","","-11","-10","1"
"","psychophysics","68","390458","0.0-68.0","5b75d448be28580001b5a603","6255e2378234969c150dcdf8","","","","","2197","key"," "," ","16.794923076923276","500","250","tilt","","","","","-2","-1","1"
"","psychophysics","69","393145","0.0-69.0","5b75d448be28580001b5a603","6255e2378234969c150dcdf8","","","","","2685","key"," "," ","17.10229411764676","500","250","tilt","","","","","6","5","0"
"","psychophysics","70","397044","0.0-70.0","5b75d448be28580001b5a603","6255e2378234969c150dcdf8","","","","","3862","key"," "," ","17.10182608695645","500","250","tilt","","","","","-9","-7","1"
"","psychophysics","71","399900","0.0-71.0","5b75d448be28580001b5a603","6255e2378234969c150dcdf8","","","","","2855","key"," "," ","16.865517857142898","500","250","tilt","","","","","-3","1","1"
"","psychophysics","72","404309","0.0-72.0","5b75d448be28580001b5a603","6255e2378234969c150dcdf8","","","","","4407","key"," "," ","16.85836015325673","500","250","tilt","","","","","-1","-1","0"
"","psychophysics","73","406878","0.0-73.0","5b75d448be28580001b5a603","6255e2378234969c150dcdf8","","","","","2566","key"," "," ","16.666679738561953","500","250","tilt","","","","","5","7","0"
"","psychophysics","74","409313","0.0-74.0","5b75d448be28580001b5a603","6255e2378234969c150dcdf8","","","","","2432","key"," "," ","16.66679310344826","500","250","tilt","","","","","-2","-5","0"
"","psychophysics","75","412325","0.0-75.0","5b75d448be28580001b5a603","6255e2378234969c150dcdf8","","","","","3010","key"," "," ","16.6670166666668","500","250","tilt","","","","","5","8","1"
"","psychophysics","76","414815","0.0-76.0","5b75d448be28580001b5a603","6255e2378234969c150dcdf8","","","","","2488","key"," "," ","16.66682432432434","500","250","tilt","","","","","2","6","1"
"","psychophysics","77","416707","0.0-77.0","5b75d448be28580001b5a603","6255e2378234969c150dcdf8","","","","","1890","key"," "," ","16.666353982300972","500","250","inst","","","","","","",""
"","psychophysics","78","427625","0.0-78.0","5b75d448be28580001b5a603","6255e2378234969c150dcdf8","","","","","10916","key"," "," ","16.666761467889962","500","250","instPz","","","","","57","50",""
"","psychophysics","79","432963","0.0-79.0","5b75d448be28580001b5a603","6255e2378234969c150dcdf8","","","","","5336","key"," "," ","16.66679310344826","500","250","instPz","","","","","55","50",""
"","psychophysics","80","441505","0.0-80.0","5b75d448be28580001b5a603","6255e2378234969c150dcdf8","","","","","8540","key"," "," ","16.666779296875006","500","250","instPz","","","","","15","50",""
"","psychophysics","81","444473","0.0-81.0","5b75d448be28580001b5a603","6255e2378234969c150dcdf8","","","","","2966","key"," "," ","16.666694915254265","500","250","inst","","","","","","",""
"","psychophysics","82","456842","0.0-82.0","5b75d448be28580001b5a603","6255e2378234969c150dcdf8","","","","","12367","key"," "," ","16.666885290148464","500","250","pz","","","","","34","32",""
"","psychophysics","83","460623","0.0-83.0","5b75d448be28580001b5a603","6255e2378234969c150dcdf8","","","","","3778","key"," "," ","16.667181415929186","500","250","pz","","","","","35","31",""
"","psychophysics","84","463719","0.0-84.0","5b75d448be28580001b5a603","6255e2378234969c150dcdf8","","","","","3094","key"," "," ","16.666199999999858","500","250","pz","","","","","46","38",""
"","psychophysics","85","467288","0.0-85.0","5b75d448be28580001b5a603","6255e2378234969c150dcdf8","","","","","3565","key"," "," ","16.66651173708895","500","250","pz","","","","","21","20",""
"","psychophysics","86","473188","0.0-86.0","5b75d448be28580001b5a603","6255e2378234969c150dcdf8","","","","","5897","key"," "," ","16.667235127478712","500","250","pz","","","","","51","46",""
"","psychophysics","87","477522","0.0-87.0","5b75d448be28580001b5a603","6255e2378234969c150dcdf8","","","","","4331","key"," "," ","16.666953667953592","500","250","pz","","","","","52","50",""
"","psychophysics","88","481030","0.0-88.0","5b75d448be28580001b5a603","6255e2378234969c150dcdf8","","","","","3506","key"," "," ","16.66679904306208","500","250","pz","","","","","41","38",""
"","psychophysics","89","483717","0.0-89.0","5b75d448be28580001b5a603","6255e2378234969c150dcdf8","","","","","2684","key"," "," ","16.66662499999984","500","250","pz","","","","","30","24",""
"","psychophysics","90","486286","0.0-90.0","5b75d448be28580001b5a603","6255e2378234969c150dcdf8","","","","","2565","key"," "," ","16.666798701298926","500","250","pz","","","","","29","23",""
"","psychophysics","91","491339","0.0-91.0","5b75d448be28580001b5a603","6255e2378234969c150dcdf8","","","","","5049","key"," "," ","16.66672185430456","500","250","pz","","","","","47","40",""
"","psychophysics","92","495585","0.0-92.0","5b75d448be28580001b5a603","6255e2378234969c150dcdf8","","","","","4245","key"," "," ","16.66653543307082","500","250","pz","","","","","58","57",""
"","psychophysics","93","499539","0.0-93.0","5b75d448be28580001b5a603","6255e2378234969c150dcdf8","","","","","3951","key"," "," ","16.666622881356073","500","250","pz","","","","","52","45",""
"","psychophysics","94","503221","0.0-94.0","5b75d448be28580001b5a603","6255e2378234969c150dcdf8","","","","","3680","key"," "," ","16.667004545454454","500","250","pz","","","","","46","36",""
"","psychophysics","95","507672","0.0-95.0","5b75d448be28580001b5a603","6255e2378234969c150dcdf8","","","","","4449","key"," "," ","16.667345864661748","500","250","pz","","","","","35","30",""
"","psychophysics","96","511413","0.0-96.0","5b75d448be28580001b5a603","6255e2378234969c150dcdf8","","","","","3738","key"," "," ","16.667381165919288","500","250","pz","","","","","58","49",""
"","psychophysics","97","514279","0.0-97.0","5b75d448be28580001b5a603","6255e2378234969c150dcdf8","","","","","2865","key"," "," ","16.666941520467955","500","250","inst","","","","","","",""
"","psychophysics","98","518182","0.0-98.0","5b75d448be28580001b5a603","6255e2378234969c150dcdf8","","","","","3900","key"," "," ","16.66674248927024","500","250","inst","","","","","","",""
"","psychophysics","99","523031","0.0-99.0","5b75d448be28580001b5a603","6255e2378234969c150dcdf8","","","","","4847","key"," "," ","16.66675862068981","500","250","instFlank","","","","","0.5","0.3","1"
"","psychophysics","100","527538","0.0-100.0","5b75d448be28580001b5a603","6255e2378234969c150dcdf8","","","","","4505","key"," "," ","16.6670777777779","500","250","inst","","","","","","",""
"","psychophysics","101","534654","0.0-101.0","5b75d448be28580001b5a603","6255e2378234969c150dcdf8","","","","","7111","key"," "," ","16.66672535211273","500","250","instFlank","","","","","0.31999999999999984","0.3","1"
"","psychophysics","102","542013","0.0-102.0","5b75d448be28580001b5a603","6255e2378234969c150dcdf8","","","","","7356","key"," "," ","16.66682272727273","500","250","inst","","","","","","",""
"","psychophysics","103","548305","0.0-103.0","5b75d448be28580001b5a603","6255e2378234969c150dcdf8","","","","","6288","key"," "," ","16.66668169761252","500","250","instFlank","","","","","0.3799999999999999","0.3","0"
"","psychophysics","104","550158","0.0-104.0","5b75d448be28580001b5a603","6255e2378234969c150dcdf8","","","","","1850","key"," "," ","16.6674909090909","500","250","inst","","","","","","",""
"","psychophysics","105","554353","0.0-105.0","5b75d448be28580001b5a603","6255e2378234969c150dcdf8","","","","","4192","key"," "," ","16.666800796812627","500","250","flank","","","","","0.47","0.42","0"
"","psychophysics","106","557350","0.0-106.0","5b75d448be28580001b5a603","6255e2378234969c150dcdf8","","","","","2995","key"," "," ","16.666724719101264","500","250","flank","","","","","0.47","0.4","1"
"","psychophysics","107","561047","0.0-107.0","5b75d448be28580001b5a603","6255e2378234969c150dcdf8","","","","","3694","key"," "," ","16.666981900452186","500","250","flank","","","","","0.7400000000000002","0.72","0"
"","psychophysics","108","565355","0.0-108.0","5b75d448be28580001b5a603","6255e2378234969c150dcdf8","","","","","4304","key"," "," ","16.66688759689889","500","250","flank","","","","","0.7400000000000002","0.68","1"
"","psychophysics","109","569261","0.0-109.0","5b75d448be28580001b5a603","6255e2378234969c150dcdf8","","","","","3902","key"," "," ","16.66713304721047","500","250","flank","","","","","0.7400000000000002","0.72","1"
"","psychophysics","110","572937","0.0-110.0","5b75d448be28580001b5a603","6255e2378234969c150dcdf8","","","","","3673","key"," "," ","16.666318181818564","500","250","flank","","","","","0.2299999999999998","0.22","0"
"","psychophysics","111","576756","0.0-111.0","5b75d448be28580001b5a603","6255e2378234969c150dcdf8","","","","","3816","key"," "," ","16.666732456140412","500","250","flank","","","","","0.6500000000000001","0.62","0"
"","psychophysics","112","581043","0.0-112.0","5b75d448be28580001b5a603","6255e2378234969c150dcdf8","","","","","4285","key"," "," ","16.66625390624995","500","250","flank","","","","","0.5900000000000001","0.58","0"
"","psychophysics","113","584517","0.0-113.0","5b75d448be28580001b5a603","6255e2378234969c150dcdf8","","","","","3471","key"," "," ","16.666628019324087","500","250","flank","","","","","0.6500000000000001","0.6","1"
"","psychophysics","114","588377","0.0-114.0","5b75d448be28580001b5a603","6255e2378234969c150dcdf8","","","","","3857","key"," "," ","16.667307359307554","500","250","flank","","","","","0.5900000000000001","0.42","0"
"","psychophysics","115","593259","0.0-115.0","5b75d448be28580001b5a603","6255e2378234969c150dcdf8","","","","","4879","key"," "," ","16.666544520547724","500","250","flank","","","","","0.31999999999999984","0.26","1"
"","psychophysics","116","596448","0.0-116.0","5b75d448be28580001b5a603","6255e2378234969c150dcdf8","","","","","3186","key"," "," ","16.666536842105224","500","250","flank","","","","","0.6500000000000001","0.6","0"
"","psychophysics","117","599747","0.0-117.0","5b75d448be28580001b5a603","6255e2378234969c150dcdf8","","","","","3296","key"," "," ","16.666263959390644","500","250","flank","","","","","0.56","0.5","1"
"","psychophysics","118","603889","0.0-118.0","5b75d448be28580001b5a603","6255e2378234969c150dcdf8","","","","","4139","key"," "," ","16.666322580645247","500","250","flank","","","","","0.7700000000000002","0.8","1"
"","psychophysics","119","608079","0.0-119.0","5b75d448be28580001b5a603","6255e2378234969c150dcdf8","","","","","4188","key"," "," ","16.666856000000145","500","250","flank","","","","","0.2299999999999998","0.22","1"
"","psychophysics","120","612340","0.0-120.0","5b75d448be28580001b5a603","6255e2378234969c150dcdf8","","","","","4259","key"," "," ","16.666811764705926","500","250","flank","","","","","0.47","0.52","1"
"","psychophysics","121","615555","0.0-121.0","5b75d448be28580001b5a603","6255e2378234969c150dcdf8","","","","","3213","key"," "," ","16.666843749999924","500","250","flank","","","","","0.6500000000000001","0.64","1"
"","psychophysics","122","618855","0.0-122.0","5b75d448be28580001b5a603","6255e2378234969c150dcdf8","","","","","3296","key"," "," ","16.666923857867825","500","250","flank","","","","","0.6500000000000001","0.6","0"
"","psychophysics","123","622767","0.0-123.0","5b75d448be28580001b5a603","6255e2378234969c150dcdf8","","","","","3909","key"," "," ","16.667274678111987","500","250","flank","","","","","0.5","0.42","1"
"","psychophysics","124","625933","0.0-124.0","5b75d448be28580001b5a603","6255e2378234969c150dcdf8","","","","","3163","key"," "," ","16.66697883597888","500","250","flank","","","","","0.6500000000000001","0.68","1"
"","psychophysics","125","629232","0.0-125.0","5b75d448be28580001b5a603","6255e2378234969c150dcdf8","","","","","3296","key"," "," ","16.66745177664981","500","250","flank","","","","","0.6500000000000001","0.66","1"
"","psychophysics","126","632375","0.0-126.0","5b75d448be28580001b5a603","6255e2378234969c150dcdf8","","","","","3141","key"," "," ","16.666803191489034","500","250","flank","","","","","0.5","0.42","1"
"","psychophysics","127","635452","0.0-127.0","5b75d448be28580001b5a603","6255e2378234969c150dcdf8","","","","","3074","key"," "," ","16.666879781420707","500","250","flank","","","","","0.4099999999999999","0.38","0"
"","psychophysics","128","638730","0.0-128.0","5b75d448be28580001b5a603","6255e2378234969c150dcdf8","","","","","3275","key"," "," ","16.666882653061386","500","250","flank","","","","","0.34999999999999987","0.28","1"
"","psychophysics","129","642471","0.0-129.0","5b75d448be28580001b5a603","6255e2378234969c150dcdf8","","","","","3738","key"," "," ","16.666754464285727","500","250","flank","","","","","0.7700000000000002","0.78","0"
"","psychophysics","130","646008","0.0-130.0","5b75d448be28580001b5a603","6255e2378234969c150dcdf8","","","","","3535","key"," "," ","16.66710900473938","500","250","flank","","","","","0.6200000000000001","0.58","0"
"","psychophysics","131","648622","0.0-131.0","5b75d448be28580001b5a603","6255e2378234969c150dcdf8","","","","","2610","key"," "," ","16.666801282051704","500","250","flank","","","","","0.43999999999999995","0.4","1"
"","psychophysics","132","651606","0.0-132.0","5b75d448be28580001b5a603","6255e2378234969c150dcdf8","","","","","2983","key"," "," ","16.666786516854394","500","250","flank","","","","","0.43999999999999995","0.24","0"
"","psychophysics","133","654176","0.0-133.0","5b75d448be28580001b5a603","6255e2378234969c150dcdf8","","","","","2567","key"," "," ","16.666823529411605","500","250","flank","","","","","0.43999999999999995","0.4","0"
"","psychophysics","134","657212","0.0-134.0","5b75d448be28580001b5a603","6255e2378234969c150dcdf8","","","","","3034","key"," "," ","16.666850828729668","500","250","flank","","","","","0.56","0.48","1"
"true","fullscreen","135","657215","0.0-135.0","5b75d448be28580001b5a603","6255e2378234969c150dcdf8","","","","","","","","","","","","","","","","","","",""
"true","fullscreen","0","5161","0.0-0.0","5d743ec4869c8f0019b35907","6255d7f90ad0847728b6eb13","","","","","","","","","","","","","","","","","","",""
"true","preload","1","5163","0.0-1.0","5d743ec4869c8f0019b35907","6255d7f90ad0847728b6eb13","false","[]","[]","[]","","","","","","","","","","","","","","",""
"","psychophysics","2","10945","0.0-2.0","5d743ec4869c8f0019b35907","6255d7f90ad0847728b6eb13","","","","","5770","key"," "," ","16.679999999999996","500","250","inst","","","","","","",""
"","psychophysics","3","13889","0.0-3.0","5d743ec4869c8f0019b35907","6255d7f90ad0847728b6eb13","","","","","2942","key"," "," ","16.682531428571433","500","250","inst","","","","","","",""
"","psychophysics","4","39423","0.0-4.0","5d743ec4869c8f0019b35907","6255d7f90ad0847728b6eb13","","","","","25528","key"," "," ","16.680570588235295","500","250","instMl","224","-37.333333333333336","0","-7","-25.333333333333314","",""
"","psychophysics","5","54286","0.0-5.0","5d743ec4869c8f0019b35907","6255d7f90ad0847728b6eb13","","","","","14861","key"," "," ","16.68100561797753","500","250","ml","250","-41.666666666666664","21","20","-22.666666666666742","",""
"","psychophysics","6","60608","0.0-6.0","5d743ec4869c8f0019b35907","6255d7f90ad0847728b6eb13","","","","","6320","key"," "," ","16.679999999999982","500","250","inst","","","","","","",""
"","psychophysics","7","69869","0.0-7.0","5d743ec4869c8f0019b35907","6255d7f90ad0847728b6eb13","","","","","9260","key"," "," ","16.680769369369365","500","250","","234","3","15","-7","-20","",""
"","psychophysics","8","82461","0.0-8.0","5d743ec4869c8f0019b35907","6255d7f90ad0847728b6eb13","","","","","12590","key"," "," ","16.680585657370518","500","250","","240","35","14","-28","-16","",""
"","psychophysics","9","85468","0.0-9.0","5d743ec4869c8f0019b35907","6255d7f90ad0847728b6eb13","","","","","3005","key"," "," ","16.682455555555578","500","250","","212","-13","-3","0","-15","",""
"","psychophysics","10","93533","0.0-10.0","5d743ec4869c8f0019b35907","6255d7f90ad0847728b6eb13","","","","","8063","key"," "," ","16.68091286307053","500","250","","196","-41","10","-16","-24","",""
"","psychophysics","11","105788","0.0-11.0","5d743ec4869c8f0019b35907","6255d7f90ad0847728b6eb13","","","","","12254","key"," "," ","16.680600817438695","500","250","","236","42","18","-16","-20","",""
"","psychophysics","12","116220","0.0-12.0","5d743ec4869c8f0019b35907","6255d7f90ad0847728b6eb13","","","","","10430","key"," "," ","16.6806971153846","500","250","","164","36","7","-26","-13","",""
"","psychophysics","13","124011","0.0-13.0","5d743ec4869c8f0019b35907","6255d7f90ad0847728b6eb13","","","","","7790","key"," "," ","16.680952789699557","500","250","","210","5","3","-17","-21","",""
"","psychophysics","14","135771","0.0-14.0","5d743ec4869c8f0019b35907","6255d7f90ad0847728b6eb13","","","","","11758","key"," "," ","16.680630681818187","500","250","","188","30","14","20","-17","",""
"","psychophysics","15","148395","0.0-15.0","5d743ec4869c8f0019b35907","6255d7f90ad0847728b6eb13","","","","","12623","key"," "," ","16.68058465608465","500","250","","250","42","6","22","-20","",""
"","psychophysics","16","155514","0.0-16.0","5d743ec4869c8f0019b35907","6255d7f90ad0847728b6eb13","","","","","7117","key"," "," ","16.68102582159624","500","250","","236","22","21","19","-23","",""
"","psychophysics","17","162378","0.0-17.0","5d743ec4869c8f0019b35907","6255d7f90ad0847728b6eb13","","","","","6863","key"," "," ","16.679999999999954","500","250","","230","7","6","11","-19","",""
"","psychophysics","18","170169","0.0-18.0","5d743ec4869c8f0019b35907","6255d7f90ad0847728b6eb13","","","","","7789","key"," "," ","16.680920600858386","500","250","","220","-51","-9","20","-18","",""
"","psychophysics","19","182265","0.0-19.0","5d743ec4869c8f0019b35907","6255d7f90ad0847728b6eb13","","","","","12094","key"," "," ","16.680607734806642","500","250","","160","5","-9","23","-15","",""
"","psychophysics","20","192649","0.0-20.0","5d743ec4869c8f0019b35907","6255d7f90ad0847728b6eb13","","","","","10382","key"," "," ","16.680685990338173","500","250","","212","40","1","-20","-17","",""
"","psychophysics","21","200472","0.0-21.0","5d743ec4869c8f0019b35907","6255d7f90ad0847728b6eb13","","","","","7822","key"," "," ","16.68093589743593","500","250","","214","17","-7","-24","-20","",""
"","psychophysics","22","202779","0.0-22.0","5d743ec4869c8f0019b35907","6255d7f90ad0847728b6eb13","","","","","2305","key"," "," ","16.679999999999975","500","250","inst","","","","","","",""
"","psychophysics","23","228040","0.0-23.0","5d743ec4869c8f0019b35907","6255d7f90ad0847728b6eb13","","","","","25259","key"," "," ","16.6808764044944","500","250","instPog","","","","","130","130",""
"","psychophysics","24","240807","0.0-24.0","5d743ec4869c8f0019b35907","6255d7f90ad0847728b6eb13","","","","","12766","key"," "," ","16.68054771241831","500","250","instPog","","","","","140","130",""
"","psychophysics","25","262471","0.0-25.0","5d743ec4869c8f0019b35907","6255d7f90ad0847728b6eb13","","","","","21663","key"," "," ","16.693571759259264","500","250","instPog","","","","","151","130",""
"","psychophysics","26","286360","0.0-26.0","5d743ec4869c8f0019b35907","6255d7f90ad0847728b6eb13","","","","","23888","key"," "," ","33.015807745504844","500","250","inst","","","","","","",""
"","psychophysics","27","302693","0.0-27.0","5d743ec4869c8f0019b35907","6255d7f90ad0847728b6eb13","","","","","16331","key"," "," ","16.680452502553628","500","250","pog","","","","","161","148",""
"","psychophysics","28","322772","0.0-28.0","5d743ec4869c8f0019b35907","6255d7f90ad0847728b6eb13","","","","","20078","key"," "," ","16.68071464226288","500","250","pog","","","","","200","188",""
"","psychophysics","29","330532","0.0-29.0","5d743ec4869c8f0019b35907","6255d7f90ad0847728b6eb13","","","","","7758","key"," "," ","16.681002150537566","500","250","pog","","","","","199","193",""
"","psychophysics","30","338772","0.0-30.0","5d743ec4869c8f0019b35907","6255d7f90ad0847728b6eb13","","","","","8239","key"," "," ","16.680858012170386","500","250","pog","","","","","203","198",""
"","psychophysics","31","351763","0.0-31.0","5d743ec4869c8f0019b35907","6255d7f90ad0847728b6eb13","","","","","12989","key"," "," ","16.68059845559847","500","250","pog","","","","","144","125",""
"","psychophysics","32","366386","0.0-32.0","5d743ec4869c8f0019b35907","6255d7f90ad0847728b6eb13","","","","","14621","key"," "," ","16.681018264840166","500","250","pog","","","","","145","125",""
"","psychophysics","33","373650","0.0-33.0","5d743ec4869c8f0019b35907","6255d7f90ad0847728b6eb13","","","","","7263","key"," "," ","16.679999999999975","500","250","pog","","","","","144","123",""
"","psychophysics","34","383875","0.0-34.0","5d743ec4869c8f0019b35907","6255d7f90ad0847728b6eb13","","","","","10223","key"," "," ","16.680678104575183","500","250","pog","","","","","146","122",""
"","psychophysics","35","395250","0.0-35.0","5d743ec4869c8f0019b35907","6255d7f90ad0847728b6eb13","","","","","11374","key"," "," ","16.68130102790017","500","250","pog","","","","","208","198",""
"","psychophysics","36","402129","0.0-36.0","5d743ec4869c8f0019b35907","6255d7f90ad0847728b6eb13","","","","","6877","key"," "," ","16.679999999999954","500","250","pog","","","","","204","193",""
"","psychophysics","37","410768","0.0-37.0","5d743ec4869c8f0019b35907","6255d7f90ad0847728b6eb13","","","","","8638","key"," "," ","16.680907156673076","500","250","pog","","","","","179","166",""
"","psychophysics","38","420465","0.0-38.0","5d743ec4869c8f0019b35907","6255d7f90ad0847728b6eb13","","","","","9695","key"," "," ","16.680731034482697","500","250","pog","","","","","203","190",""
"","psychophysics","39","431713","0.0-39.0","5d743ec4869c8f0019b35907","6255d7f90ad0847728b6eb13","","","","","11247","key"," "," ","16.68071068249258","500","250","pog","","","","","201","194",""
"","psychophysics","40","440607","0.0-40.0","5d743ec4869c8f0019b35907","6255d7f90ad0847728b6eb13","","","","","8893","key"," "," ","16.680755639097764","500","250","pog","","","","","175","161",""
"","psychophysics","41","449135","0.0-41.0","5d743ec4869c8f0019b35907","6255d7f90ad0847728b6eb13","","","","","8527","key"," "," ","16.680921568627486","500","250","pog","","","","","178","170",""
"","psychophysics","42","450753","0.0-42.0","5d743ec4869c8f0019b35907","6255d7f90ad0847728b6eb13","","","","","1616","key"," "," ","16.68000000000029","500","250","inst","","","","","","",""
"","psychophysics","43","462959","0.0-43.0","5d743ec4869c8f0019b35907","6255d7f90ad0847728b6eb13","","","","","12203","key"," "," ","16.680541723666163","500","250","instTilt","","","","","NaN","0","0"
"","psychophysics","44","466417","0.0-44.0","5d743ec4869c8f0019b35907","6255d7f90ad0847728b6eb13","","","","","3457","key"," "," ","16.68218446601927","500","250","instTilt","","","","","0","0","0"
"","psychophysics","45","483326","0.0-45.0","5d743ec4869c8f0019b35907","6255d7f90ad0847728b6eb13","","","","","16907","key"," "," ","16.680445212240894","500","250","instTilt","","","","","1","0","0"
"","psychophysics","46","488257","0.0-46.0","5d743ec4869c8f0019b35907","6255d7f90ad0847728b6eb13","","","","","4929","key"," "," ","16.681657627118568","500","250","inst","","","","","","",""
"","psychophysics","47","495917","0.0-47.0","5d743ec4869c8f0019b35907","6255d7f90ad0847728b6eb13","","","","","7659","key"," "," ","16.68093013100445","500","250","tilt","","","","","7","9","0"
"","psychophysics","48","502238","0.0-48.0","5d743ec4869c8f0019b35907","6255d7f90ad0847728b6eb13","","","","","6319","key"," "," ","16.679999999999943","500","250","tilt","","","","","-1","-3","0"
"","psychophysics","49","507149","0.0-49.0","5d743ec4869c8f0019b35907","6255d7f90ad0847728b6eb13","","","","","4910","key"," "," ","16.681409556313962","500","250","tilt","","","","","-9","-6","1"
"","psychophysics","50","511437","0.0-50.0","5d743ec4869c8f0019b35907","6255d7f90ad0847728b6eb13","","","","","4286","key"," "," ","16.679999999999836","500","250","tilt","","","","","5","4","0"
"","psychophysics","51","514589","0.0-51.0","5d743ec4869c8f0019b35907","6255d7f90ad0847728b6eb13","","","","","3150","key"," "," ","16.680000000000135","500","250","tilt","","","","","2","7","1"
"","psychophysics","52","517644","0.0-52.0","5d743ec4869c8f0019b35907","6255d7f90ad0847728b6eb13","","","","","3054","key"," "," ","16.682637362637312","500","250","tilt","","","","","-6","-2","1"
"","psychophysics","53","520636","0.0-53.0","5d743ec4869c8f0019b35907","6255d7f90ad0847728b6eb13","","","","","2990","key"," "," ","16.68000000000017","500","250","tilt","","","","","3","3","1"
"","psychophysics","54","524700","0.0-54.0","5d743ec4869c8f0019b35907","6255d7f90ad0847728b6eb13","","","","","4062","key"," "," ","16.67999999999975","500","250","tilt","","","","","1","4","1"
"","psychophysics","55","531212","0.0-55.0","5d743ec4869c8f0019b35907","6255d7f90ad0847728b6eb13","","","","","6509","key"," "," ","16.68113846153839","500","250","tilt","","","","","3","7","1"
"","psychophysics","56","535308","0.0-56.0","5d743ec4869c8f0019b35907","6255d7f90ad0847728b6eb13","","","","","4094","key"," "," ","16.681799180327616","500","250","tilt","","","","","-5","-4","1"
"","psychophysics","57","539052","0.0-57.0","5d743ec4869c8f0019b35907","6255d7f90ad0847728b6eb13","","","","","3742","key"," "," ","16.679999999999772","500","250","tilt","","","","","-1","3","1"
"","psychophysics","58","543548","0.0-58.0","5d743ec4869c8f0019b35907","6255d7f90ad0847728b6eb13","","","","","4494","key"," "," ","16.679999999999964","500","250","tilt","","","","","-8","-7","1"
"","psychophysics","59","548941","0.0-59.0","5d743ec4869c8f0019b35907","6255d7f90ad0847728b6eb13","","","","","5391","key"," "," ","16.681405572755185","500","250","tilt","","","","","-2","-1","1"
"","psychophysics","60","556555","0.0-60.0","5d743ec4869c8f0019b35907","6255d7f90ad0847728b6eb13","","","","","7613","key"," "," ","16.68097142857131","500","250","tilt","","","","","-12","-9","1"
"","psychophysics","61","561403","0.0-61.0","5d743ec4869c8f0019b35907","6255d7f90ad0847728b6eb13","","","","","4846","key"," "," ","16.67999999999984","500","250","tilt","","","","","-6","-9","0"
"","psychophysics","62","564811","0.0-62.0","5d743ec4869c8f0019b35907","6255d7f90ad0847728b6eb13","","","","","3405","key"," "," ","16.67999999999961","500","250","tilt","","","","","1","7","1"
"","psychophysics","63","568731","0.0-63.0","5d743ec4869c8f0019b35907","6255d7f90ad0847728b6eb13","","","","","3918","key"," "," ","16.681790598290554","500","250","tilt","","","","","2","8","1"
"","psychophysics","64","571915","0.0-64.0","5d743ec4869c8f0019b35907","6255d7f90ad0847728b6eb13","","","","","3182","key"," "," ","16.679999999999755","500","250","tilt","","","","","5","9","1"
"","psychophysics","65","576779","0.0-65.0","5d743ec4869c8f0019b35907","6255d7f90ad0847728b6eb13","","","","","4863","key"," "," ","16.681501718212793","500","250","tilt","","","","","-1","4","1"
"","psychophysics","66","580570","0.0-66.0","5d743ec4869c8f0019b35907","6255d7f90ad0847728b6eb13","","","","","3789","key"," "," ","16.679999999999712","500","250","tilt","","","","","3","5","0"
"","psychophysics","67","585338","0.0-67.0","5d743ec4869c8f0019b35907","6255d7f90ad0847728b6eb13","","","","","4766","key"," "," ","16.680000000000163","500","250","tilt","","","","","-6","-5","1"
"","psychophysics","68","590010","0.0-68.0","5d743ec4869c8f0019b35907","6255d7f90ad0847728b6eb13","","","","","4670","key"," "," ","16.681838709677447","500","250","tilt","","","","","0","0","1"
"","psychophysics","69","592746","0.0-69.0","5d743ec4869c8f0019b35907","6255d7f90ad0847728b6eb13","","","","","2734","key"," "," ","16.6799999999998","500","250","tilt","","","","","2","1","0"
"","psychophysics","70","596890","0.0-70.0","5d743ec4869c8f0019b35907","6255d7f90ad0847728b6eb13","","","","","4141","key"," "," ","16.68176923076922","500","250","tilt","","","","","7","9","0"
"","psychophysics","71","600169","0.0-71.0","5d743ec4869c8f0019b35907","6255d7f90ad0847728b6eb13","","","","","3278","key"," "," ","16.680000000000142","500","250","tilt","","","","","4","8","1"
"","psychophysics","72","607257","0.0-72.0","5d743ec4869c8f0019b35907","6255d7f90ad0847728b6eb13","","","","","7086","key"," "," ","16.681037735849078","500","250","tilt","","","","","1","2","1"
"","psychophysics","73","611705","0.0-73.0","5d743ec4869c8f0019b35907","6255d7f90ad0847728b6eb13","","","","","4446","key"," "," ","16.679999999999826","500","250","tilt","","","","","-5","-10","0"
"","psychophysics","74","618473","0.0-74.0","5d743ec4869c8f0019b35907","6255d7f90ad0847728b6eb13","","","","","6765","key"," "," ","16.681116049382606","500","250","tilt","","","","","3","10","1"
"","psychophysics","75","626616","0.0-75.0","5d743ec4869c8f0019b35907","6255d7f90ad0847728b6eb13","","","","","8142","key"," "," ","16.68083983572899","500","250","tilt","","","","","1","0","0"
"","psychophysics","76","630745","0.0-76.0","5d743ec4869c8f0019b35907","6255d7f90ad0847728b6eb13","","","","","4126","key"," "," ","16.67999999999985","500","250","tilt","","","","","0","1","1"
"","psychophysics","77","632811","0.0-77.0","5d743ec4869c8f0019b35907","6255d7f90ad0847728b6eb13","","","","","2065","key"," "," ","16.680000000000113","500","250","inst","","","","","","",""
"","psychophysics","78","656279","0.0-78.0","5d743ec4869c8f0019b35907","6255d7f90ad0847728b6eb13","","","","","23468","key"," "," ","16.692855516014276","500","250","instPz","","","","","51","50",""
"","psychophysics","79","665655","0.0-79.0","5d743ec4869c8f0019b35907","6255d7f90ad0847728b6eb13","","","","","9374","key"," "," ","16.680773618538307","500","250","instPz","","","","","52","50",""
"","psychophysics","80","686838","0.0-80.0","5d743ec4869c8f0019b35907","6255d7f90ad0847728b6eb13","","","","","21182","key"," "," ","16.680702127659565","500","250","instPz","","","","","56","50",""
"","psychophysics","81","691048","0.0-81.0","5d743ec4869c8f0019b35907","6255d7f90ad0847728b6eb13","","","","","4209","key"," "," ","16.67999999999974","500","250","inst","","","","","","",""
"","psychophysics","82","699622","0.0-82.0","5d743ec4869c8f0019b35907","6255d7f90ad0847728b6eb13","","","","","8572","key"," "," ","16.680865497075995","500","250","pz","","","","","44","38",""
"","psychophysics","83","707318","0.0-83.0","5d743ec4869c8f0019b35907","6255d7f90ad0847728b6eb13","","","","","7695","key"," "," ","16.680956616052","500","250","pz","","","","","48","39",""
"","psychophysics","84","714421","0.0-84.0","5d743ec4869c8f0019b35907","6255d7f90ad0847728b6eb13","","","","","7102","key"," "," ","16.680000000000152","500","250","pz","","","","","54","43",""
"","psychophysics","85","723014","0.0-85.0","5d743ec4869c8f0019b35907","6255d7f90ad0847728b6eb13","","","","","8590","key"," "," ","16.680776699029305","500","250","pz","","","","","71","60",""
"","psychophysics","86","732100","0.0-86.0","5d743ec4869c8f0019b35907","6255d7f90ad0847728b6eb13","","","","","9084","key"," "," ","16.680889502762426","500","250","pz","","","","","68","59",""
"","psychophysics","87","740100","0.0-87.0","5d743ec4869c8f0019b35907","6255d7f90ad0847728b6eb13","","","","","7998","key"," "," ","16.680941544885123","500","250","pz","","","","","45","38",""
"","psychophysics","88","748819","0.0-88.0","5d743ec4869c8f0019b35907","6255d7f90ad0847728b6eb13","","","","","8717","key"," "," ","16.68077586206895","500","250","pz","","","","","53","46",""
"","psychophysics","89","767475","0.0-89.0","5d743ec4869c8f0019b35907","6255d7f90ad0847728b6eb13","","","","","18655","key"," "," ","16.68083348254256","500","250","pz","","","","","50","43",""
"","psychophysics","90","782642","0.0-90.0","5d743ec4869c8f0019b35907","6255d7f90ad0847728b6eb13","","","","","15166","key"," "," ","16.68048788546259","500","250","pz","","","","","56","45",""
"","psychophysics","91","787858","0.0-91.0","5d743ec4869c8f0019b35907","6255d7f90ad0847728b6eb13","","","","","5213","key"," "," ","16.681432692307563","500","250","pz","","","","","44","38",""
"","psychophysics","92","794706","0.0-92.0","5d743ec4869c8f0019b35907","6255d7f90ad0847728b6eb13","","","","","6846","key"," "," ","16.67999999999983","500","250","pz","","","","","45","36",""
"","psychophysics","93","802481","0.0-93.0","5d743ec4869c8f0019b35907","6255d7f90ad0847728b6eb13","","","","","7774","key"," "," ","16.68095913978484","500","250","pz","","","","","41","37",""
"","psychophysics","94","809409","0.0-94.0","5d743ec4869c8f0019b35907","6255d7f90ad0847728b6eb13","","","","","6926","key"," "," ","16.681057971014454","500","250","pz","","","","","59","52",""
"","psychophysics","95","816353","0.0-95.0","5d743ec4869c8f0019b35907","6255d7f90ad0847728b6eb13","","","","","6942","key"," "," ","16.681069879518002","500","250","pz","","","","","33","29",""
"","psychophysics","96","825569","0.0-96.0","5d743ec4869c8f0019b35907","6255d7f90ad0847728b6eb13","","","","","9214","key"," "," ","16.679999999999975","500","250","pz","","","","","37","30",""
"","psychophysics","97","827027","0.0-97.0","5d743ec4869c8f0019b35907","6255d7f90ad0847728b6eb13","","","","","1456","key"," "," ","16.685209302325074","500","250","inst","","","","","","",""
"","psychophysics","98","836224","0.0-98.0","5d743ec4869c8f0019b35907","6255d7f90ad0847728b6eb13","","","","","9196","key"," "," ","16.711074545454572","500","250","inst","","","","","","",""
"","psychophysics","99","844263","0.0-99.0","5d743ec4869c8f0019b35907","6255d7f90ad0847728b6eb13","","","","","8036","key"," "," ","16.68000000000005","500","250","instFlank","","","","","0.5","0.3","1"
"","psychophysics","100","852272","0.0-100.0","5d743ec4869c8f0019b35907","6255d7f90ad0847728b6eb13","","","","","8008","key"," "," ","16.680993749999956","500","250","inst","","","","","","",""
"","psychophysics","101","866383","0.0-101.0","5d743ec4869c8f0019b35907","6255d7f90ad0847728b6eb13","","","","","14109","key"," "," ","16.681047337278226","500","250","instFlank","","","","","0.31999999999999984","0.3","1"
"","psychophysics","102","870018","0.0-102.0","5d743ec4869c8f0019b35907","6255d7f90ad0847728b6eb13","","","","","3633","key"," "," ","16.68000000000026","500","250","inst","","","","","","",""
"","psychophysics","103","882943","0.0-103.0","5d743ec4869c8f0019b35907","6255d7f90ad0847728b6eb13","","","","","12924","key"," "," ","16.68057364341096","500","250","instFlank","","","","","0.43999999999999995","0.3","0"
"","psychophysics","104","1120952","0.0-104.0","5d743ec4869c8f0019b35907","6255d7f90ad0847728b6eb13","","","","","238016","key"," "," ","16.68074628539389","500","250","inst","","","","","","",""
"","psychophysics","105","1128438","0.0-105.0","5d743ec4869c8f0019b35907","6255d7f90ad0847728b6eb13","","","","","7483","key"," "," ","16.680953020134094","500","250","flank","","","","","0.34999999999999987","0.24","0"
"","psychophysics","106","1132021","0.0-106.0","5d743ec4869c8f0019b35907","6255d7f90ad0847728b6eb13","","","","","3581","key"," "," ","16.68000000000009","500","250","flank","","","","","0.34999999999999987","0.38","1"
"","psychophysics","107","1135093","0.0-107.0","5d743ec4869c8f0019b35907","6255d7f90ad0847728b6eb13","","","","","3069","key"," "," ","16.679999999999694","500","250","flank","","","","","0.4099999999999999","0.32","1"
"","psychophysics","108","1139829","0.0-108.0","5d743ec4869c8f0019b35907","6255d7f90ad0847728b6eb13","","","","","4733","key"," "," ","16.68165017667888","500","250","flank","","","","","0.5900000000000001","0.7","0"
"","psychophysics","109","1143877","0.0-109.0","5d743ec4869c8f0019b35907","6255d7f90ad0847728b6eb13","","","","","4046","key"," "," ","16.68000000000023","500","250","flank","","","","","0.34999999999999987","0.24","1"
"","psychophysics","110","1147990","0.0-110.0","5d743ec4869c8f0019b35907","6255d7f90ad0847728b6eb13","","","","","4111","key"," "," ","16.68169918699224","500","250","flank","","","","","0.7100000000000002","0.8","0"
"","psychophysics","111","1152805","0.0-111.0","5d743ec4869c8f0019b35907","6255d7f90ad0847728b6eb13","","","","","4813","key"," "," ","16.67999999999971","500","250","flank","","","","","0.6800000000000002","0.64","0"
"","psychophysics","112","1156229","0.0-112.0","5d743ec4869c8f0019b35907","6255d7f90ad0847728b6eb13","","","","","3422","key"," "," ","16.679999999999545","500","250","flank","","","","","0.3799999999999999","0.36","1"
"","psychophysics","113","1159908","0.0-113.0","5d743ec4869c8f0019b35907","6255d7f90ad0847728b6eb13","","","","","3677","key"," "," ","16.68215525114152","500","250","flank","","","","","0.4099999999999999","0.28","0"
"","psychophysics","114","1164916","0.0-114.0","5d743ec4869c8f0019b35907","6255d7f90ad0847728b6eb13","","","","","5005","key"," "," ","16.67999999999944","500","250","flank","","","","","0.7700000000000002","0.78","0"
"","psychophysics","115","1169060","0.0-115.0","5d743ec4869c8f0019b35907","6255d7f90ad0847728b6eb13","","","","","4141","key"," "," ","16.681677419354298","500","250","flank","","","","","0.56","0.52","1"
"","psychophysics","116","1171860","0.0-116.0","5d743ec4869c8f0019b35907","6255d7f90ad0847728b6eb13","","","","","2798","key"," "," ","16.67999999999894","500","250","flank","","","","","0.53","0.5","1"
"","psychophysics","117","1174564","0.0-117.0","5d743ec4869c8f0019b35907","6255d7f90ad0847728b6eb13","","","","","2702","key"," "," ","16.679999999999886","500","250","flank","","","","","0.56","0.38","0"
"","psychophysics","118","1177748","0.0-118.0","5d743ec4869c8f0019b35907","6255d7f90ad0847728b6eb13","","","","","3183","key"," "," ","16.682457894736313","500","250","flank","","","","","0.6800000000000002","0.7","1"
"","psychophysics","119","1181732","0.0-119.0","5d743ec4869c8f0019b35907","6255d7f90ad0847728b6eb13","","","","","3981","key"," "," ","16.679999999999648","500","250","flank","","","","","0.34999999999999987","0.2","0"
"","psychophysics","120","1185027","0.0-120.0","5d743ec4869c8f0019b35907","6255d7f90ad0847728b6eb13","","","","","3291","key"," "," ","16.680000000000994","500","250","flank","","","","","0.53","0.36","0"
"","psychophysics","121","1188611","0.0-121.0","5d743ec4869c8f0019b35907","6255d7f90ad0847728b6eb13","","","","","3582","key"," "," ","16.681971962617006","500","250","flank","","","","","0.3799999999999999","0.3","0"
"","psychophysics","122","1192292","0.0-122.0","5d743ec4869c8f0019b35907","6255d7f90ad0847728b6eb13","","","","","3679","key"," "," ","16.679999999999364","500","250","flank","","","","","0.47","0.52","1"
"","psychophysics","123","1195651","0.0-123.0","5d743ec4869c8f0019b35907","6255d7f90ad0847728b6eb13","","","","","3357","key"," "," ","16.68","500","250","flank","","","","","0.43999999999999995","0.28","0"
"","psychophysics","124","1199091","0.0-124.0","5d743ec4869c8f0019b35907","6255d7f90ad0847728b6eb13","","","","","3438","key"," "," ","16.68199512195183","500","250","flank","","","","","0.53","0.52","1"
"","psychophysics","125","1203891","0.0-125.0","5d743ec4869c8f0019b35907","6255d7f90ad0847728b6eb13","","","","","4798","key"," "," ","16.67999999999971","500","250","flank","","","","","0.2899999999999998","0.28","1"
"","psychophysics","126","1210162","0.0-126.0","5d743ec4869c8f0019b35907","6255d7f90ad0847728b6eb13","","","","","6269","key"," "," ","16.68132266666678","500","250","flank","","","","","0.34999999999999987","0.3","1"
"","psychophysics","127","1213859","0.0-127.0","5d743ec4869c8f0019b35907","6255d7f90ad0847728b6eb13","","","","","3695","key"," "," ","16.679999999999072","500","250","flank","","","","","0.7400000000000002","0.78","0"
"","psychophysics","128","1217922","0.0-128.0","5d743ec4869c8f0019b35907","6255d7f90ad0847728b6eb13","","","","","4061","key"," "," ","16.68182644628042","500","250","flank","","","","","0.7400000000000002","0.76","1"
"","psychophysics","129","1221138","0.0-129.0","5d743ec4869c8f0019b35907","6255d7f90ad0847728b6eb13","","","","","3214","key"," "," ","16.67999999999908","500","250","flank","","","","","0.47","0.52","1"
"","psychophysics","130","1225203","0.0-130.0","5d743ec4869c8f0019b35907","6255d7f90ad0847728b6eb13","","","","","4063","key"," "," ","16.67999999999996","500","250","flank","","","","","0.7400000000000002","0.7","0"
"","psychophysics","131","1229778","0.0-131.0","5d743ec4869c8f0019b35907","6255d7f90ad0847728b6eb13","","","","","4573","key"," "," ","16.6816300366299","500","250","flank","","","","","0.6500000000000001","0.66","1"
"","psychophysics","132","1234130","0.0-132.0","5d743ec4869c8f0019b35907","6255d7f90ad0847728b6eb13","","","","","4350","key"," "," ","16.680000000000177","500","250","flank","","","","","0.31999999999999984","0.3","1"
"","psychophysics","133","1238209","0.0-133.0","5d743ec4869c8f0019b35907","6255d7f90ad0847728b6eb13","","","","","4077","key"," "," ","16.681810699589168","500","250","flank","","","","","0.7400000000000002","0.66","0"
"","psychophysics","134","1241169","0.0-134.0","5d743ec4869c8f0019b35907","6255d7f90ad0847728b6eb13","","","","","2958","key"," "," ","16.68000000000058","500","250","flank","","","","","0.3799999999999999","0.3","0"
"true","fullscreen","135","1241171","0.0-135.0","5d743ec4869c8f0019b35907","6255d7f90ad0847728b6eb13","","","","","","","","","","","","","","","","","","",""
