"success","trial_type","trial_index","time_elapsed","internal_node_id","pid","sid","timeout","failed_images","failed_audio","failed_video","rt","response_type","key_press","response","avg_frame_time","center_x","center_y","task","resp","start","parA","version","jitterX","jitterY"
"true","fullscreen","0","3251","0.0-0.0","DIIYA","TEST","","","","","","","","","","","","","","","","","",""
"true","preload","1","3253","0.0-1.0","DIIYA","TEST","false","[]","[]","[]","","","","","","","","","","","","","",""
"","psychophysics","2","9195","0.0-2.0","DIIYA","TEST","","","","","5936","key"," "," ","16.66767787114846","500","250","inst","","","","","",""
"","psychophysics","3","14244","0.0-3.0","DIIYA","TEST","","","","","5047","key"," "," ","16.666741721854304","500","250","sample1","","","","","",""
"","psychophysics","4","53132","0.0-4.0","DIIYA","TEST","","","","","38881","key"," "," ","16.70299828104856","500","250","sample2","30","","","","",""
"","psychophysics","5","60249","0.0-5.0","DIIYA","TEST","","","","","7113","key"," "," ","16.666622065727697","500","250","sample3","154","","","","",""
"","psychophysics","6","77026","0.0-6.0","DIIYA","TEST","","","","","16774","key"," "," ","16.667112437810943","500","250","sample4","100","","","","",""
"","psychophysics","7","82585","0.0-7.0","DIIYA","TEST","","","","","5560","key"," "," ","16.667408408408416","500","250","sample5","","","","","",""
"","psychophysics","8","95108","0.0-8.0","DIIYA","TEST","","","","","12520","key"," "," ","16.667246666666664","500","250","sample7","500","","","","",""
"","psychophysics","9","102245","0.0-9.0","DIIYA","TEST","","","","","7131","key"," "," ","16.667653395784516","500","250","inst","","","","","",""
"","psychophysics","10","108548","0.0-10.0","DIIYA","TEST","","","","","6297","key"," "," ","16.668574074074048","500","250","inst","","","","","",""
"","psychophysics","11","116714","0.0-11.0","DIIYA","TEST","","","","","8163","key"," "," ","16.66669734151329","500","250","inst","","","","","",""
"","psychophysics","12","120157","0.0-12.0","DIIYA","TEST","","","","","3440","key"," "," ","16.66848780487802","500","250","inst","","","","","",""
"","psychophysics","13","122547","0.0-13.0","DIIYA","TEST","","","","","2387","key"," "," ","16.664769230769167","500","250","inst","","","","","",""
"","psychophysics","14","132137","0.0-14.0","DIIYA","TEST","","","","","9586","key"," "," ","16.667242160278725","500","250","instPz0","53","50","50","2","",""
"","psychophysics","15","147107","0.0-15.0","DIIYA","TEST","","","","","14971","key"," "," ","16.66743812709028","500","250","instPz1","51","25","50","2","",""
"","psychophysics","16","162437","0.0-16.0","DIIYA","TEST","","","","","15323","key"," "," ","16.66729053318824","500","250","instPz2","25","15","25","2","",""
"","psychophysics","17","197353","0.0-17.0","DIIYA","TEST","","","","","34914","key"," "," ","16.667223018147077","500","250","instPz3","44","25","50","2","",""
"","psychophysics","18","211800","0.0-18.0","DIIYA","TEST","","","","","14446","key"," "," ","16.66669053117782","500","250","instPz4","23","15","30","2","",""
"","psychophysics","19","214044","0.0-19.0","DIIYA","TEST","","","","","2242","key"," "," ","16.666425373134377","500","250","inst","","","","","",""
"","psychophysics","20","218934","0.0-20.0","DIIYA","TEST","","","","","4888","key"," "," ","16.66651027397265","500","250","pz","28","60","34","2","",""
"","psychophysics","21","226792","0.0-21.0","DIIYA","TEST","","","","","7857","key"," "," ","16.666834042553152","500","250","pz","46","55","56","2","",""
"","psychophysics","22","235022","0.0-22.0","DIIYA","TEST","","","","","8225","key"," "," ","16.66701419878294","500","250","pz","17","55","21","2","",""
"","psychophysics","23","240717","0.0-23.0","DIIYA","TEST","","","","","5694","key"," "," ","16.667099706744867","500","250","pz","26","46","34","2","",""
"","psychophysics","24","244978","0.0-24.0","DIIYA","TEST","","","","","4258","key"," "," ","16.6664392156862","500","250","pz","21","58","24","2","",""
"","psychophysics","25","250981","0.0-25.0","DIIYA","TEST","","","","","6001","key"," "," ","16.66707520891368","500","250","pz","31","49","36","2","",""
"","psychophysics","26","255547","0.0-26.0","DIIYA","TEST","","","","","4565","key"," "," ","16.66687545787546","500","250","pz","20","36","21","2","",""
"","psychophysics","27","259840","0.0-27.0","DIIYA","TEST","","","","","4290","key"," "," ","16.667296875000034","500","250","pz","18","21","20","2","",""
"","psychophysics","28","265345","0.0-28.0","DIIYA","TEST","","","","","5503","key"," "," ","16.666706060606078","500","250","pz","44","35","57","2","",""
"","psychophysics","29","267219","0.0-29.0","DIIYA","TEST","","","","","1871","key"," "," ","16.67018918918922","500","250","pz","40","40","53","2","",""
"","psychophysics","30","273656","0.0-30.0","DIIYA","TEST","","","","","6436","key"," "," ","16.66655844155844","500","250","pz","23","30","28","2","",""
"","psychophysics","31","285741","0.0-31.0","DIIYA","TEST","","","","","12084","key"," "," ","16.667104972375686","500","250","pz","27","54","29","2","",""
"","psychophysics","32","289587","0.0-32.0","DIIYA","TEST","","","","","3844","key"," "," ","16.668065217391426","500","250","pz","26","50","30","2","",""
"","psychophysics","33","293951","0.0-33.0","DIIYA","TEST","","","","","4362","key"," "," ","16.667252873563186","500","250","pz","40","41","51","2","",""
"","psychophysics","34","300575","0.0-34.0","DIIYA","TEST","","","","","6622","key"," "," ","16.6666843434343","500","250","pz","39","58","49","2","",""
"","psychophysics","35","316921","0.0-35.0","DIIYA","TEST","","","","","16345","key"," "," ","16.667074489795926","500","250","inst","","","","","",""
"","psychophysics","36","320675","0.0-36.0","DIIYA","TEST","","","","","3752","key"," "," ","16.668312499999956","500","250","instEB0","40","40","40","","0","0"
"","psychophysics","37","322452","0.0-37.0","DIIYA","TEST","","","","","1776","key"," "," ","16.670245283018613","500","250","instEB1","30","30","70","2","0","0"
"","psychophysics","38","341844","0.0-38.0","DIIYA","TEST","","","","","19390","key"," "," ","16.667217728055054","500","250","instEB2","43","60","40","2","0","0"
"","psychophysics","39","353282","0.0-39.0","DIIYA","TEST","","","","","11433","key"," "," ","16.66723323615153","500","250","instEB3","72","45","65","2","0","0"
"","psychophysics","40","364210","0.0-40.0","DIIYA","TEST","","","","","10926","key"," "," ","16.6669495412844","500","250","instEB4","46","40","40","2","0","0"
"","psychophysics","41","365731","0.0-41.0","DIIYA","TEST","","","","","1519","key"," "," ","16.66839560439585","500","250","inst","","","","","",""
"","psychophysics","42","369697","0.0-42.0","DIIYA","TEST","","","","","3963","key"," "," ","16.666670886075906","500","250","eb","63","28","53","2","0","0"
"","psychophysics","43","381574","0.0-43.0","DIIYA","TEST","","","","","11874","key"," "," ","16.66717018284108","500","250","eb","44","40","41","2","0","0"
"","psychophysics","44","386854","0.0-44.0","DIIYA","TEST","","","","","5278","key"," "," ","16.666075949367215","500","250","eb","55","42","48","2","0","0"
"","psychophysics","45","405669","0.0-45.0","DIIYA","TEST","","","","","18814","key"," "," ","16.666957446808492","500","250","eb","39","39","34","2","0","0"
"","psychophysics","46","422350","0.0-46.0","DIIYA","TEST","","","","","16679","key"," "," ","16.66714500000002","500","250","eb","55","33","50","2","0","0"
"","psychophysics","47","434229","0.0-47.0","DIIYA","TEST","","","","","11877","key"," "," ","16.666821378340344","500","250","eb","40","46","32","2","0","0"
"","psychophysics","48","447440","0.0-48.0","DIIYA","TEST","","","","","13203","key"," "," ","16.66711742424245","500","250","eb","60","24","53","2","0","0"
"","psychophysics","49","463074","0.0-49.0","DIIYA","TEST","","","","","15632","key"," "," ","16.66713020277484","500","250","eb","48","24","39","2","0","0"
"","psychophysics","50","465944","0.0-50.0","DIIYA","TEST","","","","","2868","key"," "," ","16.668461988303928","500","250","eb","31","37","27","2","0","0"
"","psychophysics","51","472555","0.0-51.0","DIIYA","TEST","","","","","6610","key"," "," ","16.667207594936762","500","250","eb","54","29","48","2","0","0"
"","psychophysics","52","485633","0.0-52.0","DIIYA","TEST","","","","","13075","key"," "," ","16.666933673469373","500","250","eb","60","42","52","2","0","0"
"","psychophysics","53","492867","0.0-53.0","DIIYA","TEST","","","","","7232","key"," "," ","16.667471131639754","500","250","eb","31","38","26","2","0","0"
"","psychophysics","54","499614","0.0-54.0","DIIYA","TEST","","","","","6745","key"," "," ","16.666336633663395","500","250","eb","40","48","35","2","0","0"
"","psychophysics","55","511466","0.0-55.0","DIIYA","TEST","","","","","11853","key"," "," ","16.6675676056338","500","250","eb","32","26","26","2","0","0"
"","psychophysics","56","522679","0.0-56.0","DIIYA","TEST","","","","","11212","key"," "," ","16.667459821428565","500","250","eb","33","43","27","2","0","0"
"","psychophysics","57","544037","0.0-57.0","DIIYA","TEST","","","","","21356","key"," "," ","16.667260937500032","500","250","inst","","","","","",""
"","psychophysics","58","556781","0.0-58.0","DIIYA","TEST","","","","","12737","key"," "," ","16.666962041884826","500","250","instBr0","NaN","0","300","","0","0"
"","psychophysics","59","564872","0.0-59.0","DIIYA","TEST","","","","","8089","key"," "," ","16.667074226804278","500","250","instBr1","NaN","-40","300","","0","0"
"","psychophysics","60","603264","0.0-60.0","DIIYA","TEST","","","","","38389","key"," "," ","16.667019113814074","500","250","instBr","31","40","300","2","0","0"
"","psychophysics","61","604809","0.0-61.0","DIIYA","TEST","","","","","1543","key"," "," ","16.66827173913075","500","250","inst","","","","","",""
"","psychophysics","62","608030","0.0-62.0","DIIYA","TEST","","","","","3220","key"," "," ","16.66829687499982","500","250","br","27","-8","300","2","-19","-21"
"","psychophysics","63","613920","0.0-63.0","DIIYA","TEST","","","","","5888","key"," "," ","16.667153409090876","500","250","br","26","16","300","2","-11","27"
"","psychophysics","64","622423","0.0-64.0","DIIYA","TEST","","","","","8494","key"," "," ","16.66732023575632","500","250","br","29","-11","300","2","9","27"
"","psychophysics","65","627234","0.0-65.0","DIIYA","TEST","","","","","4806","key"," "," ","16.667572916666863","500","250","br","26","-14","300","2","-10","14"
"","psychophysics","66","630655","0.0-66.0","DIIYA","TEST","","","","","3419","key"," "," ","16.66886764705893","500","250","br","32","9","300","2","26","9"
"","psychophysics","67","634465","0.0-67.0","DIIYA","TEST","","","","","3809","key"," "," ","16.6674035087717","500","250","br","20","-27","300","2","-6","-6"
"","psychophysics","68","640667","0.0-68.0","DIIYA","TEST","","","","","6197","key"," "," ","16.667814016172404","500","250","br","26","46","300","2","-18","0"
"","psychophysics","69","652114","0.0-69.0","DIIYA","TEST","","","","","11444","key"," "," ","16.66771574344034","500","250","br","24","32","300","2","5","-21"
"","psychophysics","70","657595","0.0-70.0","DIIYA","TEST","","","","","5479","key"," "," ","16.66909756097572","500","250","br","25","-35","300","2","3","-23"
"","psychophysics","71","665073","0.0-71.0","DIIYA","TEST","","","","","7476","key"," "," ","16.668051454138585","500","250","br","23","4","300","2","-19","13"
"","psychophysics","72","669771","0.0-72.0","DIIYA","TEST","","","","","4695","key"," "," ","16.66824555160143","500","250","br","23","-7","300","2","-2","15"
"","psychophysics","73","673595","0.0-73.0","DIIYA","TEST","","","","","3822","key"," "," ","16.665262008733503","500","250","br","31","23","300","2","-26","-23"
"","psychophysics","74","677585","0.0-74.0","DIIYA","TEST","","","","","3986","key"," "," ","16.668390756302234","500","250","br","30","46","300","2","14","9"
"","psychophysics","75","682274","0.0-75.0","DIIYA","TEST","","","","","4689","key"," "," ","16.66758571428571","500","250","br","27","-28","300","2","-26","28"
"","psychophysics","76","684543","0.0-76.0","DIIYA","TEST","","","","","2263","key"," "," ","16.66839259259265","500","250","br","23","-10","300","2","19","-3"
"","psychophysics","77","688274","0.0-77.0","DIIYA","TEST","","","","","3725","key"," "," ","16.668632286995432","500","250","inst","","","","","",""
"","psychophysics","78","706090","0.0-78.0","DIIYA","TEST","","","","","17813","key"," "," ","16.667263108614222","500","250","instPog0","366.5","349.5","319.5","2","0","0"
"","psychophysics","79","801383","0.0-79.0","DIIYA","TEST","","","","","95296","key"," "," ","16.670007172848134","500","250","instPog1","432.5","349.5","319.5","2","0","0"
"","psychophysics","80","877953","0.0-80.0","DIIYA","TEST","","","","","76564","key"," "," ","16.667085782712835","500","250","instPog2","401.5","349.5","319.5","2","0","0"
"","psychophysics","81","880118","0.0-81.0","DIIYA","TEST","","","","","2163","key"," "," ","16.668434108527155","500","250","inst","","","","","",""
"","psychophysics","82","899719","0.0-82.0","DIIYA","TEST","","","","","19599","key"," "," ","16.667048510638303","500","250","pog","373.5","343.5","293.5","2","0","0"
"","psychophysics","83","930682","0.0-83.0","DIIYA","TEST","","","","","30959","key"," "," ","16.667032327586263","500","250","pog","412.5","340.5","336.5","2","0","0"
"","psychophysics","84","933575","0.0-84.0","DIIYA","TEST","","","","","2889","key"," "," ","16.66715028901743","500","250","pog","405.5","399.5","325.5","2","0","0"
"","psychophysics","85","974193","0.0-85.0","DIIYA","TEST","","","","","40617","key"," "," ","16.66707594417076","500","250","pog","405.5","322.5","330.5","2","0","0"
"","psychophysics","86","993099","0.0-86.0","DIIYA","TEST","","","","","18910","key"," "," ","16.99694784172654","500","250","pog","448.5","322.5","356.5","2","0","0"
"","psychophysics","87","1011943","0.0-87.0","DIIYA","TEST","","","","","18842","key"," "," ","16.66706997342779","500","250","pog","432.5","332.5","339.5","2","0","0"
"","psychophysics","88","1020865","0.0-88.0","DIIYA","TEST","","","","","8920","key"," "," ","16.66717790262159","500","250","pog","385.5","378.5","304.5","2","0","0"
"","psychophysics","89","1048738","0.0-89.0","DIIYA","TEST","","","","","27866","key"," "," ","16.667075956937815","500","250","pog","407.5","326.5","331.5","2","0","0"
"","psychophysics","90","1056033","0.0-90.0","DIIYA","TEST","","","","","7293","key"," "," ","16.66680733944928","500","250","pog","413.5","256.5","325.5","2","0","0"
"","psychophysics","91","1063186","0.0-91.0","DIIYA","TEST","","","","","7151","key"," "," ","16.66734813084112","500","250","pog","402.5","330.5","307.5","2","0","0"
"","psychophysics","92","1075161","0.0-92.0","DIIYA","TEST","","","","","11972","key"," "," ","16.666816155988823","500","250","pog","425.5","389.5","333.5","2","0","0"
"","psychophysics","93","1082630","0.0-93.0","DIIYA","TEST","","","","","7467","key"," "," ","16.667778523489876","500","250","pog","382.5","322.5","288.5","2","0","0"
"","psychophysics","94","1097556","0.0-94.0","DIIYA","TEST","","","","","14924","key"," "," ","16.667433519553207","500","250","pog","391.5","266.5","297.5","2","0","0"
"","psychophysics","95","1114153","0.0-95.0","DIIYA","TEST","","","","","16598","key"," "," ","16.667473366834344","500","250","pog","396.5","306.5","317.5","2","0","0"
"","psychophysics","96","1123966","0.0-96.0","DIIYA","TEST","","","","","9810","key"," "," ","16.666875638841578","500","250","pog","392.5","368.5","301.5","2","0","0"
"","psychophysics","97","1132916","0.0-97.0","DIIYA","TEST","","","","","8945","key"," "," ","16.667652985074994","500","250","inst","","","","","",""
"","psychophysics","98","1133288","0.0-98.0","DIIYA","TEST","","","","","366","key"," "," ","16.66359090908769","500","250","instZol0","0","0","","","0","0"
"","psychophysics","99","1241797","0.0-99.0","DIIYA","TEST","","","","","108504","key"," "," ","16.669627688998144","500","250","instZol1","0.09999999999999931","-1.3","","","0","0"
"","psychophysics","100","1288432","0.0-100.0","DIIYA","TEST","","","","","46631","key"," "," ","16.66708401859136","500","250","instZol2","-0.8999999999999992","2","","2","0","0"
"","psychophysics","101","1289319","0.0-101.0","DIIYA","TEST","","","","","885","key"," "," ","16.673923076922968","500","250","inst","","","","","",""
"","psychophysics","102","1341055","0.0-102.0","DIIYA","TEST","","","","","51736","key"," "," ","16.66713402061855","500","250","zol","-1.11","-0.39","","2","-5","-24"
"","psychophysics","103","1368740","0.0-103.0","DIIYA","TEST","","","","","27681","key"," "," ","16.667041566265123","500","250","zol","-1.02","0.72","","2","-5","28"
"","psychophysics","104","1382346","0.0-104.0","DIIYA","TEST","","","","","13601","key"," "," ","16.66723435582833","500","250","zol","-1.0699999999999998","-0.73","","2","18","-13"
"","psychophysics","105","1414765","0.0-105.0","DIIYA","TEST","","","","","32413","key"," "," ","16.667145576131617","500","250","zol","-1.0599999999999998","0.16","","2","19","-19"
"","psychophysics","106","1424517","0.0-106.0","DIIYA","TEST","","","","","9750","key"," "," ","16.667419520548023","500","250","zol","-0.7799999999999999","-0.12","","2","29","-10"
"","psychophysics","107","1437349","0.0-107.0","DIIYA","TEST","","","","","12829","key"," "," ","16.666780234070167","500","250","zol","-0.7400000000000001","0.64","","2","-1","-12"
"","psychophysics","108","1466826","0.0-108.0","DIIYA","TEST","","","","","29476","key"," "," ","16.66712613122175","500","250","zol","-0.47999999999999987","-0.62","","2","27","-15"
"","psychophysics","109","1472186","0.0-109.0","DIIYA","TEST","","","","","5357","key"," "," ","16.667309374999604","500","250","zol","-0.9899999999999998","-0.41","","2","-9","-25"
"","psychophysics","110","1477741","0.0-110.0","DIIYA","TEST","","","","","5548","key"," "," ","16.666954954955365","500","250","zol","-0.3500000000000001","-0.15","","2","-26","24"
"","psychophysics","111","1482333","0.0-111.0","DIIYA","TEST","","","","","4590","key"," "," ","16.666864963503297","500","250","zol","-1.2500000000000002","0.65","","2","29","-27"
"","psychophysics","112","1491010","0.0-112.0","DIIYA","TEST","","","","","8667","key"," "," ","16.66734807692298","500","250","zol","-1.7400000000000007","-0.16","","2","9","8"
"","psychophysics","113","1496484","0.0-113.0","DIIYA","TEST","","","","","5472","key"," "," ","16.6669816513758","500","250","zol","-1.5500000000000005","0.55","","2","28","1"
"","psychophysics","114","1502741","0.0-114.0","DIIYA","TEST","","","","","6254","key"," "," ","16.667207999999945","500","250","zol","-1.6500000000000004","0.35","","2","1","-3"
"","psychophysics","115","1506762","0.0-115.0","DIIYA","TEST","","","","","4018","key"," "," ","16.667512499999916","500","250","zol","-1.3100000000000003","-0.29","","2","5","-13"
"","psychophysics","116","1509608","0.0-116.0","DIIYA","TEST","","","","","2843","key"," "," ","16.66574117647046","500","250","zol","-1.9900000000000007","0.49","","2","-17","-25"
"","psychophysics","117","1511171","0.0-117.0","DIIYA","TEST","","","","","1562","key"," "," ","16.667456521738686","500","250","inst","","","","","",""
"","psychophysics","118","1519549","0.0-118.0","DIIYA","TEST","","","","","8374","key"," "," ","16.66762948207199","500","250","instPog0","160","190","160","1","0","0"
"","psychophysics","119","1527080","0.0-119.0","DIIYA","TEST","","","","","7526","key"," "," ","16.66756762749466","500","250","instPog1","159","190","160","1","0","0"
"","psychophysics","120","1531094","0.0-120.0","DIIYA","TEST","","","","","4013","key"," "," ","16.666487499999736","500","250","instPog2","178","190","160","1","0","0"
"","psychophysics","121","1533114","0.0-121.0","DIIYA","TEST","","","","","2018","key"," "," ","16.666758333332837","500","250","inst","","","","","",""
"","psychophysics","122","1539537","0.0-122.0","DIIYA","TEST","","","","","6422","key"," "," ","16.667229166666704","500","250","pog","154","137","145","1","0","0"
"","psychophysics","123","1547658","0.0-123.0","DIIYA","TEST","","","","","8120","key"," "," ","16.667341563785968","500","250","pog","174","200","163","1","0","0"
"","psychophysics","124","1563137","0.0-124.0","DIIYA","TEST","","","","","15475","key"," "," ","16.667237068965512","500","250","pog","167","162","161","1","0","0"
"","psychophysics","125","1581234","0.0-125.0","DIIYA","TEST","","","","","18093","key"," "," ","16.66725990783406","500","250","pog","149","185","143","1","0","0"
"","psychophysics","126","1593406","0.0-126.0","DIIYA","TEST","","","","","12170","key"," "," ","16.666894375857296","500","250","pog","164","179","145","1","0","0"
"","psychophysics","127","1658089","0.0-127.0","DIIYA","TEST","","","","","64689","key"," "," ","16.667045360824787","500","250","pog","140","201","126","1","0","0"
"","psychophysics","128","1665959","0.0-128.0","DIIYA","TEST","","","","","7867","key"," "," ","16.66724152542341","500","250","pog","206","140","189","1","0","0"
"","psychophysics","129","1672372","0.0-129.0","DIIYA","TEST","","","","","6411","key"," "," ","16.66664229765019","500","250","pog","172","234","152","1","0","0"
"","psychophysics","130","1680386","0.0-130.0","DIIYA","TEST","","","","","8009","key"," "," ","16.667391666666663","500","250","pog","160","142","158","1","0","0"
"","psychophysics","131","1684443","0.0-131.0","DIIYA","TEST","","","","","4055","key"," "," ","16.667189300410957","500","250","pog","162","175","153","1","0","0"
"","psychophysics","132","1690810","0.0-132.0","DIIYA","TEST","","","","","6365","key"," "," ","16.66727559055138","500","250","pog","188","237","172","1","0","0"
"","psychophysics","133","1710654","0.0-133.0","DIIYA","TEST","","","","","19834","key"," "," ","16.66734398654337","500","250","pog","182","126","174","1","0","0"
"","psychophysics","134","1716580","0.0-134.0","DIIYA","TEST","","","","","5924","key"," "," ","16.667443502825254","500","250","pog","185","167","179","1","0","0"
"","psychophysics","135","1728713","0.0-135.0","DIIYA","TEST","","","","","12126","key"," "," ","16.667447042640905","500","250","pog","135","203","123","1","0","0"
"","psychophysics","136","1750758","0.0-136.0","DIIYA","TEST","","","","","22044","key"," "," ","16.6672821482603","500","250","pog","131","198","123","1","0","0"
"","psychophysics","137","1752075","0.0-137.0","DIIYA","TEST","","","","","1316","key"," "," ","16.666730769229336","500","250","inst","","","","","",""
"","psychophysics","138","1760052","0.0-138.0","DIIYA","TEST","","","","","7974","key"," "," ","16.66759832635976","500","250","instPz4","44","15","30","1","",""
"","psychophysics","139","1761190","0.0-139.0","DIIYA","TEST","","","","","1137","key"," "," ","16.664910447759443","500","250","inst","","","","","",""
"","psychophysics","140","1770278","0.0-140.0","DIIYA","TEST","","","","","9086","key"," "," ","16.66739338235279","500","250","pz","51","26","38","1","",""
"","psychophysics","141","1777208","0.0-141.0","DIIYA","TEST","","","","","6929","key"," "," ","16.667995180723157","500","250","pz","36","47","27","1","",""
"","psychophysics","142","1781982","0.0-142.0","DIIYA","TEST","","","","","4771","key"," "," ","16.667582456140142","500","250","pz","42","56","27","1","",""
"","psychophysics","143","1786217","0.0-143.0","DIIYA","TEST","","","","","4230","key"," "," ","16.666751968503863","500","250","pz","33","39","23","1","",""
"","psychophysics","144","1789689","0.0-144.0","DIIYA","TEST","","","","","3470","key"," "," ","16.666942028985652","500","250","pz","63","45","46","1","",""
"","psychophysics","145","1798890","0.0-145.0","DIIYA","TEST","","","","","9199","key"," "," ","16.667382940108688","500","250","pz","34","47","25","1","",""
"","psychophysics","146","1810706","0.0-146.0","DIIYA","TEST","","","","","11814","key"," "," ","16.667279661017126","500","250","pz","81","59","54","1","",""
"","psychophysics","147","1817805","0.0-147.0","DIIYA","TEST","","","","","7095","key"," "," ","16.668049411764915","500","250","pz","37","39","27","1","",""
"","psychophysics","148","1823994","0.0-148.0","DIIYA","TEST","","","","","6185","key"," "," ","16.66742972972979","500","250","pz","75","26","47","1","",""
"","psychophysics","149","1827816","0.0-149.0","DIIYA","TEST","","","","","3820","key"," "," ","16.666991228070273","500","250","pz","35","32","25","1","",""
"","psychophysics","150","1846503","0.0-150.0","DIIYA","TEST","","","","","18682","key"," "," ","16.667002676181948","500","250","pz","47","49","37","1","",""
"","psychophysics","151","1852223","0.0-151.0","DIIYA","TEST","","","","","5718","key"," "," ","16.667985380116622","500","250","pz","35","37","28","1","",""
"","psychophysics","152","1857241","0.0-152.0","DIIYA","TEST","","","","","5016","key"," "," ","16.66733333333318","500","250","pz","55","26","41","1","",""
"","psychophysics","153","1863273","0.0-153.0","DIIYA","TEST","","","","","6030","key"," "," ","16.667565096952693","500","250","pz","68","56","55","1","",""
"","psychophysics","154","1869590","0.0-154.0","DIIYA","TEST","","","","","6315","key"," "," ","16.66680423280399","500","250","pz","44","35","31","1","",""
"","psychophysics","155","1871730","0.0-155.0","DIIYA","TEST","","","","","2138","key"," "," ","16.66846456692928","500","250","inst","","","","","",""
"","psychophysics","156","1892367","0.0-156.0","DIIYA","TEST","","","","","20628","key"," "," ","16.66712530315293","500","250","instZol2","0.7000000000000006","2","","1","0","0"
"","psychophysics","157","1893262","0.0-157.0","DIIYA","TEST","","","","","889","key"," "," ","16.675358490565934","500","250","inst","","","","","",""
"","psychophysics","158","1900387","0.0-158.0","DIIYA","TEST","","","","","7121","key"," "," ","16.667110070257408","500","250","zol","0.8799999999999999","-0.18","","1","-26","23"
"","psychophysics","159","1908997","0.0-159.0","DIIYA","TEST","","","","","8606","key"," "," ","16.66778058252406","500","250","zol","0.8499999999999999","0.25","","1","-19","5"
"","psychophysics","160","1915278","0.0-160.0","DIIYA","TEST","","","","","6271","key"," "," ","16.66761702127653","500","250","zol","0.9299999999999999","-0.53","","1","-2","15"
"","psychophysics","161","1920591","0.0-161.0","DIIYA","TEST","","","","","5309","key"," "," ","16.66722955974844","500","250","zol","0.73","-0.53","","1","-23","-26"
"","psychophysics","162","1929984","0.0-162.0","DIIYA","TEST","","","","","9390","key"," "," ","16.666275800711613","500","250","zol","0.49","-0.29","","1","1","-28"
"","psychophysics","163","1935803","0.0-163.0","DIIYA","TEST","","","","","5812","key"," "," ","16.666939655172335","500","250","zol","0.039999999999999786","0.66","","1","-9","-24"
"","psychophysics","164","1943494","0.0-164.0","DIIYA","TEST","","","","","7684","key"," "," ","16.66708893709313","500","250","zol","0.56","-0.56","","1","-17","8"
"","psychophysics","165","1949090","0.0-165.0","DIIYA","TEST","","","","","5591","key"," "," ","16.66759999999985","500","250","zol","1.2100000000000002","0.69","","1","29","17"
"","psychophysics","166","1956712","0.0-166.0","DIIYA","TEST","","","","","7619","key"," "," ","16.667780701754197","500","250","zol","0.85","0.35","","1","-29","2"
"","psychophysics","167","1962128","0.0-167.0","DIIYA","TEST","","","","","5411","key"," "," ","16.66812037037079","500","250","zol","0.47","-0.47","","1","-10","-25"
"","psychophysics","168","1967790","0.0-168.0","DIIYA","TEST","","","","","5658","key"," "," ","16.668156342182563","500","250","zol","0.8799999999999999","-0.58","","1","1","-10"
"","psychophysics","169","1972652","0.0-169.0","DIIYA","TEST","","","","","4858","key"," "," ","16.66738965517263","500","250","zol","0.62","-0.72","","1","2","6"
"","psychophysics","170","1976335","0.0-170.0","DIIYA","TEST","","","","","3675","key"," "," ","16.667413636363662","500","250","zol","0.69","-0.09","","1","12","-6"
"","psychophysics","171","1982773","0.0-171.0","DIIYA","TEST","","","","","6432","key"," "," ","16.66727979274628","500","250","zol","1.03","-0.03","","1","-5","-11"
"","psychophysics","172","1995820","0.0-172.0","DIIYA","TEST","","","","","13043","key"," "," ","16.667112676056504","500","250","zol","0.91","0.19","","1","-9","27"
"","psychophysics","173","1997401","0.0-173.0","DIIYA","TEST","","","","","1576","key"," "," ","16.66878723404172","500","250","inst","","","","","",""
"","psychophysics","174","2054689","0.0-174.0","DIIYA","TEST","","","","","57285","key"," "," ","16.667014260768344","500","250","instEB4","48","40","40","1","0","0"
"","psychophysics","175","2055917","0.0-175.0","DIIYA","TEST","","","","","1223","key"," "," ","16.670561643837225","500","250","inst","","","","","",""
"","psychophysics","176","2061280","0.0-176.0","DIIYA","TEST","","","","","5367","key"," "," ","16.667339563862974","500","250","eb","36","43","28","1","0","0"
"","psychophysics","177","2069242","0.0-177.0","DIIYA","TEST","","","","","7959","key"," "," ","16.667551362683483","500","250","eb","45","44","40","1","0","0"
"","psychophysics","178","2077194","0.0-178.0","DIIYA","TEST","","","","","7951","key"," "," ","16.66790336134458","500","250","eb","32","53","26","1","0","0"
"","psychophysics","179","2083543","0.0-179.0","DIIYA","TEST","","","","","6347","key"," "," ","16.66696842105226","500","250","eb","57","45","54","1","0","0"
"","psychophysics","180","2089442","0.0-180.0","DIIYA","TEST","","","","","5897","key"," "," ","16.66655240793153","500","250","eb","42","24","34","1","0","0"
"","psychophysics","181","2096544","0.0-181.0","DIIYA","TEST","","","","","7101","key"," "," ","16.668028235294145","500","250","eb","57","39","46","1","0","0"
"","psychophysics","182","2107774","0.0-182.0","DIIYA","TEST","","","","","11228","key"," "," ","16.667089153046238","500","250","eb","40","34","33","1","0","0"
"","psychophysics","183","2114903","0.0-183.0","DIIYA","TEST","","","","","7128","key"," "," ","16.666796252927558","500","250","eb","52","51","47","1","0","0"
"","psychophysics","184","2122823","0.0-184.0","DIIYA","TEST","","","","","7913","key"," "," ","16.66622573839705","500","250","eb","38","42","29","1","0","0"
"","psychophysics","185","2126143","0.0-185.0","DIIYA","TEST","","","","","3317","key"," "," ","16.664515151515264","500","250","eb","43","35","36","1","0","0"
"","psychophysics","186","2135901","0.0-186.0","DIIYA","TEST","","","","","9756","key"," "," ","16.666876712328378","500","250","eb","42","35","34","1","0","0"
"","psychophysics","187","2139855","0.0-187.0","DIIYA","TEST","","","","","3952","key"," "," ","16.667330508475523","500","250","eb","47","45","38","1","0","0"
"","psychophysics","188","2146024","0.0-188.0","DIIYA","TEST","","","","","6165","key"," "," ","16.667748648648125","500","250","eb","58","31","52","1","0","0"
"","psychophysics","189","2149712","0.0-189.0","DIIYA","TEST","","","","","3686","key"," "," ","16.66660909090953","500","250","eb","60","53","49","1","0","0"
"","psychophysics","190","2154873","0.0-190.0","DIIYA","TEST","","","","","5160","key"," "," ","16.666278317151743","500","250","eb","53","27","43","1","0","0"
"","psychophysics","191","2155975","0.0-191.0","DIIYA","TEST","","","","","1098","key"," "," ","16.67044615384478","500","250","inst","","","","","",""
"","psychophysics","192","2159709","0.0-192.0","DIIYA","TEST","","","","","3731","key"," "," ","16.66895067264564","500","250","instBr","-20","40","300","1","0","0"
"","psychophysics","193","2160942","0.0-193.0","DIIYA","TEST","","","","","1230","key"," "," ","16.667575342465856","500","250","inst","","","","","",""
"","psychophysics","194","2166302","0.0-194.0","DIIYA","TEST","","","","","5359","key"," "," ","16.66828125000029","500","250","br","-22","39","300","1","-6","-13"
"","psychophysics","195","2170355","0.0-195.0","DIIYA","TEST","","","","","4050","key"," "," ","16.667867768594363","500","250","br","-21","22","300","1","-23","-26"
"","psychophysics","196","2174910","0.0-196.0","DIIYA","TEST","","","","","4549","key"," "," ","16.667043956042686","500","250","br","-20","-44","300","1","-13","15"
"","psychophysics","197","2179838","0.0-197.0","DIIYA","TEST","","","","","4926","key"," "," ","16.667217687074867","500","250","br","-22","5","300","1","-17","-9"
"","psychophysics","198","2184657","0.0-198.0","DIIYA","TEST","","","","","4816","key"," "," ","16.668435986158617","500","250","br","-19","18","300","1","-13","9"
"","psychophysics","199","2189089","0.0-199.0","DIIYA","TEST","","","","","4430","key"," "," ","16.667332075471233","500","250","br","-27","-35","300","1","16","7"
"","psychophysics","200","2194217","0.0-200.0","DIIYA","TEST","","","","","5126","key"," "," ","16.66688562091592","500","250","br","-16","25","300","1","14","-9"
"","psychophysics","201","2197474","0.0-201.0","DIIYA","TEST","","","","","3255","key"," "," ","16.66932820512746","500","250","br","-21","-22","300","1","-4","25"
"","psychophysics","202","2203602","0.0-202.0","DIIYA","TEST","","","","","6126","key"," "," ","16.668259562841804","500","250","br","-17","27","300","1","27","-21"
"","psychophysics","203","2208140","0.0-203.0","DIIYA","TEST","","","","","4533","key"," "," ","16.668485294118426","500","250","br","-19","-19","300","1","-28","-10"
"","psychophysics","204","2213837","0.0-204.0","DIIYA","TEST","","","","","5694","key"," "," ","16.666485294117592","500","250","br","-27","-41","300","1","11","7"
"","psychophysics","205","2218401","0.0-205.0","DIIYA","TEST","","","","","4560","key"," "," ","16.668263736262837","500","250","br","-26","-44","300","1","-7","-28"
"","psychophysics","206","2225357","0.0-206.0","DIIYA","TEST","","","","","6953","key"," "," ","16.667438848921247","500","250","br","-18","3","300","1","15","-27"
"","psychophysics","207","2230784","0.0-207.0","DIIYA","TEST","","","","","5425","key"," "," ","16.667330246914556","500","250","br","-17","13","300","1","30","-3"
"","psychophysics","208","2233524","0.0-208.0","DIIYA","TEST","","","","","2737","key"," "," ","16.666268292681043","500","250","br","-22","-5","300","1","11","-20"
