"success","trial_type","trial_index","time_elapsed","internal_node_id","pid","sid","timeout","failed_images","failed_audio","failed_video","rt","stimulus","response","response_type","key_press","avg_frame_time","center_x","center_y","task","resp","version","block","jitterX","jitterY","start","parA"
"true","fullscreen","0","3904","0.0-0.0","64135efbd2ef675b8e179a21","64de754df0ed6d79222c47fd","","","","","","","","","","","","","","","","","","","",""
"true","preload","1","4202","0.0-1.0","64135efbd2ef675b8e179a21","64de754df0ed6d79222c47fd","false","[]","[]","[]","","","","","","","","","","","","","","","",""
"","html-button-response","2","11259","0.0-2.0","64135efbd2ef675b8e179a21","64de754df0ed6d79222c47fd","","","","","7053","Please Make Sure Your Audio Is On.","0","","","","","","","","","","","","",""
"","psychophysics","3","16605","0.0-3.0","64135efbd2ef675b8e179a21","64de754df0ed6d79222c47fd","","","","","5326",""," ","key"," ","16.75469278996865","683","250","","","","","","","",""
"","psychophysics","4","26229","0.0-4.0","64135efbd2ef675b8e179a21","64de754df0ed6d79222c47fd","","","","","9621",""," ","key"," ","16.650433275563255","500","250","inst","","","","","","",""
"","psychophysics","5","30021","0.0-5.0","64135efbd2ef675b8e179a21","64de754df0ed6d79222c47fd","","","","","3786",""," ","key"," ","16.650303964757704","500","250","sample0","","","","","","",""
"","psychophysics","6","32956","0.0-6.0","64135efbd2ef675b8e179a21","64de754df0ed6d79222c47fd","","","","","2932",""," ","key"," ","16.653439999999993","500","250","sample1","","","","","","",""
"","psychophysics","7","47284","0.0-7.0","64135efbd2ef675b8e179a21","64de754df0ed6d79222c47fd","","","","","14323",""," ","key"," ","16.650729918509903","500","250","sample2","100","","","","","",""
"","psychophysics","8","57463","0.0-8.0","64135efbd2ef675b8e179a21","64de754df0ed6d79222c47fd","","","","","10167",""," ","key"," ","16.65076104746317","500","250","sample3","98","","","","","",""
"","psychophysics","9","77484","0.0-9.0","64135efbd2ef675b8e179a21","64de754df0ed6d79222c47fd","","","","","20021",""," ","key"," ","16.649976686094924","500","250","sample4","102","","","","","",""
"","psychophysics","10","82566","0.0-10.0","64135efbd2ef675b8e179a21","64de754df0ed6d79222c47fd","","","","","5076",""," ","key"," ","16.65080000000002","500","250","sample5","","","","","","",""
"","psychophysics","11","100776","0.0-11.0","64135efbd2ef675b8e179a21","64de754df0ed6d79222c47fd","","","","","18204",""," ","key"," ","16.650284798534788","500","250","sample6","500","","","","","",""
"","psychophysics","12","107281","0.0-12.0","64135efbd2ef675b8e179a21","64de754df0ed6d79222c47fd","","","","","6499",""," ","key"," ","16.651441025641038","500","250","inst","","","","","","",""
"","psychophysics","13","114454","0.0-13.0","64135efbd2ef675b8e179a21","64de754df0ed6d79222c47fd","","","","","7168",""," ","key"," ","16.65113023255815","500","250","inst","","","","","","",""
"","psychophysics","14","118892","0.0-14.0","64135efbd2ef675b8e179a21","64de754df0ed6d79222c47fd","","","","","4433",""," ","key"," ","16.649124528301872","500","250","inst","","","","","","",""
"","psychophysics","15","122243","0.0-15.0","64135efbd2ef675b8e179a21","64de754df0ed6d79222c47fd","","","","","3342",""," ","key"," ","16.6501641791045","500","250","inst","","","","","","",""
"","psychophysics","16","124808","0.0-16.0","64135efbd2ef675b8e179a21","64de754df0ed6d79222c47fd","","","","","2560",""," ","key"," ","16.65056862745096","500","250","inst","","","","","","",""
"","psychophysics","17","128053","0.0-17.0","64135efbd2ef675b8e179a21","64de754df0ed6d79222c47fd","","","","","3236",""," ","key"," ","16.652191709844594","500","250","instBr0","0","","","0","0","0","300"
"","psychophysics","18","142087","0.0-18.0","64135efbd2ef675b8e179a21","64de754df0ed6d79222c47fd","","","","","14027",""," ","key"," ","16.650032028469766","500","250","instBr1","-2","","","0","0","-40","300"
"","psychophysics","19","161492","0.0-19.0","64135efbd2ef675b8e179a21","64de754df0ed6d79222c47fd","","","","","19401",""," ","key"," ","16.650707044673524","500","250","instBr3","-20","1","","0","0","40","300"
"","psychophysics","20","164704","0.0-20.0","64135efbd2ef675b8e179a21","64de754df0ed6d79222c47fd","","","","","3208",""," ","key"," ","16.649999999999938","500","250","inst","","","","","","",""
"","psychophysics","21","171065","0.0-21.0","64135efbd2ef675b8e179a21","64de754df0ed6d79222c47fd","","","","","6349",""," ","key"," ","16.694268421052595","500","250","br","-21","1","0","24","25","24","285"
"","psychophysics","22","175816","0.0-22.0","64135efbd2ef675b8e179a21","64de754df0ed6d79222c47fd","","","","","4743",""," ","key"," ","16.650658450704263","500","250","br","-20","1","0","-17","-13","-20","232"
"","psychophysics","23","183829","0.0-23.0","64135efbd2ef675b8e179a21","64de754df0ed6d79222c47fd","","","","","null","","null","key","null","16.650343750000015","500","250","br","-14","1","0","26","-26","-3","216"
"","psychophysics","24","186842","0.0-24.0","64135efbd2ef675b8e179a21","64de754df0ed6d79222c47fd","","","","","3004",""," ","key"," ","16.651722222222208","500","250","br","-22","1","0","5","27","-22","228"
"","psychophysics","25","194857","0.0-25.0","64135efbd2ef675b8e179a21","64de754df0ed6d79222c47fd","","","","","null","","null","key","null","16.6504333333333","500","250","br","-19","1","0","-8","-11","26","263"
"","psychophysics","26","202866","0.0-26.0","64135efbd2ef675b8e179a21","64de754df0ed6d79222c47fd","","","","","null","","null","key","null","16.650260416666665","500","250","br","-16","1","0","5","28","-15","209"
"","psychophysics","27","210555","0.0-27.0","64135efbd2ef675b8e179a21","64de754df0ed6d79222c47fd","","","","","7679",""," ","key"," ","16.649852494576994","500","250","br","-13","1","0","16","-27","2","202"
"","psychophysics","28","218568","0.0-28.0","64135efbd2ef675b8e179a21","64de754df0ed6d79222c47fd","","","","","null","","null","key","null","16.6504333333333","500","250","br","-20","1","0","1","-27","28","277"
"","psychophysics","29","226578","0.0-29.0","64135efbd2ef675b8e179a21","64de754df0ed6d79222c47fd","","","","","null","","null","key","null","16.650395833333338","500","250","br","-12","1","0","-9","22","4","218"
"","psychophysics","30","234585","0.0-30.0","64135efbd2ef675b8e179a21","64de754df0ed6d79222c47fd","","","","","null","","null","key","null","16.65035208333332","500","250","br","-13","1","0","-25","-1","8","300"
"","psychophysics","31","242594","0.0-31.0","64135efbd2ef675b8e179a21","64de754df0ed6d79222c47fd","","","","","null","","null","key","null","16.65035208333332","500","250","br","-21","1","0","24","29","14","292"
"","psychophysics","32","250596","0.0-32.0","64135efbd2ef675b8e179a21","64de754df0ed6d79222c47fd","","","","","null","","null","key","null","16.65076875000001","500","250","br","-12","1","0","-26","26","2","219"
"","psychophysics","33","258605","0.0-33.0","64135efbd2ef675b8e179a21","64de754df0ed6d79222c47fd","","","","","null","","null","key","null","16.65081458333334","500","250","br","-16","1","0","14","16","22","281"
"","psychophysics","34","266614","0.0-34.0","64135efbd2ef675b8e179a21","64de754df0ed6d79222c47fd","","","","","null","","null","key","null","16.650689583333286","500","250","br","-18","1","0","-8","4","-26","278"
"","psychophysics","35","272395","0.0-35.0","64135efbd2ef675b8e179a21","64de754df0ed6d79222c47fd","","","","","5769",""," ","key"," ","16.65056484149868","500","250","br","-19","1","0","-17","-22","8","275"
"","psychophysics","36","277025","0.0-36.0","64135efbd2ef675b8e179a21","64de754df0ed6d79222c47fd","","","","","4625",""," ","key"," ","16.650389891696737","500","250","inst","","","","","","",""
"","psychophysics","37","298069","0.0-37.0","64135efbd2ef675b8e179a21","64de754df0ed6d79222c47fd","","","","","21039",""," ","key"," ","16.650319873317493","500","250","instPog0","160","1","","0","0","190","160"
"","psychophysics","38","340686","0.0-38.0","64135efbd2ef675b8e179a21","64de754df0ed6d79222c47fd","","","","","42605",""," ","key"," ","16.650360828772488","500","250","instPog1","182","1","","0","0","190","160"
"","psychophysics","39","358375","0.0-39.0","64135efbd2ef675b8e179a21","64de754df0ed6d79222c47fd","","","","","17684",""," ","key"," ","16.65035909519323","500","250","instPog2","178","1","","0","0","160","160"
"","psychophysics","40","362119","0.0-40.0","64135efbd2ef675b8e179a21","64de754df0ed6d79222c47fd","","","","","3740",""," ","key"," ","16.65136160714298","500","250","inst","","","","","","",""
"","psychophysics","41","370127","0.0-41.0","64135efbd2ef675b8e179a21","64de754df0ed6d79222c47fd","","","","","null","","null","key","null","16.650785416666622","500","250","pog","176","1","0","0","0","214","139"
"","psychophysics","42","378135","0.0-42.0","64135efbd2ef675b8e179a21","64de754df0ed6d79222c47fd","","","","","null","","null","key","null","16.649841666666664","500","250","pog","167","1","0","0","0","205","129"
"","psychophysics","43","386139","0.0-43.0","64135efbd2ef675b8e179a21","64de754df0ed6d79222c47fd","","","","","null","","null","key","null","16.650318749999983","500","250","pog","221","1","0","0","0","151","184"
"","psychophysics","44","394145","0.0-44.0","64135efbd2ef675b8e179a21","64de754df0ed6d79222c47fd","","","","","null","","null","key","null","16.649937369519847","500","250","pog","182","1","0","0","0","126","146"
"","psychophysics","45","402150","0.0-45.0","64135efbd2ef675b8e179a21","64de754df0ed6d79222c47fd","","","","","null","","null","key","null","16.649943749999995","500","250","pog","205","1","0","0","0","171","168"
"","psychophysics","46","410162","0.0-46.0","64135efbd2ef675b8e179a21","64de754df0ed6d79222c47fd","","","","","null","","null","key","null","16.651008333333326","500","250","pog","172","1","0","0","0","212","136"
"","psychophysics","47","418172","0.0-47.0","64135efbd2ef675b8e179a21","64de754df0ed6d79222c47fd","","","","","null","","null","key","null","16.649770833333363","500","250","pog","174","1","0","0","0","174","156"
"","psychophysics","48","425704","0.0-48.0","64135efbd2ef675b8e179a21","64de754df0ed6d79222c47fd","","","","","7522",""," ","key"," ","16.650117256637174","500","250","pog","236","1","0","0","0","142","200"
"","psychophysics","49","433716","0.0-49.0","64135efbd2ef675b8e179a21","64de754df0ed6d79222c47fd","","","","","null","","null","key","null","16.649977083333336","500","250","pog","177","1","0","0","0","111","141"
"","psychophysics","50","441421","0.0-50.0","64135efbd2ef675b8e179a21","64de754df0ed6d79222c47fd","","","","","7698",""," ","key"," ","16.650424242424208","500","250","pog","225","1","0","0","0","209","195"
"","psychophysics","51","449425","0.0-51.0","64135efbd2ef675b8e179a21","64de754df0ed6d79222c47fd","","","","","null","","null","key","null","16.64983507306891","500","250","pog","211","1","0","0","0","187","183"
"","psychophysics","52","457433","0.0-52.0","64135efbd2ef675b8e179a21","64de754df0ed6d79222c47fd","","","","","null","","null","key","null","16.649895833333357","500","250","pog","181","1","0","0","0","167","151"
"","psychophysics","53","465439","0.0-53.0","64135efbd2ef675b8e179a21","64de754df0ed6d79222c47fd","","","","","null","","null","key","null","16.649877083333315","500","250","pog","168","1","0","0","0","202","136"
"","psychophysics","54","473451","0.0-54.0","64135efbd2ef675b8e179a21","64de754df0ed6d79222c47fd","","","","","null","","null","key","null","16.651091666666616","500","250","pog","183","1","0","0","0","129","154"
"","psychophysics","55","481460","0.0-55.0","64135efbd2ef675b8e179a21","64de754df0ed6d79222c47fd","","","","","null","","null","key","null","16.65038333333335","500","250","pog","181","1","0","0","0","115","152"
"","psychophysics","56","483528","0.0-56.0","64135efbd2ef675b8e179a21","64de754df0ed6d79222c47fd","","","","","2059",""," ","key"," ","16.648870967742106","500","250","inst","","","","","","",""
"","psychophysics","57","486646","0.0-57.0","64135efbd2ef675b8e179a21","64de754df0ed6d79222c47fd","","","","","3112",""," ","key"," ","16.650096774193575","500","250","instPzPre","50","0","","","","50","50"
"","psychophysics","58","492302","0.0-58.0","64135efbd2ef675b8e179a21","64de754df0ed6d79222c47fd","","","","","5656",""," ","key"," ","16.65025958702072","500","250","instPz0","41","2","","","","50","50"
"","psychophysics","59","509088","0.0-59.0","64135efbd2ef675b8e179a21","64de754df0ed6d79222c47fd","","","","","16780",""," ","key"," ","16.65056802383314","500","250","instPz1","48","2","","","","25","50"
"","psychophysics","60","517887","0.0-60.0","64135efbd2ef675b8e179a21","64de754df0ed6d79222c47fd","","","","","8789",""," ","key"," ","16.6507518939393","500","250","instPz2","34","2","","","","20","35"
"","psychophysics","61","528971","0.0-61.0","64135efbd2ef675b8e179a21","64de754df0ed6d79222c47fd","","","","","11073",""," ","key"," ","16.650615963855365","500","250","instPz3","104","2","","","","30","100"
"","psychophysics","62","540144","0.0-62.0","64135efbd2ef675b8e179a21","64de754df0ed6d79222c47fd","","","","","11162",""," ","key"," ","16.650674626865744","500","250","instPz4","95","2","","","","30","100"
"","psychophysics","63","542953","0.0-63.0","64135efbd2ef675b8e179a21","64de754df0ed6d79222c47fd","","","","","2801",""," ","key"," ","16.650720238095214","500","250","inst","","","","","","",""
"","psychophysics","64","550311","0.0-64.0","64135efbd2ef675b8e179a21","64de754df0ed6d79222c47fd","","","","","7340",""," ","key"," ","16.650954545454642","500","250","pz","28","2","0","","","38","31"
"","psychophysics","65","558318","0.0-65.0","64135efbd2ef675b8e179a21","64de754df0ed6d79222c47fd","","","","","null","","null","key","null","16.649941666666564","500","250","pz","32","2","0","","","54","37"
"","psychophysics","66","566324","0.0-66.0","64135efbd2ef675b8e179a21","64de754df0ed6d79222c47fd","","","","","null","","null","key","null","16.65001666666673","500","250","pz","42","2","0","","","54","50"
"","psychophysics","67","574336","0.0-67.0","64135efbd2ef675b8e179a21","64de754df0ed6d79222c47fd","","","","","null","","null","key","null","16.650885416666764","500","250","pz","41","2","0","","","26","57"
"","psychophysics","68","582344","0.0-68.0","64135efbd2ef675b8e179a21","64de754df0ed6d79222c47fd","","","","","null","","null","key","null","16.64988333333337","500","250","pz","33","2","0","","","32","36"
"","psychophysics","69","590354","0.0-69.0","64135efbd2ef675b8e179a21","64de754df0ed6d79222c47fd","","","","","null","","null","key","null","16.65066250000018","500","250","pz","44","2","0","","","50","51"
"","psychophysics","70","598362","0.0-70.0","64135efbd2ef675b8e179a21","64de754df0ed6d79222c47fd","","","","","null","","null","key","null","16.65036874999981","500","250","pz","27","2","0","","","26","28"
"","psychophysics","71","606369","0.0-71.0","64135efbd2ef675b8e179a21","64de754df0ed6d79222c47fd","","","","","null","","null","key","null","16.650802083333353","500","250","pz","24","2","0","","","39","26"
"","psychophysics","72","614375","0.0-72.0","64135efbd2ef675b8e179a21","64de754df0ed6d79222c47fd","","","","","null","","null","key","null","16.650824999999895","500","250","pz","45","2","0","","","40","57"
"","psychophysics","73","622386","0.0-73.0","64135efbd2ef675b8e179a21","64de754df0ed6d79222c47fd","","","","","null","","null","key","null","16.650258333333234","500","250","pz","37","2","0","","","37","39"
"","psychophysics","74","630396","0.0-74.0","64135efbd2ef675b8e179a21","64de754df0ed6d79222c47fd","","","","","null","","null","key","null","16.650402083333514","500","250","pz","40","2","0","","","32","46"
"","psychophysics","75","638405","0.0-75.0","64135efbd2ef675b8e179a21","64de754df0ed6d79222c47fd","","","","","null","","null","key","null","16.64986666666664","500","250","pz","25","2","0","","","23","23"
"","psychophysics","76","646414","0.0-76.0","64135efbd2ef675b8e179a21","64de754df0ed6d79222c47fd","","","","","null","","null","key","null","16.650308333333427","500","250","pz","25","2","0","","","60","26"
"","psychophysics","77","654422","0.0-77.0","64135efbd2ef675b8e179a21","64de754df0ed6d79222c47fd","","","","","null","","null","key","null","16.649518749999938","500","250","pz","32","2","0","","","52","31"
"","psychophysics","78","662428","0.0-78.0","64135efbd2ef675b8e179a21","64de754df0ed6d79222c47fd","","","","","null","","null","key","null","16.650272916666776","500","250","pz","43","2","0","","","40","53"
"","psychophysics","79","664184","0.0-79.0","64135efbd2ef675b8e179a21","64de754df0ed6d79222c47fd","","","","","1747",""," ","key"," ","16.652257142856804","500","250","inst","","","","","","",""
"","psychophysics","80","667198","0.0-80.0","64135efbd2ef675b8e179a21","64de754df0ed6d79222c47fd","","","","","3008",""," ","key"," ","16.651522222222088","500","250","instZol0","0","","","0","0","0",""
"","psychophysics","81","687019","0.0-81.0","64135efbd2ef675b8e179a21","64de754df0ed6d79222c47fd","","","","","19815",""," ","key"," ","16.650629100084103","500","250","instZol1","2.7755575615628914e-17","","","0","0","-1.3",""
"","psychophysics","82","709808","0.0-82.0","64135efbd2ef675b8e179a21","64de754df0ed6d79222c47fd","","","","","22775",""," ","key"," ","16.650514619883026","500","250","instZol2","-1.6999999999999997","2","","0","0","2",""
"","psychophysics","83","713438","0.0-83.0","64135efbd2ef675b8e179a21","64de754df0ed6d79222c47fd","","","","","3625",""," ","key"," ","16.650571428571425","500","250","inst","","","","","","",""
"","psychophysics","84","721448","0.0-84.0","64135efbd2ef675b8e179a21","64de754df0ed6d79222c47fd","","","","","null","","null","key","null","16.650972916666795","500","250","zol","-1.4600000000000002","2","0","-21","-30","0.36",""
"","psychophysics","85","729462","0.0-85.0","64135efbd2ef675b8e179a21","64de754df0ed6d79222c47fd","","","","","null","","null","key","null","16.650312500000048","500","250","zol","-1.36","2","0","-12","3","-0.04",""
"","psychophysics","86","737476","0.0-86.0","64135efbd2ef675b8e179a21","64de754df0ed6d79222c47fd","","","","","null","","null","key","null","16.65049583333336","500","250","zol","-2.580000000000001","2","0","8","-19","-0.22",""
"","psychophysics","87","745489","0.0-87.0","64135efbd2ef675b8e179a21","64de754df0ed6d79222c47fd","","","","","null","","null","key","null","16.65022037422024","500","250","zol","-1.7400000000000004","2","0","-22","12","-0.66",""
"","psychophysics","88","753506","0.0-88.0","64135efbd2ef675b8e179a21","64de754df0ed6d79222c47fd","","","","","null","","null","key","null","16.651027083333368","500","250","zol","-2.0100000000000007","2","0","25","-11","-0.59",""
"","psychophysics","89","761519","0.0-89.0","64135efbd2ef675b8e179a21","64de754df0ed6d79222c47fd","","","","","null","","null","key","null","16.65082708333333","500","250","zol","-1.8800000000000006","2","0","-2","-7","-0.62",""
"","psychophysics","90","769532","0.0-90.0","64135efbd2ef675b8e179a21","64de754df0ed6d79222c47fd","","","","","null","","null","key","null","16.650814968815002","500","250","zol","-2.4200000000000013","2","0","27","6","-0.18",""
"","psychophysics","91","777541","0.0-91.0","64135efbd2ef675b8e179a21","64de754df0ed6d79222c47fd","","","","","null","","null","key","null","16.65110416666648","500","250","zol","-2.020000000000001","2","0","2","-2","-0.58",""
"","psychophysics","92","785550","0.0-92.0","64135efbd2ef675b8e179a21","64de754df0ed6d79222c47fd","","","","","null","","null","key","null","16.650404166666462","500","250","zol","-1.5400000000000005","2","0","-9","-30","-0.16",""
"","psychophysics","93","793555","0.0-93.0","64135efbd2ef675b8e179a21","64de754df0ed6d79222c47fd","","","","","null","","null","key","null","16.65104583333329","500","250","zol","-2.0900000000000007","2","0","26","8","0.29",""
"","psychophysics","94","801565","0.0-94.0","64135efbd2ef675b8e179a21","64de754df0ed6d79222c47fd","","","","","null","","null","key","null","16.651037500000044","500","250","zol","-2.510000000000001","2","0","-27","-5","0.21",""
"","psychophysics","95","809575","0.0-95.0","64135efbd2ef675b8e179a21","64de754df0ed6d79222c47fd","","","","","null","","null","key","null","16.651062499999778","500","250","zol","-2.220000000000001","2","0","12","-12","-0.08",""
"","psychophysics","96","817590","0.0-96.0","64135efbd2ef675b8e179a21","64de754df0ed6d79222c47fd","","","","","null","","null","key","null","16.65099999999996","500","250","zol","-2.400000000000001","2","0","22","9","0.7",""
"","psychophysics","97","825595","0.0-97.0","64135efbd2ef675b8e179a21","64de754df0ed6d79222c47fd","","","","","null","","null","key","null","16.650860416666788","500","250","zol","-2.570000000000001","2","0","9","1","0.17",""
"","psychophysics","98","833609","0.0-98.0","64135efbd2ef675b8e179a21","64de754df0ed6d79222c47fd","","","","","null","","null","key","null","16.650783333333433","500","250","zol","-2.700000000000001","2","0","-30","19","-0.3",""
"","psychophysics","99","835267","0.0-99.0","64135efbd2ef675b8e179a21","64de754df0ed6d79222c47fd","","","","","1649",""," ","key"," ","16.652747474748388","500","250","inst","","","","","","",""
"","psychophysics","100","838035","0.0-100.0","64135efbd2ef675b8e179a21","64de754df0ed6d79222c47fd","","","","","2762",""," ","key"," ","16.65153939393984","500","250","instEB0","40","1","","0","0","40","40"
"","psychophysics","101","847278","0.0-101.0","64135efbd2ef675b8e179a21","64de754df0ed6d79222c47fd","","","","","9238",""," ","key"," ","16.650175090252578","500","250","instEB1","31","1","","0","0","40","30"
"","psychophysics","102","858427","0.0-102.0","64135efbd2ef675b8e179a21","64de754df0ed6d79222c47fd","","","","","11138",""," ","key"," ","16.650370702541103","500","250","instEB2","36","1","","0","0","30","40"
"","psychophysics","103","872228","0.0-103.0","64135efbd2ef675b8e179a21","64de754df0ed6d79222c47fd","","","","","13795",""," ","key"," ","16.65070048309182","500","250","instEB3","39","1","","0","0","27","45"
"","psychophysics","104","887000","0.0-104.0","64135efbd2ef675b8e179a21","64de754df0ed6d79222c47fd","","","","","14764",""," ","key"," ","16.650323927765275","500","250","instEB4","29","1","","0","0","40","30"
"","psychophysics","105","892600","0.0-105.0","64135efbd2ef675b8e179a21","64de754df0ed6d79222c47fd","","","","","5596",""," ","key"," ","16.650101492537267","500","250","inst","","","","","","",""
"","psychophysics","106","900612","0.0-106.0","64135efbd2ef675b8e179a21","64de754df0ed6d79222c47fd","","","","","null","","null","key","null","16.650464583333328","500","250","eb","44","1","","0","0","28","52"
"","psychophysics","107","908622","0.0-107.0","64135efbd2ef675b8e179a21","64de754df0ed6d79222c47fd","","","","","null","","null","key","null","16.650520833333335","500","250","eb","42","1","","0","0","28","47"
"","psychophysics","108","916630","0.0-108.0","64135efbd2ef675b8e179a21","64de754df0ed6d79222c47fd","","","","","null","","null","key","null","16.651056249999964","500","250","eb","48","1","","0","0","53","54"
"","psychophysics","109","924639","0.0-109.0","64135efbd2ef675b8e179a21","64de754df0ed6d79222c47fd","","","","","null","","null","key","null","16.650339583333214","500","250","eb","25","1","","0","0","35","27"
"","psychophysics","110","932647","0.0-110.0","64135efbd2ef675b8e179a21","64de754df0ed6d79222c47fd","","","","","null","","null","key","null","16.651120833333213","500","250","eb","38","1","","0","0","44","47"
"","psychophysics","111","940654","0.0-111.0","64135efbd2ef675b8e179a21","64de754df0ed6d79222c47fd","","","","","null","","null","key","null","16.650620833333473","500","250","eb","39","1","","0","0","47","44"
"","psychophysics","112","948667","0.0-112.0","64135efbd2ef675b8e179a21","64de754df0ed6d79222c47fd","","","","","null","","null","key","null","16.650852083333543","500","250","eb","32","1","","0","0","35","35"
"","psychophysics","113","956674","0.0-113.0","64135efbd2ef675b8e179a21","64de754df0ed6d79222c47fd","","","","","null","","null","key","null","16.65034583333327","500","250","eb","39","1","","0","0","35","45"
"","psychophysics","114","964685","0.0-114.0","64135efbd2ef675b8e179a21","64de754df0ed6d79222c47fd","","","","","null","","null","key","null","16.650387499999972","500","250","eb","41","1","","0","0","46","47"
"","psychophysics","115","972694","0.0-115.0","64135efbd2ef675b8e179a21","64de754df0ed6d79222c47fd","","","","","null","","null","key","null","16.649810416666636","500","250","eb","27","1","","0","0","41","28"
"","psychophysics","116","980705","0.0-116.0","64135efbd2ef675b8e179a21","64de754df0ed6d79222c47fd","","","","","null","","null","key","null","16.65084791666668","500","250","eb","46","1","","0","0","42","53"
"","psychophysics","117","988713","0.0-117.0","64135efbd2ef675b8e179a21","64de754df0ed6d79222c47fd","","","","","null","","null","key","null","16.65041249999995","500","250","eb","46","1","","0","0","25","52"
"","psychophysics","118","996721","0.0-118.0","64135efbd2ef675b8e179a21","64de754df0ed6d79222c47fd","","","","","null","","null","key","null","16.65021874999996","500","250","eb","32","1","","0","0","41","36"
"","psychophysics","119","1004728","0.0-119.0","64135efbd2ef675b8e179a21","64de754df0ed6d79222c47fd","","","","","null","","null","key","null","16.65106250000002","500","250","eb","36","1","","0","0","31","42"
"","psychophysics","120","1012740","0.0-120.0","64135efbd2ef675b8e179a21","64de754df0ed6d79222c47fd","","","","","null","","null","key","null","16.65134166666685","500","250","eb","32","1","","0","0","32","34"
"","psychophysics","121","1015143","0.0-121.0","64135efbd2ef675b8e179a21","64de754df0ed6d79222c47fd","","","","","2393",""," ","key"," ","16.650534722222396","500","250","inst","","","","","","",""
"","psychophysics","122","1027223","0.0-122.0","64135efbd2ef675b8e179a21","64de754df0ed6d79222c47fd","","","","","12075",""," ","key"," ","16.650357734806704","500","250","instEB1","43","2","","0","0","30","40"
"","psychophysics","123","1038587","0.0-123.0","64135efbd2ef675b8e179a21","64de754df0ed6d79222c47fd","","","","","11356",""," ","key"," ","16.650683284457568","500","250","instEB2","35","2","","0","0","40","30"
"","psychophysics","124","1047823","0.0-124.0","64135efbd2ef675b8e179a21","64de754df0ed6d79222c47fd","","","","","9229",""," ","key"," ","16.65037364620923","500","250","instEB3","39","2","","0","0","45","27"
"","psychophysics","125","1061741","0.0-125.0","64135efbd2ef675b8e179a21","64de754df0ed6d79222c47fd","","","","","13911",""," ","key"," ","16.650051558753184","500","250","instEB4","49","2","","0","0","30","40"
"","psychophysics","126","1064410","0.0-126.0","64135efbd2ef675b8e179a21","64de754df0ed6d79222c47fd","","","","","2662",""," ","key"," ","16.651637500000653","500","250","inst","","","","","","",""
"","psychophysics","127","1072416","0.0-127.0","64135efbd2ef675b8e179a21","64de754df0ed6d79222c47fd","","","","","null","","null","key","null","16.65093333333304","500","250","eb","56","2","","0","0","42","49"
"","psychophysics","128","1080425","0.0-128.0","64135efbd2ef675b8e179a21","64de754df0ed6d79222c47fd","","","","","null","","null","key","null","16.65106250000002","500","250","eb","44","2","","0","0","34","34"
"","psychophysics","129","1088433","0.0-129.0","64135efbd2ef675b8e179a21","64de754df0ed6d79222c47fd","","","","","null","","null","key","null","16.650062500000057","500","250","eb","37","2","","0","0","49","29"
"","psychophysics","130","1096441","0.0-130.0","64135efbd2ef675b8e179a21","64de754df0ed6d79222c47fd","","","","","null","","null","key","null","16.65084551148202","500","250","eb","56","2","","0","0","49","49"
"","psychophysics","131","1104449","0.0-131.0","64135efbd2ef675b8e179a21","64de754df0ed6d79222c47fd","","","","","null","","null","key","null","16.650522916666525","500","250","eb","31","2","","0","0","37","26"
"","psychophysics","132","1112458","0.0-132.0","64135efbd2ef675b8e179a21","64de754df0ed6d79222c47fd","","","","","null","","null","key","null","16.650472916666573","500","250","eb","51","2","","0","0","28","43"
"","psychophysics","133","1120467","0.0-133.0","64135efbd2ef675b8e179a21","64de754df0ed6d79222c47fd","","","","","null","","null","key","null","16.649897916666912","500","250","eb","56","2","","0","0","29","50"
"","psychophysics","134","1128474","0.0-134.0","64135efbd2ef675b8e179a21","64de754df0ed6d79222c47fd","","","","","null","","null","key","null","16.651389583333607","500","250","eb","52","2","","0","0","49","43"
"","psychophysics","135","1136481","0.0-135.0","64135efbd2ef675b8e179a21","64de754df0ed6d79222c47fd","","","","","null","","null","key","null","16.650329166666292","500","250","eb","53","2","","0","0","41","43"
"","psychophysics","136","1144492","0.0-136.0","64135efbd2ef675b8e179a21","64de754df0ed6d79222c47fd","","","","","null","","null","key","null","16.650604166666746","500","250","eb","33","2","","0","0","53","27"
"","psychophysics","137","1152500","0.0-137.0","64135efbd2ef675b8e179a21","64de754df0ed6d79222c47fd","","","","","null","","null","key","null","16.650797916666974","500","250","eb","56","2","","0","0","25","48"
"","psychophysics","138","1160509","0.0-138.0","64135efbd2ef675b8e179a21","64de754df0ed6d79222c47fd","","","","","null","","null","key","null","16.65018125000012","500","250","eb","50","2","","0","0","38","41"
"","psychophysics","139","1168517","0.0-139.0","64135efbd2ef675b8e179a21","64de754df0ed6d79222c47fd","","","","","null","","null","key","null","16.650506250000035","500","250","eb","37","2","","0","0","29","30"
"","psychophysics","140","1176527","0.0-140.0","64135efbd2ef675b8e179a21","64de754df0ed6d79222c47fd","","","","","null","","null","key","null","16.650460416666466","500","250","eb","51","2","","0","0","42","47"
"","psychophysics","141","1184534","0.0-141.0","64135efbd2ef675b8e179a21","64de754df0ed6d79222c47fd","","","","","null","","null","key","null","16.650010416666433","500","250","eb","55","2","","0","0","37","47"
"","psychophysics","142","1186339","0.0-142.0","64135efbd2ef675b8e179a21","64de754df0ed6d79222c47fd","","","","","1796",""," ","key"," ","16.652268518519122","500","250","inst","","","","","","",""
"","psychophysics","143","1202049","0.0-143.0","64135efbd2ef675b8e179a21","64de754df0ed6d79222c47fd","","","","","15703",""," ","key"," ","16.65068789808902","500","250","instBr3","25","2","","0","0","40","300"
"","psychophysics","144","1204160","0.0-144.0","64135efbd2ef675b8e179a21","64de754df0ed6d79222c47fd","","","","","2102",""," ","key"," ","16.651857142857764","500","250","inst","","","","","","",""
"","psychophysics","145","1212170","0.0-145.0","64135efbd2ef675b8e179a21","64de754df0ed6d79222c47fd","","","","","null","","null","key","null","16.650506250000035","500","250","br","23","2","1","-26","-17","7","271"
"","psychophysics","146","1220180","0.0-146.0","64135efbd2ef675b8e179a21","64de754df0ed6d79222c47fd","","","","","null","","null","key","null","16.65083124999995","500","250","br","21","2","1","-19","15","14","212"
"","psychophysics","147","1228193","0.0-147.0","64135efbd2ef675b8e179a21","64de754df0ed6d79222c47fd","","","","","null","","null","key","null","16.65091666666655","500","250","br","24","2","1","-27","-30","16","297"
"","psychophysics","148","1236200","0.0-148.0","64135efbd2ef675b8e179a21","64de754df0ed6d79222c47fd","","","","","null","","null","key","null","16.65035416666651","500","250","br","20","2","1","0","-5","11","289"
"","psychophysics","149","1244207","0.0-149.0","64135efbd2ef675b8e179a21","64de754df0ed6d79222c47fd","","","","","null","","null","key","null","16.65074583333335","500","250","br","17","2","1","-20","1","-21","256"
"","psychophysics","150","1252215","0.0-150.0","64135efbd2ef675b8e179a21","64de754df0ed6d79222c47fd","","","","","null","","null","key","null","16.65091041666698","500","250","br","16","2","1","25","21","-20","231"
"","psychophysics","151","1260220","0.0-151.0","64135efbd2ef675b8e179a21","64de754df0ed6d79222c47fd","","","","","null","","null","key","null","16.650310416666617","500","250","br","19","2","1","2","9","9","282"
"","psychophysics","152","1268226","0.0-152.0","64135efbd2ef675b8e179a21","64de754df0ed6d79222c47fd","","","","","null","","null","key","null","16.649958333333295","500","250","br","23","2","1","-8","-27","-29","273"
"","psychophysics","153","1276230","0.0-153.0","64135efbd2ef675b8e179a21","64de754df0ed6d79222c47fd","","","","","null","","null","key","null","16.65036116910239","500","250","br","24","2","1","-19","-17","24","266"
"","psychophysics","154","1284236","0.0-154.0","64135efbd2ef675b8e179a21","64de754df0ed6d79222c47fd","","","","","null","","null","key","null","16.650247916666558","500","250","br","16","2","1","-21","2","6","253"
"","psychophysics","155","1292243","0.0-155.0","64135efbd2ef675b8e179a21","64de754df0ed6d79222c47fd","","","","","null","","null","key","null","16.649920833333454","500","250","br","20","2","1","-1","-23","-20","265"
"","psychophysics","156","1300247","0.0-156.0","64135efbd2ef675b8e179a21","64de754df0ed6d79222c47fd","","","","","null","","null","key","null","16.650712499999887","500","250","br","20","2","1","-11","-14","1","202"
"","psychophysics","157","1308253","0.0-157.0","64135efbd2ef675b8e179a21","64de754df0ed6d79222c47fd","","","","","null","","null","key","null","16.650397916666893","500","250","br","23","2","1","-6","9","29","279"
"","psychophysics","158","1316258","0.0-158.0","64135efbd2ef675b8e179a21","64de754df0ed6d79222c47fd","","","","","null","","null","key","null","16.64992901878888","500","250","br","18","2","1","15","-10","-28","217"
"","psychophysics","159","1324267","0.0-159.0","64135efbd2ef675b8e179a21","64de754df0ed6d79222c47fd","","","","","null","","null","key","null","16.65003958333303","500","250","br","23","2","1","8","1","23","220"
"","psychophysics","160","1326235","0.0-160.0","64135efbd2ef675b8e179a21","64de754df0ed6d79222c47fd","","","","","1959",""," ","key"," ","16.64888983050764","500","250","inst","","","","","","",""
"","psychophysics","161","1334711","0.0-161.0","64135efbd2ef675b8e179a21","64de754df0ed6d79222c47fd","","","","","8470",""," ","key"," ","16.65049015748036","500","250","instZol1","0.30000000000000004","","","0","0","-1.3",""
"","psychophysics","162","1356153","0.0-162.0","64135efbd2ef675b8e179a21","64de754df0ed6d79222c47fd","","","","","21432",""," ","key"," ","16.649464230171173","500","250","instZol2","2.2000000000000015","1","","0","0","2",""
"","psychophysics","163","1358828","0.0-163.0","64135efbd2ef675b8e179a21","64de754df0ed6d79222c47fd","","","","","2671",""," ","key"," ","16.652918749999664","500","250","inst","","","","","","",""
"","psychophysics","164","1366850","0.0-164.0","64135efbd2ef675b8e179a21","64de754df0ed6d79222c47fd","","","","","null","","null","key","null","16.652068607068646","500","250","zol","1.7000000000000004","1","1","14","-13","-0.7",""
"","psychophysics","165","1374868","0.0-165.0","64135efbd2ef675b8e179a21","64de754df0ed6d79222c47fd","","","","","null","","null","key","null","16.650522916667008","500","250","zol","1.9800000000000009","1","1","18","17","-0.68",""
"","psychophysics","166","1382877","0.0-166.0","64135efbd2ef675b8e179a21","64de754df0ed6d79222c47fd","","","","","null","","null","key","null","16.65106250000002","500","250","zol","2.1100000000000008","1","1","-27","-15","-0.61",""
"","psychophysics","167","1390890","0.0-167.0","64135efbd2ef675b8e179a21","64de754df0ed6d79222c47fd","","","","","null","","null","key","null","16.65076923076927","500","250","zol","1.8500000000000005","1","1","-30","19","-0.35",""
"","psychophysics","168","1398899","0.0-168.0","64135efbd2ef675b8e179a21","64de754df0ed6d79222c47fd","","","","","null","","null","key","null","16.651075000000127","500","250","zol","1.6900000000000006","1","1","-10","-6","0.41",""
"","psychophysics","169","1406908","0.0-169.0","64135efbd2ef675b8e179a21","64de754df0ed6d79222c47fd","","","","","null","","null","key","null","16.650572916666473","500","250","zol","2.380000000000001","1","1","-3","21","-0.08",""
"","psychophysics","170","1414917","0.0-170.0","64135efbd2ef675b8e179a21","64de754df0ed6d79222c47fd","","","","","null","","null","key","null","16.650985416666664","500","250","zol","0.87","1","1","8","17","0.53",""
"","psychophysics","171","1422932","0.0-171.0","64135efbd2ef675b8e179a21","64de754df0ed6d79222c47fd","","","","","null","","null","key","null","16.650991666666716","500","250","zol","1.8100000000000007","1","1","-13","20","0.29",""
"","psychophysics","172","1430946","0.0-172.0","64135efbd2ef675b8e179a21","64de754df0ed6d79222c47fd","","","","","null","","null","key","null","16.650862500000223","500","250","zol","2.1100000000000008","1","1","13","-26","0.59",""
"","psychophysics","173","1438956","0.0-173.0","64135efbd2ef675b8e179a21","64de754df0ed6d79222c47fd","","","","","null","","null","key","null","16.650312499999806","500","250","zol","1.6600000000000006","1","1","8","5","0.44",""
"","psychophysics","174","1446968","0.0-174.0","64135efbd2ef675b8e179a21","64de754df0ed6d79222c47fd","","","","","null","","null","key","null","16.650083160083042","500","250","zol","1.5900000000000003","1","1","-5","-15","0.31",""
"","psychophysics","175","1454976","0.0-175.0","64135efbd2ef675b8e179a21","64de754df0ed6d79222c47fd","","","","","null","","null","key","null","16.651068750000075","500","250","zol","0.9600000000000001","1","1","4","14","0.44",""
"","psychophysics","176","1462986","0.0-176.0","64135efbd2ef675b8e179a21","64de754df0ed6d79222c47fd","","","","","null","","null","key","null","16.650627083333287","500","250","zol","1.5700000000000003","1","1","21","-6","0.33",""
"","psychophysics","177","1471001","0.0-177.0","64135efbd2ef675b8e179a21","64de754df0ed6d79222c47fd","","","","","null","","null","key","null","16.65107916666651","500","250","zol","1.4300000000000004","1","1","-18","1","-0.63",""
"","psychophysics","178","1479015","0.0-178.0","64135efbd2ef675b8e179a21","64de754df0ed6d79222c47fd","","","","","null","","null","key","null","16.650785416666864","500","250","zol","1.8000000000000005","1","1","-17","20","-0.2",""
"","psychophysics","179","1480900","0.0-179.0","64135efbd2ef675b8e179a21","64de754df0ed6d79222c47fd","","","","","1876",""," ","key"," ","16.650389380530513","500","250","inst","","","","","","",""
"","psychophysics","180","1495426","0.0-180.0","64135efbd2ef675b8e179a21","64de754df0ed6d79222c47fd","","","","","14520",""," ","key"," ","16.65023765786461","500","250","instPz1","48","1","","","","25","50"
"","psychophysics","181","1505543","0.0-181.0","64135efbd2ef675b8e179a21","64de754df0ed6d79222c47fd","","","","","10111",""," ","key"," ","16.65064085667218","500","250","instPz2","20","1","","","","35","20"
"","psychophysics","182","1520385","0.0-182.0","64135efbd2ef675b8e179a21","64de754df0ed6d79222c47fd","","","","","14836",""," ","key"," ","16.650640449438274","500","250","instPz3","35","1","","","","100","30"
"","psychophysics","183","1530051","0.0-183.0","64135efbd2ef675b8e179a21","64de754df0ed6d79222c47fd","","","","","9656",""," ","key"," ","16.650822413793026","500","250","instPz4","40","1","","","","100","30"
"","psychophysics","184","1532829","0.0-184.0","64135efbd2ef675b8e179a21","64de754df0ed6d79222c47fd","","","","","2772",""," ","key"," ","16.650393939393602","500","250","inst","","","","","","",""
"","psychophysics","185","1540837","0.0-185.0","64135efbd2ef675b8e179a21","64de754df0ed6d79222c47fd","","","","","null","","null","key","null","16.65080833333341","500","250","pz","47","1","1","","","34","36"
"","psychophysics","186","1548846","0.0-186.0","64135efbd2ef675b8e179a21","64de754df0ed6d79222c47fd","","","","","null","","null","key","null","16.65035000000013","500","250","pz","66","1","1","","","51","55"
"","psychophysics","187","1556854","0.0-187.0","64135efbd2ef675b8e179a21","64de754df0ed6d79222c47fd","","","","","null","","null","key","null","16.649985416666702","500","250","pz","70","1","1","","","50","59"
"","psychophysics","188","1564860","0.0-188.0","64135efbd2ef675b8e179a21","64de754df0ed6d79222c47fd","","","","","null","","null","key","null","16.650329166666292","500","250","pz","42","1","1","","","25","34"
"","psychophysics","189","1572871","0.0-189.0","64135efbd2ef675b8e179a21","64de754df0ed6d79222c47fd","","","","","null","","null","key","null","16.651072916666937","500","250","pz","36","1","1","","","29","29"
"","psychophysics","190","1580879","0.0-190.0","64135efbd2ef675b8e179a21","64de754df0ed6d79222c47fd","","","","","null","","null","key","null","16.650443749999976","500","250","pz","33","1","1","","","47","28"
"","psychophysics","191","1588888","0.0-191.0","64135efbd2ef675b8e179a21","64de754df0ed6d79222c47fd","","","","","null","","null","key","null","16.65045416666641","500","250","pz","46","1","1","","","36","39"
"","psychophysics","192","1596896","0.0-192.0","64135efbd2ef675b8e179a21","64de754df0ed6d79222c47fd","","","","","null","","null","key","null","16.649806250000257","500","250","pz","29","1","1","","","23","26"
"","psychophysics","193","1604906","0.0-193.0","64135efbd2ef675b8e179a21","64de754df0ed6d79222c47fd","","","","","null","","null","key","null","16.650997916666288","500","250","pz","45","1","1","","","26","36"
"","psychophysics","194","1612915","0.0-194.0","64135efbd2ef675b8e179a21","64de754df0ed6d79222c47fd","","","","","null","","null","key","null","16.650422916666624","500","250","pz","40","1","1","","","54","33"
"","psychophysics","195","1620924","0.0-195.0","64135efbd2ef675b8e179a21","64de754df0ed6d79222c47fd","","","","","null","","null","key","null","16.650337500000024","500","250","pz","66","1","1","","","20","53"
"","psychophysics","196","1628930","0.0-196.0","64135efbd2ef675b8e179a21","64de754df0ed6d79222c47fd","","","","","null","","null","key","null","16.650322916666724","500","250","pz","61","1","1","","","33","56"
"","psychophysics","197","1636946","0.0-197.0","64135efbd2ef675b8e179a21","64de754df0ed6d79222c47fd","","","","","null","","null","key","null","16.65078794178766","500","250","pz","23","1","1","","","52","24"
"","psychophysics","198","1644951","0.0-198.0","64135efbd2ef675b8e179a21","64de754df0ed6d79222c47fd","","","","","null","","null","key","null","16.65034655532372","500","250","pz","64","1","1","","","43","52"
"","psychophysics","199","1652960","0.0-199.0","64135efbd2ef675b8e179a21","64de754df0ed6d79222c47fd","","","","","null","","null","key","null","16.649908333333347","500","250","pz","59","1","1","","","40","51"
"","psychophysics","200","1655712","0.0-200.0","64135efbd2ef675b8e179a21","64de754df0ed6d79222c47fd","","","","","2742",""," ","key"," ","16.649024242423756","500","250","inst","","","","","","",""
"","psychophysics","201","1664013","0.0-201.0","64135efbd2ef675b8e179a21","64de754df0ed6d79222c47fd","","","","","8294",""," ","key"," ","16.650404426559216","500","250","instPog0","340","2","","0","0","370","340"
"","psychophysics","202","1672454","0.0-202.0","64135efbd2ef675b8e179a21","64de754df0ed6d79222c47fd","","","","","8432",""," ","key"," ","16.650766798418857","500","250","instPog1","346","2","","0","0","370","340"
"","psychophysics","203","1679254","0.0-203.0","64135efbd2ef675b8e179a21","64de754df0ed6d79222c47fd","","","","","6792",""," ","key"," ","16.650399509804238","500","250","instPog2","340","2","","0","0","340","340"
"","psychophysics","204","1681901","0.0-204.0","64135efbd2ef675b8e179a21","64de754df0ed6d79222c47fd","","","","","2643",""," ","key"," ","16.64919620253075","500","250","inst","","","","","","",""
"","psychophysics","205","1689907","0.0-205.0","64135efbd2ef675b8e179a21","64de754df0ed6d79222c47fd","","","","","null","","null","key","null","16.650753653444454","500","250","pog","342","2","1","0","0","396","350"
"","psychophysics","206","1697919","0.0-206.0","64135efbd2ef675b8e179a21","64de754df0ed6d79222c47fd","","","","","null","","null","key","null","16.649933333333077","500","250","pog","364","2","1","0","0","394","374"
"","psychophysics","207","1705927","0.0-207.0","64135efbd2ef675b8e179a21","64de754df0ed6d79222c47fd","","","","","null","","null","key","null","16.650408333333324","500","250","pog","294","2","1","0","0","350","304"
"","psychophysics","208","1713936","0.0-208.0","64135efbd2ef675b8e179a21","64de754df0ed6d79222c47fd","","","","","null","","null","key","null","16.650283333333693","500","250","pog","346","2","1","0","0","284","352"
"","psychophysics","209","1721944","0.0-209.0","64135efbd2ef675b8e179a21","64de754df0ed6d79222c47fd","","","","","null","","null","key","null","16.65043124999987","500","250","pog","315","2","1","0","0","375","336"
"","psychophysics","210","1729957","0.0-210.0","64135efbd2ef675b8e179a21","64de754df0ed6d79222c47fd","","","","","null","","null","key","null","16.65073125000005","500","250","pog","307","2","1","0","0","281","330"
"","psychophysics","211","1737963","0.0-211.0","64135efbd2ef675b8e179a21","64de754df0ed6d79222c47fd","","","","","null","","null","key","null","16.649641666666625","500","250","pog","355","2","1","0","0","309","362"
"","psychophysics","212","1745971","0.0-212.0","64135efbd2ef675b8e179a21","64de754df0ed6d79222c47fd","","","","","null","","null","key","null","16.64997291666659","500","250","pog","309","2","1","0","0","361","333"
"","psychophysics","213","1753983","0.0-213.0","64135efbd2ef675b8e179a21","64de754df0ed6d79222c47fd","","","","","null","","null","key","null","16.65061954261925","500","250","pog","341","2","1","0","0","321","364"
"","psychophysics","214","1761989","0.0-214.0","64135efbd2ef675b8e179a21","64de754df0ed6d79222c47fd","","","","","null","","null","key","null","16.65036743215046","500","250","pog","301","2","1","0","0","287","322"
"","psychophysics","215","1769998","0.0-215.0","64135efbd2ef675b8e179a21","64de754df0ed6d79222c47fd","","","","","null","","null","key","null","16.650383333333107","500","250","pog","340","2","1","0","0","326","362"
"","psychophysics","216","1778007","0.0-216.0","64135efbd2ef675b8e179a21","64de754df0ed6d79222c47fd","","","","","null","","null","key","null","16.65064999999983","500","250","pog","320","2","1","0","0","308","333"
"","psychophysics","217","1786015","0.0-217.0","64135efbd2ef675b8e179a21","64de754df0ed6d79222c47fd","","","","","null","","null","key","null","16.650870833333464","500","250","pog","349","2","1","0","0","369","375"
"","psychophysics","218","1794024","0.0-218.0","64135efbd2ef675b8e179a21","64de754df0ed6d79222c47fd","","","","","null","","null","key","null","16.65080833333341","500","250","pog","322","2","1","0","0","314","343"
"","psychophysics","219","1802034","0.0-219.0","64135efbd2ef675b8e179a21","64de754df0ed6d79222c47fd","","","","","null","","null","key","null","16.650262499999858","500","250","pog","341","2","1","0","0","321","363"
