"success","trial_type","trial_index","time_elapsed","internal_node_id","pid","sid","timeout","failed_images","failed_audio","failed_video","rt","stimulus","response","response_type","key_press","avg_frame_time","center_x","center_y","task","resp","version","block","start","jitterX","jitterY","parA"
"true","fullscreen","0","3571","0.0-0.0","645af0f05ed5a7d2dd4de062","64de829a4b35ea95d03faa1c","","","","","","","","","","","","","","","","","","","",""
"true","preload","1","3659","0.0-1.0","645af0f05ed5a7d2dd4de062","64de829a4b35ea95d03faa1c","false","[]","[]","[]","","","","","","","","","","","","","","","",""
"","html-button-response","2","11082","0.0-2.0","645af0f05ed5a7d2dd4de062","64de829a4b35ea95d03faa1c","","","","","7422","Please Make Sure Your Audio Is On.","0","","","","","","","","","","","","",""
"","psychophysics","3","25234","0.0-3.0","645af0f05ed5a7d2dd4de062","64de829a4b35ea95d03faa1c","","","","","14150",""," ","key"," ","16.72519976359338","683","250","","","","","","","",""
"","psychophysics","4","30955","0.0-4.0","645af0f05ed5a7d2dd4de062","64de829a4b35ea95d03faa1c","","","","","5719",""," ","key"," ","16.725662756598243","500","250","inst","","","","","","",""
"","psychophysics","5","37035","0.0-5.0","645af0f05ed5a7d2dd4de062","64de829a4b35ea95d03faa1c","","","","","6079",""," ","key"," ","16.725718232044205","500","250","sample0","","","","","","",""
"","psychophysics","6","40275","0.0-6.0","645af0f05ed5a7d2dd4de062","64de829a4b35ea95d03faa1c","","","","","3239",""," ","key"," ","16.725601036269417","500","250","sample1","","","","","","",""
"","psychophysics","7","59011","0.0-7.0","645af0f05ed5a7d2dd4de062","64de829a4b35ea95d03faa1c","","","","","18736",""," ","key"," ","16.72576228775693","500","250","sample2","102","","","","","",""
"","psychophysics","8","67596","0.0-8.0","645af0f05ed5a7d2dd4de062","64de829a4b35ea95d03faa1c","","","","","8583",""," ","key"," ","16.725671875000003","500","250","sample3","98","","","","","",""
"","psychophysics","9","83700","0.0-9.0","645af0f05ed5a7d2dd4de062","64de829a4b35ea95d03faa1c","","","","","16103",""," ","key"," ","16.726064449064452","500","250","sample4","102","","","","","",""
"","psychophysics","10","88940","0.0-10.0","645af0f05ed5a7d2dd4de062","64de829a4b35ea95d03faa1c","","","","","5239",""," ","key"," ","16.72569009584661","500","250","sample5","","","","","","",""
"","psychophysics","11","104428","0.0-11.0","645af0f05ed5a7d2dd4de062","64de829a4b35ea95d03faa1c","","","","","15488",""," ","key"," ","16.725775135135123","500","250","sample6","498","","","","","",""
"","psychophysics","12","113493","0.0-12.0","645af0f05ed5a7d2dd4de062","64de829a4b35ea95d03faa1c","","","","","9064",""," ","key"," ","16.72573567467654","500","250","inst","","","","","","",""
"","psychophysics","13","123173","0.0-13.0","645af0f05ed5a7d2dd4de062","64de829a4b35ea95d03faa1c","","","","","9680",""," ","key"," ","16.725731369150786","500","250","inst","","","","","","",""
"","psychophysics","14","129765","0.0-14.0","645af0f05ed5a7d2dd4de062","64de829a4b35ea95d03faa1c","","","","","6591",""," ","key"," ","16.72570737913488","500","250","inst","","","","","","",""
"","psychophysics","15","133069","0.0-15.0","645af0f05ed5a7d2dd4de062","64de829a4b35ea95d03faa1c","","","","","3303",""," ","key"," ","16.725644670050713","500","250","inst","","","","","","",""
"","psychophysics","16","135165","0.0-16.0","645af0f05ed5a7d2dd4de062","64de829a4b35ea95d03faa1c","","","","","2095",""," ","key"," ","16.725677419354813","500","250","inst","","","","","","",""
"","psychophysics","17","151166","0.0-17.0","645af0f05ed5a7d2dd4de062","64de829a4b35ea95d03faa1c","","","","","15999",""," ","key"," ","16.725369246861902","500","250","instPog0","160","1","","190","0","0","160"
"","psychophysics","18","165087","0.0-18.0","645af0f05ed5a7d2dd4de062","64de829a4b35ea95d03faa1c","","","","","13920",""," ","key"," ","16.726203369434423","500","250","instPog1","168","1","","190","0","0","160"
"","psychophysics","19","175430","0.0-19.0","645af0f05ed5a7d2dd4de062","64de829a4b35ea95d03faa1c","","","","","10343",""," ","key"," ","16.726312297734633","500","250","instPog2","164","1","","160","0","0","160"
"","psychophysics","20","179486","0.0-20.0","645af0f05ed5a7d2dd4de062","64de829a4b35ea95d03faa1c","","","","","4056",""," ","key"," ","16.725829875518624","500","250","inst","","","","","","",""
"","psychophysics","21","184622","0.0-21.0","645af0f05ed5a7d2dd4de062","64de829a4b35ea95d03faa1c","","","","","5135",""," ","key"," ","16.72578431372548","500","250","pog","167","1","0","159","0","0","165"
"","psychophysics","22","192406","0.0-22.0","645af0f05ed5a7d2dd4de062","64de829a4b35ea95d03faa1c","","","","","7783",""," ","key"," ","16.72603225806454","500","250","pog","175","1","0","205","0","0","146"
"","psychophysics","23","198607","0.0-23.0","645af0f05ed5a7d2dd4de062","64de829a4b35ea95d03faa1c","","","","","6199",""," ","key"," ","16.725750677506763","500","250","pog","183","1","0","103","0","0","158"
"","psychophysics","24","203527","0.0-24.0","645af0f05ed5a7d2dd4de062","64de829a4b35ea95d03faa1c","","","","","4920",""," ","key"," ","16.72571428571424","500","250","pog","182","1","0","144","0","0","157"
"","psychophysics","25","207319","0.0-25.0","645af0f05ed5a7d2dd4de062","64de829a4b35ea95d03faa1c","","","","","3791",""," ","key"," ","16.72736888888887","500","250","pog","201","1","0","217","0","0","174"
"","psychophysics","26","212431","0.0-26.0","645af0f05ed5a7d2dd4de062","64de829a4b35ea95d03faa1c","","","","","5110",""," ","key"," ","16.725636065573735","500","250","pog","212","1","0","148","0","0","187"
"","psychophysics","27","214871","0.0-27.0","645af0f05ed5a7d2dd4de062","64de829a4b35ea95d03faa1c","","","","","2439",""," ","key"," ","16.72541379310343","500","250","pog","193","1","0","197","0","0","160"
"","psychophysics","28","219599","0.0-28.0","645af0f05ed5a7d2dd4de062","64de829a4b35ea95d03faa1c","","","","","4728",""," ","key"," ","16.7257117437722","500","250","pog","218","1","0","116","0","0","186"
"","psychophysics","29","221687","0.0-29.0","645af0f05ed5a7d2dd4de062","64de829a4b35ea95d03faa1c","","","","","2087",""," ","key"," ","16.72811290322575","500","250","pog","150","1","0","148","0","0","135"
"","psychophysics","30","229303","0.0-30.0","645af0f05ed5a7d2dd4de062","64de829a4b35ea95d03faa1c","","","","","7615",""," ","key"," ","16.726076923076903","500","250","pog","183","1","0","109","0","0","163"
"","psychophysics","31","236856","0.0-31.0","645af0f05ed5a7d2dd4de062","64de829a4b35ea95d03faa1c","","","","","7552",""," ","key"," ","16.7256088888889","500","250","pog","204","1","0","164","0","0","176"
"","psychophysics","32","240968","0.0-32.0","645af0f05ed5a7d2dd4de062","64de829a4b35ea95d03faa1c","","","","","4111",""," ","key"," ","16.7272571428572","500","250","pog","202","1","0","124","0","0","175"
"","psychophysics","33","243960","0.0-33.0","645af0f05ed5a7d2dd4de062","64de829a4b35ea95d03faa1c","","","","","2992",""," ","key"," ","16.725758426966443","500","250","pog","179","1","0","147","0","0","155"
"","psychophysics","34","246751","0.0-34.0","645af0f05ed5a7d2dd4de062","64de829a4b35ea95d03faa1c","","","","","2791",""," ","key"," ","16.728018072289128","500","250","pog","149","1","0","113","0","0","129"
"","psychophysics","35","250832","0.0-35.0","645af0f05ed5a7d2dd4de062","64de829a4b35ea95d03faa1c","","","","","4079",""," ","key"," ","16.725831275720196","500","250","pog","172","1","0","180","0","0","144"
"","psychophysics","36","266840","0.0-36.0","645af0f05ed5a7d2dd4de062","64de829a4b35ea95d03faa1c","","","","","16008",""," ","key"," ","16.725831589958148","500","250","inst","","","","","","",""
"","psychophysics","37","270504","0.0-37.0","645af0f05ed5a7d2dd4de062","64de829a4b35ea95d03faa1c","","","","","3663",""," ","key"," ","16.72743577981654","500","250","instEB0","40","1","","40","0","0","40"
"","psychophysics","38","280080","0.0-38.0","645af0f05ed5a7d2dd4de062","64de829a4b35ea95d03faa1c","","","","","9576",""," ","key"," ","16.725711538461468","500","250","instEB1","30","1","","40","0","0","30"
"","psychophysics","39","291009","0.0-39.0","645af0f05ed5a7d2dd4de062","64de829a4b35ea95d03faa1c","","","","","10927",""," ","key"," ","16.7250920245398","500","250","instEB2","36","1","","30","0","0","40"
"","psychophysics","40","302897","0.0-40.0","645af0f05ed5a7d2dd4de062","64de829a4b35ea95d03faa1c","","","","","11887",""," ","key"," ","16.72520422535214","500","250","instEB3","42","1","","27","0","0","45"
"","psychophysics","41","314657","0.0-41.0","645af0f05ed5a7d2dd4de062","64de829a4b35ea95d03faa1c","","","","","11759",""," ","key"," ","16.725735042735064","500","250","instEB4","28","1","","40","0","0","30"
"","psychophysics","42","317233","0.0-42.0","645af0f05ed5a7d2dd4de062","64de829a4b35ea95d03faa1c","","","","","2575",""," ","key"," ","16.72564052287573","500","250","inst","","","","","","",""
"","psychophysics","43","325235","0.0-43.0","645af0f05ed5a7d2dd4de062","64de829a4b35ea95d03faa1c","","","","","null","","null","key","null","16.72562893081761","500","250","eb","33","1","","26","0","0","42"
"","psychophysics","44","330954","0.0-44.0","645af0f05ed5a7d2dd4de062","64de829a4b35ea95d03faa1c","","","","","5718",""," ","key"," ","16.72572140762469","500","250","eb","42","1","","45","0","0","48"
"","psychophysics","45","334106","0.0-45.0","645af0f05ed5a7d2dd4de062","64de829a4b35ea95d03faa1c","","","","","3151",""," ","key"," ","16.727723404255194","500","250","eb","26","1","","30","0","0","26"
"","psychophysics","46","339826","0.0-46.0","645af0f05ed5a7d2dd4de062","64de829a4b35ea95d03faa1c","","","","","5719",""," ","key"," ","16.726862170088108","500","250","eb","35","1","","42","0","0","37"
"","psychophysics","47","347538","0.0-47.0","645af0f05ed5a7d2dd4de062","64de829a4b35ea95d03faa1c","","","","","7711",""," ","key"," ","16.725710869565194","500","250","eb","45","1","","24","0","0","52"
"","psychophysics","48","351363","0.0-48.0","645af0f05ed5a7d2dd4de062","64de829a4b35ea95d03faa1c","","","","","3823",""," ","key"," ","16.725581497797336","500","250","eb","31","1","","29","0","0","35"
"","psychophysics","49","355050","0.0-49.0","645af0f05ed5a7d2dd4de062","64de829a4b35ea95d03faa1c","","","","","3687",""," ","key"," ","16.725981818181886","500","250","eb","34","1","","51","0","0","35"
"","psychophysics","50","359267","0.0-50.0","645af0f05ed5a7d2dd4de062","64de829a4b35ea95d03faa1c","","","","","4215",""," ","key"," ","16.727266932270894","500","250","eb","35","1","","51","0","0","36"
"","psychophysics","51","363379","0.0-51.0","645af0f05ed5a7d2dd4de062","64de829a4b35ea95d03faa1c","","","","","4111",""," ","key"," ","16.725726530612068","500","250","eb","37","1","","53","0","0","35"
"","psychophysics","52","367299","0.0-52.0","645af0f05ed5a7d2dd4de062","64de829a4b35ea95d03faa1c","","","","","3920",""," ","key"," ","16.72744635193131","500","250","eb","25","1","","33","0","0","25"
"","psychophysics","53","371475","0.0-53.0","645af0f05ed5a7d2dd4de062","64de829a4b35ea95d03faa1c","","","","","4175",""," ","key"," ","16.72597991967883","500","250","eb","34","1","","53","0","0","35"
"","psychophysics","54","376163","0.0-54.0","645af0f05ed5a7d2dd4de062","64de829a4b35ea95d03faa1c","","","","","4687",""," ","key"," ","16.724752688172064","500","250","eb","25","1","","36","0","0","24"
"","psychophysics","55","378803","0.0-55.0","645af0f05ed5a7d2dd4de062","64de829a4b35ea95d03faa1c","","","","","2639",""," ","key"," ","16.725789808916968","500","250","eb","32","1","","32","0","0","36"
"","psychophysics","56","382011","0.0-56.0","645af0f05ed5a7d2dd4de062","64de829a4b35ea95d03faa1c","","","","","3207",""," ","key"," ","16.7274031413613","500","250","eb","43","1","","45","0","0","43"
"","psychophysics","57","386963","0.0-57.0","645af0f05ed5a7d2dd4de062","64de829a4b35ea95d03faa1c","","","","","4951",""," ","key"," ","16.72682711864423","500","250","eb","35","1","","43","0","0","34"
"","psychophysics","58","389467","0.0-58.0","645af0f05ed5a7d2dd4de062","64de829a4b35ea95d03faa1c","","","","","2504",""," ","key"," ","16.727550335570267","500","250","inst","","","","","","",""
"","psychophysics","59","393652","0.0-59.0","645af0f05ed5a7d2dd4de062","64de829a4b35ea95d03faa1c","","","","","4184",""," ","key"," ","16.725437751004097","500","250","instZol0","0","","","0","0","0",""
"","psychophysics","60","411356","0.0-60.0","645af0f05ed5a7d2dd4de062","64de829a4b35ea95d03faa1c","","","","","17703",""," ","key"," ","16.72569631031219","500","250","instZol1","-0.20000000000000004","","","-1.3","0","0",""
"","psychophysics","61","436100","0.0-61.0","645af0f05ed5a7d2dd4de062","64de829a4b35ea95d03faa1c","","","","","24743",""," ","key"," ","16.725762001352265","500","250","instZol2","-1.1999999999999993","2","","2","0","0",""
"","psychophysics","62","437805","0.0-62.0","645af0f05ed5a7d2dd4de062","64de829a4b35ea95d03faa1c","","","","","1704",""," ","key"," ","16.72540594059409","500","250","inst","","","","","","",""
"","psychophysics","63","445806","0.0-63.0","645af0f05ed5a7d2dd4de062","64de829a4b35ea95d03faa1c","","","","","null","","null","key","null","16.725750524109056","500","250","zol","-0.9599999999999999","2","0","-0.64","-1","30",""
"","psychophysics","64","451725","0.0-64.0","645af0f05ed5a7d2dd4de062","64de829a4b35ea95d03faa1c","","","","","5918",""," ","key"," ","16.725711048158576","500","250","zol","-0.95","2","0","-0.35","2","4",""
"","psychophysics","65","459727","0.0-65.0","645af0f05ed5a7d2dd4de062","64de829a4b35ea95d03faa1c","","","","","null","","null","key","null","16.725710691823878","500","250","zol","-1.26","2","0","-0.04","18","-21",""
"","psychophysics","66","459853","0.0-66.0","645af0f05ed5a7d2dd4de062","64de829a4b35ea95d03faa1c","","","","","125",""," ","key"," ","16.724142857145385","500","250","zol","0.37","2","0","-0.37","9","16",""
"","psychophysics","67","464709","0.0-67.0","645af0f05ed5a7d2dd4de062","64de829a4b35ea95d03faa1c","","","","","4855",""," ","key"," ","16.725678200691906","500","250","zol","-1.3100000000000003","2","0","0.71","6","6",""
"","psychophysics","68","469269","0.0-68.0","645af0f05ed5a7d2dd4de062","64de829a4b35ea95d03faa1c","","","","","4559",""," ","key"," ","16.725749999999927","500","250","zol","-0.51","2","0","-0.59","30","21",""
"","psychophysics","69","472742","0.0-69.0","645af0f05ed5a7d2dd4de062","64de829a4b35ea95d03faa1c","","","","","3471",""," ","key"," ","16.72763592233001","500","250","zol","-0.6499999999999999","2","0","0.05","-12","10",""
"","psychophysics","70","478037","0.0-70.0","645af0f05ed5a7d2dd4de062","64de829a4b35ea95d03faa1c","","","","","5294",""," ","key"," ","16.726832278481023","500","250","zol","-0.14000000000000007","2","0","0.74","29","-18",""
"","psychophysics","71","482190","0.0-71.0","645af0f05ed5a7d2dd4de062","64de829a4b35ea95d03faa1c","","","","","4151",""," ","key"," ","16.72580971659905","500","250","zol","-0.6","2","0","-0.6","24","-27",""
"","psychophysics","72","485982","0.0-72.0","645af0f05ed5a7d2dd4de062","64de829a4b35ea95d03faa1c","","","","","3791",""," ","key"," ","16.72739823008846","500","250","zol","-0.45999999999999996","2","0","0.16","-1","-17",""
"","psychophysics","73","489486","0.0-73.0","645af0f05ed5a7d2dd4de062","64de829a4b35ea95d03faa1c","","","","","3503",""," ","key"," ","16.72564423076927","500","250","zol","-0.63","2","0","-0.07","-10","14",""
"","psychophysics","74","494334","0.0-74.0","645af0f05ed5a7d2dd4de062","64de829a4b35ea95d03faa1c","","","","","4846",""," ","key"," ","16.727044982699095","500","250","zol","-0.3","2","0","-0.7","4","30",""
"","psychophysics","75","498062","0.0-75.0","645af0f05ed5a7d2dd4de062","64de829a4b35ea95d03faa1c","","","","","3727",""," ","key"," ","16.725734234234025","500","250","zol","-0.6","2","0","-0.1","-22","-20",""
"","psychophysics","76","501854","0.0-76.0","645af0f05ed5a7d2dd4de062","64de829a4b35ea95d03faa1c","","","","","3791",""," ","key"," ","16.725548672566315","500","250","zol","-0.43000000000000005","2","0","-0.27","-8","-6",""
"","psychophysics","77","504806","0.0-77.0","645af0f05ed5a7d2dd4de062","64de829a4b35ea95d03faa1c","","","","","2951",""," ","key"," ","16.726937142857018","500","250","zol","-0.69","2","0","0.29","5","-6",""
"","psychophysics","78","507094","0.0-78.0","645af0f05ed5a7d2dd4de062","64de829a4b35ea95d03faa1c","","","","","2287",""," ","key"," ","16.7253602941179","500","250","inst","","","","","","",""
"","psychophysics","79","510302","0.0-79.0","645af0f05ed5a7d2dd4de062","64de829a4b35ea95d03faa1c","","","","","3207",""," ","key"," ","16.725753926701604","500","250","instPzPre","50","0","","50","","","50"
"","psychophysics","80","514614","0.0-80.0","645af0f05ed5a7d2dd4de062","64de829a4b35ea95d03faa1c","","","","","4311",""," ","key"," ","16.724315175097182","500","250","instPz0","50","1","","50","","","50"
"","psychophysics","81","522903","0.0-81.0","645af0f05ed5a7d2dd4de062","64de829a4b35ea95d03faa1c","","","","","8287",""," ","key"," ","16.725785425101215","500","250","instPz1","49","1","","25","","","50"
"","psychophysics","82","534535","0.0-82.0","645af0f05ed5a7d2dd4de062","64de829a4b35ea95d03faa1c","","","","","11631",""," ","key"," ","16.725751079136685","500","250","instPz2","20","1","","35","","","20"
"","psychophysics","83","542247","0.0-83.0","645af0f05ed5a7d2dd4de062","64de829a4b35ea95d03faa1c","","","","","7711",""," ","key"," ","16.725723913043442","500","250","instPz3","100","1","","100","","","30"
"","psychophysics","84","556967","0.0-84.0","645af0f05ed5a7d2dd4de062","64de829a4b35ea95d03faa1c","","","","","14719",""," ","key"," ","16.7257201365187","500","250","instPz4","48","1","","100","","","30"
"","psychophysics","85","558511","0.0-85.0","645af0f05ed5a7d2dd4de062","64de829a4b35ea95d03faa1c","","","","","1543",""," ","key"," ","16.73004395604405","500","250","inst","","","","","","",""
"","psychophysics","86","564903","0.0-86.0","645af0f05ed5a7d2dd4de062","64de829a4b35ea95d03faa1c","","","","","6391",""," ","key"," ","16.72665616797908","500","250","pz","66","1","0","28","","","45"
"","psychophysics","87","570079","0.0-87.0","645af0f05ed5a7d2dd4de062","64de829a4b35ea95d03faa1c","","","","","5175",""," ","key"," ","16.725278317152213","500","250","pz","32","1","0","51","","","22"
"","psychophysics","88","575479","0.0-88.0","645af0f05ed5a7d2dd4de062","64de829a4b35ea95d03faa1c","","","","","5399",""," ","key"," ","16.726397515527662","500","250","pz","55","1","0","24","","","48"
"","psychophysics","89","579560","0.0-89.0","645af0f05ed5a7d2dd4de062","64de829a4b35ea95d03faa1c","","","","","4079",""," ","key"," ","16.725666666666424","500","250","pz","46","1","0","36","","","37"
"","psychophysics","90","587304","0.0-90.0","645af0f05ed5a7d2dd4de062","64de829a4b35ea95d03faa1c","","","","","7743",""," ","key"," ","16.72574891774886","500","250","pz","74","1","0","23","","","57"
"","psychophysics","91","590008","0.0-91.0","645af0f05ed5a7d2dd4de062","64de829a4b35ea95d03faa1c","","","","","2703",""," ","key"," ","16.72566249999945","500","250","pz","29","1","0","32","","","23"
"","psychophysics","92","592512","0.0-92.0","645af0f05ed5a7d2dd4de062","64de829a4b35ea95d03faa1c","","","","","2502",""," ","key"," ","16.725939597315687","500","250","pz","55","1","0","55","","","40"
"","psychophysics","93","597816","0.0-93.0","645af0f05ed5a7d2dd4de062","64de829a4b35ea95d03faa1c","","","","","5303",""," ","key"," ","16.725734177215358","500","250","pz","41","1","0","22","","","33"
"","psychophysics","94","601864","0.0-94.0","645af0f05ed5a7d2dd4de062","64de829a4b35ea95d03faa1c","","","","","4047",""," ","key"," ","16.726506224066345","500","250","pz","53","1","0","28","","","45"
"","psychophysics","95","604977","0.0-95.0","645af0f05ed5a7d2dd4de062","64de829a4b35ea95d03faa1c","","","","","3111",""," ","key"," ","16.725881081081397","500","250","pz","36","1","0","43","","","31"
"","psychophysics","96","607937","0.0-96.0","645af0f05ed5a7d2dd4de062","64de829a4b35ea95d03faa1c","","","","","2959",""," ","key"," ","16.725653409091386","500","250","pz","33","1","0","39","","","23"
"","psychophysics","97","611569","0.0-97.0","645af0f05ed5a7d2dd4de062","64de829a4b35ea95d03faa1c","","","","","3631",""," ","key"," ","16.727958525345908","500","250","pz","52","1","0","35","","","39"
"","psychophysics","98","616225","0.0-98.0","645af0f05ed5a7d2dd4de062","64de829a4b35ea95d03faa1c","","","","","4655",""," ","key"," ","16.727180505415177","500","250","pz","68","1","0","45","","","58"
"","psychophysics","99","618537","0.0-99.0","645af0f05ed5a7d2dd4de062","64de829a4b35ea95d03faa1c","","","","","2311",""," ","key"," ","16.72851094890498","500","250","pz","49","1","0","54","","","41"
"","psychophysics","100","621689","0.0-100.0","645af0f05ed5a7d2dd4de062","64de829a4b35ea95d03faa1c","","","","","3151",""," ","key"," ","16.72773936170245","500","250","pz","50","1","0","38","","","45"
"","psychophysics","101","623457","0.0-101.0","645af0f05ed5a7d2dd4de062","64de829a4b35ea95d03faa1c","","","","","1768",""," ","key"," ","16.725778846154125","500","250","inst","","","","","","",""
"","psychophysics","102","627313","0.0-102.0","645af0f05ed5a7d2dd4de062","64de829a4b35ea95d03faa1c","","","","","3855",""," ","key"," ","16.725713043478216","500","250","instBr0","0","","","0","0","0","300"
"","psychophysics","103","634290","0.0-103.0","645af0f05ed5a7d2dd4de062","64de829a4b35ea95d03faa1c","","","","","6975",""," ","key"," ","16.7257235576922","500","250","instBr1","-7","","","-40","0","0","300"
"","psychophysics","104","643738","0.0-104.0","645af0f05ed5a7d2dd4de062","64de829a4b35ea95d03faa1c","","","","","9447",""," ","key"," ","16.726079787233974","500","250","instBr3","-18","1","","40","0","0","300"
"","psychophysics","105","645370","0.0-105.0","645af0f05ed5a7d2dd4de062","64de829a4b35ea95d03faa1c","","","","","1631",""," ","key"," ","16.725812500000757","500","250","inst","","","","","","",""
"","psychophysics","106","650354","0.0-106.0","645af0f05ed5a7d2dd4de062","64de829a4b35ea95d03faa1c","","","","","4982",""," ","key"," ","16.72701010101017","500","250","br","-12","1","0","19","-9","-22","250"
"","psychophysics","107","652089","0.0-107.0","645af0f05ed5a7d2dd4de062","64de829a4b35ea95d03faa1c","","","","","1734",""," ","key"," ","16.72585436893125","500","250","br","-19","1","0","-19","5","21","268"
"","psychophysics","108","654210","0.0-108.0","645af0f05ed5a7d2dd4de062","64de829a4b35ea95d03faa1c","","","","","2120",""," ","key"," ","16.72549206349215","500","250","br","-7","1","0","-2","17","-18","257"
"","psychophysics","109","658970","0.0-109.0","645af0f05ed5a7d2dd4de062","64de829a4b35ea95d03faa1c","","","","","4759",""," ","key"," ","16.726658450704377","500","250","br","-17","1","0","-30","-24","9","201"
"","psychophysics","110","662954","0.0-110.0","645af0f05ed5a7d2dd4de062","64de829a4b35ea95d03faa1c","","","","","3983",""," ","key"," ","16.7242067510548","500","250","br","-13","1","0","20","-6","8","258"
"","psychophysics","111","665906","0.0-111.0","645af0f05ed5a7d2dd4de062","64de829a4b35ea95d03faa1c","","","","","2952",""," ","key"," ","16.72742285714285","500","250","br","-10","1","0","7","3","23","256"
"","psychophysics","112","668258","0.0-112.0","645af0f05ed5a7d2dd4de062","64de829a4b35ea95d03faa1c","","","","","2351",""," ","key"," ","16.727149999999842","500","250","br","-16","1","0","3","-13","15","280"
"","psychophysics","113","670506","0.0-113.0","645af0f05ed5a7d2dd4de062","64de829a4b35ea95d03faa1c","","","","","2247",""," ","key"," ","16.72627819548851","500","250","br","-15","1","0","11","9","-12","266"
"","psychophysics","114","674714","0.0-114.0","645af0f05ed5a7d2dd4de062","64de829a4b35ea95d03faa1c","","","","","4207",""," ","key"," ","16.725705179282876","500","250","br","-14","1","0","25","11","21","258"
"","psychophysics","115","677802","0.0-115.0","645af0f05ed5a7d2dd4de062","64de829a4b35ea95d03faa1c","","","","","3087",""," ","key"," ","16.7254945652176","500","250","br","-14","1","0","28","21","18","254"
"","psychophysics","116","680434","0.0-116.0","645af0f05ed5a7d2dd4de062","64de829a4b35ea95d03faa1c","","","","","2631",""," ","key"," ","16.725775641025766","500","250","br","-13","1","0","29","17","-30","292"
"","psychophysics","117","681850","0.0-117.0","645af0f05ed5a7d2dd4de062","64de829a4b35ea95d03faa1c","","","","","1416",""," ","key"," ","16.730714285714342","500","250","br","-22","1","0","-20","5","29","231"
"","psychophysics","118","686250","0.0-118.0","645af0f05ed5a7d2dd4de062","64de829a4b35ea95d03faa1c","","","","","4399",""," ","key"," ","16.726377862595815","500","250","br","-16","1","0","-6","-20","12","229"
"","psychophysics","119","688787","0.0-119.0","645af0f05ed5a7d2dd4de062","64de829a4b35ea95d03faa1c","","","","","2536",""," ","key"," ","16.727680000000014","500","250","br","-19","1","0","-5","-21","-23","212"
"","psychophysics","120","690650","0.0-120.0","645af0f05ed5a7d2dd4de062","64de829a4b35ea95d03faa1c","","","","","1863",""," ","key"," ","16.729144144144648","500","250","br","-17","1","0","-4","25","-8","244"
"","psychophysics","121","691619","0.0-121.0","645af0f05ed5a7d2dd4de062","64de829a4b35ea95d03faa1c","","","","","968",""," ","key"," ","16.73105263157764","500","250","inst","","","","","","",""
"","psychophysics","122","700419","0.0-122.0","645af0f05ed5a7d2dd4de062","64de829a4b35ea95d03faa1c","","","","","8799",""," ","key"," ","16.72591428571425","500","250","instZol1","-0.09999999999999998","","","-1.3","0","0",""
"","psychophysics","123","713115","0.0-123.0","645af0f05ed5a7d2dd4de062","64de829a4b35ea95d03faa1c","","","","","12695",""," ","key"," ","16.72592744063328","500","250","instZol2","0.6000000000000008","1","","2","0","0",""
"","psychophysics","124","714243","0.0-124.0","645af0f05ed5a7d2dd4de062","64de829a4b35ea95d03faa1c","","","","","1128",""," ","key"," ","16.72027272727185","500","250","inst","","","","","","",""
"","psychophysics","125","722245","0.0-125.0","645af0f05ed5a7d2dd4de062","64de829a4b35ea95d03faa1c","","","","","null","","null","key","null","16.725684100418366","500","250","zol","0.47","1","1","0.03","10","2",""
"","psychophysics","126","722308","0.0-126.0","645af0f05ed5a7d2dd4de062","64de829a4b35ea95d03faa1c","","","","","61",""," ","key"," ","16.709499999997206","500","250","zol","0.08","1","1","-0.08","-16","-19",""
"","psychophysics","127","727284","0.0-127.0","645af0f05ed5a7d2dd4de062","64de829a4b35ea95d03faa1c","","","","","4975",""," ","key"," ","16.725720538720896","500","250","zol","0.13000000000000006","1","1","-0.33","-15","11",""
"","psychophysics","128","732012","0.0-128.0","645af0f05ed5a7d2dd4de062","64de829a4b35ea95d03faa1c","","","","","4727",""," ","key"," ","16.72572695035471","500","250","zol","0.61","1","1","0.39","23","9",""
"","psychophysics","129","736604","0.0-129.0","645af0f05ed5a7d2dd4de062","64de829a4b35ea95d03faa1c","","","","","4591",""," ","key"," ","16.725710622710857","500","250","zol","0.52","1","1","-0.02","-25","9",""
"","psychophysics","130","740949","0.0-130.0","645af0f05ed5a7d2dd4de062","64de829a4b35ea95d03faa1c","","","","","4343",""," ","key"," ","16.725818532818398","500","250","zol","0.51","1","1","-0.31","-26","-17",""
"","psychophysics","131","746476","0.0-131.0","645af0f05ed5a7d2dd4de062","64de829a4b35ea95d03faa1c","","","","","5527",""," ","key"," ","16.725729483282716","500","250","zol","0.26","1","1","0.54","21","-1",""
"","psychophysics","132","754478","0.0-132.0","645af0f05ed5a7d2dd4de062","64de829a4b35ea95d03faa1c","","","","","null","","null","key","null","16.72588493723849","500","250","zol","0.7899999999999999","1","1","-0.39","1","29",""
"","psychophysics","133","760293","0.0-133.0","645af0f05ed5a7d2dd4de062","64de829a4b35ea95d03faa1c","","","","","5813",""," ","key"," ","16.725710982659017","500","250","zol","0.8200000000000001","1","1","-0.22","24","-9",""
"","psychophysics","134","764341","0.0-134.0","645af0f05ed5a7d2dd4de062","64de829a4b35ea95d03faa1c","","","","","4046",""," ","key"," ","16.726726141079094","500","250","zol","1.01","1","1","0.49","-1","-8",""
"","psychophysics","135","767525","0.0-135.0","645af0f05ed5a7d2dd4de062","64de829a4b35ea95d03faa1c","","","","","3183",""," ","key"," ","16.726010526315996","500","250","zol","0.37","1","1","0.63","-4","22",""
"","psychophysics","136","771285","0.0-136.0","645af0f05ed5a7d2dd4de062","64de829a4b35ea95d03faa1c","","","","","3759",""," ","key"," ","16.725642857143352","500","250","zol","0.6400000000000001","1","1","-0.74","-23","-27",""
"","psychophysics","137","776621","0.0-137.0","645af0f05ed5a7d2dd4de062","64de829a4b35ea95d03faa1c","","","","","5334",""," ","key"," ","16.72459433962292","500","250","zol","0.31000000000000005","1","1","-0.01","23","-23",""
"","psychophysics","138","780797","0.0-138.0","645af0f05ed5a7d2dd4de062","64de829a4b35ea95d03faa1c","","","","","4175",""," ","key"," ","16.72549596774174","500","250","zol","0.1799999999999999","1","1","0.62","-15","2",""
"","psychophysics","139","787709","0.0-139.0","645af0f05ed5a7d2dd4de062","64de829a4b35ea95d03faa1c","","","","","6911",""," ","key"," ","16.726651331719033","500","250","zol","0.63","1","1","0.07","12","-29",""
"","psychophysics","140","789405","0.0-140.0","645af0f05ed5a7d2dd4de062","64de829a4b35ea95d03faa1c","","","","","1696",""," ","key"," ","16.725860000000104","500","250","inst","","","","","","",""
"","psychophysics","141","797477","0.0-141.0","645af0f05ed5a7d2dd4de062","64de829a4b35ea95d03faa1c","","","","","8071",""," ","key"," ","16.72574688796692","500","250","instPog0","340","2","","370","0","0","340"
"","psychophysics","142","807214","0.0-142.0","645af0f05ed5a7d2dd4de062","64de829a4b35ea95d03faa1c","","","","","9736",""," ","key"," ","16.72574698795178","500","250","instPog1","346","2","","370","0","0","340"
"","psychophysics","143","813509","0.0-143.0","645af0f05ed5a7d2dd4de062","64de829a4b35ea95d03faa1c","","","","","6295",""," ","key"," ","16.726768000000156","500","250","instPog2","336","2","","340","0","0","340"
"","psychophysics","144","815694","0.0-144.0","645af0f05ed5a7d2dd4de062","64de829a4b35ea95d03faa1c","","","","","2184",""," ","key"," ","16.725538461538964","500","250","inst","","","","","","",""
"","psychophysics","145","818782","0.0-145.0","645af0f05ed5a7d2dd4de062","64de829a4b35ea95d03faa1c","","","","","3087",""," ","key"," ","16.72603825136607","500","250","pog","354","2","1","358","0","0","357"
"","psychophysics","146","824342","0.0-146.0","645af0f05ed5a7d2dd4de062","64de829a4b35ea95d03faa1c","","","","","5559",""," ","key"," ","16.726927710843274","500","250","pog","296","2","1","372","0","0","307"
"","psychophysics","147","826430","0.0-147.0","645af0f05ed5a7d2dd4de062","64de829a4b35ea95d03faa1c","","","","","2087",""," ","key"," ","16.725427419354673","500","250","pog","333","2","1","335","0","0","348"
"","psychophysics","148","828710","0.0-148.0","645af0f05ed5a7d2dd4de062","64de829a4b35ea95d03faa1c","","","","","2280",""," ","key"," ","16.7250814814819","500","250","pog","308","2","1","304","0","0","327"
"","psychophysics","149","831350","0.0-149.0","645af0f05ed5a7d2dd4de062","64de829a4b35ea95d03faa1c","","","","","2639",""," ","key"," ","16.724382165605114","500","250","pog","341","2","1","333","0","0","370"
"","psychophysics","150","836167","0.0-150.0","645af0f05ed5a7d2dd4de062","64de829a4b35ea95d03faa1c","","","","","4815",""," ","key"," ","16.726581881533033","500","250","pog","285","2","1","307","0","0","300"
"","psychophysics","151","840054","0.0-151.0","645af0f05ed5a7d2dd4de062","64de829a4b35ea95d03faa1c","","","","","3887",""," ","key"," ","16.72561904761912","500","250","pog","284","2","1","362","0","0","310"
"","psychophysics","152","842695","0.0-152.0","645af0f05ed5a7d2dd4de062","64de829a4b35ea95d03faa1c","","","","","2639",""," ","key"," ","16.727917197452573","500","250","pog","302","2","1","288","0","0","332"
"","psychophysics","153","847606","0.0-153.0","645af0f05ed5a7d2dd4de062","64de829a4b35ea95d03faa1c","","","","","4911",""," ","key"," ","16.725703071672136","500","250","pog","299","2","1","387","0","0","324"
"","psychophysics","154","850183","0.0-154.0","645af0f05ed5a7d2dd4de062","64de829a4b35ea95d03faa1c","","","","","2575",""," ","key"," ","16.725712418301317","500","250","pog","324","2","1","306","0","0","354"
"","psychophysics","155","853975","0.0-155.0","645af0f05ed5a7d2dd4de062","64de829a4b35ea95d03faa1c","","","","","3791",""," ","key"," ","16.72617256637164","500","250","pog","314","2","1","342","0","0","331"
"","psychophysics","156","857767","0.0-156.0","645af0f05ed5a7d2dd4de062","64de829a4b35ea95d03faa1c","","","","","3791",""," ","key"," ","16.72739555555551","500","250","pog","346","2","1","312","0","0","371"
"","psychophysics","157","860431","0.0-157.0","645af0f05ed5a7d2dd4de062","64de829a4b35ea95d03faa1c","","","","","2663",""," ","key"," ","16.726528301887043","500","250","pog","357","2","1","373","0","0","370"
"","psychophysics","158","863679","0.0-158.0","645af0f05ed5a7d2dd4de062","64de829a4b35ea95d03faa1c","","","","","3247",""," ","key"," ","16.72586010362702","500","250","pog","358","2","1","380","0","0","372"
"","psychophysics","159","865864","0.0-159.0","645af0f05ed5a7d2dd4de062","64de829a4b35ea95d03faa1c","","","","","2184",""," ","key"," ","16.725356589147257","500","250","pog","292","2","1","300","0","0","302"
"","psychophysics","160","867183","0.0-160.0","645af0f05ed5a7d2dd4de062","64de829a4b35ea95d03faa1c","","","","","1319",""," ","key"," ","16.730500000000646","500","250","inst","","","","","","",""
"","psychophysics","161","878656","0.0-161.0","645af0f05ed5a7d2dd4de062","64de829a4b35ea95d03faa1c","","","","","11471",""," ","key"," ","16.726300729926926","500","250","instPz1","44","2","","25","","","50"
"","psychophysics","162","886591","0.0-162.0","645af0f05ed5a7d2dd4de062","64de829a4b35ea95d03faa1c","","","","","7935",""," ","key"," ","16.725620253164593","500","250","instPz2","35","2","","20","","","35"
"","psychophysics","163","893120","0.0-163.0","645af0f05ed5a7d2dd4de062","64de829a4b35ea95d03faa1c","","","","","6527",""," ","key"," ","16.72564781491003","500","250","instPz3","30","2","","30","","","100"
"","psychophysics","164","900832","0.0-164.0","645af0f05ed5a7d2dd4de062","64de829a4b35ea95d03faa1c","","","","","7711",""," ","key"," ","16.725030434782788","500","250","instPz4","55","2","","30","","","100"
"","psychophysics","165","901856","0.0-165.0","645af0f05ed5a7d2dd4de062","64de829a4b35ea95d03faa1c","","","","","1023",""," ","key"," ","16.7251999999998","500","250","inst","","","","","","",""
"","psychophysics","166","906808","0.0-166.0","645af0f05ed5a7d2dd4de062","64de829a4b35ea95d03faa1c","","","","","4951",""," ","key"," ","16.7256338983052","500","250","pz","17","2","1","34","","","22"
"","psychophysics","167","911144","0.0-167.0","645af0f05ed5a7d2dd4de062","64de829a4b35ea95d03faa1c","","","","","4335",""," ","key"," ","16.725667953668307","500","250","pz","29","2","1","55","","","35"
"","psychophysics","168","913401","0.0-168.0","645af0f05ed5a7d2dd4de062","64de829a4b35ea95d03faa1c","","","","","2255",""," ","key"," ","16.72266917293226","500","250","pz","19","2","1","22","","","24"
"","psychophysics","169","917833","0.0-169.0","645af0f05ed5a7d2dd4de062","64de829a4b35ea95d03faa1c","","","","","4430",""," ","key"," ","16.72569696969665","500","250","pz","21","2","1","42","","","26"
"","psychophysics","170","919921","0.0-170.0","645af0f05ed5a7d2dd4de062","64de829a4b35ea95d03faa1c","","","","","2086",""," ","key"," ","16.7288629032264","500","250","pz","18","2","1","36","","","24"
"","psychophysics","171","924617","0.0-171.0","645af0f05ed5a7d2dd4de062","64de829a4b35ea95d03faa1c","","","","","4695",""," ","key"," ","16.72582857142843","500","250","pz","19","2","1","47","","","24"
"","psychophysics","172","926993","0.0-172.0","645af0f05ed5a7d2dd4de062","64de829a4b35ea95d03faa1c","","","","","2375",""," ","key"," ","16.725602836879002","500","250","pz","34","2","1","32","","","41"
"","psychophysics","173","928889","0.0-173.0","645af0f05ed5a7d2dd4de062","64de829a4b35ea95d03faa1c","","","","","1895",""," ","key"," ","16.72542857142876","500","250","pz","36","2","1","32","","","56"
"","psychophysics","174","932393","0.0-174.0","645af0f05ed5a7d2dd4de062","64de829a4b35ea95d03faa1c","","","","","3503",""," ","key"," ","16.72561722488029","500","250","pz","33","2","1","56","","","39"
"","psychophysics","175","934417","0.0-175.0","645af0f05ed5a7d2dd4de062","64de829a4b35ea95d03faa1c","","","","","2023",""," ","key"," ","16.725716666666752","500","250","pz","40","2","1","38","","","54"
"","psychophysics","176","937921","0.0-176.0","645af0f05ed5a7d2dd4de062","64de829a4b35ea95d03faa1c","","","","","3503",""," ","key"," ","16.727634615384606","500","250","pz","30","2","1","47","","","33"
"","psychophysics","177","941577","0.0-177.0","645af0f05ed5a7d2dd4de062","64de829a4b35ea95d03faa1c","","","","","3655",""," ","key"," ","16.72694495412865","500","250","pz","16","2","1","33","","","20"
"","psychophysics","178","946177","0.0-178.0","645af0f05ed5a7d2dd4de062","64de829a4b35ea95d03faa1c","","","","","4599",""," ","key"," ","16.72570437956202","500","250","pz","39","2","1","56","","","57"
"","psychophysics","179","949682","0.0-179.0","645af0f05ed5a7d2dd4de062","64de829a4b35ea95d03faa1c","","","","","3504",""," ","key"," ","16.727516746411375","500","250","pz","39","2","1","29","","","53"
"","psychophysics","180","954082","0.0-180.0","645af0f05ed5a7d2dd4de062","64de829a4b35ea95d03faa1c","","","","","4399",""," ","key"," ","16.725740458015157","500","250","pz","23","2","1","57","","","26"
"","psychophysics","181","955274","0.0-181.0","645af0f05ed5a7d2dd4de062","64de829a4b35ea95d03faa1c","","","","","1192",""," ","key"," ","16.718171428571388","500","250","inst","","","","","","",""
"","psychophysics","182","961218","0.0-182.0","645af0f05ed5a7d2dd4de062","64de829a4b35ea95d03faa1c","","","","","5943",""," ","key"," ","16.725737288135818","500","250","instEB1","40","2","","30","0","0","40"
"","psychophysics","183","969154","0.0-183.0","645af0f05ed5a7d2dd4de062","64de829a4b35ea95d03faa1c","","","","","7935",""," ","key"," ","16.72583544303792","500","250","instEB2","31","2","","40","0","0","30"
"","psychophysics","184","977794","0.0-184.0","645af0f05ed5a7d2dd4de062","64de829a4b35ea95d03faa1c","","","","","8639",""," ","key"," ","16.72579029126215","500","250","instEB3","33","2","","45","0","0","27"
"","psychophysics","185","983290","0.0-185.0","645af0f05ed5a7d2dd4de062","64de829a4b35ea95d03faa1c","","","","","5495",""," ","key"," ","16.725743902439007","500","250","instEB4","48","2","","30","0","0","40"
"","psychophysics","186","984130","0.0-186.0","645af0f05ed5a7d2dd4de062","64de829a4b35ea95d03faa1c","","","","","839",""," ","key"," ","16.725285714285505","500","250","inst","","","","","","",""
"","psychophysics","187","990555","0.0-187.0","645af0f05ed5a7d2dd4de062","64de829a4b35ea95d03faa1c","","","","","6423",""," ","key"," ","16.726378590078276","500","250","eb","60","2","","30","0","0","54"
"","psychophysics","188","992866","0.0-188.0","645af0f05ed5a7d2dd4de062","64de829a4b35ea95d03faa1c","","","","","2311",""," ","key"," ","16.725992753623437","500","250","eb","48","2","","45","0","0","47"
"","psychophysics","189","998715","0.0-189.0","645af0f05ed5a7d2dd4de062","64de829a4b35ea95d03faa1c","","","","","5847",""," ","key"," ","16.726821839080483","500","250","eb","57","2","","32","0","0","54"
"","psychophysics","190","1000418","0.0-190.0","645af0f05ed5a7d2dd4de062","64de829a4b35ea95d03faa1c","","","","","1703",""," ","key"," ","16.72937623762392","500","250","eb","49","2","","46","0","0","47"
"","psychophysics","191","1003506","0.0-191.0","645af0f05ed5a7d2dd4de062","64de829a4b35ea95d03faa1c","","","","","3087",""," ","key"," ","16.728005434782496","500","250","eb","55","2","","41","0","0","54"
"","psychophysics","192","1005979","0.0-192.0","645af0f05ed5a7d2dd4de062","64de829a4b35ea95d03faa1c","","","","","2472",""," ","key"," ","16.725557823129297","500","250","eb","33","2","","35","0","0","32"
"","psychophysics","193","1008523","0.0-193.0","645af0f05ed5a7d2dd4de062","64de829a4b35ea95d03faa1c","","","","","2543",""," ","key"," ","16.726900662251577","500","250","eb","55","2","","48","0","0","53"
"","psychophysics","194","1011475","0.0-194.0","645af0f05ed5a7d2dd4de062","64de829a4b35ea95d03faa1c","","","","","2951",""," ","key"," ","16.72796000000023","500","250","eb","40","2","","35","0","0","42"
"","psychophysics","195","1014595","0.0-195.0","645af0f05ed5a7d2dd4de062","64de829a4b35ea95d03faa1c","","","","","3119",""," ","key"," ","16.72574731182828","500","250","eb","50","2","","43","0","0","49"
"","psychophysics","196","1017067","0.0-196.0","645af0f05ed5a7d2dd4de062","64de829a4b35ea95d03faa1c","","","","","2471",""," ","key"," ","16.72547260273969","500","250","eb","32","2","","36","0","0","31"
"","psychophysics","197","1020539","0.0-197.0","645af0f05ed5a7d2dd4de062","64de829a4b35ea95d03faa1c","","","","","3471",""," ","key"," ","16.725859903381767","500","250","eb","33","2","","37","0","0","29"
"","psychophysics","198","1024587","0.0-198.0","645af0f05ed5a7d2dd4de062","64de829a4b35ea95d03faa1c","","","","","4048",""," ","key"," ","16.725684647302963","500","250","eb","48","2","","37","0","0","45"
"","psychophysics","199","1026739","0.0-199.0","645af0f05ed5a7d2dd4de062","64de829a4b35ea95d03faa1c","","","","","2151",""," ","key"," ","16.725781250000182","500","250","eb","24","2","","25","0","0","26"
"","psychophysics","200","1030884","0.0-200.0","645af0f05ed5a7d2dd4de062","64de829a4b35ea95d03faa1c","","","","","4144",""," ","key"," ","16.72702024291507","500","250","eb","50","2","","34","0","0","43"
"","psychophysics","201","1032979","0.0-201.0","645af0f05ed5a7d2dd4de062","64de829a4b35ea95d03faa1c","","","","","2095",""," ","key"," ","16.725080645161555","500","250","eb","50","2","","44","0","0","42"
"","psychophysics","202","1034003","0.0-202.0","645af0f05ed5a7d2dd4de062","64de829a4b35ea95d03faa1c","","","","","1023",""," ","key"," ","16.725116666666388","500","250","inst","","","","","","",""
"","psychophysics","203","1044931","0.0-203.0","645af0f05ed5a7d2dd4de062","64de829a4b35ea95d03faa1c","","","","","10927",""," ","key"," ","16.726285276073533","500","250","instBr3","27","2","","40","0","0","300"
"","psychophysics","204","1047211","0.0-204.0","645af0f05ed5a7d2dd4de062","64de829a4b35ea95d03faa1c","","","","","2279",""," ","key"," ","16.725602941175833","500","250","inst","","","","","","",""
"","psychophysics","205","1051292","0.0-205.0","645af0f05ed5a7d2dd4de062","64de829a4b35ea95d03faa1c","","","","","4079",""," ","key"," ","16.725843621399676","500","250","br","19","2","1","-21","-24","13","236"
"","psychophysics","206","1053476","0.0-206.0","645af0f05ed5a7d2dd4de062","64de829a4b35ea95d03faa1c","","","","","2184",""," ","key"," ","16.725930232558284","500","250","br","21","2","1","14","-23","15","200"
"","psychophysics","207","1055892","0.0-207.0","645af0f05ed5a7d2dd4de062","64de829a4b35ea95d03faa1c","","","","","2415",""," ","key"," ","16.728402777777067","500","250","br","21","2","1","1","8","-29","285"
"","psychophysics","208","1058876","0.0-208.0","645af0f05ed5a7d2dd4de062","64de829a4b35ea95d03faa1c","","","","","2984",""," ","key"," ","16.725514124293607","500","250","br","22","2","1","26","-14","20","207"
"","psychophysics","209","1060996","0.0-209.0","645af0f05ed5a7d2dd4de062","64de829a4b35ea95d03faa1c","","","","","2119",""," ","key"," ","16.72646825396759","500","250","br","23","2","1","30","-6","7","246"
"","psychophysics","210","1067716","0.0-210.0","645af0f05ed5a7d2dd4de062","64de829a4b35ea95d03faa1c","","","","","6719",""," ","key"," ","16.725860349126766","500","250","br","18","2","1","-1","6","1","235"
"","psychophysics","211","1069805","0.0-211.0","645af0f05ed5a7d2dd4de062","64de829a4b35ea95d03faa1c","","","","","2088",""," ","key"," ","16.725362903226333","500","250","br","19","2","1","11","13","-11","291"
"","psychophysics","212","1072988","0.0-212.0","645af0f05ed5a7d2dd4de062","64de829a4b35ea95d03faa1c","","","","","3183",""," ","key"," ","16.725671957671967","500","250","br","19","2","1","18","11","-30","252"
"","psychophysics","213","1076780","0.0-213.0","645af0f05ed5a7d2dd4de062","64de829a4b35ea95d03faa1c","","","","","3791",""," ","key"," ","16.725575221238856","500","250","br","22","2","1","-14","5","-20","297"
"","psychophysics","214","1079508","0.0-214.0","645af0f05ed5a7d2dd4de062","64de829a4b35ea95d03faa1c","","","","","2727",""," ","key"," ","16.725666666667863","500","250","br","21","2","1","-23","-21","11","242"
"","psychophysics","215","1083973","0.0-215.0","645af0f05ed5a7d2dd4de062","64de829a4b35ea95d03faa1c","","","","","4463",""," ","key"," ","16.725812030074717","500","250","br","20","2","1","-5","8","-5","284"
"","psychophysics","216","1088413","0.0-216.0","645af0f05ed5a7d2dd4de062","64de829a4b35ea95d03faa1c","","","","","4439",""," ","key"," ","16.725708333333554","500","250","br","24","2","1","10","-13","25","296"
"","psychophysics","217","1092525","0.0-217.0","645af0f05ed5a7d2dd4de062","64de829a4b35ea95d03faa1c","","","","","4111",""," ","key"," ","16.726126530612532","500","250","br","19","2","1","-22","-4","10","239"
"","psychophysics","218","1095581","0.0-218.0","645af0f05ed5a7d2dd4de062","64de829a4b35ea95d03faa1c","","","","","3055",""," ","key"," ","16.727714285713745","500","250","br","15","2","1","14","-29","-12","279"
"","psychophysics","219","1097829","0.0-219.0","645af0f05ed5a7d2dd4de062","64de829a4b35ea95d03faa1c","","","","","2247",""," ","key"," ","16.725563909774436","500","250","br","17","2","1","6","-22","-12","240"
