"success","trial_type","trial_index","time_elapsed","internal_node_id","pid","sid","timeout","failed_images","failed_audio","failed_video","rt","stimulus","response","response_type","key_press","avg_frame_time","center_x","center_y","task","resp","version","block","jitterX","jitterY","start","parA"
"true","fullscreen","0","3142","0.0-0.0","5bd914e9a0e4d80001a405a0","64dd6d97244bafd804925467","","","","","","","","","","","","","","","","","","","",""
"true","preload","1","3271","0.0-1.0","5bd914e9a0e4d80001a405a0","64dd6d97244bafd804925467","false","[]","[]","[]","","","","","","","","","","","","","","","",""
"","html-button-response","2","4726","0.0-2.0","5bd914e9a0e4d80001a405a0","64dd6d97244bafd804925467","","","","","1454","Please Make Sure Your Audio Is On.","0","","","","","","","","","","","","",""
"","psychophysics","3","10707","0.0-3.0","5bd914e9a0e4d80001a405a0","64dd6d97244bafd804925467","","","","","5976",""," ","key"," ","16.625698324022345","1024","250","","","","","","","",""
"","psychophysics","4","13035","0.0-4.0","5bd914e9a0e4d80001a405a0","64dd6d97244bafd804925467","","","","","2326",""," ","key"," ","16.654676258992804","500","250","inst","","","","","","",""
"","psychophysics","5","17231","0.0-5.0","5bd914e9a0e4d80001a405a0","64dd6d97244bafd804925467","","","","","4194",""," ","key"," ","16.673306772908365","500","250","sample0","","","","","","",""
"","psychophysics","6","20382","0.0-6.0","5bd914e9a0e4d80001a405a0","64dd6d97244bafd804925467","","","","","3147",""," ","key"," ","16.670212765957448","500","250","sample1","","","","","","",""
"","psychophysics","7","36987","0.0-7.0","5bd914e9a0e4d80001a405a0","64dd6d97244bafd804925467","","","","","16603",""," ","key"," ","16.6713567839196","500","250","sample2","114","","","","","",""
"","psychophysics","8","41824","0.0-8.0","5bd914e9a0e4d80001a405a0","64dd6d97244bafd804925467","","","","","4835",""," ","key"," ","16.67128027681661","500","250","sample3","78","","","","","",""
"","psychophysics","9","60106","0.0-9.0","5bd914e9a0e4d80001a405a0","64dd6d97244bafd804925467","","","","","18280",""," ","key"," ","16.67214611872146","500","250","sample4","100","","","","","",""
"","psychophysics","10","63897","0.0-10.0","5bd914e9a0e4d80001a405a0","64dd6d97244bafd804925467","","","","","3789",""," ","key"," ","16.674008810572687","500","250","sample5","","","","","","",""
"","psychophysics","11","95229","0.0-11.0","5bd914e9a0e4d80001a405a0","64dd6d97244bafd804925467","","","","","31329",""," ","key"," ","16.671458998935037","500","250","sample6","498","","","","","",""
"","psychophysics","12","102902","0.0-12.0","5bd914e9a0e4d80001a405a0","64dd6d97244bafd804925467","","","","","7670",""," ","key"," ","16.675381263616558","500","250","inst","","","","","","",""
"","psychophysics","13","106345","0.0-13.0","5bd914e9a0e4d80001a405a0","64dd6d97244bafd804925467","","","","","3441",""," ","key"," ","16.674757281553397","500","250","inst","","","","","","",""
"","psychophysics","14","108988","0.0-14.0","5bd914e9a0e4d80001a405a0","64dd6d97244bafd804925467","","","","","2641",""," ","key"," ","16.67515923566879","500","250","inst","","","","","","",""
"","psychophysics","15","110754","0.0-15.0","5bd914e9a0e4d80001a405a0","64dd6d97244bafd804925467","","","","","1764",""," ","key"," ","16.676190476190477","500","250","inst","","","","","","",""
"","psychophysics","16","112036","0.0-16.0","5bd914e9a0e4d80001a405a0","64dd6d97244bafd804925467","","","","","1280",""," ","key"," ","16.68421052631579","500","250","inst","","","","","","",""
"","psychophysics","17","117009","0.0-17.0","5bd914e9a0e4d80001a405a0","64dd6d97244bafd804925467","","","","","4970",""," ","key"," ","16.67676767676768","500","250","instZol0","0","","","0","0","0",""
"","psychophysics","18","138046","0.0-18.0","5bd914e9a0e4d80001a405a0","64dd6d97244bafd804925467","","","","","21036",""," ","key"," ","16.67248215701824","500","250","instZol1","-0.09999999999999998","","","0","0","-1.3",""
"","psychophysics","19","162673","0.0-19.0","5bd914e9a0e4d80001a405a0","64dd6d97244bafd804925467","","","","","24624",""," ","key"," ","16.672764227642276","500","250","instZol2","-1.3999999999999995","2","","0","0","2",""
"","psychophysics","20","165114","0.0-20.0","5bd914e9a0e4d80001a405a0","64dd6d97244bafd804925467","","","","","2439",""," ","key"," ","16.671232876712327","500","250","inst","","","","","","",""
"","psychophysics","21","173117","0.0-21.0","5bd914e9a0e4d80001a405a0","64dd6d97244bafd804925467","","","","","null","","null","key","null","16.602910602910605","500","250","zol","-1.03","2","0","-25","14","0.53",""
"","psychophysics","22","181120","0.0-22.0","5bd914e9a0e4d80001a405a0","64dd6d97244bafd804925467","","","","","null","","null","key","null","16.6008316008316","500","250","zol","-0.5499999999999999","2","0","-9","-28","-0.75",""
"","psychophysics","23","189123","0.0-23.0","5bd914e9a0e4d80001a405a0","64dd6d97244bafd804925467","","","","","null","","null","key","null","16.598752598752597","500","250","zol","-0.61","2","0","11","7","0.21",""
"","psychophysics","24","197125","0.0-24.0","5bd914e9a0e4d80001a405a0","64dd6d97244bafd804925467","","","","","null","","null","key","null","16.596673596673597","500","250","zol","-1.3","2","0","7","6","0.6",""
"","psychophysics","25","204051","0.0-25.0","5bd914e9a0e4d80001a405a0","64dd6d97244bafd804925467","","","","","6922",""," ","key"," ","16.664251207729468","500","250","zol","-1.0999999999999999","2","0","1","-28","0.4",""
"","psychophysics","26","212055","0.0-26.0","5bd914e9a0e4d80001a405a0","64dd6d97244bafd804925467","","","","","null","","null","key","null","16.604989604989605","500","250","zol","-1.5600000000000003","2","0","18","-21","-0.04",""
"","psychophysics","27","218732","0.0-27.0","5bd914e9a0e4d80001a405a0","64dd6d97244bafd804925467","","","","","6675",""," ","key"," ","16.645","500","250","zol","-1.3400000000000003","2","0","-1","-8","0.54",""
"","psychophysics","28","226068","0.0-28.0","5bd914e9a0e4d80001a405a0","64dd6d97244bafd804925467","","","","","7333",""," ","key"," ","16.671981776765374","500","250","zol","-1.18","2","0","9","-23","0.08",""
"","psychophysics","29","232143","0.0-29.0","5bd914e9a0e4d80001a405a0","64dd6d97244bafd804925467","","","","","6072",""," ","key"," ","16.674931129476583","500","250","zol","-1.36","2","0","22","8","0.06",""
"","psychophysics","30","240146","0.0-30.0","5bd914e9a0e4d80001a405a0","64dd6d97244bafd804925467","","","","","null","","null","key","null","16.602910602910605","500","250","zol","-1.2100000000000002","2","0","11","-13","-0.69",""
"","psychophysics","31","248149","0.0-31.0","5bd914e9a0e4d80001a405a0","64dd6d97244bafd804925467","","","","","null","","null","key","null","16.6375","500","250","zol","-1.5300000000000002","2","0","29","21","0.73",""
"","psychophysics","32","256151","0.0-32.0","5bd914e9a0e4d80001a405a0","64dd6d97244bafd804925467","","","","","null","","null","key","null","16.602910602910605","500","250","zol","-1.5800000000000003","2","0","14","11","0.38",""
"","psychophysics","33","262822","0.0-33.0","5bd914e9a0e4d80001a405a0","64dd6d97244bafd804925467","","","","","6664",""," ","key"," ","16.654135338345863","500","250","zol","-1.2500000000000002","2","0","-7","-14","0.55",""
"","psychophysics","34","267547","0.0-34.0","5bd914e9a0e4d80001a405a0","64dd6d97244bafd804925467","","","","","4721",""," ","key"," ","16.671378091872793","500","250","zol","-1.1300000000000001","2","0","-6","19","-0.07",""
"","psychophysics","35","273600","0.0-35.0","5bd914e9a0e4d80001a405a0","64dd6d97244bafd804925467","","","","","6050",""," ","key"," ","16.674033149171272","500","250","zol","-0.72","2","0","-3","10","-0.08",""
"","psychophysics","36","274825","0.0-36.0","5bd914e9a0e4d80001a405a0","64dd6d97244bafd804925467","","","","","1223",""," ","key"," ","16.680555555555557","500","250","inst","","","","","","",""
"","psychophysics","37","286909","0.0-37.0","5bd914e9a0e4d80001a405a0","64dd6d97244bafd804925467","","","","","12081",""," ","key"," ","16.67265193370166","500","250","instPog0","340","2","","0","0","370","340"
"","psychophysics","38","302388","0.0-38.0","5bd914e9a0e4d80001a405a0","64dd6d97244bafd804925467","","","","","15478",""," ","key"," ","16.672060409924487","500","250","instPog1","348","2","","0","0","370","340"
"","psychophysics","39","316238","0.0-39.0","5bd914e9a0e4d80001a405a0","64dd6d97244bafd804925467","","","","","13847",""," ","key"," ","16.6710843373494","500","250","instPog2","334","2","","0","0","340","340"
"","psychophysics","40","317745","0.0-40.0","5bd914e9a0e4d80001a405a0","64dd6d97244bafd804925467","","","","","1506",""," ","key"," ","16.666666666666668","500","250","inst","","","","","","",""
"","psychophysics","41","325747","0.0-41.0","5bd914e9a0e4d80001a405a0","64dd6d97244bafd804925467","","","","","null","","null","key","null","16.604989604989605","500","250","pog","328","2","0","0","0","292","359"
"","psychophysics","42","333750","0.0-42.0","5bd914e9a0e4d80001a405a0","64dd6d97244bafd804925467","","","","","null","","null","key","null","16.602910602910605","500","250","pog","320","2","0","0","0","286","328"
"","psychophysics","43","341752","0.0-43.0","5bd914e9a0e4d80001a405a0","64dd6d97244bafd804925467","","","","","null","","null","key","null","16.602083333333333","500","250","pog","295","2","0","0","0","325","304"
"","psychophysics","44","349755","0.0-44.0","5bd914e9a0e4d80001a405a0","64dd6d97244bafd804925467","","","","","null","","null","key","null","16.598752598752597","500","250","pog","363","2","0","0","0","325","369"
"","psychophysics","45","357757","0.0-45.0","5bd914e9a0e4d80001a405a0","64dd6d97244bafd804925467","","","","","null","","null","key","null","16.596673596673597","500","250","pog","311","2","0","0","0","345","323"
"","psychophysics","46","364017","0.0-46.0","5bd914e9a0e4d80001a405a0","64dd6d97244bafd804925467","","","","","6254",""," ","key"," ","16.664","500","250","pog","362","2","0","0","0","366","374"
"","psychophysics","47","371475","0.0-47.0","5bd914e9a0e4d80001a405a0","64dd6d97244bafd804925467","","","","","7456",""," ","key"," ","16.67488789237668","500","250","pog","370","2","0","0","0","398","375"
"","psychophysics","48","379478","0.0-48.0","5bd914e9a0e4d80001a405a0","64dd6d97244bafd804925467","","","","","null","","null","key","null","16.602910602910605","500","250","pog","343","2","0","0","0","377","350"
"","psychophysics","49","387480","0.0-49.0","5bd914e9a0e4d80001a405a0","64dd6d97244bafd804925467","","","","","null","","null","key","null","16.6008316008316","500","250","pog","313","2","0","0","0","395","316"
"","psychophysics","50","391974","0.0-50.0","5bd914e9a0e4d80001a405a0","64dd6d97244bafd804925467","","","","","4490",""," ","key"," ","16.6728624535316","500","250","pog","372","2","0","0","0","360","376"
"","psychophysics","51","397846","0.0-51.0","5bd914e9a0e4d80001a405a0","64dd6d97244bafd804925467","","","","","5870",""," ","key"," ","16.672364672364672","500","250","pog","325","2","0","0","0","283","329"
"","psychophysics","52","403471","0.0-52.0","5bd914e9a0e4d80001a405a0","64dd6d97244bafd804925467","","","","","5622",""," ","key"," ","16.672619047619047","500","250","pog","376","2","0","0","0","366","380"
"","psychophysics","53","408939","0.0-53.0","5bd914e9a0e4d80001a405a0","64dd6d97244bafd804925467","","","","","5464",""," ","key"," ","16.6697247706422","500","250","pog","317","2","0","0","0","299","325"
"","psychophysics","54","413652","0.0-54.0","5bd914e9a0e4d80001a405a0","64dd6d97244bafd804925467","","","","","4712",""," ","key"," ","16.673758865248228","500","250","pog","328","2","0","0","0","320","335"
"","psychophysics","55","417895","0.0-55.0","5bd914e9a0e4d80001a405a0","64dd6d97244bafd804925467","","","","","4240",""," ","key"," ","16.669291338582678","500","250","pog","321","2","0","0","0","311","340"
"","psychophysics","56","419064","0.0-56.0","5bd914e9a0e4d80001a405a0","64dd6d97244bafd804925467","","","","","1167",""," ","key"," ","16.652173913043477","500","250","inst","","","","","","",""
"","psychophysics","57","421246","0.0-57.0","5bd914e9a0e4d80001a405a0","64dd6d97244bafd804925467","","","","","2180",""," ","key"," ","16.66923076923077","500","250","instPzPre","50","0","","","","50","50"
"","psychophysics","58","423755","0.0-58.0","5bd914e9a0e4d80001a405a0","64dd6d97244bafd804925467","","","","","2506",""," ","key"," ","16.671140939597315","500","250","instPz0","50","2","","","","50","50"
"","psychophysics","59","443239","0.0-59.0","5bd914e9a0e4d80001a405a0","64dd6d97244bafd804925467","","","","","19482",""," ","key"," ","16.671232876712327","500","250","instPz1","45","2","","","","25","50"
"","psychophysics","60","452702","0.0-60.0","5bd914e9a0e4d80001a405a0","64dd6d97244bafd804925467","","","","","9461",""," ","key"," ","16.67314487632509","500","250","instPz2","31","2","","","","20","35"
"","psychophysics","61","457911","0.0-61.0","5bd914e9a0e4d80001a405a0","64dd6d97244bafd804925467","","","","","5203",""," ","key"," ","16.66346153846154","500","250","instPz3","30","2","","","","30","100"
"","psychophysics","62","479476","0.0-62.0","5bd914e9a0e4d80001a405a0","64dd6d97244bafd804925467","","","","","21559",""," ","key"," ","16.673374613003094","500","250","instPz4","55","2","","","","30","100"
"","psychophysics","63","480310","0.0-63.0","5bd914e9a0e4d80001a405a0","64dd6d97244bafd804925467","","","","","832",""," ","key"," ","16.6734693877551","500","250","inst","","","","","","",""
"","psychophysics","64","488315","0.0-64.0","5bd914e9a0e4d80001a405a0","64dd6d97244bafd804925467","","","","","null","","null","key","null","16.6008316008316","500","250","pz","24","2","0","","","54","49"
"","psychophysics","65","496322","0.0-65.0","5bd914e9a0e4d80001a405a0","64dd6d97244bafd804925467","","","","","null","","null","key","null","16.595435684647303","500","250","pz","23","2","0","","","46","36"
"","psychophysics","66","504328","0.0-66.0","5bd914e9a0e4d80001a405a0","64dd6d97244bafd804925467","","","","","null","","null","key","null","16.596673596673597","500","250","pz","33","2","0","","","50","53"
"","psychophysics","67","512334","0.0-67.0","5bd914e9a0e4d80001a405a0","64dd6d97244bafd804925467","","","","","null","","null","key","null","16.592515592515593","500","250","pz","28","2","0","","","35","45"
"","psychophysics","68","518020","0.0-68.0","5bd914e9a0e4d80001a405a0","64dd6d97244bafd804925467","","","","","5681",""," ","key"," ","16.673529411764704","500","250","pz","17","2","0","","","35","25"
"","psychophysics","69","525557","0.0-69.0","5bd914e9a0e4d80001a405a0","64dd6d97244bafd804925467","","","","","7531",""," ","key"," ","16.66962305986696","500","250","pz","30","2","0","","","27","57"
"","psychophysics","70","527920","0.0-70.0","5bd914e9a0e4d80001a405a0","64dd6d97244bafd804925467","","","","","2357",""," ","key"," ","16.666666666666668","500","250","pz","31","2","0","","","31","55"
"","psychophysics","71","535927","0.0-71.0","5bd914e9a0e4d80001a405a0","64dd6d97244bafd804925467","","","","","null","","null","key","null","16.604989604989605","500","250","pz","33","2","0","","","59","49"
"","psychophysics","72","543933","0.0-72.0","5bd914e9a0e4d80001a405a0","64dd6d97244bafd804925467","","","","","null","","null","key","null","16.602910602910605","500","250","pz","30","2","0","","","36","48"
"","psychophysics","73","551940","0.0-73.0","5bd914e9a0e4d80001a405a0","64dd6d97244bafd804925467","","","","","null","","null","key","null","16.595435684647303","500","250","pz","32","2","0","","","48","51"
"","psychophysics","74","559946","0.0-74.0","5bd914e9a0e4d80001a405a0","64dd6d97244bafd804925467","","","","","null","","null","key","null","16.598752598752597","500","250","pz","16","2","0","","","31","24"
"","psychophysics","75","567951","0.0-75.0","5bd914e9a0e4d80001a405a0","64dd6d97244bafd804925467","","","","","null","","null","key","null","16.602910602910605","500","250","pz","27","2","0","","","45","45"
"","psychophysics","76","575959","0.0-76.0","5bd914e9a0e4d80001a405a0","64dd6d97244bafd804925467","","","","","null","","null","key","null","16.584199584199585","500","250","pz","30","2","0","","","25","59"
"","psychophysics","77","583965","0.0-77.0","5bd914e9a0e4d80001a405a0","64dd6d97244bafd804925467","","","","","null","","null","key","null","16.598752598752597","500","250","pz","30","2","0","","","27","58"
"","psychophysics","78","591970","0.0-78.0","5bd914e9a0e4d80001a405a0","64dd6d97244bafd804925467","","","","","null","","null","key","null","16.59128630705394","500","250","pz","16","2","0","","","33","23"
"","psychophysics","79","593677","0.0-79.0","5bd914e9a0e4d80001a405a0","64dd6d97244bafd804925467","","","","","1703",""," ","key"," ","16.673267326732674","500","250","inst","","","","","","",""
"","psychophysics","80","595073","0.0-80.0","5bd914e9a0e4d80001a405a0","64dd6d97244bafd804925467","","","","","1393",""," ","key"," ","16.674698795180724","500","250","instEB0","75","2","","0","0","75","75"
"","psychophysics","81","598402","0.0-81.0","5bd914e9a0e4d80001a405a0","64dd6d97244bafd804925467","","","","","3327",""," ","key"," ","16.666666666666668","500","250","instEB1","70","2","","0","0","70","80"
"","psychophysics","82","601823","0.0-82.0","5bd914e9a0e4d80001a405a0","64dd6d97244bafd804925467","","","","","3419",""," ","key"," ","16.673170731707316","500","250","instEB2","65","2","","0","0","65","80"
"","psychophysics","83","606817","0.0-83.0","5bd914e9a0e4d80001a405a0","64dd6d97244bafd804925467","","","","","4993",""," ","key"," ","16.674496644295303","500","250","instEB3","80","2","","0","0","80","65"
"","psychophysics","84","611711","0.0-84.0","5bd914e9a0e4d80001a405a0","64dd6d97244bafd804925467","","","","","4891",""," ","key"," ","16.67235494880546","500","250","instEB4","65","2","","0","0","65","70"
"","psychophysics","85","612667","0.0-85.0","5bd914e9a0e4d80001a405a0","64dd6d97244bafd804925467","","","","","955",""," ","key"," ","16.678571428571427","500","250","inst","","","","","","",""
"","psychophysics","86","620670","0.0-86.0","5bd914e9a0e4d80001a405a0","64dd6d97244bafd804925467","","","","","null","","null","key","null","16.59043659043659","500","250","eb","93","2","0","0","0","72","89"
"","psychophysics","87","628672","0.0-87.0","5bd914e9a0e4d80001a405a0","64dd6d97244bafd804925467","","","","","null","","null","key","null","16.6375","500","250","eb","83","2","0","0","0","69","83"
"","psychophysics","88","636674","0.0-88.0","5bd914e9a0e4d80001a405a0","64dd6d97244bafd804925467","","","","","null","","null","key","null","16.592515592515593","500","250","eb","78","2","0","0","0","85","75"
"","psychophysics","89","644676","0.0-89.0","5bd914e9a0e4d80001a405a0","64dd6d97244bafd804925467","","","","","null","","null","key","null","16.592515592515593","500","250","eb","75","2","0","0","0","86","69"
"","psychophysics","90","652679","0.0-90.0","5bd914e9a0e4d80001a405a0","64dd6d97244bafd804925467","","","","","null","","null","key","null","16.602910602910605","500","250","eb","85","2","0","0","0","70","83"
"","psychophysics","91","660681","0.0-91.0","5bd914e9a0e4d80001a405a0","64dd6d97244bafd804925467","","","","","null","","null","key","null","16.598752598752597","500","250","eb","85","2","0","0","0","71","78"
"","psychophysics","92","668687","0.0-92.0","5bd914e9a0e4d80001a405a0","64dd6d97244bafd804925467","","","","","null","","null","key","null","16.59043659043659","500","250","eb","88","2","0","0","0","61","84"
"","psychophysics","93","676690","0.0-93.0","5bd914e9a0e4d80001a405a0","64dd6d97244bafd804925467","","","","","null","","null","key","null","16.602910602910605","500","250","eb","91","2","0","0","0","88","87"
"","psychophysics","94","684693","0.0-94.0","5bd914e9a0e4d80001a405a0","64dd6d97244bafd804925467","","","","","null","","null","key","null","16.58835758835759","500","250","eb","73","2","0","0","0","89","63"
"","psychophysics","95","692697","0.0-95.0","5bd914e9a0e4d80001a405a0","64dd6d97244bafd804925467","","","","","null","","null","key","null","16.602910602910605","500","250","eb","80","2","0","0","0","86","72"
"","psychophysics","96","700700","0.0-96.0","5bd914e9a0e4d80001a405a0","64dd6d97244bafd804925467","","","","","null","","null","key","null","16.586278586278585","500","250","eb","91","2","0","0","0","67","89"
"","psychophysics","97","708702","0.0-97.0","5bd914e9a0e4d80001a405a0","64dd6d97244bafd804925467","","","","","null","","null","key","null","16.602910602910605","500","250","eb","88","2","0","0","0","61","89"
"","psychophysics","98","716705","0.0-98.0","5bd914e9a0e4d80001a405a0","64dd6d97244bafd804925467","","","","","null","","null","key","null","16.604989604989605","500","250","eb","79","2","0","0","0","74","75"
"","psychophysics","99","724707","0.0-99.0","5bd914e9a0e4d80001a405a0","64dd6d97244bafd804925467","","","","","null","","null","key","null","16.586278586278585","500","250","eb","90","2","0","0","0","77","89"
"","psychophysics","100","732710","0.0-100.0","5bd914e9a0e4d80001a405a0","64dd6d97244bafd804925467","","","","","null","","null","key","null","16.58835758835759","500","250","eb","86","2","0","0","0","71","90"
"","psychophysics","101","748254","0.0-101.0","5bd914e9a0e4d80001a405a0","64dd6d97244bafd804925467","","","","","15538",""," ","key"," ","16.672395273899035","500","250","inst","","","","","","",""
"","psychophysics","102","751595","0.0-102.0","5bd914e9a0e4d80001a405a0","64dd6d97244bafd804925467","","","","","3339",""," ","key"," ","16.665","500","250","instBr0","0","","","0","0","0","300"
"","psychophysics","103","755094","0.0-103.0","5bd914e9a0e4d80001a405a0","64dd6d97244bafd804925467","","","","","3497",""," ","key"," ","16.669856459330145","500","250","instBr1","-40","","","0","0","-40","300"
"","psychophysics","104","759617","0.0-104.0","5bd914e9a0e4d80001a405a0","64dd6d97244bafd804925467","","","","","4520",""," ","key"," ","16.674074074074074","500","250","instBr3","40","2","","0","0","40","300"
"","psychophysics","105","760471","0.0-105.0","5bd914e9a0e4d80001a405a0","64dd6d97244bafd804925467","","","","","853",""," ","key"," ","16.66","500","250","inst","","","","","","",""
"","psychophysics","106","768473","0.0-106.0","5bd914e9a0e4d80001a405a0","64dd6d97244bafd804925467","","","","","null","","null","key","null","16.602910602910605","500","250","br","18","2","0","24","-12","25","275"
"","psychophysics","107","776475","0.0-107.0","5bd914e9a0e4d80001a405a0","64dd6d97244bafd804925467","","","","","null","","null","key","null","16.58835758835759","500","250","br","14","2","0","4","-22","14","287"
"","psychophysics","108","784479","0.0-108.0","5bd914e9a0e4d80001a405a0","64dd6d97244bafd804925467","","","","","null","","null","key","null","16.602910602910605","500","250","br","10","2","0","-26","30","-16","238"
"","psychophysics","109","792481","0.0-109.0","5bd914e9a0e4d80001a405a0","64dd6d97244bafd804925467","","","","","null","","null","key","null","16.586278586278585","500","250","br","12","2","0","8","10","1","210"
"","psychophysics","110","800485","0.0-110.0","5bd914e9a0e4d80001a405a0","64dd6d97244bafd804925467","","","","","null","","null","key","null","16.6375","500","250","br","10","2","0","-4","14","-5","218"
"","psychophysics","111","808488","0.0-111.0","5bd914e9a0e4d80001a405a0","64dd6d97244bafd804925467","","","","","null","","null","key","null","16.6008316008316","500","250","br","18","2","0","-9","4","-20","241"
"","psychophysics","112","816491","0.0-112.0","5bd914e9a0e4d80001a405a0","64dd6d97244bafd804925467","","","","","null","","null","key","null","16.604989604989605","500","250","br","13","2","0","-19","-27","17","287"
"","psychophysics","113","824492","0.0-113.0","5bd914e9a0e4d80001a405a0","64dd6d97244bafd804925467","","","","","null","","null","key","null","16.602910602910605","500","250","br","9","2","0","9","-17","-6","228"
"","psychophysics","114","832495","0.0-114.0","5bd914e9a0e4d80001a405a0","64dd6d97244bafd804925467","","","","","null","","null","key","null","16.58212058212058","500","250","br","15","2","0","16","-29","-4","238"
"","psychophysics","115","840497","0.0-115.0","5bd914e9a0e4d80001a405a0","64dd6d97244bafd804925467","","","","","null","","null","key","null","16.602910602910605","500","250","br","11","2","0","-30","5","5","290"
"","psychophysics","116","848500","0.0-116.0","5bd914e9a0e4d80001a405a0","64dd6d97244bafd804925467","","","","","null","","null","key","null","16.602910602910605","500","250","br","17","2","0","-15","19","-24","260"
"","psychophysics","117","856503","0.0-117.0","5bd914e9a0e4d80001a405a0","64dd6d97244bafd804925467","","","","","null","","null","key","null","16.604989604989605","500","250","br","15","2","0","-21","-13","-22","202"
"","psychophysics","118","864506","0.0-118.0","5bd914e9a0e4d80001a405a0","64dd6d97244bafd804925467","","","","","null","","null","key","null","16.602910602910605","500","250","br","18","2","0","-11","-8","-8","266"
"","psychophysics","119","872508","0.0-119.0","5bd914e9a0e4d80001a405a0","64dd6d97244bafd804925467","","","","","null","","null","key","null","16.6008316008316","500","250","br","13","2","0","-6","-14","-9","283"
"","psychophysics","120","880512","0.0-120.0","5bd914e9a0e4d80001a405a0","64dd6d97244bafd804925467","","","","","null","","null","key","null","16.6008316008316","500","250","br","12","2","0","-25","-7","-28","241"
"","psychophysics","121","896452","0.0-121.0","5bd914e9a0e4d80001a405a0","64dd6d97244bafd804925467","","","","","15935",""," ","key"," ","16.67329842931937","500","250","inst","","","","","","",""
"","psychophysics","122","898657","0.0-122.0","5bd914e9a0e4d80001a405a0","64dd6d97244bafd804925467","","","","","2203",""," ","key"," ","16.666666666666668","500","250","instPz1","25","1","","","","25","50"
"","psychophysics","123","909626","0.0-123.0","5bd914e9a0e4d80001a405a0","64dd6d97244bafd804925467","","","","","10966",""," ","key"," ","16.671232876712327","500","250","instPz2","23","1","","","","35","20"
"","psychophysics","124","912258","0.0-124.0","5bd914e9a0e4d80001a405a0","64dd6d97244bafd804925467","","","","","2626",""," ","key"," ","16.666666666666668","500","250","instPz3","100","1","","","","100","30"
"","psychophysics","125","931373","0.0-125.0","5bd914e9a0e4d80001a405a0","64dd6d97244bafd804925467","","","","","19109",""," ","key"," ","16.668411867364746","500","250","instPz4","78","1","","","","100","30"
"","psychophysics","126","932317","0.0-126.0","5bd914e9a0e4d80001a405a0","64dd6d97244bafd804925467","","","","","942",""," ","key"," ","16.660714285714285","500","250","inst","","","","","","",""
"","psychophysics","127","940322","0.0-127.0","5bd914e9a0e4d80001a405a0","64dd6d97244bafd804925467","","","","","null","","null","key","null","16.6008316008316","500","250","pz","85","1","1","","","47","46"
"","psychophysics","128","948328","0.0-128.0","5bd914e9a0e4d80001a405a0","64dd6d97244bafd804925467","","","","","null","","null","key","null","16.602910602910605","500","250","pz","85","1","1","","","49","42"
"","psychophysics","129","956333","0.0-129.0","5bd914e9a0e4d80001a405a0","64dd6d97244bafd804925467","","","","","null","","null","key","null","16.586278586278585","500","250","pz","42","1","1","","","60","23"
"","psychophysics","130","964339","0.0-130.0","5bd914e9a0e4d80001a405a0","64dd6d97244bafd804925467","","","","","null","","null","key","null","16.586278586278585","500","250","pz","46","1","1","","","33","28"
"","psychophysics","131","972344","0.0-131.0","5bd914e9a0e4d80001a405a0","64dd6d97244bafd804925467","","","","","null","","null","key","null","16.598752598752597","500","250","pz","106","1","1","","","27","53"
"","psychophysics","132","980350","0.0-132.0","5bd914e9a0e4d80001a405a0","64dd6d97244bafd804925467","","","","","null","","null","key","null","16.59128630705394","500","250","pz","106","1","1","","","42","56"
"","psychophysics","133","988356","0.0-133.0","5bd914e9a0e4d80001a405a0","64dd6d97244bafd804925467","","","","","null","","null","key","null","16.596673596673597","500","250","pz","58","1","1","","","39","27"
"","psychophysics","134","996361","0.0-134.0","5bd914e9a0e4d80001a405a0","64dd6d97244bafd804925467","","","","","null","","null","key","null","16.592515592515593","500","250","pz","67","1","1","","","35","31"
"","psychophysics","135","1004369","0.0-135.0","5bd914e9a0e4d80001a405a0","64dd6d97244bafd804925467","","","","","null","","null","key","null","16.58835758835759","500","250","pz","107","1","1","","","44","59"
"","psychophysics","136","1012375","0.0-136.0","5bd914e9a0e4d80001a405a0","64dd6d97244bafd804925467","","","","","null","","null","key","null","16.598752598752597","500","250","pz","85","1","1","","","23","51"
"","psychophysics","137","1020381","0.0-137.0","5bd914e9a0e4d80001a405a0","64dd6d97244bafd804925467","","","","","null","","null","key","null","16.593360995850624","500","250","pz","42","1","1","","","57","23"
"","psychophysics","138","1028386","0.0-138.0","5bd914e9a0e4d80001a405a0","64dd6d97244bafd804925467","","","","","null","","null","key","null","16.598752598752597","500","250","pz","60","1","1","","","42","29"
"","psychophysics","139","1036393","0.0-139.0","5bd914e9a0e4d80001a405a0","64dd6d97244bafd804925467","","","","","null","","null","key","null","16.59043659043659","500","250","pz","41","1","1","","","25","20"
"","psychophysics","140","1044399","0.0-140.0","5bd914e9a0e4d80001a405a0","64dd6d97244bafd804925467","","","","","null","","null","key","null","16.584199584199585","500","250","pz","104","1","1","","","47","57"
"","psychophysics","141","1052405","0.0-141.0","5bd914e9a0e4d80001a405a0","64dd6d97244bafd804925467","","","","","null","","null","key","null","16.6008316008316","500","250","pz","61","1","1","","","47","31"
"","psychophysics","142","1069783","0.0-142.0","5bd914e9a0e4d80001a405a0","64dd6d97244bafd804925467","","","","","17372",""," ","key"," ","16.670825335892513","500","250","inst","","","","","","",""
"","psychophysics","143","1083654","0.0-143.0","5bd914e9a0e4d80001a405a0","64dd6d97244bafd804925467","","","","","13868",""," ","key"," ","16.67148014440433","500","250","instZol1","0.09999999999999976","","","0","0","-1.3",""
"","psychophysics","144","1099067","0.0-144.0","5bd914e9a0e4d80001a405a0","64dd6d97244bafd804925467","","","","","15410",""," ","key"," ","16.672806067172264","500","250","instZol2","0.9000000000000006","1","","0","0","2",""
"","psychophysics","145","1100124","0.0-145.0","5bd914e9a0e4d80001a405a0","64dd6d97244bafd804925467","","","","","1056",""," ","key"," ","16.650793650793652","500","250","inst","","","","","","",""
"","psychophysics","146","1108127","0.0-146.0","5bd914e9a0e4d80001a405a0","64dd6d97244bafd804925467","","","","","null","","null","key","null","16.6008316008316","500","250","zol","1.07","1","1","-24","-7","0.43",""
"","psychophysics","147","1116129","0.0-147.0","5bd914e9a0e4d80001a405a0","64dd6d97244bafd804925467","","","","","null","","null","key","null","16.602910602910605","500","250","zol","1.2200000000000002","1","1","29","1","0.38",""
"","psychophysics","148","1124131","0.0-148.0","5bd914e9a0e4d80001a405a0","64dd6d97244bafd804925467","","","","","null","","null","key","null","16.6008316008316","500","250","zol","1.1500000000000001","1","1","-30","-19","-0.45",""
"","psychophysics","149","1132136","0.0-149.0","5bd914e9a0e4d80001a405a0","64dd6d97244bafd804925467","","","","","null","","null","key","null","16.598752598752597","500","250","zol","1.0399999999999998","1","1","22","11","0.66",""
"","psychophysics","150","1140138","0.0-150.0","5bd914e9a0e4d80001a405a0","64dd6d97244bafd804925467","","","","","null","","null","key","null","16.602910602910605","500","250","zol","0.9899999999999999","1","1","28","-14","0.51",""
"","psychophysics","151","1148140","0.0-151.0","5bd914e9a0e4d80001a405a0","64dd6d97244bafd804925467","","","","","null","","null","key","null","16.604989604989605","500","250","zol","1.3400000000000003","1","1","-29","-5","0.36",""
"","psychophysics","152","1156143","0.0-152.0","5bd914e9a0e4d80001a405a0","64dd6d97244bafd804925467","","","","","null","","null","key","null","16.602910602910605","500","250","zol","1.15","1","1","22","-18","-0.35",""
"","psychophysics","153","1164146","0.0-153.0","5bd914e9a0e4d80001a405a0","64dd6d97244bafd804925467","","","","","null","","null","key","null","16.6008316008316","500","250","zol","0.6699999999999999","1","1","29","28","0.03",""
"","psychophysics","154","1172148","0.0-154.0","5bd914e9a0e4d80001a405a0","64dd6d97244bafd804925467","","","","","null","","null","key","null","16.602910602910605","500","250","zol","1.0899999999999999","1","1","-11","7","0.01",""
"","psychophysics","155","1180151","0.0-155.0","5bd914e9a0e4d80001a405a0","64dd6d97244bafd804925467","","","","","null","","null","key","null","16.602910602910605","500","250","zol","1.5600000000000005","1","1","28","13","-0.66",""
"","psychophysics","156","1188155","0.0-156.0","5bd914e9a0e4d80001a405a0","64dd6d97244bafd804925467","","","","","null","","null","key","null","16.6008316008316","500","250","zol","0.98","1","1","8","28","0.42",""
"","psychophysics","157","1196157","0.0-157.0","5bd914e9a0e4d80001a405a0","64dd6d97244bafd804925467","","","","","null","","null","key","null","16.598752598752597","500","250","zol","1.25","1","1","-30","27","0.25",""
"","psychophysics","158","1204160","0.0-158.0","5bd914e9a0e4d80001a405a0","64dd6d97244bafd804925467","","","","","null","","null","key","null","16.6008316008316","500","250","zol","1.5100000000000005","1","1","1","24","-0.71",""
"","psychophysics","159","1212162","0.0-159.0","5bd914e9a0e4d80001a405a0","64dd6d97244bafd804925467","","","","","null","","null","key","null","16.602910602910605","500","250","zol","0.6900000000000001","1","1","-3","-5","0.41",""
"","psychophysics","160","1220165","0.0-160.0","5bd914e9a0e4d80001a405a0","64dd6d97244bafd804925467","","","","","null","","null","key","null","16.6008316008316","500","250","zol","1.4100000000000004","1","1","-10","-30","-0.11",""
"","psychophysics","161","1221716","0.0-161.0","5bd914e9a0e4d80001a405a0","64dd6d97244bafd804925467","","","","","1546",""," ","key"," ","16.66304347826087","500","250","inst","","","","","","",""
"","psychophysics","162","1223673","0.0-162.0","5bd914e9a0e4d80001a405a0","64dd6d97244bafd804925467","","","","","1955",""," ","key"," ","16.67241379310345","500","250","instPog0","190","1","","0","0","190","160"
"","psychophysics","163","1233854","0.0-163.0","5bd914e9a0e4d80001a405a0","64dd6d97244bafd804925467","","","","","10178",""," ","key"," ","16.672131147540984","500","250","instPog1","174","1","","0","0","190","160"
"","psychophysics","164","1251248","0.0-164.0","5bd914e9a0e4d80001a405a0","64dd6d97244bafd804925467","","","","","17391",""," ","key"," ","16.669865642994242","500","250","instPog2","178","1","","0","0","160","160"
"","psychophysics","165","1252102","0.0-165.0","5bd914e9a0e4d80001a405a0","64dd6d97244bafd804925467","","","","","853",""," ","key"," ","16.7","500","250","inst","","","","","","",""
"","psychophysics","166","1260105","0.0-166.0","5bd914e9a0e4d80001a405a0","64dd6d97244bafd804925467","","","","","null","","null","key","null","16.604989604989605","500","250","pog","207","1","1","0","0","199","185"
"","psychophysics","167","1268108","0.0-167.0","5bd914e9a0e4d80001a405a0","64dd6d97244bafd804925467","","","","","null","","null","key","null","16.602910602910605","500","250","pog","216","1","1","0","0","216","191"
"","psychophysics","168","1276111","0.0-168.0","5bd914e9a0e4d80001a405a0","64dd6d97244bafd804925467","","","","","null","","null","key","null","16.604989604989605","500","250","pog","156","1","1","0","0","150","136"
"","psychophysics","169","1284112","0.0-169.0","5bd914e9a0e4d80001a405a0","64dd6d97244bafd804925467","","","","","null","","null","key","null","16.6008316008316","500","250","pog","177","1","1","0","0","127","159"
"","psychophysics","170","1292116","0.0-170.0","5bd914e9a0e4d80001a405a0","64dd6d97244bafd804925467","","","","","null","","null","key","null","16.596673596673597","500","250","pog","209","1","1","0","0","141","193"
"","psychophysics","171","1300119","0.0-171.0","5bd914e9a0e4d80001a405a0","64dd6d97244bafd804925467","","","","","null","","null","key","null","16.584199584199585","500","250","pog","154","1","1","0","0","146","144"
"","psychophysics","172","1308121","0.0-172.0","5bd914e9a0e4d80001a405a0","64dd6d97244bafd804925467","","","","","null","","null","key","null","16.602910602910605","500","250","pog","143","1","1","0","0","153","126"
"","psychophysics","173","1316125","0.0-173.0","5bd914e9a0e4d80001a405a0","64dd6d97244bafd804925467","","","","","null","","null","key","null","16.602910602910605","500","250","pog","177","1","1","0","0","171","158"
"","psychophysics","174","1324128","0.0-174.0","5bd914e9a0e4d80001a405a0","64dd6d97244bafd804925467","","","","","null","","null","key","null","16.602910602910605","500","250","pog","166","1","1","0","0","198","149"
"","psychophysics","175","1332131","0.0-175.0","5bd914e9a0e4d80001a405a0","64dd6d97244bafd804925467","","","","","null","","null","key","null","16.6008316008316","500","250","pog","149","1","1","0","0","203","128"
"","psychophysics","176","1340133","0.0-176.0","5bd914e9a0e4d80001a405a0","64dd6d97244bafd804925467","","","","","null","","null","key","null","16.6008316008316","500","250","pog","157","1","1","0","0","153","145"
"","psychophysics","177","1348137","0.0-177.0","5bd914e9a0e4d80001a405a0","64dd6d97244bafd804925467","","","","","null","","null","key","null","16.6008316008316","500","250","pog","166","1","1","0","0","164","152"
"","psychophysics","178","1356139","0.0-178.0","5bd914e9a0e4d80001a405a0","64dd6d97244bafd804925467","","","","","null","","null","key","null","16.6008316008316","500","250","pog","190","1","1","0","0","196","175"
"","psychophysics","179","1364142","0.0-179.0","5bd914e9a0e4d80001a405a0","64dd6d97244bafd804925467","","","","","null","","null","key","null","16.602910602910605","500","250","pog","146","1","1","0","0","170","130"
"","psychophysics","180","1372143","0.0-180.0","5bd914e9a0e4d80001a405a0","64dd6d97244bafd804925467","","","","","null","","null","key","null","16.602910602910605","500","250","pog","155","1","1","0","0","157","140"
"","psychophysics","181","1373705","0.0-181.0","5bd914e9a0e4d80001a405a0","64dd6d97244bafd804925467","","","","","1556",""," ","key"," ","16.666666666666668","500","250","inst","","","","","","",""
"","psychophysics","182","1375854","0.0-182.0","5bd914e9a0e4d80001a405a0","64dd6d97244bafd804925467","","","","","2148",""," ","key"," ","16.671875","500","250","instEB1","80","1","","0","0","80","70"
"","psychophysics","183","1379442","0.0-183.0","5bd914e9a0e4d80001a405a0","64dd6d97244bafd804925467","","","","","3586",""," ","key"," ","16.672897196261683","500","250","instEB2","80","1","","0","0","80","65"
"","psychophysics","184","1391165","0.0-184.0","5bd914e9a0e4d80001a405a0","64dd6d97244bafd804925467","","","","","11720",""," ","key"," ","16.672364672364672","500","250","instEB3","79","1","","0","0","65","80"
"","psychophysics","185","1399445","0.0-185.0","5bd914e9a0e4d80001a405a0","64dd6d97244bafd804925467","","","","","8278",""," ","key"," ","16.671370967741936","500","250","instEB4","63","1","","0","0","70","65"
"","psychophysics","186","1400401","0.0-186.0","5bd914e9a0e4d80001a405a0","64dd6d97244bafd804925467","","","","","954",""," ","key"," ","16.678571428571427","500","250","inst","","","","","","",""
"","psychophysics","187","1408404","0.0-187.0","5bd914e9a0e4d80001a405a0","64dd6d97244bafd804925467","","","","","null","","null","key","null","16.604989604989605","500","250","eb","78","1","1","0","0","86","84"
"","psychophysics","188","1416406","0.0-188.0","5bd914e9a0e4d80001a405a0","64dd6d97244bafd804925467","","","","","null","","null","key","null","16.602910602910605","500","250","eb","81","1","1","0","0","87","84"
"","psychophysics","189","1424409","0.0-189.0","5bd914e9a0e4d80001a405a0","64dd6d97244bafd804925467","","","","","null","","null","key","null","16.602910602910605","500","250","eb","80","1","1","0","0","87","79"
"","psychophysics","190","1432412","0.0-190.0","5bd914e9a0e4d80001a405a0","64dd6d97244bafd804925467","","","","","null","","null","key","null","16.6008316008316","500","250","eb","77","1","1","0","0","82","82"
"","psychophysics","191","1440416","0.0-191.0","5bd914e9a0e4d80001a405a0","64dd6d97244bafd804925467","","","","","null","","null","key","null","16.604989604989605","500","250","eb","56","1","1","0","0","67","63"
"","psychophysics","192","1448419","0.0-192.0","5bd914e9a0e4d80001a405a0","64dd6d97244bafd804925467","","","","","null","","null","key","null","16.602910602910605","500","250","eb","77","1","1","0","0","84","78"
"","psychophysics","193","1456421","0.0-193.0","5bd914e9a0e4d80001a405a0","64dd6d97244bafd804925467","","","","","null","","null","key","null","16.602910602910605","500","250","eb","77","1","1","0","0","71","84"
"","psychophysics","194","1464425","0.0-194.0","5bd914e9a0e4d80001a405a0","64dd6d97244bafd804925467","","","","","null","","null","key","null","16.6008316008316","500","250","eb","78","1","1","0","0","88","79"
"","psychophysics","195","1472428","0.0-195.0","5bd914e9a0e4d80001a405a0","64dd6d97244bafd804925467","","","","","null","","null","key","null","16.6008316008316","500","250","eb","77","1","1","0","0","65","83"
"","psychophysics","196","1480431","0.0-196.0","5bd914e9a0e4d80001a405a0","64dd6d97244bafd804925467","","","","","null","","null","key","null","16.598752598752597","500","250","eb","64","1","1","0","0","77","68"
"","psychophysics","197","1488434","0.0-197.0","5bd914e9a0e4d80001a405a0","64dd6d97244bafd804925467","","","","","null","","null","key","null","16.6008316008316","500","250","eb","73","1","1","0","0","63","85"
"","psychophysics","198","1496437","0.0-198.0","5bd914e9a0e4d80001a405a0","64dd6d97244bafd804925467","","","","","null","","null","key","null","16.598752598752597","500","250","eb","55","1","1","0","0","81","60"
"","psychophysics","199","1504440","0.0-199.0","5bd914e9a0e4d80001a405a0","64dd6d97244bafd804925467","","","","","null","","null","key","null","16.598752598752597","500","250","eb","66","1","1","0","0","85","71"
"","psychophysics","200","1512442","0.0-200.0","5bd914e9a0e4d80001a405a0","64dd6d97244bafd804925467","","","","","null","","null","key","null","16.596673596673597","500","250","eb","66","1","1","0","0","68","69"
"","psychophysics","201","1520445","0.0-201.0","5bd914e9a0e4d80001a405a0","64dd6d97244bafd804925467","","","","","null","","null","key","null","16.598752598752597","500","250","eb","78","1","1","0","0","79","81"
"","psychophysics","202","1521915","0.0-202.0","5bd914e9a0e4d80001a405a0","64dd6d97244bafd804925467","","","","","1464",""," ","key"," ","16.636363636363637","500","250","inst","","","","","","",""
"","psychophysics","203","1523512","0.0-203.0","5bd914e9a0e4d80001a405a0","64dd6d97244bafd804925467","","","","","1594",""," ","key"," ","16.670212765957448","500","250","instBr3","40","1","","0","0","40","300"
"","psychophysics","204","1524547","0.0-204.0","5bd914e9a0e4d80001a405a0","64dd6d97244bafd804925467","","","","","1033",""," ","key"," ","16.64516129032258","500","250","inst","","","","","","",""
"","psychophysics","205","1532549","0.0-205.0","5bd914e9a0e4d80001a405a0","64dd6d97244bafd804925467","","","","","null","","null","key","null","16.604166666666668","500","250","br","-11","1","1","15","-6","-11","300"
"","psychophysics","206","1540553","0.0-206.0","5bd914e9a0e4d80001a405a0","64dd6d97244bafd804925467","","","","","null","","null","key","null","16.597510373443985","500","250","br","-6","1","1","8","16","23","291"
"","psychophysics","207","1548555","0.0-207.0","5bd914e9a0e4d80001a405a0","64dd6d97244bafd804925467","","","","","null","","null","key","null","16.604166666666668","500","250","br","-11","1","1","-21","2","27","238"
"","psychophysics","208","1556558","0.0-208.0","5bd914e9a0e4d80001a405a0","64dd6d97244bafd804925467","","","","","null","","null","key","null","16.595435684647303","500","250","br","-5","1","1","-29","3","13","256"
"","psychophysics","209","1564560","0.0-209.0","5bd914e9a0e4d80001a405a0","64dd6d97244bafd804925467","","","","","null","","null","key","null","16.604166666666668","500","250","br","-13","1","1","-19","-22","-4","277"
"","psychophysics","210","1572563","0.0-210.0","5bd914e9a0e4d80001a405a0","64dd6d97244bafd804925467","","","","","null","","null","key","null","16.595435684647303","500","250","br","-13","1","1","30","-26","-26","208"
"","psychophysics","211","1580565","0.0-211.0","5bd914e9a0e4d80001a405a0","64dd6d97244bafd804925467","","","","","null","","null","key","null","16.602910602910605","500","250","br","-17","1","1","-6","7","-2","283"
"","psychophysics","212","1588568","0.0-212.0","5bd914e9a0e4d80001a405a0","64dd6d97244bafd804925467","","","","","null","","null","key","null","16.602910602910605","500","250","br","-9","1","1","20","-2","8","233"
"","psychophysics","213","1596571","0.0-213.0","5bd914e9a0e4d80001a405a0","64dd6d97244bafd804925467","","","","","null","","null","key","null","16.6008316008316","500","250","br","-5","1","1","10","-17","28","264"
"","psychophysics","214","1604573","0.0-214.0","5bd914e9a0e4d80001a405a0","64dd6d97244bafd804925467","","","","","null","","null","key","null","16.602083333333333","500","250","br","-13","1","1","-26","-8","9","292"
"","psychophysics","215","1612575","0.0-215.0","5bd914e9a0e4d80001a405a0","64dd6d97244bafd804925467","","","","","null","","null","key","null","16.596673596673597","500","250","br","-10","1","1","-4","1","13","216"
"","psychophysics","216","1620578","0.0-216.0","5bd914e9a0e4d80001a405a0","64dd6d97244bafd804925467","","","","","null","","null","key","null","16.598752598752597","500","250","br","-9","1","1","10","-27","20","298"
"","psychophysics","217","1628582","0.0-217.0","5bd914e9a0e4d80001a405a0","64dd6d97244bafd804925467","","","","","null","","null","key","null","16.595435684647303","500","250","br","-12","1","1","14","-20","14","270"
"","psychophysics","218","1636584","0.0-218.0","5bd914e9a0e4d80001a405a0","64dd6d97244bafd804925467","","","","","null","","null","key","null","16.602083333333333","500","250","br","-15","1","1","-1","17","-28","228"
"","psychophysics","219","1644587","0.0-219.0","5bd914e9a0e4d80001a405a0","64dd6d97244bafd804925467","","","","","null","","null","key","null","16.598752598752597","500","250","br","-14","1","1","-3","-4","-2","244"
