"success","trial_type","trial_index","time_elapsed","internal_node_id","pid","sid","timeout","failed_images","failed_audio","failed_video","rt","stimulus","response","response_type","key_press","avg_frame_time","center_x","center_y","task","resp","version","block","jitterX","jitterY","start","parA"
"true","fullscreen","0","3309","0.0-0.0","605cd1b167207b8209b39fee","64de8ded64d1167fafe87b9c","","","","","","","","","","","","","","","","","","","",""
"true","preload","1","3459","0.0-1.0","605cd1b167207b8209b39fee","64de8ded64d1167fafe87b9c","false","[]","[]","[]","","","","","","","","","","","","","","","",""
"","html-button-response","2","7334","0.0-2.0","605cd1b167207b8209b39fee","64de8ded64d1167fafe87b9c","","","","","3873","Please Make Sure Your Audio Is On.","0","","","","","","","","","","","","",""
"","psychophysics","3","10686","0.0-3.0","605cd1b167207b8209b39fee","64de8ded64d1167fafe87b9c","","","","","3342",""," ","key"," ","16.650298507462683","768","250","","","","","","","",""
"","psychophysics","4","19736","0.0-4.0","605cd1b167207b8209b39fee","64de8ded64d1167fafe87b9c","","","","","9047",""," ","key"," ","16.681256457564576","500","250","inst","","","","","","",""
"","psychophysics","5","22064","0.0-5.0","605cd1b167207b8209b39fee","64de8ded64d1167fafe87b9c","","","","","2324",""," ","key"," ","16.647652173913045","500","250","sample0","","","","","","",""
"","psychophysics","6","24793","0.0-6.0","605cd1b167207b8209b39fee","64de8ded64d1167fafe87b9c","","","","","2722",""," ","key"," ","16.65155214723925","500","250","sample1","","","","","","",""
"","psychophysics","7","31274","0.0-7.0","605cd1b167207b8209b39fee","64de8ded64d1167fafe87b9c","","","","","6469",""," ","key"," ","16.65016195372751","500","250","sample2","102","","","","","",""
"","psychophysics","8","37953","0.0-8.0","605cd1b167207b8209b39fee","64de8ded64d1167fafe87b9c","","","","","6675",""," ","key"," ","16.64954749999999","500","250","sample3","102","","","","","",""
"","psychophysics","9","43834","0.0-9.0","605cd1b167207b8209b39fee","64de8ded64d1167fafe87b9c","","","","","5876",""," ","key"," ","16.65110227272728","500","250","sample4","104","","","","","",""
"","psychophysics","10","46019","0.0-10.0","605cd1b167207b8209b39fee","64de8ded64d1167fafe87b9c","","","","","2182",""," ","key"," ","16.650238461538425","500","250","sample5","","","","","","",""
"","psychophysics","11","54035","0.0-11.0","605cd1b167207b8209b39fee","64de8ded64d1167fafe87b9c","","","","","8013",""," ","key"," ","16.65054261954262","500","250","sample6","500","","","","","",""
"","psychophysics","12","62882","0.0-12.0","605cd1b167207b8209b39fee","64de8ded64d1167fafe87b9c","","","","","8844",""," ","key"," ","16.65047924528302","500","250","inst","","","","","","",""
"","psychophysics","13","65570","0.0-13.0","605cd1b167207b8209b39fee","64de8ded64d1167fafe87b9c","","","","","2685",""," ","key"," ","16.65053124999995","500","250","inst","","","","","","",""
"","psychophysics","14","68174","0.0-14.0","605cd1b167207b8209b39fee","64de8ded64d1167fafe87b9c","","","","","2597",""," ","key"," ","16.65246794871797","500","250","inst","","","","","","",""
"","psychophysics","15","70128","0.0-15.0","605cd1b167207b8209b39fee","64de8ded64d1167fafe87b9c","","","","","1951",""," ","key"," ","16.649258620689643","500","250","inst","","","","","","",""
"","psychophysics","16","72331","0.0-16.0","605cd1b167207b8209b39fee","64de8ded64d1167fafe87b9c","","","","","2200",""," ","key"," ","16.65023664122135","500","250","inst","","","","","","",""
"","psychophysics","17","79151","0.0-17.0","605cd1b167207b8209b39fee","64de8ded64d1167fafe87b9c","","","","","6813",""," ","key"," ","16.650801955990218","500","250","instBr0","0","","","0","0","0","300"
"","psychophysics","18","87847","0.0-18.0","605cd1b167207b8209b39fee","64de8ded64d1167fafe87b9c","","","","","8690",""," ","key"," ","16.650500959692913","500","250","instBr1","-10","","","0","0","-40","300"
"","psychophysics","19","101831","0.0-19.0","605cd1b167207b8209b39fee","64de8ded64d1167fafe87b9c","","","","","13978",""," ","key"," ","16.670276849642","500","250","instBr3","17","2","","0","0","40","300"
"","psychophysics","20","105485","0.0-20.0","605cd1b167207b8209b39fee","64de8ded64d1167fafe87b9c","","","","","3651",""," ","key"," ","16.651063926940633","500","250","inst","","","","","","",""
"","psychophysics","21","109831","0.0-21.0","605cd1b167207b8209b39fee","64de8ded64d1167fafe87b9c","","","","","4339",""," ","key"," ","16.651080769230724","500","250","br","15","2","0","-8","19","8","269"
"","psychophysics","22","115649","0.0-22.0","605cd1b167207b8209b39fee","64de8ded64d1167fafe87b9c","","","","","5815",""," ","key"," ","16.651103448275826","500","250","br","7","2","0","27","30","-11","272"
"","psychophysics","23","122227","0.0-23.0","605cd1b167207b8209b39fee","64de8ded64d1167fafe87b9c","","","","","6573",""," ","key"," ","16.650340101522833","500","250","br","11","2","0","6","16","-9","275"
"","psychophysics","24","126726","0.0-24.0","605cd1b167207b8209b39fee","64de8ded64d1167fafe87b9c","","","","","4494",""," ","key"," ","16.650817843866196","500","250","br","11","2","0","-6","-1","9","218"
"","psychophysics","25","132070","0.0-25.0","605cd1b167207b8209b39fee","64de8ded64d1167fafe87b9c","","","","","5337",""," ","key"," ","16.651009374999965","500","250","br","9","2","0","-22","-6","-3","281"
"","psychophysics","26","140078","0.0-26.0","605cd1b167207b8209b39fee","64de8ded64d1167fafe87b9c","","","","","null","","null","key","null","16.650839583333315","500","250","br","3","2","0","27","15","-23","250"
"","psychophysics","27","142879","0.0-27.0","605cd1b167207b8209b39fee","64de8ded64d1167fafe87b9c","","","","","2797",""," ","key"," ","16.65143712574855","500","250","br","19","2","0","-29","-5","19","291"
"","psychophysics","28","147939","0.0-28.0","605cd1b167207b8209b39fee","64de8ded64d1167fafe87b9c","","","","","5053",""," ","key"," ","16.65127062706268","500","250","br","8","2","0","6","-25","5","294"
"","psychophysics","29","152571","0.0-29.0","605cd1b167207b8209b39fee","64de8ded64d1167fafe87b9c","","","","","4625",""," ","key"," ","16.651611510791422","500","250","br","11","2","0","18","6","27","256"
"","psychophysics","30","158248","0.0-30.0","605cd1b167207b8209b39fee","64de8ded64d1167fafe87b9c","","","","","5673",""," ","key"," ","16.64970588235301","500","250","br","0","2","0","-16","5","-18","219"
"","psychophysics","31","162403","0.0-31.0","605cd1b167207b8209b39fee","64de8ded64d1167fafe87b9c","","","","","4151",""," ","key"," ","16.650141129032203","500","250","br","12","2","0","11","8","17","223"
"","psychophysics","32","168943","0.0-32.0","605cd1b167207b8209b39fee","64de8ded64d1167fafe87b9c","","","","","6536",""," ","key"," ","16.649844387755106","500","250","br","2","2","0","-3","14","-29","200"
"","psychophysics","33","173121","0.0-33.0","605cd1b167207b8209b39fee","64de8ded64d1167fafe87b9c","","","","","4174",""," ","key"," ","16.64977600000007","500","250","br","9","2","0","22","4","3","271"
"","psychophysics","34","178280","0.0-34.0","605cd1b167207b8209b39fee","64de8ded64d1167fafe87b9c","","","","","5154",""," ","key"," ","16.651278317152087","500","250","br","2","2","0","-5","-25","-10","235"
"","psychophysics","35","184432","0.0-35.0","605cd1b167207b8209b39fee","64de8ded64d1167fafe87b9c","","","","","6147",""," ","key"," ","16.650244565217413","500","250","br","14","2","0","18","-18","21","212"
"","psychophysics","36","187267","0.0-36.0","605cd1b167207b8209b39fee","64de8ded64d1167fafe87b9c","","","","","2832",""," ","key"," ","16.64997633136089","500","250","inst","","","","","","",""
"","psychophysics","37","197057","0.0-37.0","605cd1b167207b8209b39fee","64de8ded64d1167fafe87b9c","","","","","9782",""," ","key"," ","16.65045485519588","500","250","instPog0","340","2","","0","0","370","340"
"","psychophysics","38","204494","0.0-38.0","605cd1b167207b8209b39fee","64de8ded64d1167fafe87b9c","","","","","7430",""," ","key"," ","16.650982062780244","500","250","instPog1","352","2","","0","0","370","340"
"","psychophysics","39","213206","0.0-39.0","605cd1b167207b8209b39fee","64de8ded64d1167fafe87b9c","","","","","8708",""," ","key"," ","16.650084291187706","500","250","instPog2","336","2","","0","0","340","340"
"","psychophysics","40","215955","0.0-40.0","605cd1b167207b8209b39fee","64de8ded64d1167fafe87b9c","","","","","2747",""," ","key"," ","16.651182926829236","500","250","inst","","","","","","",""
"","psychophysics","41","219229","0.0-41.0","605cd1b167207b8209b39fee","64de8ded64d1167fafe87b9c","","","","","3267",""," ","key"," ","16.651530612244958","500","250","pog","287","2","0","0","0","281","307"
"","psychophysics","42","225193","0.0-42.0","605cd1b167207b8209b39fee","64de8ded64d1167fafe87b9c","","","","","5961",""," ","key"," ","16.650047619047648","500","250","pog","350","2","0","0","0","330","371"
"","psychophysics","43","232309","0.0-43.0","605cd1b167207b8209b39fee","64de8ded64d1167fafe87b9c","","","","","7113",""," ","key"," ","16.65097892271661","500","250","pog","284","2","0","0","0","394","300"
"","psychophysics","44","235875","0.0-44.0","605cd1b167207b8209b39fee","64de8ded64d1167fafe87b9c","","","","","3562",""," ","key"," ","16.64918309859147","500","250","pog","298","2","0","0","0","288","320"
"","psychophysics","45","240501","0.0-45.0","605cd1b167207b8209b39fee","64de8ded64d1167fafe87b9c","","","","","4623",""," ","key"," ","16.64918411552344","500","250","pog","283","2","0","0","0","309","302"
"","psychophysics","46","247678","0.0-46.0","605cd1b167207b8209b39fee","64de8ded64d1167fafe87b9c","","","","","7174",""," ","key"," ","16.65038604651162","500","250","pog","355","2","0","0","0","323","373"
"","psychophysics","47","250932","0.0-47.0","605cd1b167207b8209b39fee","64de8ded64d1167fafe87b9c","","","","","3251",""," ","key"," ","16.650298969072143","500","250","pog","349","2","0","0","0","323","374"
"","psychophysics","48","256186","0.0-48.0","605cd1b167207b8209b39fee","64de8ded64d1167fafe87b9c","","","","","5251",""," ","key"," ","16.650279365079328","500","250","pog","328","2","0","0","0","380","342"
"","psychophysics","49","262436","0.0-49.0","605cd1b167207b8209b39fee","64de8ded64d1167fafe87b9c","","","","","6247",""," ","key"," ","16.649828877005252","500","250","pog","351","2","0","0","0","391","371"
"","psychophysics","50","265467","0.0-50.0","605cd1b167207b8209b39fee","64de8ded64d1167fafe87b9c","","","","","3028",""," ","key"," ","16.648215469613206","500","250","pog","293","2","0","0","0","319","305"
"","psychophysics","51","269739","0.0-51.0","605cd1b167207b8209b39fee","64de8ded64d1167fafe87b9c","","","","","4269",""," ","key"," ","16.650546874999918","500","250","pog","291","2","0","0","0","301","300"
"","psychophysics","52","275551","0.0-52.0","605cd1b167207b8209b39fee","64de8ded64d1167fafe87b9c","","","","","5809",""," ","key"," ","16.65047126436782","500","250","pog","333","2","0","0","0","303","365"
"","psychophysics","53","281207","0.0-53.0","605cd1b167207b8209b39fee","64de8ded64d1167fafe87b9c","","","","","5653",""," ","key"," ","16.65018639053265","500","250","pog","349","2","0","0","0","319","379"
"","psychophysics","54","286728","0.0-54.0","605cd1b167207b8209b39fee","64de8ded64d1167fafe87b9c","","","","","5514",""," ","key"," ","16.650407854984817","500","250","pog","356","2","0","0","0","318","374"
"","psychophysics","55","293729","0.0-55.0","605cd1b167207b8209b39fee","64de8ded64d1167fafe87b9c","","","","","6998",""," ","key"," ","16.65062291169445","500","250","pog","306","2","0","0","0","380","321"
"","psychophysics","56","295409","0.0-56.0","605cd1b167207b8209b39fee","64de8ded64d1167fafe87b9c","","","","","1674",""," ","key"," ","16.652889999999896","500","250","inst","","","","","","",""
"","psychophysics","57","299504","0.0-57.0","605cd1b167207b8209b39fee","64de8ded64d1167fafe87b9c","","","","","4089",""," ","key"," ","16.650351020408205","500","250","instZol0","-0.1","","","0","0","0",""
"","psychophysics","58","305612","0.0-58.0","605cd1b167207b8209b39fee","64de8ded64d1167fafe87b9c","","","","","6104",""," ","key"," ","16.65095081967219","500","250","instZol1","-2.7755575615628914e-17","","","0","0","-1.3",""
"","psychophysics","59","311924","0.0-59.0","605cd1b167207b8209b39fee","64de8ded64d1167fafe87b9c","","","","","6305",""," ","key"," ","16.650809523809507","500","250","instZol2","1.400000000000001","1","","0","0","2",""
"","psychophysics","60","313281","0.0-60.0","605cd1b167207b8209b39fee","64de8ded64d1167fafe87b9c","","","","","1355",""," ","key"," ","16.651419753085875","500","250","inst","","","","","","",""
"","psychophysics","61","320472","0.0-61.0","605cd1b167207b8209b39fee","64de8ded64d1167fafe87b9c","","","","","7186",""," ","key"," ","16.649575406032493","500","250","zol","1.17","1","0","26","16","0.33",""
"","psychophysics","62","326183","0.0-62.0","605cd1b167207b8209b39fee","64de8ded64d1167fafe87b9c","","","","","5705",""," ","key"," ","16.65014912280709","500","250","zol","2.0500000000000007","1","0","21","30","-0.35",""
"","psychophysics","63","331507","0.0-63.0","605cd1b167207b8209b39fee","64de8ded64d1167fafe87b9c","","","","","5316",""," ","key"," ","16.650062893081675","500","250","zol","1.8300000000000007","1","0","16","-13","-0.23",""
"","psychophysics","64","339516","0.0-64.0","605cd1b167207b8209b39fee","64de8ded64d1167fafe87b9c","","","","","null","","null","key","null","16.650720833333374","500","250","zol","2.0000000000000004","1","0","14","21","-0.4",""
"","psychophysics","65","340187","0.0-65.0","605cd1b167207b8209b39fee","64de8ded64d1167fafe87b9c","","","","","665",""," ","key"," ","16.653897435896887","500","250","zol","0.46","1","0","11","-1","-0.46",""
"","psychophysics","66","346445","0.0-66.0","605cd1b167207b8209b39fee","64de8ded64d1167fafe87b9c","","","","","6250",""," ","key"," ","16.650946666666616","500","250","zol","0.8799999999999998","1","0","-15","-20","0.72",""
"","psychophysics","67","354095","0.0-67.0","605cd1b167207b8209b39fee","64de8ded64d1167fafe87b9c","","","","","7642",""," ","key"," ","16.650291938997942","500","250","zol","0.9999999999999999","1","0","-21","16","0.3",""
"","psychophysics","68","361211","0.0-68.0","605cd1b167207b8209b39fee","64de8ded64d1167fafe87b9c","","","","","7109",""," ","key"," ","16.650791079812123","500","250","zol","0.9999999999999999","1","0","-21","20","-0.6",""
"","psychophysics","69","364298","0.0-69.0","605cd1b167207b8209b39fee","64de8ded64d1167fafe87b9c","","","","","3077",""," ","key"," ","16.650508108108014","500","250","zol","1.3400000000000003","1","0","3","26","0.36",""
"","psychophysics","70","369235","0.0-70.0","605cd1b167207b8209b39fee","64de8ded64d1167fafe87b9c","","","","","4931",""," ","key"," ","16.650128813559324","500","250","zol","1.3800000000000001","1","0","-23","21","0.22",""
"","psychophysics","71","377245","0.0-71.0","605cd1b167207b8209b39fee","64de8ded64d1167fafe87b9c","","","","","null","","null","key","null","16.650354166666634","500","250","zol","0.9599999999999999","1","0","-13","-21","0.24",""
"","psychophysics","72","377394","0.0-72.0","605cd1b167207b8209b39fee","64de8ded64d1167fafe87b9c","","","","","142",""," ","key"," ","16.645000000004075","500","250","zol","0.17","1","0","-16","14","-0.17",""
"","psychophysics","73","384155","0.0-73.0","605cd1b167207b8209b39fee","64de8ded64d1167fafe87b9c","","","","","6752",""," ","key"," ","16.650483950617275","500","250","zol","0.58","1","0","26","22","0.62",""
"","psychophysics","74","392086","0.0-74.0","605cd1b167207b8209b39fee","64de8ded64d1167fafe87b9c","","","","","7920",""," ","key"," ","16.650854736842142","500","250","zol","0.13000000000000017","1","0","21","-27","0.47",""
"","psychophysics","75","397233","0.0-75.0","605cd1b167207b8209b39fee","64de8ded64d1167fafe87b9c","","","","","5138",""," ","key"," ","16.65017152103557","500","250","zol","0.22000000000000003","1","0","22","1","-0.02",""
"","psychophysics","76","398975","0.0-76.0","605cd1b167207b8209b39fee","64de8ded64d1167fafe87b9c","","","","","1740",""," ","key"," ","16.650485436893202","500","250","inst","","","","","","",""
"","psychophysics","77","401361","0.0-77.0","605cd1b167207b8209b39fee","64de8ded64d1167fafe87b9c","","","","","2379",""," ","key"," ","16.65210489510482","500","250","instEB0","40","2","","0","0","40","40"
"","psychophysics","78","408928","0.0-78.0","605cd1b167207b8209b39fee","64de8ded64d1167fafe87b9c","","","","","7565",""," ","key"," ","16.650905077262664","500","250","instEB1","37","2","","0","0","30","40"
"","psychophysics","79","417544","0.0-79.0","605cd1b167207b8209b39fee","64de8ded64d1167fafe87b9c","","","","","8611",""," ","key"," ","16.650121856866562","500","250","instEB2","37","2","","0","0","40","30"
"","psychophysics","80","425758","0.0-80.0","605cd1b167207b8209b39fee","64de8ded64d1167fafe87b9c","","","","","8210",""," ","key"," ","16.64984552845526","500","250","instEB3","40","2","","0","0","45","27"
"","psychophysics","81","431037","0.0-81.0","605cd1b167207b8209b39fee","64de8ded64d1167fafe87b9c","","","","","5275",""," ","key"," ","16.65013291139253","500","250","instEB4","42","2","","0","0","30","40"
"","psychophysics","82","432339","0.0-82.0","605cd1b167207b8209b39fee","64de8ded64d1167fafe87b9c","","","","","1299",""," ","key"," ","16.650597402597658","500","250","inst","","","","","","",""
"","psychophysics","83","438937","0.0-83.0","605cd1b167207b8209b39fee","64de8ded64d1167fafe87b9c","","","","","6594",""," ","key"," ","16.65102784810131","500","250","eb","48","2","","0","0","48","41"
"","psychophysics","84","445471","0.0-84.0","605cd1b167207b8209b39fee","64de8ded64d1167fafe87b9c","","","","","6527",""," ","key"," ","16.650969387755083","500","250","eb","29","2","","0","0","33","24"
"","psychophysics","85","453475","0.0-85.0","605cd1b167207b8209b39fee","64de8ded64d1167fafe87b9c","","","","","null","","null","key","null","16.650608333333366","500","250","eb","48","2","","0","0","26","47"
"","psychophysics","86","453696","0.0-86.0","605cd1b167207b8209b39fee","64de8ded64d1167fafe87b9c","","","","","217",""," ","key"," ","16.630999999998796","500","250","eb","35","2","","0","0","35","30"
"","psychophysics","87","459257","0.0-87.0","605cd1b167207b8209b39fee","64de8ded64d1167fafe87b9c","","","","","5557",""," ","key"," ","16.650474474474496","500","250","eb","48","2","","0","0","26","48"
"","psychophysics","88","465082","0.0-88.0","605cd1b167207b8209b39fee","64de8ded64d1167fafe87b9c","","","","","5820",""," ","key"," ","16.650395415472648","500","250","eb","30","2","","0","0","24","27"
"","psychophysics","89","468183","0.0-89.0","605cd1b167207b8209b39fee","64de8ded64d1167fafe87b9c","","","","","3096",""," ","key"," ","16.650583783783823","500","250","eb","40","2","","0","0","41","34"
"","psychophysics","90","473712","0.0-90.0","605cd1b167207b8209b39fee","64de8ded64d1167fafe87b9c","","","","","5525",""," ","key"," ","16.64942900302118","500","250","eb","36","2","","0","0","53","31"
"","psychophysics","91","477429","0.0-91.0","605cd1b167207b8209b39fee","64de8ded64d1167fafe87b9c","","","","","3711",""," ","key"," ","16.65068468468464","500","250","eb","44","2","","0","0","41","38"
"","psychophysics","92","480835","0.0-92.0","605cd1b167207b8209b39fee","64de8ded64d1167fafe87b9c","","","","","3403",""," ","key"," ","16.650553921568857","500","250","eb","42","2","","0","0","31","37"
"","psychophysics","93","484412","0.0-93.0","605cd1b167207b8209b39fee","64de8ded64d1167fafe87b9c","","","","","3572",""," ","key"," ","16.64916822429889","500","250","eb","40","2","","0","0","35","34"
"","psychophysics","94","488676","0.0-94.0","605cd1b167207b8209b39fee","64de8ded64d1167fafe87b9c","","","","","4259",""," ","key"," ","16.650207843137313","500","250","eb","31","2","","0","0","25","28"
"","psychophysics","95","492739","0.0-95.0","605cd1b167207b8209b39fee","64de8ded64d1167fafe87b9c","","","","","4059",""," ","key"," ","16.65032510288058","500","250","eb","38","2","","0","0","33","37"
"","psychophysics","96","497519","0.0-96.0","605cd1b167207b8209b39fee","64de8ded64d1167fafe87b9c","","","","","4776",""," ","key"," ","16.64942657342669","500","250","eb","53","2","","0","0","32","51"
"","psychophysics","97","503985","0.0-97.0","605cd1b167207b8209b39fee","64de8ded64d1167fafe87b9c","","","","","6461",""," ","key"," ","16.65114211886312","500","250","eb","49","2","","0","0","35","48"
"","psychophysics","98","505753","0.0-98.0","605cd1b167207b8209b39fee","64de8ded64d1167fafe87b9c","","","","","1764",""," ","key"," ","16.648076190476285","500","250","inst","","","","","","",""
"","psychophysics","99","508139","0.0-99.0","605cd1b167207b8209b39fee","64de8ded64d1167fafe87b9c","","","","","2380",""," ","key"," ","16.65265034965054","500","250","instPzPre","50","0","","","","50","50"
"","psychophysics","100","510927","0.0-100.0","605cd1b167207b8209b39fee","64de8ded64d1167fafe87b9c","","","","","2784",""," ","key"," ","16.64819277108455","500","250","instPz0","50","2","","","","50","50"
"","psychophysics","101","517754","0.0-101.0","605cd1b167207b8209b39fee","64de8ded64d1167fafe87b9c","","","","","6824",""," ","key"," ","16.650293398532938","500","250","instPz1","47","2","","","","25","50"
"","psychophysics","102","521383","0.0-102.0","605cd1b167207b8209b39fee","64de8ded64d1167fafe87b9c","","","","","3625",""," ","key"," ","16.651433179723657","500","250","instPz2","27","2","","","","20","35"
"","psychophysics","103","534064","0.0-103.0","605cd1b167207b8209b39fee","64de8ded64d1167fafe87b9c","","","","","12674",""," ","key"," ","16.694229249011837","500","250","instPz3","97","2","","","","30","100"
"","psychophysics","104","539370","0.0-104.0","605cd1b167207b8209b39fee","64de8ded64d1167fafe87b9c","","","","","5301",""," ","key"," ","16.65016719242903","500","250","instPz4","99","2","","","","30","100"
"","psychophysics","105","541880","0.0-105.0","605cd1b167207b8209b39fee","64de8ded64d1167fafe87b9c","","","","","2503",""," ","key"," ","16.652306666666796","500","250","inst","","","","","","",""
"","psychophysics","106","547908","0.0-106.0","605cd1b167207b8209b39fee","64de8ded64d1167fafe87b9c","","","","","6024",""," ","key"," ","16.650562326869814","500","250","pz","50","2","0","","","37","56"
"","psychophysics","107","553513","0.0-107.0","605cd1b167207b8209b39fee","64de8ded64d1167fafe87b9c","","","","","5601",""," ","key"," ","16.650654761904747","500","250","pz","27","2","0","","","29","28"
"","psychophysics","108","557598","0.0-108.0","605cd1b167207b8209b39fee","64de8ded64d1167fafe87b9c","","","","","4081",""," ","key"," ","16.650860655737457","500","250","pz","37","2","0","","","36","45"
"","psychophysics","109","564633","0.0-109.0","605cd1b167207b8209b39fee","64de8ded64d1167fafe87b9c","","","","","7031",""," ","key"," ","16.651106635071073","500","250","pz","35","2","0","","","21","42"
"","psychophysics","110","571275","0.0-110.0","605cd1b167207b8209b39fee","64de8ded64d1167fafe87b9c","","","","","6637",""," ","key"," ","16.64985390428204","500","250","pz","36","2","0","","","23","42"
"","psychophysics","111","574802","0.0-111.0","605cd1b167207b8209b39fee","64de8ded64d1167fafe87b9c","","","","","3520",""," ","key"," ","16.65152132701431","500","250","pz","30","2","0","","","25","35"
"","psychophysics","112","577771","0.0-112.0","605cd1b167207b8209b39fee","64de8ded64d1167fafe87b9c","","","","","2961",""," ","key"," ","16.65165730337076","500","250","pz","29","2","0","","","30","29"
"","psychophysics","113","585777","0.0-113.0","605cd1b167207b8209b39fee","64de8ded64d1167fafe87b9c","","","","","null","","null","key","null","16.649743215031464","500","250","pz","25","2","0","","","45","28"
"","psychophysics","114","591535","0.0-114.0","605cd1b167207b8209b39fee","64de8ded64d1167fafe87b9c","","","","","5752",""," ","key"," ","16.649579710144874","500","250","pz","25","2","0","","","30","26"
"","psychophysics","115","597567","0.0-115.0","605cd1b167207b8209b39fee","64de8ded64d1167fafe87b9c","","","","","6024",""," ","key"," ","16.650889502762357","500","250","pz","37","2","0","","","48","40"
"","psychophysics","116","601417","0.0-116.0","605cd1b167207b8209b39fee","64de8ded64d1167fafe87b9c","","","","","3846",""," ","key"," ","16.650786956521664","500","250","pz","35","2","0","","","49","38"
"","psychophysics","117","604027","0.0-117.0","605cd1b167207b8209b39fee","64de8ded64d1167fafe87b9c","","","","","2605",""," ","key"," ","16.650051282051628","500","250","pz","33","2","0","","","31","38"
"","psychophysics","118","607744","0.0-118.0","605cd1b167207b8209b39fee","64de8ded64d1167fafe87b9c","","","","","3713",""," ","key"," ","16.6517432432434","500","250","pz","34","2","0","","","27","44"
"","psychophysics","119","610978","0.0-119.0","605cd1b167207b8209b39fee","64de8ded64d1167fafe87b9c","","","","","3217",""," ","key"," ","16.652020725389036","500","250","pz","28","2","0","","","29","30"
"","psychophysics","120","616117","0.0-120.0","605cd1b167207b8209b39fee","64de8ded64d1167fafe87b9c","","","","","5136",""," ","key"," ","16.650035714285746","500","250","pz","40","2","0","","","31","45"
"","psychophysics","121","617223","0.0-121.0","605cd1b167207b8209b39fee","64de8ded64d1167fafe87b9c","","","","","1103",""," ","key"," ","16.6503230769223","500","250","inst","","","","","","",""
"","psychophysics","122","624001","0.0-122.0","605cd1b167207b8209b39fee","64de8ded64d1167fafe87b9c","","","","","6775",""," ","key"," ","16.650591133004962","500","250","instPz1","54","1","","","","25","50"
"","psychophysics","123","631404","0.0-123.0","605cd1b167207b8209b39fee","64de8ded64d1167fafe87b9c","","","","","7399",""," ","key"," ","16.650966216216435","500","250","instPz2","21","1","","","","35","20"
"","psychophysics","124","642945","0.0-124.0","605cd1b167207b8209b39fee","64de8ded64d1167fafe87b9c","","","","","11537",""," ","key"," ","16.650303468208104","500","250","instPz3","39","1","","","","100","30"
"","psychophysics","125","650353","0.0-125.0","605cd1b167207b8209b39fee","64de8ded64d1167fafe87b9c","","","","","7403",""," ","key"," ","16.649585585585776","500","250","instPz4","38","1","","","","100","30"
"","psychophysics","126","651624","0.0-126.0","605cd1b167207b8209b39fee","64de8ded64d1167fafe87b9c","","","","","1268",""," ","key"," ","16.653013333332105","500","250","inst","","","","","","",""
"","psychophysics","127","659048","0.0-127.0","605cd1b167207b8209b39fee","64de8ded64d1167fafe87b9c","","","","","7420",""," ","key"," ","16.650197752808964","500","250","pz","73","1","1","","","57","58"
"","psychophysics","128","665001","0.0-128.0","605cd1b167207b8209b39fee","64de8ded64d1167fafe87b9c","","","","","5949",""," ","key"," ","16.64961904761902","500","250","pz","32","1","1","","","53","22"
"","psychophysics","129","668714","0.0-129.0","605cd1b167207b8209b39fee","64de8ded64d1167fafe87b9c","","","","","3709",""," ","key"," ","16.650315315315293","500","250","pz","30","1","1","","","44","22"
"","psychophysics","130","672847","0.0-130.0","605cd1b167207b8209b39fee","64de8ded64d1167fafe87b9c","","","","","4128",""," ","key"," ","16.650133603238803","500","250","pz","34","1","1","","","21","27"
"","psychophysics","131","679406","0.0-131.0","605cd1b167207b8209b39fee","64de8ded64d1167fafe87b9c","","","","","6556",""," ","key"," ","16.649547073791343","500","250","pz","40","1","1","","","46","32"
"","psychophysics","132","686395","0.0-132.0","605cd1b167207b8209b39fee","64de8ded64d1167fafe87b9c","","","","","6985",""," ","key"," ","16.649665071770468","500","250","pz","54","1","1","","","20","44"
"","psychophysics","133","691580","0.0-133.0","605cd1b167207b8209b39fee","64de8ded64d1167fafe87b9c","","","","","5178",""," ","key"," ","16.651061093247527","500","250","pz","29","1","1","","","43","22"
"","psychophysics","134","694539","0.0-134.0","605cd1b167207b8209b39fee","64de8ded64d1167fafe87b9c","","","","","2956",""," ","key"," ","16.648485875706253","500","250","pz","50","1","1","","","39","48"
"","psychophysics","135","697934","0.0-135.0","605cd1b167207b8209b39fee","64de8ded64d1167fafe87b9c","","","","","3390",""," ","key"," ","16.649267326732684","500","250","pz","32","1","1","","","36","25"
"","psychophysics","136","704912","0.0-136.0","605cd1b167207b8209b39fee","64de8ded64d1167fafe87b9c","","","","","6972",""," ","key"," ","16.65036754176601","500","250","pz","32","1","1","","","59","24"
"","psychophysics","137","710178","0.0-137.0","605cd1b167207b8209b39fee","64de8ded64d1167fafe87b9c","","","","","5262",""," ","key"," ","16.64938412698407","500","250","pz","52","1","1","","","33","42"
"","psychophysics","138","714118","0.0-138.0","605cd1b167207b8209b39fee","64de8ded64d1167fafe87b9c","","","","","3935",""," ","key"," ","16.651153191489147","500","250","pz","41","1","1","","","38","33"
"","psychophysics","139","719103","0.0-139.0","605cd1b167207b8209b39fee","64de8ded64d1167fafe87b9c","","","","","4979",""," ","key"," ","16.65126086956546","500","250","pz","73","1","1","","","33","57"
"","psychophysics","140","724824","0.0-140.0","605cd1b167207b8209b39fee","64de8ded64d1167fafe87b9c","","","","","5717",""," ","key"," ","16.649973684210433","500","250","pz","72","1","1","","","36","58"
"","psychophysics","141","729195","0.0-141.0","605cd1b167207b8209b39fee","64de8ded64d1167fafe87b9c","","","","","4365",""," ","key"," ","16.65101145038191","500","250","pz","43","1","1","","","47","32"
"","psychophysics","142","730638","0.0-142.0","605cd1b167207b8209b39fee","64de8ded64d1167fafe87b9c","","","","","1440",""," ","key"," ","16.64958139534953","500","250","inst","","","","","","",""
"","psychophysics","143","736245","0.0-143.0","605cd1b167207b8209b39fee","64de8ded64d1167fafe87b9c","","","","","5603",""," ","key"," ","16.65153134328334","500","250","instPog0","160","1","","0","0","190","160"
"","psychophysics","144","740960","0.0-144.0","605cd1b167207b8209b39fee","64de8ded64d1167fafe87b9c","","","","","4708",""," ","key"," ","16.650095406360265","500","250","instPog1","162","1","","0","0","190","160"
"","psychophysics","145","747577","0.0-145.0","605cd1b167207b8209b39fee","64de8ded64d1167fafe87b9c","","","","","6614",""," ","key"," ","16.65097727272701","500","250","instPog2","178","1","","0","0","160","160"
"","psychophysics","146","748547","0.0-146.0","605cd1b167207b8209b39fee","64de8ded64d1167fafe87b9c","","","","","968",""," ","key"," ","16.646000000000768","500","250","inst","","","","","","",""
"","psychophysics","147","753567","0.0-147.0","605cd1b167207b8209b39fee","64de8ded64d1167fafe87b9c","","","","","5014",""," ","key"," ","16.649830564784203","500","250","pog","189","1","1","0","0","145","175"
"","psychophysics","148","757069","0.0-148.0","605cd1b167207b8209b39fee","64de8ded64d1167fafe87b9c","","","","","3501",""," ","key"," ","16.652090909090962","500","250","pog","144","1","1","0","0","104","130"
"","psychophysics","149","760346","0.0-149.0","605cd1b167207b8209b39fee","64de8ded64d1167fafe87b9c","","","","","3274",""," ","key"," ","16.650158163265218","500","250","pog","164","1","1","0","0","152","159"
"","psychophysics","150","765036","0.0-150.0","605cd1b167207b8209b39fee","64de8ded64d1167fafe87b9c","","","","","4686",""," ","key"," ","16.6501637010676","500","250","pog","199","1","1","0","0","169","191"
"","psychophysics","151","769618","0.0-151.0","605cd1b167207b8209b39fee","64de8ded64d1167fafe87b9c","","","","","4579",""," ","key"," ","16.651178832117036","500","250","pog","186","1","1","0","0","160","186"
"","psychophysics","152","775366","0.0-152.0","605cd1b167207b8209b39fee","64de8ded64d1167fafe87b9c","","","","","5745",""," ","key"," ","16.649453488372124","500","250","pog","174","1","1","0","0","114","170"
"","psychophysics","153","779860","0.0-153.0","605cd1b167207b8209b39fee","64de8ded64d1167fafe87b9c","","","","","4491",""," ","key"," ","16.65140892193284","500","250","pog","146","1","1","0","0","146","138"
"","psychophysics","154","784996","0.0-154.0","605cd1b167207b8209b39fee","64de8ded64d1167fafe87b9c","","","","","5133",""," ","key"," ","16.65013355048827","500","250","pog","182","1","1","0","0","210","175"
"","psychophysics","155","788575","0.0-155.0","605cd1b167207b8209b39fee","64de8ded64d1167fafe87b9c","","","","","3574",""," ","key"," ","16.65156074766359","500","250","pog","189","1","1","0","0","157","180"
"","psychophysics","156","794376","0.0-156.0","605cd1b167207b8209b39fee","64de8ded64d1167fafe87b9c","","","","","5796",""," ","key"," ","16.650885057471353","500","250","pog","155","1","1","0","0","135","143"
"","psychophysics","157","797648","0.0-157.0","605cd1b167207b8209b39fee","64de8ded64d1167fafe87b9c","","","","","3269",""," ","key"," ","16.650810256410534","500","250","pog","194","1","1","0","0","196","184"
"","psychophysics","158","800152","0.0-158.0","605cd1b167207b8209b39fee","64de8ded64d1167fafe87b9c","","","","","2500",""," ","key"," ","16.65062666666694","500","250","pog","151","1","1","0","0","159","136"
"","psychophysics","159","805768","0.0-159.0","605cd1b167207b8209b39fee","64de8ded64d1167fafe87b9c","","","","","5614",""," ","key"," ","16.650235119047768","500","250","pog","195","1","1","0","0","103","180"
"","psychophysics","160","810624","0.0-160.0","605cd1b167207b8209b39fee","64de8ded64d1167fafe87b9c","","","","","4852",""," ","key"," ","16.64929209621999","500","250","pog","187","1","1","0","0","163","179"
"","psychophysics","161","814256","0.0-161.0","605cd1b167207b8209b39fee","64de8ded64d1167fafe87b9c","","","","","3629",""," ","key"," ","16.64966820276499","500","250","pog","167","1","1","0","0","141","159"
"","psychophysics","162","815254","0.0-162.0","605cd1b167207b8209b39fee","64de8ded64d1167fafe87b9c","","","","","995",""," ","key"," ","16.646135593219896","500","250","inst","","","","","","",""
"","psychophysics","163","821098","0.0-163.0","605cd1b167207b8209b39fee","64de8ded64d1167fafe87b9c","","","","","5841",""," ","key"," ","16.651225714285726","500","250","instEB1","31","1","","0","0","40","30"
"","psychophysics","164","826597","0.0-164.0","605cd1b167207b8209b39fee","64de8ded64d1167fafe87b9c","","","","","5494",""," ","key"," ","16.650531914893687","500","250","instEB2","36","1","","0","0","30","40"
"","psychophysics","165","832602","0.0-165.0","605cd1b167207b8209b39fee","64de8ded64d1167fafe87b9c","","","","","6001",""," ","key"," ","16.650632311977528","500","250","instEB3","38","1","","0","0","27","45"
"","psychophysics","166","839063","0.0-166.0","605cd1b167207b8209b39fee","64de8ded64d1167fafe87b9c","","","","","6453",""," ","key"," ","16.650499999999926","500","250","instEB4","30","1","","0","0","40","30"
"","psychophysics","167","839972","0.0-167.0","605cd1b167207b8209b39fee","64de8ded64d1167fafe87b9c","","","","","906",""," ","key"," ","16.65086792452911","500","250","inst","","","","","","",""
"","psychophysics","168","843709","0.0-168.0","605cd1b167207b8209b39fee","64de8ded64d1167fafe87b9c","","","","","3733",""," ","key"," ","16.650200892857224","500","250","eb","41","1","","0","0","27","53"
"","psychophysics","169","847639","0.0-169.0","605cd1b167207b8209b39fee","64de8ded64d1167fafe87b9c","","","","","3926",""," ","key"," ","16.64908510638262","500","250","eb","40","1","","0","0","28","45"
"","psychophysics","170","853201","0.0-170.0","605cd1b167207b8209b39fee","64de8ded64d1167fafe87b9c","","","","","5557",""," ","key"," ","16.650162162162033","500","250","eb","42","1","","0","0","40","50"
"","psychophysics","171","859545","0.0-171.0","605cd1b167207b8209b39fee","64de8ded64d1167fafe87b9c","","","","","6340",""," ","key"," ","16.64964999999992","500","250","eb","42","1","","0","0","29","49"
"","psychophysics","172","863432","0.0-172.0","605cd1b167207b8209b39fee","64de8ded64d1167fafe87b9c","","","","","3883",""," ","key"," ","16.649469827586316","500","250","eb","40","1","","0","0","46","45"
"","psychophysics","173","867146","0.0-173.0","605cd1b167207b8209b39fee","64de8ded64d1167fafe87b9c","","","","","3710",""," ","key"," ","16.651545045045225","500","250","eb","43","1","","0","0","52","47"
"","psychophysics","174","871079","0.0-174.0","605cd1b167207b8209b39fee","64de8ded64d1167fafe87b9c","","","","","3929",""," ","key"," ","16.650370212765708","500","250","eb","36","1","","0","0","45","39"
"","psychophysics","175","874902","0.0-175.0","605cd1b167207b8209b39fee","64de8ded64d1167fafe87b9c","","","","","3814",""," ","key"," ","16.65139737991234","500","250","eb","28","1","","0","0","34","28"
"","psychophysics","176","877576","0.0-176.0","605cd1b167207b8209b39fee","64de8ded64d1167fafe87b9c","","","","","2669",""," ","key"," ","16.64936249999955","500","250","eb","33","1","","0","0","35","36"
"","psychophysics","177","884038","0.0-177.0","605cd1b167207b8209b39fee","64de8ded64d1167fafe87b9c","","","","","6457",""," ","key"," ","16.65022739018097","500","250","eb","22","1","","0","0","53","26"
"","psychophysics","178","888498","0.0-178.0","605cd1b167207b8209b39fee","64de8ded64d1167fafe87b9c","","","","","4456",""," ","key"," ","16.6508426966293","500","250","eb","43","1","","0","0","33","53"
"","psychophysics","179","894448","0.0-179.0","605cd1b167207b8209b39fee","64de8ded64d1167fafe87b9c","","","","","5946",""," ","key"," ","16.64980617977497","500","250","eb","26","1","","0","0","49","27"
"","psychophysics","180","899422","0.0-180.0","605cd1b167207b8209b39fee","64de8ded64d1167fafe87b9c","","","","","4970",""," ","key"," ","16.65000671140956","500","250","eb","27","1","","0","0","33","30"
"","psychophysics","181","904495","0.0-181.0","605cd1b167207b8209b39fee","64de8ded64d1167fafe87b9c","","","","","5069",""," ","key"," ","16.649231023102132","500","250","eb","38","1","","0","0","48","42"
"","psychophysics","182","908036","0.0-182.0","605cd1b167207b8209b39fee","64de8ded64d1167fafe87b9c","","","","","3534",""," ","key"," ","16.65214150943376","500","250","eb","25","1","","0","0","24","27"
"","psychophysics","183","909058","0.0-183.0","605cd1b167207b8209b39fee","64de8ded64d1167fafe87b9c","","","","","1020",""," ","key"," ","16.653333333332558","500","250","inst","","","","","","",""
"","psychophysics","184","916948","0.0-184.0","605cd1b167207b8209b39fee","64de8ded64d1167fafe87b9c","","","","","7883",""," ","key"," ","16.650883720930267","500","250","instBr3","-11","1","","0","0","40","300"
"","psychophysics","185","917890","0.0-185.0","605cd1b167207b8209b39fee","64de8ded64d1167fafe87b9c","","","","","939",""," ","key"," ","16.65421428571322","500","250","inst","","","","","","",""
"","psychophysics","186","924569","0.0-186.0","605cd1b167207b8209b39fee","64de8ded64d1167fafe87b9c","","","","","6675",""," ","key"," ","16.649935000000113","500","250","br","-16","1","1","23","-27","-19","210"
"","psychophysics","187","928951","0.0-187.0","605cd1b167207b8209b39fee","64de8ded64d1167fafe87b9c","","","","","4377",""," ","key"," ","16.650499999999933","500","250","br","-8","1","1","25","16","4","206"
"","psychophysics","188","934644","0.0-188.0","605cd1b167207b8209b39fee","64de8ded64d1167fafe87b9c","","","","","5689",""," ","key"," ","16.651023460410418","500","250","br","-15","1","1","13","-14","-4","268"
"","psychophysics","189","940971","0.0-189.0","605cd1b167207b8209b39fee","64de8ded64d1167fafe87b9c","","","","","6323",""," ","key"," ","16.6499340369395","500","250","br","-3","1","1","-21","-8","28","226"
"","psychophysics","190","944743","0.0-190.0","605cd1b167207b8209b39fee","64de8ded64d1167fafe87b9c","","","","","3768",""," ","key"," ","16.650907079645936","500","250","br","-13","1","1","22","-21","-13","231"
"","psychophysics","191","948660","0.0-191.0","605cd1b167207b8209b39fee","64de8ded64d1167fafe87b9c","","","","","3912",""," ","key"," ","16.650414529914716","500","250","br","-16","1","1","28","-29","-25","220"
"","psychophysics","192","951921","0.0-192.0","605cd1b167207b8209b39fee","64de8ded64d1167fafe87b9c","","","","","3258",""," ","key"," ","16.649005128205037","500","250","br","-15","1","1","-27","-14","-14","258"
"","psychophysics","193","955527","0.0-193.0","605cd1b167207b8209b39fee","64de8ded64d1167fafe87b9c","","","","","3601",""," ","key"," ","16.65125116279056","500","250","br","-17","1","1","28","-25","-4","248"
"","psychophysics","194","960665","0.0-194.0","605cd1b167207b8209b39fee","64de8ded64d1167fafe87b9c","","","","","5132",""," ","key"," ","16.651386363636295","500","250","br","-23","1","1","1","2","-29","295"
"","psychophysics","195","964628","0.0-195.0","605cd1b167207b8209b39fee","64de8ded64d1167fafe87b9c","","","","","3959",""," ","key"," ","16.65026582278486","500","250","br","-21","1","1","1","-9","-14","267"
"","psychophysics","196","967363","0.0-196.0","605cd1b167207b8209b39fee","64de8ded64d1167fafe87b9c","","","","","2731",""," ","key"," ","16.649294478527377","500","250","br","-14","1","1","-6","-1","-5","284"
"","psychophysics","197","969911","0.0-197.0","605cd1b167207b8209b39fee","64de8ded64d1167fafe87b9c","","","","","2544",""," ","key"," ","16.652032894737204","500","250","br","-24","1","1","-26","17","-23","300"
"","psychophysics","198","972825","0.0-198.0","605cd1b167207b8209b39fee","64de8ded64d1167fafe87b9c","","","","","2910",""," ","key"," ","16.6518333333333","500","250","br","-7","1","1","-28","7","0","258"
"","psychophysics","199","978870","0.0-199.0","605cd1b167207b8209b39fee","64de8ded64d1167fafe87b9c","","","","","6041",""," ","key"," ","16.650936464088304","500","250","br","-6","1","1","12","-8","29","272"
"","psychophysics","200","980464","0.0-200.0","605cd1b167207b8209b39fee","64de8ded64d1167fafe87b9c","","","","","1587",""," ","key"," ","16.653463157893796","500","250","br","-14","1","1","-16","-3","-14","238"
"","psychophysics","201","981329","0.0-201.0","605cd1b167207b8209b39fee","64de8ded64d1167fafe87b9c","","","","","862",""," ","key"," ","16.650960784314165","500","250","inst","","","","","","",""
"","psychophysics","202","988219","0.0-202.0","605cd1b167207b8209b39fee","64de8ded64d1167fafe87b9c","","","","","6887",""," ","key"," ","16.650849878934572","500","250","instZol1","-0.10000000000000003","","","0","0","-1.3",""
"","psychophysics","203","1001311","0.0-203.0","605cd1b167207b8209b39fee","64de8ded64d1167fafe87b9c","","","","","13086",""," ","key"," ","16.650499363057314","500","250","instZol2","-0.39999999999999936","2","","0","0","2",""
"","psychophysics","204","1002447","0.0-204.0","605cd1b167207b8209b39fee","64de8ded64d1167fafe87b9c","","","","","1133",""," ","key"," ","16.649880597015162","500","250","inst","","","","","","",""
"","psychophysics","205","1010457","0.0-205.0","605cd1b167207b8209b39fee","64de8ded64d1167fafe87b9c","","","","","null","","null","key","null","16.650716666666508","500","250","zol","-0.28","2","1","-30","-1","-0.12",""
"","psychophysics","206","1010528","0.0-206.0","605cd1b167207b8209b39fee","64de8ded64d1167fafe87b9c","","","","","63",""," ","key"," ","16.643750000017462","500","250","zol","-0.49","2","1","-3","1","0.49",""
"","psychophysics","207","1016749","0.0-207.0","605cd1b167207b8209b39fee","64de8ded64d1167fafe87b9c","","","","","6215",""," ","key"," ","16.65086290322592","500","250","zol","-0.26999999999999996","2","1","19","-3","-0.63",""
"","psychophysics","208","1023093","0.0-208.0","605cd1b167207b8209b39fee","64de8ded64d1167fafe87b9c","","","","","6335",""," ","key"," ","16.651089473684184","500","250","zol","-0.48","2","1","-18","5","0.18",""
"","psychophysics","209","1031100","0.0-209.0","605cd1b167207b8209b39fee","64de8ded64d1167fafe87b9c","","","","","null","","null","key","null","16.650312500000048","500","250","zol","-0.62","2","1","-1","26","0.72",""
"","psychophysics","210","1038217","0.0-210.0","605cd1b167207b8209b39fee","64de8ded64d1167fafe87b9c","","","","","7110",""," ","key"," ","16.650262295081994","500","250","zol","-0.42000000000000004","2","1","-29","-23","0.72",""
"","psychophysics","211","1044062","0.0-211.0","605cd1b167207b8209b39fee","64de8ded64d1167fafe87b9c","","","","","5838",""," ","key"," ","16.650934285714424","500","250","zol","-0.61","2","1","-30","28","0.21",""
"","psychophysics","212","1052020","0.0-212.0","605cd1b167207b8209b39fee","64de8ded64d1167fafe87b9c","","","","","7952",""," ","key"," ","16.650224318658537","500","250","zol","-0.47","2","1","23","17","-0.73",""
"","psychophysics","213","1060027","0.0-213.0","605cd1b167207b8209b39fee","64de8ded64d1167fafe87b9c","","","","","null","","null","key","null","16.650304801670234","500","250","zol","-0.59","2","1","-3","-29","-0.71",""
"","psychophysics","214","1060075","0.0-214.0","605cd1b167207b8209b39fee","64de8ded64d1167fafe87b9c","","","","","39",""," ","key"," ","16.660000000032596","500","250","zol","-0.21","2","1","-1","25","0.21",""
"","psychophysics","215","1066601","0.0-215.0","605cd1b167207b8209b39fee","64de8ded64d1167fafe87b9c","","","","","6517",""," ","key"," ","16.651012787723417","500","250","zol","-0.12000000000000005","2","1","-29","14","0.62",""
"","psychophysics","216","1071911","0.0-216.0","605cd1b167207b8209b39fee","64de8ded64d1167fafe87b9c","","","","","5301",""," ","key"," ","16.651018867924453","500","250","zol","-0.53","2","1","30","-27","-0.37",""
"","psychophysics","217","1076489","0.0-217.0","605cd1b167207b8209b39fee","64de8ded64d1167fafe87b9c","","","","","4569",""," ","key"," ","16.651062043795847","500","250","zol","-0.3400000000000001","2","1","1","2","0.74",""
"","psychophysics","218","1080825","0.0-218.0","605cd1b167207b8209b39fee","64de8ded64d1167fafe87b9c","","","","","4328",""," ","key"," ","16.651253846154297","500","250","zol","-0.44999999999999996","2","1","-13","-11","-0.05",""
"","psychophysics","219","1087887","0.0-219.0","605cd1b167207b8209b39fee","64de8ded64d1167fafe87b9c","","","","","7056",""," ","key"," ","16.650191489361607","500","250","zol","-0.35","2","1","1","-14","0.05",""
