"success","trial_type","trial_index","time_elapsed","internal_node_id","pid","sid","timeout","failed_images","failed_audio","failed_video","rt","stimulus","response","response_type","key_press","avg_frame_time","center_x","center_y","task","resp","version","block","jitterX","jitterY","start","parA"
"true","fullscreen","0","4088","0.0-0.0","5c06b3f64a2b7b0001c3c185","64e50ed47c80e98f061990ef","","","","","","","","","","","","","","","","","","","",""
"true","preload","1","4171","0.0-1.0","5c06b3f64a2b7b0001c3c185","64e50ed47c80e98f061990ef","false","[]","[]","[]","","","","","","","","","","","","","","","",""
"","html-button-response","2","5464","0.0-2.0","5c06b3f64a2b7b0001c3c185","64e50ed47c80e98f061990ef","","","","","1292","Please Make Sure Your Audio Is On.","0","","","","","","","","","","","","",""
"","psychophysics","3","10862","0.0-3.0","5c06b3f64a2b7b0001c3c185","64e50ed47c80e98f061990ef","","","","","5395",""," ","key"," ","16.66656346749226","960","250","","","","","","","",""
"","psychophysics","4","13726","0.0-4.0","5c06b3f64a2b7b0001c3c185","64e50ed47c80e98f061990ef","","","","","2860",""," ","key"," ","16.668023391812866","500","250","inst","","","","","","",""
"","psychophysics","5","33542","0.0-5.0","5c06b3f64a2b7b0001c3c185","64e50ed47c80e98f061990ef","","","","","19816",""," ","key"," ","16.66647306397306","500","250","sample0","","","","","","",""
"","psychophysics","6","35654","0.0-6.0","5c06b3f64a2b7b0001c3c185","64e50ed47c80e98f061990ef","","","","","2110",""," ","key"," ","16.66655555555559","500","250","sample1","","","","","","",""
"","psychophysics","7","46222","0.0-7.0","5c06b3f64a2b7b0001c3c185","64e50ed47c80e98f061990ef","","","","","10567",""," ","key"," ","16.66560979462875","500","250","sample2","98","","","","","",""
"","psychophysics","8","52430","0.0-8.0","5c06b3f64a2b7b0001c3c185","64e50ed47c80e98f061990ef","","","","","6205",""," ","key"," ","16.667018817204305","500","250","sample3","102","","","","","",""
"","psychophysics","9","59853","0.0-9.0","5c06b3f64a2b7b0001c3c185","64e50ed47c80e98f061990ef","","","","","7423",""," ","key"," ","16.666441441441446","500","250","sample4","100","","","","","",""
"","psychophysics","10","62869","0.0-10.0","5c06b3f64a2b7b0001c3c185","64e50ed47c80e98f061990ef","","","","","3015",""," ","key"," ","16.667994444444453","500","250","sample5","","","","","","",""
"","psychophysics","11","68925","0.0-11.0","5c06b3f64a2b7b0001c3c185","64e50ed47c80e98f061990ef","","","","","6055",""," ","key"," ","16.666458563535915","500","250","sample6","500","","","","","",""
"","psychophysics","12","90862","0.0-12.0","5c06b3f64a2b7b0001c3c185","64e50ed47c80e98f061990ef","","","","","21936",""," ","key"," ","16.666478326996195","500","250","inst","","","","","","",""
"","psychophysics","13","99381","0.0-13.0","5c06b3f64a2b7b0001c3c185","64e50ed47c80e98f061990ef","","","","","8518",""," ","key"," ","16.666467710371826","500","250","inst","","","","","","",""
"","psychophysics","14","638150","0.0-14.0","5c06b3f64a2b7b0001c3c185","64e50ed47c80e98f061990ef","","","","","538768",""," ","key"," ","1044.0794108527132","500","250","inst","","","","","","",""
"","psychophysics","15","639398","0.0-15.0","5c06b3f64a2b7b0001c3c185","64e50ed47c80e98f061990ef","","","","","1247",""," ","key"," ","16.66610810810832","500","250","inst","","","","","","",""
"","psychophysics","16","640854","0.0-16.0","5c06b3f64a2b7b0001c3c185","64e50ed47c80e98f061990ef","","","","","1455",""," ","key"," ","16.66631395348786","500","250","inst","","","","","","",""
"","psychophysics","17","642598","0.0-17.0","5c06b3f64a2b7b0001c3c185","64e50ed47c80e98f061990ef","","","","","1743",""," ","key"," ","16.66667307692338","500","250","instBr0","0","","","0","0","0","300"
"","psychophysics","18","648334","0.0-18.0","5c06b3f64a2b7b0001c3c185","64e50ed47c80e98f061990ef","","","","","5735",""," ","key"," ","16.666507288629635","500","250","instBr1","3","","","0","0","-40","300"
"","psychophysics","19","657534","0.0-19.0","5c06b3f64a2b7b0001c3c185","64e50ed47c80e98f061990ef","","","","","9199",""," ","key"," ","16.666528130671477","500","250","instBr3","-11","1","","0","0","40","300"
"","psychophysics","20","662270","0.0-20.0","5c06b3f64a2b7b0001c3c185","64e50ed47c80e98f061990ef","","","","","4735",""," ","key"," ","20.777577092511056","500","250","inst","","","","","","",""
"","psychophysics","21","665774","0.0-21.0","5c06b3f64a2b7b0001c3c185","64e50ed47c80e98f061990ef","","","","","3503",""," ","key"," ","16.6666904761905","500","250","br","-16","1","0","-7","-23","13","240"
"","psychophysics","22","669326","0.0-22.0","5c06b3f64a2b7b0001c3c185","64e50ed47c80e98f061990ef","","","","","3551",""," ","key"," ","16.665655660377663","500","250","br","-9","1","0","23","9","24","221"
"","psychophysics","23","672270","0.0-23.0","5c06b3f64a2b7b0001c3c185","64e50ed47c80e98f061990ef","","","","","2944",""," ","key"," ","16.666479999999783","500","250","br","-18","1","0","27","-18","-1","300"
"","psychophysics","24","676790","0.0-24.0","5c06b3f64a2b7b0001c3c185","64e50ed47c80e98f061990ef","","","","","4519",""," ","key"," ","16.666749077490824","500","250","br","-12","1","0","29","22","26","235"
"","psychophysics","25","680550","0.0-25.0","5c06b3f64a2b7b0001c3c185","64e50ed47c80e98f061990ef","","","","","3759",""," ","key"," ","16.666566964286176","500","250","br","-16","1","0","-5","9","-18","217"
"","psychophysics","26","683566","0.0-26.0","5c06b3f64a2b7b0001c3c185","64e50ed47c80e98f061990ef","","","","","3015",""," ","key"," ","16.667949999999514","500","250","br","-11","1","0","1","-17","-2","229"
"","psychophysics","27","687982","0.0-27.0","5c06b3f64a2b7b0001c3c185","64e50ed47c80e98f061990ef","","","","","4415",""," ","key"," ","16.66657575757541","500","250","br","-17","1","0","13","-8","-23","229"
"","psychophysics","28","695134","0.0-28.0","5c06b3f64a2b7b0001c3c185","64e50ed47c80e98f061990ef","","","","","7151",""," ","key"," ","16.666418224298962","500","250","br","-14","1","0","-30","-14","-21","296"
"","psychophysics","29","701111","0.0-29.0","5c06b3f64a2b7b0001c3c185","64e50ed47c80e98f061990ef","","","","","5975",""," ","key"," ","16.666351955307274","500","250","br","-8","1","0","-12","-2","23","256"
"","psychophysics","30","705902","0.0-30.0","5c06b3f64a2b7b0001c3c185","64e50ed47c80e98f061990ef","","","","","4791",""," ","key"," ","16.666465034965228","500","250","br","-10","1","0","26","-22","21","236"
"","psychophysics","31","712902","0.0-31.0","5c06b3f64a2b7b0001c3c185","64e50ed47c80e98f061990ef","","","","","6999",""," ","key"," ","16.66642720763725","500","250","br","-7","1","0","-13","-9","24","267"
"","psychophysics","32","715926","0.0-32.0","5c06b3f64a2b7b0001c3c185","64e50ed47c80e98f061990ef","","","","","3023",""," ","key"," ","16.6663922651932","500","250","br","-8","1","0","25","-30","-6","247"
"","psychophysics","33","719630","0.0-33.0","5c06b3f64a2b7b0001c3c185","64e50ed47c80e98f061990ef","","","","","3703",""," ","key"," ","16.666294117646746","500","250","br","-9","1","0","17","13","19","205"
"","psychophysics","34","722774","0.0-34.0","5c06b3f64a2b7b0001c3c185","64e50ed47c80e98f061990ef","","","","","3143",""," ","key"," ","16.666744680851053","500","250","br","-10","1","0","10","30","-9","209"
"","psychophysics","35","726830","0.0-35.0","5c06b3f64a2b7b0001c3c185","64e50ed47c80e98f061990ef","","","","","4055",""," ","key"," ","16.66649999999978","500","250","br","-13","1","0","-6","-12","-4","234"
"","psychophysics","36","729007","0.0-36.0","5c06b3f64a2b7b0001c3c185","64e50ed47c80e98f061990ef","","","","","2176",""," ","key"," ","16.66822307692357","500","250","inst","","","","","","",""
"","psychophysics","37","730951","0.0-37.0","5c06b3f64a2b7b0001c3c185","64e50ed47c80e98f061990ef","","","","","1943",""," ","key"," ","16.666460869565565","500","250","instEB0","40","2","","0","0","40","40"
"","psychophysics","38","736631","0.0-38.0","5c06b3f64a2b7b0001c3c185","64e50ed47c80e98f061990ef","","","","","5679",""," ","key"," ","16.666367647059","500","250","instEB1","41","2","","0","0","30","40"
"","psychophysics","39","739878","0.0-39.0","5c06b3f64a2b7b0001c3c185","64e50ed47c80e98f061990ef","","","","","3247",""," ","key"," ","16.666608247422907","500","250","instEB2","40","2","","0","0","40","30"
"","psychophysics","40","742054","0.0-40.0","5c06b3f64a2b7b0001c3c185","64e50ed47c80e98f061990ef","","","","","2175",""," ","key"," ","16.66444186046503","500","250","instEB3","45","2","","0","0","45","27"
"","psychophysics","41","750319","0.0-41.0","5c06b3f64a2b7b0001c3c185","64e50ed47c80e98f061990ef","","","","","8263",""," ","key"," ","16.66652323232324","500","250","instEB4","49","2","","0","0","30","40"
"","psychophysics","42","798758","0.0-42.0","5c06b3f64a2b7b0001c3c185","64e50ed47c80e98f061990ef","","","","","48439",""," ","key"," ","16.718263721090803","500","250","inst","","","","","","",""
"","psychophysics","43","803950","0.0-43.0","5c06b3f64a2b7b0001c3c185","64e50ed47c80e98f061990ef","","","","","5191",""," ","key"," ","16.666706451612914","500","250","eb","67","2","","0","0","27","54"
"","psychophysics","44","807470","0.0-44.0","5c06b3f64a2b7b0001c3c185","64e50ed47c80e98f061990ef","","","","","3519",""," ","key"," ","16.666519047619243","500","250","eb","65","2","","0","0","44","53"
"","psychophysics","45","815472","0.0-45.0","5c06b3f64a2b7b0001c3c185","64e50ed47c80e98f061990ef","","","","","null","","null","key","null","16.666427974947894","500","250","eb","32","2","","0","0","38","26"
"","psychophysics","46","823474","0.0-46.0","5c06b3f64a2b7b0001c3c185","64e50ed47c80e98f061990ef","","","","","null","","null","key","null","16.666483333333357","500","250","eb","32","2","","0","0","40","28"
"","psychophysics","47","831475","0.0-47.0","5c06b3f64a2b7b0001c3c185","64e50ed47c80e98f061990ef","","","","","null","","null","key","null","16.667018789144247","500","250","eb","33","2","","0","0","25","29"
"","psychophysics","48","835006","0.0-48.0","5c06b3f64a2b7b0001c3c185","64e50ed47c80e98f061990ef","","","","","3529",""," ","key"," ","16.66651658767777","500","250","eb","40","2","","0","0","43","35"
"","psychophysics","49","837990","0.0-49.0","5c06b3f64a2b7b0001c3c185","64e50ed47c80e98f061990ef","","","","","2983",""," ","key"," ","16.666573033707994","500","250","eb","30","2","","0","0","27","27"
"","psychophysics","50","842454","0.0-50.0","5c06b3f64a2b7b0001c3c185","64e50ed47c80e98f061990ef","","","","","4463",""," ","key"," ","16.666578947368194","500","250","eb","36","2","","0","0","44","34"
"","psychophysics","51","846918","0.0-51.0","5c06b3f64a2b7b0001c3c185","64e50ed47c80e98f061990ef","","","","","4462",""," ","key"," ","16.66638951310853","500","250","eb","52","2","","0","0","54","45"
"","psychophysics","52","854920","0.0-52.0","5c06b3f64a2b7b0001c3c185","64e50ed47c80e98f061990ef","","","","","null","","null","key","null","16.66662839248447","500","250","eb","58","2","","0","0","47","52"
"","psychophysics","53","859614","0.0-53.0","5c06b3f64a2b7b0001c3c185","64e50ed47c80e98f061990ef","","","","","4692",""," ","key"," ","16.66633451957292","500","250","eb","30","2","","0","0","37","28"
"","psychophysics","54","867615","0.0-54.0","5c06b3f64a2b7b0001c3c185","64e50ed47c80e98f061990ef","","","","","null","","null","key","null","16.66654279749473","500","250","eb","61","2","","0","0","42","53"
"","psychophysics","55","875616","0.0-55.0","5c06b3f64a2b7b0001c3c185","64e50ed47c80e98f061990ef","","","","","null","","null","key","null","16.66634864300647","500","250","eb","58","2","","0","0","31","51"
"","psychophysics","56","883618","0.0-56.0","5c06b3f64a2b7b0001c3c185","64e50ed47c80e98f061990ef","","","","","null","","null","key","null","16.666488517745346","500","250","eb","53","2","","0","0","26","49"
"","psychophysics","57","887303","0.0-57.0","5c06b3f64a2b7b0001c3c185","64e50ed47c80e98f061990ef","","","","","3683",""," ","key"," ","16.66643636363654","500","250","eb","51","2","","0","0","54","42"
"","psychophysics","58","888903","0.0-58.0","5c06b3f64a2b7b0001c3c185","64e50ed47c80e98f061990ef","","","","","1599",""," ","key"," ","16.666715789473567","500","250","inst","","","","","","",""
"","psychophysics","59","916407","0.0-59.0","5c06b3f64a2b7b0001c3c185","64e50ed47c80e98f061990ef","","","","","27503",""," ","key"," ","16.68675000000005","500","250","instPog0","160","1","","0","0","190","160"
"","psychophysics","60","920119","0.0-60.0","5c06b3f64a2b7b0001c3c185","64e50ed47c80e98f061990ef","","","","","3711",""," ","key"," ","16.66634389140266","500","250","instPog1","166","1","","0","0","190","160"
"","psychophysics","61","925247","0.0-61.0","5c06b3f64a2b7b0001c3c185","64e50ed47c80e98f061990ef","","","","","5128",""," ","key"," ","16.666387622149855","500","250","instPog2","176","1","","0","0","160","160"
"","psychophysics","62","926583","0.0-62.0","5c06b3f64a2b7b0001c3c185","64e50ed47c80e98f061990ef","","","","","1334",""," ","key"," ","16.6663670886081","500","250","inst","","","","","","",""
"","psychophysics","63","930287","0.0-63.0","5c06b3f64a2b7b0001c3c185","64e50ed47c80e98f061990ef","","","","","3704",""," ","key"," ","16.666457013574185","500","250","pog","175","1","0","0","0","201","139"
"","psychophysics","64","931863","0.0-64.0","5c06b3f64a2b7b0001c3c185","64e50ed47c80e98f061990ef","","","","","1574",""," ","key"," ","16.666606382978337","500","250","pog","151","1","0","0","0","155","122"
"","psychophysics","65","934839","0.0-65.0","5c06b3f64a2b7b0001c3c185","64e50ed47c80e98f061990ef","","","","","2975",""," ","key"," ","16.6664831460672","500","250","pog","203","1","0","0","0","187","181"
"","psychophysics","66","940286","0.0-66.0","5c06b3f64a2b7b0001c3c185","64e50ed47c80e98f061990ef","","","","","5447",""," ","key"," ","16.666572307692125","500","250","pog","210","1","0","0","0","126","183"
"","psychophysics","67","944398","0.0-67.0","5c06b3f64a2b7b0001c3c185","64e50ed47c80e98f061990ef","","","","","4110",""," ","key"," ","16.6664308943091","500","250","pog","195","1","0","0","0","141","172"
"","psychophysics","68","947838","0.0-68.0","5c06b3f64a2b7b0001c3c185","64e50ed47c80e98f061990ef","","","","","3439",""," ","key"," ","16.66641262135959","500","250","pog","159","1","0","0","0","179","122"
"","psychophysics","69","949886","0.0-69.0","5c06b3f64a2b7b0001c3c185","64e50ed47c80e98f061990ef","","","","","2047",""," ","key"," ","16.666314049587346","500","250","pog","156","1","0","0","0","146","131"
"","psychophysics","70","957887","0.0-70.0","5c06b3f64a2b7b0001c3c185","64e50ed47c80e98f061990ef","","","","","null","","null","key","null","16.666494780793176","500","250","pog","152","1","0","0","0","200","126"
"","psychophysics","71","962318","0.0-71.0","5c06b3f64a2b7b0001c3c185","64e50ed47c80e98f061990ef","","","","","4430",""," ","key"," ","16.66644150943381","500","250","pog","177","1","0","0","0","129","156"
"","psychophysics","72","968319","0.0-72.0","5c06b3f64a2b7b0001c3c185","64e50ed47c80e98f061990ef","","","","","6000",""," ","key"," ","16.666529247910823","500","250","pog","223","1","0","0","0","115","196"
"","psychophysics","73","970726","0.0-73.0","5c06b3f64a2b7b0001c3c185","64e50ed47c80e98f061990ef","","","","","2407",""," ","key"," ","16.66670833333289","500","250","pog","214","1","0","0","0","206","191"
"","psychophysics","74","974295","0.0-74.0","5c06b3f64a2b7b0001c3c185","64e50ed47c80e98f061990ef","","","","","3567",""," ","key"," ","16.666413145539888","500","250","pog","202","1","0","0","0","214","171"
"","psychophysics","75","977374","0.0-75.0","5c06b3f64a2b7b0001c3c185","64e50ed47c80e98f061990ef","","","","","3079",""," ","key"," ","16.66633152173903","500","250","pog","173","1","0","0","0","161","145"
"","psychophysics","76","981887","0.0-76.0","5c06b3f64a2b7b0001c3c185","64e50ed47c80e98f061990ef","","","","","4511",""," ","key"," ","16.666572490706173","500","250","pog","178","1","0","0","0","216","148"
"","psychophysics","77","986911","0.0-77.0","5c06b3f64a2b7b0001c3c185","64e50ed47c80e98f061990ef","","","","","5023",""," ","key"," ","16.667282392026816","500","250","pog","224","1","0","0","0","114","196"
"","psychophysics","78","988286","0.0-78.0","5c06b3f64a2b7b0001c3c185","64e50ed47c80e98f061990ef","","","","","1375",""," ","key"," ","16.66629629629595","500","250","inst","","","","","","",""
"","psychophysics","79","989982","0.0-79.0","5c06b3f64a2b7b0001c3c185","64e50ed47c80e98f061990ef","","","","","1694",""," ","key"," ","16.6668118811881","500","250","instPzPre","50","0","","","","50","50"
"","psychophysics","80","992214","0.0-80.0","5c06b3f64a2b7b0001c3c185","64e50ed47c80e98f061990ef","","","","","2231",""," ","key"," ","16.66623308270718","500","250","instPz0","50","1","","","","50","50"
"","psychophysics","81","999454","0.0-81.0","5c06b3f64a2b7b0001c3c185","64e50ed47c80e98f061990ef","","","","","7239",""," ","key"," ","16.66653810623564","500","250","instPz1","50","1","","","","25","50"
"","psychophysics","82","1005750","0.0-82.0","5c06b3f64a2b7b0001c3c185","64e50ed47c80e98f061990ef","","","","","6295",""," ","key"," ","16.66655437665774","500","250","instPz2","20","1","","","","35","20"
"","psychophysics","83","1012887","0.0-83.0","5c06b3f64a2b7b0001c3c185","64e50ed47c80e98f061990ef","","","","","7134",""," ","key"," ","16.66644730679151","500","250","instPz3","104","1","","","","100","30"
"","psychophysics","84","1021118","0.0-84.0","5c06b3f64a2b7b0001c3c185","64e50ed47c80e98f061990ef","","","","","8230",""," ","key"," ","16.66643407707916","500","250","instPz4","29","1","","","","100","30"
"","psychophysics","85","1023374","0.0-85.0","5c06b3f64a2b7b0001c3c185","64e50ed47c80e98f061990ef","","","","","2255",""," ","key"," ","16.66669629629684","500","250","inst","","","","","","",""
"","psychophysics","86","1027454","0.0-86.0","5c06b3f64a2b7b0001c3c185","64e50ed47c80e98f061990ef","","","","","4079",""," ","key"," ","16.666348360655885","500","250","pz","36","1","0","","","48","38"
"","psychophysics","87","1032367","0.0-87.0","5c06b3f64a2b7b0001c3c185","64e50ed47c80e98f061990ef","","","","","4911",""," ","key"," ","16.666402730375605","500","250","pz","56","1","0","","","28","57"
"","psychophysics","88","1037390","0.0-88.0","5c06b3f64a2b7b0001c3c185","64e50ed47c80e98f061990ef","","","","","5022",""," ","key"," ","16.666667774086044","500","250","pz","26","1","0","","","39","25"
"","psychophysics","89","1043958","0.0-89.0","5c06b3f64a2b7b0001c3c185","64e50ed47c80e98f061990ef","","","","","6567",""," ","key"," ","16.66648854961845","500","250","pz","43","1","0","","","20","46"
"","psychophysics","90","1048518","0.0-90.0","5c06b3f64a2b7b0001c3c185","64e50ed47c80e98f061990ef","","","","","4559",""," ","key"," ","16.66641544117652","500","250","pz","41","1","0","","","35","40"
"","psychophysics","91","1051142","0.0-91.0","5c06b3f64a2b7b0001c3c185","64e50ed47c80e98f061990ef","","","","","2622",""," ","key"," ","16.668146496815133","500","250","pz","47","1","0","","","44","45"
"","psychophysics","92","1055935","0.0-92.0","5c06b3f64a2b7b0001c3c185","64e50ed47c80e98f061990ef","","","","","4791",""," ","key"," ","16.66641258741273","500","250","pz","48","1","0","","","58","50"
"","psychophysics","93","1059510","0.0-93.0","5c06b3f64a2b7b0001c3c185","64e50ed47c80e98f061990ef","","","","","3575",""," ","key"," ","16.666439252336527","500","250","pz","50","1","0","","","25","51"
"","psychophysics","94","1064487","0.0-94.0","5c06b3f64a2b7b0001c3c185","64e50ed47c80e98f061990ef","","","","","4975",""," ","key"," ","16.666607382550254","500","250","pz","35","1","0","","","44","35"
"","psychophysics","95","1067759","0.0-95.0","5c06b3f64a2b7b0001c3c185","64e50ed47c80e98f061990ef","","","","","3270",""," ","key"," ","16.666835897436176","500","250","pz","32","1","0","","","29","31"
"","psychophysics","96","1070631","0.0-96.0","5c06b3f64a2b7b0001c3c185","64e50ed47c80e98f061990ef","","","","","2871",""," ","key"," ","16.66649122807001","500","250","pz","29","1","0","","","33","29"
"","psychophysics","97","1077127","0.0-97.0","5c06b3f64a2b7b0001c3c185","64e50ed47c80e98f061990ef","","","","","6495",""," ","key"," ","16.666413881747737","500","250","pz","50","1","0","","","23","53"
"","psychophysics","98","1079879","0.0-98.0","5c06b3f64a2b7b0001c3c185","64e50ed47c80e98f061990ef","","","","","2751",""," ","key"," ","16.667725609755994","500","250","pz","46","1","0","","","44","45"
"","psychophysics","99","1082743","0.0-99.0","5c06b3f64a2b7b0001c3c185","64e50ed47c80e98f061990ef","","","","","2862",""," ","key"," ","16.6662222222229","500","250","pz","30","1","0","","","27","32"
"","psychophysics","100","1086271","0.0-100.0","5c06b3f64a2b7b0001c3c185","64e50ed47c80e98f061990ef","","","","","3527",""," ","key"," ","16.666402843602054","500","250","pz","37","1","0","","","51","37"
"","psychophysics","101","1087151","0.0-101.0","5c06b3f64a2b7b0001c3c185","64e50ed47c80e98f061990ef","","","","","879",""," ","key"," ","16.66101960784427","500","250","inst","","","","","","",""
"","psychophysics","102","1088678","0.0-102.0","5c06b3f64a2b7b0001c3c185","64e50ed47c80e98f061990ef","","","","","1526",""," ","key"," ","16.66663736263853","500","250","instZol0","0","","","0","0","0",""
"","psychophysics","103","1106206","0.0-103.0","5c06b3f64a2b7b0001c3c185","64e50ed47c80e98f061990ef","","","","","17527",""," ","key"," ","16.66651855375849","500","250","instZol1","-2.7755575615628914e-17","","","0","0","-1.3",""
"","psychophysics","104","1117862","0.0-104.0","5c06b3f64a2b7b0001c3c185","64e50ed47c80e98f061990ef","","","","","11655",""," ","key"," ","16.666474212034416","500","250","instZol2","-2.4000000000000004","2","","0","0","2",""
"","psychophysics","105","1187598","0.0-105.0","5c06b3f64a2b7b0001c3c185","64e50ed47c80e98f061990ef","","","","","69735",""," ","key"," ","182.50265183246083","500","250","inst","","","","","","",""
"","psychophysics","106","1195600","0.0-106.0","5c06b3f64a2b7b0001c3c185","64e50ed47c80e98f061990ef","","","","","null","","null","key","null","16.666421711899822","500","250","zol","-0.7799999999999999","2","0","21","12","-0.02",""
"","psychophysics","107","1203601","0.0-107.0","5c06b3f64a2b7b0001c3c185","64e50ed47c80e98f061990ef","","","","","null","","null","key","null","16.666233820459148","500","250","zol","-1.19","2","0","26","18","-0.21",""
"","psychophysics","108","1208654","0.0-108.0","5c06b3f64a2b7b0001c3c185","64e50ed47c80e98f061990ef","","","","","5052",""," ","key"," ","16.66687788778882","500","250","zol","-0.3599999999999999","2","0","-11","-28","0.46",""
"","psychophysics","109","1216657","0.0-109.0","5c06b3f64a2b7b0001c3c185","64e50ed47c80e98f061990ef","","","","","null","","null","key","null","16.666427974947894","500","250","zol","-0.5","2","0","-16","27","-0.2",""
"","psychophysics","110","1221822","0.0-110.0","5c06b3f64a2b7b0001c3c185","64e50ed47c80e98f061990ef","","","","","5164",""," ","key"," ","16.666462783171255","500","250","zol","-1.28","2","0","-6","4","0.18",""
"","psychophysics","111","1226567","0.0-111.0","5c06b3f64a2b7b0001c3c185","64e50ed47c80e98f061990ef","","","","","4743",""," ","key"," ","16.66649469964588","500","250","zol","2.7755575615628914e-17","2","0","25","11","-0.5",""
"","psychophysics","112","1229327","0.0-112.0","5c06b3f64a2b7b0001c3c185","64e50ed47c80e98f061990ef","","","","","2758",""," ","key"," ","16.666569696970736","500","250","zol","-1.2500000000000002","2","0","15","7","0.55",""
"","psychophysics","113","1231678","0.0-113.0","5c06b3f64a2b7b0001c3c185","64e50ed47c80e98f061990ef","","","","","2350",""," ","key"," ","16.666099999999695","500","250","zol","-1.17","2","0","-22","-17","0.57",""
"","psychophysics","114","1235439","0.0-114.0","5c06b3f64a2b7b0001c3c185","64e50ed47c80e98f061990ef","","","","","3759",""," ","key"," ","16.66674666666736","500","250","zol","-0.9799999999999999","2","0","-6","-17","0.48",""
"","psychophysics","115","1239166","0.0-115.0","5c06b3f64a2b7b0001c3c185","64e50ed47c80e98f061990ef","","","","","3726",""," ","key"," ","16.666576576576492","500","250","zol","-0.62","2","0","11","-26","-0.28",""
"","psychophysics","116","1242774","0.0-116.0","5c06b3f64a2b7b0001c3c185","64e50ed47c80e98f061990ef","","","","","3606",""," ","key"," ","16.665763888888588","500","250","zol","-0.92","2","0","-26","-5","0.22",""
"","psychophysics","117","1247254","0.0-117.0","5c06b3f64a2b7b0001c3c185","64e50ed47c80e98f061990ef","","","","","4478",""," ","key"," ","16.666317164179446","500","250","zol","-0.41000000000000003","2","0","-11","-27","0.01",""
"","psychophysics","118","1250078","0.0-118.0","5c06b3f64a2b7b0001c3c185","64e50ed47c80e98f061990ef","","","","","2823",""," ","key"," ","16.666410714285337","500","250","zol","-0.41000000000000003","2","0","-21","-10","-0.59",""
"","psychophysics","119","1253094","0.0-119.0","5c06b3f64a2b7b0001c3c185","64e50ed47c80e98f061990ef","","","","","3015",""," ","key"," ","16.66670000000029","500","250","zol","-0.86","2","0","-11","29","0.46",""
"","psychophysics","120","1256351","0.0-120.0","5c06b3f64a2b7b0001c3c185","64e50ed47c80e98f061990ef","","","","","3256",""," ","key"," ","16.66653333333297","500","250","zol","-0.51","2","0","25","-27","-0.49",""
"","psychophysics","121","1265151","0.0-121.0","5c06b3f64a2b7b0001c3c185","64e50ed47c80e98f061990ef","","","","","8799",""," ","key"," ","16.66655977229602","500","250","inst","","","","","","",""
"","psychophysics","122","1271831","0.0-122.0","5c06b3f64a2b7b0001c3c185","64e50ed47c80e98f061990ef","","","","","6679",""," ","key"," ","16.666523809523735","500","250","instZol1","0.5","","","0","0","-1.3",""
"","psychophysics","123","1283198","0.0-123.0","5c06b3f64a2b7b0001c3c185","64e50ed47c80e98f061990ef","","","","","11366",""," ","key"," ","16.666503671071904","500","250","instZol2","0.20000000000000065","1","","0","0","2",""
"","psychophysics","124","2215976","0.0-124.0","5c06b3f64a2b7b0001c3c185","64e50ed47c80e98f061990ef","","","","","932777",""," ","key"," ","16.73829046961078","500","250","inst","","","","","","",""
"","psychophysics","125","2220744","0.0-125.0","5c06b3f64a2b7b0001c3c185","64e50ed47c80e98f061990ef","","","","","4766",""," ","key"," ","16.66652280701847","500","250","zol","0.5599999999999999","1","1","17","21","0.34",""
"","psychophysics","126","2225664","0.0-126.0","5c06b3f64a2b7b0001c3c185","64e50ed47c80e98f061990ef","","","","","4919",""," ","key"," ","16.66577210884421","500","250","zol","0.6699999999999999","1","1","25","-1","0.63",""
"","psychophysics","127","2228656","0.0-127.0","5c06b3f64a2b7b0001c3c185","64e50ed47c80e98f061990ef","","","","","2991",""," ","key"," ","16.666415730336933","500","250","zol","1.04","1","1","15","-10","-0.04",""
"","psychophysics","128","2231656","0.0-128.0","5c06b3f64a2b7b0001c3c185","64e50ed47c80e98f061990ef","","","","","2999",""," ","key"," ","16.66674301676015","500","250","zol","1.02","1","1","26","21","-0.72",""
"","psychophysics","129","2234672","0.0-129.0","5c06b3f64a2b7b0001c3c185","64e50ed47c80e98f061990ef","","","","","3015",""," ","key"," ","16.666594444442953","500","250","zol","0.71","1","1","6","8","0.29",""
"","psychophysics","130","2236384","0.0-130.0","5c06b3f64a2b7b0001c3c185","64e50ed47c80e98f061990ef","","","","","1711",""," ","key"," ","16.666284313722166","500","250","zol","0.83","1","1","-20","-4","-0.63",""
"","psychophysics","131","2238816","0.0-131.0","5c06b3f64a2b7b0001c3c185","64e50ed47c80e98f061990ef","","","","","2430",""," ","key"," ","16.666172413791305","500","250","zol","0.050000000000000044","1","1","1","3","0.35",""
"","psychophysics","132","2240633","0.0-132.0","5c06b3f64a2b7b0001c3c185","64e50ed47c80e98f061990ef","","","","","1816",""," ","key"," ","16.66625000000069","500","250","zol","0.58","1","1","-25","-14","0.22",""
"","psychophysics","133","2242032","0.0-133.0","5c06b3f64a2b7b0001c3c185","64e50ed47c80e98f061990ef","","","","","1398",""," ","key"," ","16.665927710841938","500","250","zol","0.84","1","1","-8","-17","-0.74",""
"","psychophysics","134","2244457","0.0-134.0","5c06b3f64a2b7b0001c3c185","64e50ed47c80e98f061990ef","","","","","2423",""," ","key"," ","16.6663750000007","500","250","zol","0.59","1","1","12","15","0.01",""
"","psychophysics","135","2247496","0.0-135.0","5c06b3f64a2b7b0001c3c185","64e50ed47c80e98f061990ef","","","","","3038",""," ","key"," ","16.666829670329097","500","250","zol","0.58","1","1","-1","-6","0.02",""
"","psychophysics","136","2250184","0.0-136.0","5c06b3f64a2b7b0001c3c185","64e50ed47c80e98f061990ef","","","","","2687",""," ","key"," ","16.666362499998648","500","250","zol","0.7","1","1","16","-15","0",""
"","psychophysics","137","2252496","0.0-137.0","5c06b3f64a2b7b0001c3c185","64e50ed47c80e98f061990ef","","","","","2310",""," ","key"," ","16.666869565216906","500","250","zol","0.9699999999999999","1","1","30","5","-0.47",""
"","psychophysics","138","2254584","0.0-138.0","5c06b3f64a2b7b0001c3c185","64e50ed47c80e98f061990ef","","","","","2087",""," ","key"," ","16.666088709675318","500","250","zol","0.6799999999999999","1","1","-13","-8","-0.38",""
"","psychophysics","139","2257120","0.0-139.0","5c06b3f64a2b7b0001c3c185","64e50ed47c80e98f061990ef","","","","","2534",""," ","key"," ","16.666562913907754","500","250","zol","1.11","1","1","-8","-20","-0.71",""
"","psychophysics","140","2258480","0.0-140.0","5c06b3f64a2b7b0001c3c185","64e50ed47c80e98f061990ef","","","","","1359",""," ","key"," ","16.666135802468354","500","250","inst","","","","","","",""
"","psychophysics","141","2283720","0.0-141.0","5c06b3f64a2b7b0001c3c185","64e50ed47c80e98f061990ef","","","","","25240",""," ","key"," ","16.666479180436163","500","250","instPz1","47","2","","","","25","50"
"","psychophysics","142","2287920","0.0-142.0","5c06b3f64a2b7b0001c3c185","64e50ed47c80e98f061990ef","","","","","4199",""," ","key"," ","16.6666334661362","500","250","instPz2","31","2","","","","20","35"
"","psychophysics","143","2290984","0.0-143.0","5c06b3f64a2b7b0001c3c185","64e50ed47c80e98f061990ef","","","","","3063",""," ","key"," ","16.666196721313327","500","250","instPz3","31","2","","","","30","100"
"","psychophysics","144","2301576","0.0-144.0","5c06b3f64a2b7b0001c3c185","64e50ed47c80e98f061990ef","","","","","10591",""," ","key"," ","16.666467716535333","500","250","instPz4","83","2","","","","30","100"
"","psychophysics","145","2302720","0.0-145.0","5c06b3f64a2b7b0001c3c185","64e50ed47c80e98f061990ef","","","","","1144",""," ","key"," ","16.667149253731676","500","250","inst","","","","","","",""
"","psychophysics","146","2306664","0.0-146.0","5c06b3f64a2b7b0001c3c185","64e50ed47c80e98f061990ef","","","","","3943",""," ","key"," ","16.66635169491361","500","250","pz","29","2","1","","","39","29"
"","psychophysics","147","2311959","0.0-147.0","5c06b3f64a2b7b0001c3c185","64e50ed47c80e98f061990ef","","","","","5295",""," ","key"," ","16.66634069400625","500","250","pz","47","2","1","","","43","55"
"","psychophysics","148","2315128","0.0-148.0","5c06b3f64a2b7b0001c3c185","64e50ed47c80e98f061990ef","","","","","3168",""," ","key"," ","16.66668253968268","500","250","pz","42","2","1","","","31","48"
"","psychophysics","149","2319610","0.0-149.0","5c06b3f64a2b7b0001c3c185","64e50ed47c80e98f061990ef","","","","","4481",""," ","key"," ","16.666335820894577","500","250","pz","21","2","1","","","46","20"
"","psychophysics","150","2324184","0.0-150.0","5c06b3f64a2b7b0001c3c185","64e50ed47c80e98f061990ef","","","","","4573",""," ","key"," ","16.666432234431333","500","250","pz","42","2","1","","","29","46"
"","psychophysics","151","2326800","0.0-151.0","5c06b3f64a2b7b0001c3c185","64e50ed47c80e98f061990ef","","","","","2615",""," ","key"," ","16.666224358973498","500","250","pz","21","2","1","","","26","24"
"","psychophysics","152","2329600","0.0-152.0","5c06b3f64a2b7b0001c3c185","64e50ed47c80e98f061990ef","","","","","2799",""," ","key"," ","16.666149700598645","500","250","pz","27","2","1","","","26","30"
"","psychophysics","153","2336312","0.0-153.0","5c06b3f64a2b7b0001c3c185","64e50ed47c80e98f061990ef","","","","","6711",""," ","key"," ","16.66647512437799","500","250","pz","49","2","1","","","28","60"
"","psychophysics","154","2341120","0.0-154.0","5c06b3f64a2b7b0001c3c185","64e50ed47c80e98f061990ef","","","","","4808",""," ","key"," ","16.666459930314314","500","250","pz","48","2","1","","","20","55"
"","psychophysics","155","2344112","0.0-155.0","5c06b3f64a2b7b0001c3c185","64e50ed47c80e98f061990ef","","","","","2991",""," ","key"," ","16.664340782122345","500","250","pz","40","2","1","","","42","41"
"","psychophysics","156","2347480","0.0-156.0","5c06b3f64a2b7b0001c3c185","64e50ed47c80e98f061990ef","","","","","3367",""," ","key"," ","16.666263681593172","500","250","pz","30","2","1","","","32","31"
"","psychophysics","157","2350976","0.0-157.0","5c06b3f64a2b7b0001c3c185","64e50ed47c80e98f061990ef","","","","","3495",""," ","key"," ","16.66648803827794","500","250","pz","40","2","1","","","29","47"
"","psychophysics","158","2357208","0.0-158.0","5c06b3f64a2b7b0001c3c185","64e50ed47c80e98f061990ef","","","","","6232",""," ","key"," ","16.66637801608675","500","250","pz","34","2","1","","","59","34"
"","psychophysics","159","2362496","0.0-159.0","5c06b3f64a2b7b0001c3c185","64e50ed47c80e98f061990ef","","","","","5287",""," ","key"," ","16.666452531645344","500","250","pz","19","2","1","","","43","21"
"","psychophysics","160","2365872","0.0-160.0","5c06b3f64a2b7b0001c3c185","64e50ed47c80e98f061990ef","","","","","3375",""," ","key"," ","16.666303482587768","500","250","pz","35","2","1","","","45","41"
"","psychophysics","161","2366848","0.0-161.0","5c06b3f64a2b7b0001c3c185","64e50ed47c80e98f061990ef","","","","","975",""," ","key"," ","16.666189655171834","500","250","inst","","","","","","",""
"","psychophysics","162","2372512","0.0-162.0","5c06b3f64a2b7b0001c3c185","64e50ed47c80e98f061990ef","","","","","5664",""," ","key"," ","16.666442477876448","500","250","instEB1","30","1","","0","0","40","30"
"","psychophysics","163","2380168","0.0-163.0","5c06b3f64a2b7b0001c3c185","64e50ed47c80e98f061990ef","","","","","7655",""," ","key"," ","16.666569868995357","500","250","instEB2","37","1","","0","0","30","40"
"","psychophysics","164","2410320","0.0-164.0","5c06b3f64a2b7b0001c3c185","64e50ed47c80e98f061990ef","","","","","30151",""," ","key"," ","16.66648285398239","500","250","instEB3","38","1","","0","0","27","45"
"","psychophysics","165","2416185","0.0-165.0","5c06b3f64a2b7b0001c3c185","64e50ed47c80e98f061990ef","","","","","5864",""," ","key"," ","16.666524216524746","500","250","instEB4","28","1","","0","0","40","30"
"","psychophysics","166","2417464","0.0-166.0","5c06b3f64a2b7b0001c3c185","64e50ed47c80e98f061990ef","","","","","1279",""," ","key"," ","16.666671052630257","500","250","inst","","","","","","",""
"","psychophysics","167","2421368","0.0-167.0","5c06b3f64a2b7b0001c3c185","64e50ed47c80e98f061990ef","","","","","3903",""," ","key"," ","16.666446351931857","500","250","eb","40","1","","0","0","40","47"
"","psychophysics","168","2425064","0.0-168.0","5c06b3f64a2b7b0001c3c185","64e50ed47c80e98f061990ef","","","","","3695",""," ","key"," ","16.66670588235375","500","250","eb","34","1","","0","0","30","37"
"","psychophysics","169","2428824","0.0-169.0","5c06b3f64a2b7b0001c3c185","64e50ed47c80e98f061990ef","","","","","3759",""," ","key"," ","16.66628444444595","500","250","eb","32","1","","0","0","52","37"
"","psychophysics","170","2433064","0.0-170.0","5c06b3f64a2b7b0001c3c185","64e50ed47c80e98f061990ef","","","","","4239",""," ","key"," ","16.666490118576974","500","250","eb","30","1","","0","0","40","34"
"","psychophysics","171","2435648","0.0-171.0","5c06b3f64a2b7b0001c3c185","64e50ed47c80e98f061990ef","","","","","2584",""," ","key"," ","16.666636363636435","500","250","eb","41","1","","0","0","43","48"
"","psychophysics","172","2438392","0.0-172.0","5c06b3f64a2b7b0001c3c185","64e50ed47c80e98f061990ef","","","","","2743",""," ","key"," ","16.66634756097536","500","250","eb","30","1","","0","0","35","34"
"","psychophysics","173","2441752","0.0-173.0","5c06b3f64a2b7b0001c3c185","64e50ed47c80e98f061990ef","","","","","3359",""," ","key"," ","16.66663500000024","500","250","eb","35","1","","0","0","40","45"
"","psychophysics","174","2446144","0.0-174.0","5c06b3f64a2b7b0001c3c185","64e50ed47c80e98f061990ef","","","","","4391",""," ","key"," ","16.666346007603938","500","250","eb","25","1","","0","0","34","27"
"","psychophysics","175","2450368","0.0-175.0","5c06b3f64a2b7b0001c3c185","64e50ed47c80e98f061990ef","","","","","4223",""," ","key"," ","16.6664285714302","500","250","eb","33","1","","0","0","41","39"
"","psychophysics","176","2453024","0.0-176.0","5c06b3f64a2b7b0001c3c185","64e50ed47c80e98f061990ef","","","","","2655",""," ","key"," ","16.667685534591264","500","250","eb","35","1","","0","0","33","42"
"","psychophysics","177","2457472","0.0-177.0","5c06b3f64a2b7b0001c3c185","64e50ed47c80e98f061990ef","","","","","4447",""," ","key"," ","16.666509433962265","500","250","eb","31","1","","0","0","47","38"
"","psychophysics","178","2460056","0.0-178.0","5c06b3f64a2b7b0001c3c185","64e50ed47c80e98f061990ef","","","","","2583",""," ","key"," ","16.666740259742244","500","250","eb","35","1","","0","0","37","40"
"","psychophysics","179","2466192","0.0-179.0","5c06b3f64a2b7b0001c3c185","64e50ed47c80e98f061990ef","","","","","6134",""," ","key"," ","16.666559782608047","500","250","eb","43","1","","0","0","25","52"
"","psychophysics","180","2468864","0.0-180.0","5c06b3f64a2b7b0001c3c185","64e50ed47c80e98f061990ef","","","","","2671",""," ","key"," ","16.66640880503311","500","250","eb","42","1","","0","0","45","48"
"","psychophysics","181","2473248","0.0-181.0","5c06b3f64a2b7b0001c3c185","64e50ed47c80e98f061990ef","","","","","4383",""," ","key"," ","16.666435114502594","500","250","eb","26","1","","0","0","43","28"
"","psychophysics","182","2476264","0.0-182.0","5c06b3f64a2b7b0001c3c185","64e50ed47c80e98f061990ef","","","","","3015",""," ","key"," ","16.6662999999994","500","250","inst","","","","","","",""
"","psychophysics","183","2492433","0.0-183.0","5c06b3f64a2b7b0001c3c185","64e50ed47c80e98f061990ef","","","","","16167",""," ","key"," ","16.666519091847103","500","250","instBr3","21","2","","0","0","40","300"
"","psychophysics","184","2500368","0.0-184.0","5c06b3f64a2b7b0001c3c185","64e50ed47c80e98f061990ef","","","","","7935",""," ","key"," ","16.666532631579198","500","250","inst","","","","","","",""
"","psychophysics","185","2504008","0.0-185.0","5c06b3f64a2b7b0001c3c185","64e50ed47c80e98f061990ef","","","","","3639",""," ","key"," ","16.666522935780467","500","250","br","16","2","1","20","23","12","263"
"","psychophysics","186","2507448","0.0-186.0","5c06b3f64a2b7b0001c3c185","64e50ed47c80e98f061990ef","","","","","3440",""," ","key"," ","16.666356097561557","500","250","br","14","2","1","-29","-29","8","220"
"","psychophysics","187","2512232","0.0-187.0","5c06b3f64a2b7b0001c3c185","64e50ed47c80e98f061990ef","","","","","4783",""," ","key"," ","16.666853146853864","500","250","br","14","2","1","-22","21","-9","256"
"","psychophysics","188","2514416","0.0-188.0","5c06b3f64a2b7b0001c3c185","64e50ed47c80e98f061990ef","","","","","2183",""," ","key"," ","16.666623076925482","500","250","br","17","2","1","22","-28","11","286"
"","psychophysics","189","2518008","0.0-189.0","5c06b3f64a2b7b0001c3c185","64e50ed47c80e98f061990ef","","","","","3591",""," ","key"," ","16.666097674419195","500","250","br","21","2","1","19","-3","29","240"
"","psychophysics","190","2521744","0.0-190.0","5c06b3f64a2b7b0001c3c185","64e50ed47c80e98f061990ef","","","","","3735",""," ","key"," ","16.666717488790606","500","250","br","14","2","1","-26","19","-9","232"
"","psychophysics","191","2526120","0.0-191.0","5c06b3f64a2b7b0001c3c185","64e50ed47c80e98f061990ef","","","","","4375",""," ","key"," ","16.666590038314105","500","250","br","13","2","1","-8","22","-15","224"
"","psychophysics","192","2529184","0.0-192.0","5c06b3f64a2b7b0001c3c185","64e50ed47c80e98f061990ef","","","","","3063",""," ","key"," ","16.666404371584964","500","250","br","15","2","1","28","5","26","292"
"","psychophysics","193","2532000","0.0-193.0","5c06b3f64a2b7b0001c3c185","64e50ed47c80e98f061990ef","","","","","2815",""," ","key"," ","16.666553571426665","500","250","br","11","2","1","-25","-24","-7","275"
"","psychophysics","194","2534832","0.0-194.0","5c06b3f64a2b7b0001c3c185","64e50ed47c80e98f061990ef","","","","","2831",""," ","key"," ","16.666337278106706","500","250","br","18","2","1","-20","22","18","267"
"","psychophysics","195","2538329","0.0-195.0","5c06b3f64a2b7b0001c3c185","64e50ed47c80e98f061990ef","","","","","3495",""," ","key"," ","16.666449760766387","500","250","br","15","2","1","0","-3","22","223"
"","psychophysics","196","2541792","0.0-196.0","5c06b3f64a2b7b0001c3c185","64e50ed47c80e98f061990ef","","","","","3463",""," ","key"," ","16.66650241545901","500","250","br","14","2","1","-17","-17","-4","234"
"","psychophysics","197","2545160","0.0-197.0","5c06b3f64a2b7b0001c3c185","64e50ed47c80e98f061990ef","","","","","3367",""," ","key"," ","16.666557213928623","500","250","br","12","2","1","-18","19","-12","241"
"","psychophysics","198","2548889","0.0-198.0","5c06b3f64a2b7b0001c3c185","64e50ed47c80e98f061990ef","","","","","3728",""," ","key"," ","16.666409909909774","500","250","br","14","2","1","21","-23","10","238"
"","psychophysics","199","2552384","0.0-199.0","5c06b3f64a2b7b0001c3c185","64e50ed47c80e98f061990ef","","","","","3494",""," ","key"," ","16.666655502391258","500","250","br","17","2","1","-11","20","20","245"
"","psychophysics","200","2553304","0.0-200.0","5c06b3f64a2b7b0001c3c185","64e50ed47c80e98f061990ef","","","","","919",""," ","key"," ","16.661740740743912","500","250","inst","","","","","","",""
"","psychophysics","201","2556697","0.0-201.0","5c06b3f64a2b7b0001c3c185","64e50ed47c80e98f061990ef","","","","","3391",""," ","key"," ","16.66650738916245","500","250","instPog0","340","2","","0","0","370","340"
"","psychophysics","202","2560800","0.0-202.0","5c06b3f64a2b7b0001c3c185","64e50ed47c80e98f061990ef","","","","","4103",""," ","key"," ","16.66750612244846","500","250","instPog1","350","2","","0","0","370","340"
"","psychophysics","203","2564257","0.0-203.0","5c06b3f64a2b7b0001c3c185","64e50ed47c80e98f061990ef","","","","","3456",""," ","key"," ","16.66627053140127","500","250","instPog2","330","2","","0","0","340","340"
"","psychophysics","204","2596760","0.0-204.0","5c06b3f64a2b7b0001c3c185","64e50ed47c80e98f061990ef","","","","","32503",""," ","key"," ","17.361317477285073","500","250","inst","","","","","","",""
"","psychophysics","205","2599312","0.0-205.0","5c06b3f64a2b7b0001c3c185","64e50ed47c80e98f061990ef","","","","","2551",""," ","key"," ","16.666263157897017","500","250","pog","342","2","1","0","0","362","354"
"","psychophysics","206","2604096","0.0-206.0","5c06b3f64a2b7b0001c3c185","64e50ed47c80e98f061990ef","","","","","4783",""," ","key"," ","16.666486013985168","500","250","pog","332","2","1","0","0","306","351"
"","psychophysics","207","2607248","0.0-207.0","5c06b3f64a2b7b0001c3c185","64e50ed47c80e98f061990ef","","","","","3151",""," ","key"," ","16.66653723404198","500","250","pog","361","2","1","0","0","383","378"
"","psychophysics","208","2611873","0.0-208.0","5c06b3f64a2b7b0001c3c185","64e50ed47c80e98f061990ef","","","","","4624",""," ","key"," ","16.667620938627675","500","250","pog","306","2","1","0","0","332","321"
"","psychophysics","209","2615728","0.0-209.0","5c06b3f64a2b7b0001c3c185","64e50ed47c80e98f061990ef","","","","","3855",""," ","key"," ","16.667704347826785","500","250","pog","360","2","1","0","0","356","377"
"","psychophysics","210","2618328","0.0-210.0","5c06b3f64a2b7b0001c3c185","64e50ed47c80e98f061990ef","","","","","2599",""," ","key"," ","16.666535483868493","500","250","pog","353","2","1","0","0","329","370"
"","psychophysics","211","2622217","0.0-211.0","5c06b3f64a2b7b0001c3c185","64e50ed47c80e98f061990ef","","","","","3888",""," ","key"," ","16.66625431034481","500","250","pog","314","2","1","0","0","288","339"
"","psychophysics","212","2626384","0.0-212.0","5c06b3f64a2b7b0001c3c185","64e50ed47c80e98f061990ef","","","","","4167",""," ","key"," ","16.666152610441664","500","250","pog","321","2","1","0","0","349","340"
"","psychophysics","213","2630840","0.0-213.0","5c06b3f64a2b7b0001c3c185","64e50ed47c80e98f061990ef","","","","","4455",""," ","key"," ","16.66653183520482","500","250","pog","338","2","1","0","0","280","365"
"","psychophysics","214","2632736","0.0-214.0","5c06b3f64a2b7b0001c3c185","64e50ed47c80e98f061990ef","","","","","1896",""," ","key"," ","16.666419642856845","500","250","pog","322","2","1","0","0","326","347"
"","psychophysics","215","2637693","0.0-215.0","5c06b3f64a2b7b0001c3c185","64e50ed47c80e98f061990ef","","","","","4956",""," ","key"," ","16.666488215488755","500","250","pog","304","2","1","0","0","356","326"
"","psychophysics","216","2642168","0.0-216.0","5c06b3f64a2b7b0001c3c185","64e50ed47c80e98f061990ef","","","","","4475",""," ","key"," ","16.66499250936444","500","250","pog","328","2","1","0","0","342","344"
"","psychophysics","217","2645192","0.0-217.0","5c06b3f64a2b7b0001c3c185","64e50ed47c80e98f061990ef","","","","","3023",""," ","key"," ","16.666386740333632","500","250","pog","339","2","1","0","0","395","349"
"","psychophysics","218","2649016","0.0-218.0","5c06b3f64a2b7b0001c3c185","64e50ed47c80e98f061990ef","","","","","3824",""," ","key"," ","16.666140350876702","500","250","pog","301","2","1","0","0","377","317"
"","psychophysics","219","2652545","0.0-219.0","5c06b3f64a2b7b0001c3c185","64e50ed47c80e98f061990ef","","","","","3528",""," ","key"," ","16.666398104264786","500","250","pog","345","2","1","0","0","301","361"
