"success","trial_type","trial_index","time_elapsed","internal_node_id","pid","sid","timeout","failed_images","failed_audio","failed_video","rt","stimulus","response","response_type","key_press","avg_frame_time","center_x","center_y","task","resp","version","block","jitterX","jitterY","start","parA"
"true","fullscreen","0","2372","0.0-0.0","63f98876f71b876342753da1","64e509735e9d23ee1e1b4766","","","","","","","","","","","","","","","","","","","",""
"true","preload","1","2481","0.0-1.0","63f98876f71b876342753da1","64e509735e9d23ee1e1b4766","false","[]","[]","[]","","","","","","","","","","","","","","","",""
"","html-button-response","2","3730","0.0-2.0","63f98876f71b876342753da1","64e509735e9d23ee1e1b4766","","","","","1247","Please Make Sure Your Audio Is On.","0","","","","","","","","","","","","",""
"","psychophysics","3","13507","0.0-3.0","63f98876f71b876342753da1","64e509735e9d23ee1e1b4766","","","","","9764",""," ","key"," ","16.65296933560477","640","250","","","","","","","",""
"","psychophysics","4","16693","0.0-4.0","63f98876f71b876342753da1","64e509735e9d23ee1e1b4766","","","","","3184",""," ","key"," ","16.65245263157894","500","250","inst","","","","","","",""
"","psychophysics","5","19566","0.0-5.0","63f98876f71b876342753da1","64e509735e9d23ee1e1b4766","","","","","2866",""," ","key"," ","16.653011627906974","500","250","sample0","","","","","","",""
"","psychophysics","6","20771","0.0-6.0","63f98876f71b876342753da1","64e509735e9d23ee1e1b4766","","","","","1203",""," ","key"," ","20.386620689655157","500","250","sample1","","","","","","",""
"","psychophysics","7","30855","0.0-7.0","63f98876f71b876342753da1","64e509735e9d23ee1e1b4766","","","","","10080",""," ","key"," ","16.652828099173554","500","250","sample2","72","","","","","",""
"","psychophysics","8","34046","0.0-8.0","63f98876f71b876342753da1","64e509735e9d23ee1e1b4766","","","","","3184",""," ","key"," ","16.74108994708992","500","250","sample3","100","","","","","",""
"","psychophysics","9","46886","0.0-9.0","63f98876f71b876342753da1","64e509735e9d23ee1e1b4766","","","","","12834",""," ","key"," ","16.652672727272734","500","250","sample4","98","","","","","",""
"","psychophysics","10","51342","0.0-10.0","63f98876f71b876342753da1","64e509735e9d23ee1e1b4766","","","","","4450",""," ","key"," ","16.654063670411993","500","250","sample5","","","","","","",""
"","psychophysics","11","59530","0.0-11.0","63f98876f71b876342753da1","64e509735e9d23ee1e1b4766","","","","","8187",""," ","key"," ","16.65212016293279","500","250","sample6","500","","","","","",""
"","psychophysics","12","64689","0.0-12.0","63f98876f71b876342753da1","64e509735e9d23ee1e1b4766","","","","","5155",""," ","key"," ","16.652512987012994","500","250","inst","","","","","","",""
"","psychophysics","13","67923","0.0-13.0","63f98876f71b876342753da1","64e509735e9d23ee1e1b4766","","","","","3230",""," ","key"," ","16.652896907216476","500","250","inst","","","","","","",""
"","psychophysics","14","71095","0.0-14.0","63f98876f71b876342753da1","64e509735e9d23ee1e1b4766","","","","","3171",""," ","key"," ","16.65490476190477","500","250","inst","","","","","","",""
"","psychophysics","15","72790","0.0-15.0","63f98876f71b876342753da1","64e509735e9d23ee1e1b4766","","","","","1694",""," ","key"," ","16.653415841584113","500","250","inst","","","","","","",""
"","psychophysics","16","73639","0.0-16.0","63f98876f71b876342753da1","64e509735e9d23ee1e1b4766","","","","","847",""," ","key"," ","16.649799999999814","500","250","inst","","","","","","",""
"","psychophysics","17","76722","0.0-17.0","63f98876f71b876342753da1","64e509735e9d23ee1e1b4766","","","","","3077",""," ","key"," ","16.65214673913049","500","250","instZol0","0","","","0","0","0",""
"","psychophysics","18","84863","0.0-18.0","63f98876f71b876342753da1","64e509735e9d23ee1e1b4766","","","","","8140",""," ","key"," ","16.65267827868852","500","250","instZol1","0.20000000000000004","","","0","0","-1.3",""
"","psychophysics","19","109559","0.0-19.0","63f98876f71b876342753da1","64e509735e9d23ee1e1b4766","","","","","24693",""," ","key"," ","16.652495951417002","500","250","instZol2","-0.8999999999999992","2","","0","0","2",""
"","psychophysics","20","111325","0.0-20.0","63f98876f71b876342753da1","64e509735e9d23ee1e1b4766","","","","","1765",""," ","key"," ","16.654161904761956","500","250","inst","","","","","","",""
"","psychophysics","21","119337","0.0-21.0","63f98876f71b876342753da1","64e509735e9d23ee1e1b4766","","","","","null","","null","key","null","16.652750000000015","500","250","zol","-0.72","2","0","-14","-17","-0.58",""
"","psychophysics","22","127341","0.0-22.0","63f98876f71b876342753da1","64e509735e9d23ee1e1b4766","","","","","null","","null","key","null","16.652895833333332","500","250","zol","-0.6399999999999999","2","0","-6","-9","-0.66",""
"","psychophysics","23","135347","0.0-23.0","63f98876f71b876342753da1","64e509735e9d23ee1e1b4766","","","","","null","","null","key","null","16.652617954070994","500","250","zol","-0.52","2","0","0","19","-0.28",""
"","psychophysics","24","143357","0.0-24.0","63f98876f71b876342753da1","64e509735e9d23ee1e1b4766","","","","","null","","null","key","null","16.652754166666696","500","250","zol","-0.9999999999999999","2","0","-25","0","0.3",""
"","psychophysics","25","151363","0.0-25.0","63f98876f71b876342753da1","64e509735e9d23ee1e1b4766","","","","","null","","null","key","null","16.652556249999968","500","250","zol","-0.7500000000000001","2","0","26","17","0.55",""
"","psychophysics","26","159374","0.0-26.0","63f98876f71b876342753da1","64e509735e9d23ee1e1b4766","","","","","null","","null","key","null","16.652943750000002","500","250","zol","-0.8099999999999999","2","0","-16","-2","-0.49",""
"","psychophysics","27","167383","0.0-27.0","63f98876f71b876342753da1","64e509735e9d23ee1e1b4766","","","","","null","","null","key","null","16.687133611691","500","250","zol","-0.9799999999999999","2","0","28","-3","0.08",""
"","psychophysics","28","175396","0.0-28.0","63f98876f71b876342753da1","64e509735e9d23ee1e1b4766","","","","","null","","null","key","null","16.65322083333334","500","250","zol","-0.8599999999999999","2","0","17","-9","0.06",""
"","psychophysics","29","183401","0.0-29.0","63f98876f71b876342753da1","64e509735e9d23ee1e1b4766","","","","","null","","null","key","null","16.653420833333318","500","250","zol","-0.6499999999999999","2","0","16","-27","-0.65",""
"","psychophysics","30","191410","0.0-30.0","63f98876f71b876342753da1","64e509735e9d23ee1e1b4766","","","","","null","","null","key","null","16.652904166666666","500","250","zol","-0.7799999999999999","2","0","4","5","-0.02",""
"","psychophysics","31","199418","0.0-31.0","63f98876f71b876342753da1","64e509735e9d23ee1e1b4766","","","","","null","","null","key","null","16.653329166666662","500","250","zol","-0.81","2","0","6","-10","0.71",""
"","psychophysics","32","207425","0.0-32.0","63f98876f71b876342753da1","64e509735e9d23ee1e1b4766","","","","","null","","null","key","null","16.65296041666667","500","250","zol","-0.6","2","0","2","4","-0.3",""
"","psychophysics","33","215437","0.0-33.0","63f98876f71b876342753da1","64e509735e9d23ee1e1b4766","","","","","null","","null","key","null","16.65352291666665","500","250","zol","-1.06","2","0","18","-17","-0.44",""
"","psychophysics","34","223444","0.0-34.0","63f98876f71b876342753da1","64e509735e9d23ee1e1b4766","","","","","null","","null","key","null","16.653347916666643","500","250","zol","-1.0599999999999998","2","0","6","28","-0.14",""
"","psychophysics","35","231457","0.0-35.0","63f98876f71b876342753da1","64e509735e9d23ee1e1b4766","","","","","null","","null","key","null","16.65251249999995","500","250","zol","-0.53","2","0","-23","21","-0.07",""
"","psychophysics","36","233268","0.0-36.0","63f98876f71b876342753da1","64e509735e9d23ee1e1b4766","","","","","1806",""," ","key"," ","16.654935185185256","500","250","inst","","","","","","",""
"","psychophysics","37","241194","0.0-37.0","63f98876f71b876342753da1","64e509735e9d23ee1e1b4766","","","","","7921",""," ","key"," ","16.652301052631564","500","250","instPog0","340","2","","0","0","370","340"
"","psychophysics","38","249170","0.0-38.0","63f98876f71b876342753da1","64e509735e9d23ee1e1b4766","","","","","7974",""," ","key"," ","16.65333682008371","500","250","instPog1","344","2","","0","0","370","340"
"","psychophysics","39","255815","0.0-39.0","63f98876f71b876342753da1","64e509735e9d23ee1e1b4766","","","","","6642",""," ","key"," ","16.651821608040173","500","250","instPog2","332","2","","0","0","340","340"
"","psychophysics","40","257495","0.0-40.0","63f98876f71b876342753da1","64e509735e9d23ee1e1b4766","","","","","1679",""," ","key"," ","16.651259999999894","500","250","inst","","","","","","",""
"","psychophysics","41","265502","0.0-41.0","63f98876f71b876342753da1","64e509735e9d23ee1e1b4766","","","","","null","","null","key","null","16.652881002087643","500","250","pog","348","2","0","0","0","336","367"
"","psychophysics","42","273505","0.0-42.0","63f98876f71b876342753da1","64e509735e9d23ee1e1b4766","","","","","null","","null","key","null","16.652664583333294","500","250","pog","336","2","0","0","0","366","354"
"","psychophysics","43","281509","0.0-43.0","63f98876f71b876342753da1","64e509735e9d23ee1e1b4766","","","","","null","","null","key","null","16.652985416666706","500","250","pog","354","2","0","0","0","352","368"
"","psychophysics","44","289515","0.0-44.0","63f98876f71b876342753da1","64e509735e9d23ee1e1b4766","","","","","null","","null","key","null","16.65321711899792","500","250","pog","309","2","0","0","0","331","319"
"","psychophysics","45","297518","0.0-45.0","63f98876f71b876342753da1","64e509735e9d23ee1e1b4766","","","","","null","","null","key","null","16.653114583333323","500","250","pog","357","2","0","0","0","365","367"
"","psychophysics","46","305523","0.0-46.0","63f98876f71b876342753da1","64e509735e9d23ee1e1b4766","","","","","null","","null","key","null","16.652895833333364","500","250","pog","275","2","0","0","0","343","303"
"","psychophysics","47","313525","0.0-47.0","63f98876f71b876342753da1","64e509735e9d23ee1e1b4766","","","","","null","","null","key","null","16.652363256785005","500","250","pog","341","2","0","0","0","363","368"
"","psychophysics","48","321534","0.0-48.0","63f98876f71b876342753da1","64e509735e9d23ee1e1b4766","","","","","null","","null","key","null","16.652870833333388","500","250","pog","343","2","0","0","0","303","369"
"","psychophysics","49","329544","0.0-49.0","63f98876f71b876342753da1","64e509735e9d23ee1e1b4766","","","","","null","","null","key","null","16.65282083333344","500","250","pog","332","2","0","0","0","290","358"
"","psychophysics","50","337549","0.0-50.0","63f98876f71b876342753da1","64e509735e9d23ee1e1b4766","","","","","null","","null","key","null","16.653016666666737","500","250","pog","339","2","0","0","0","285","366"
"","psychophysics","51","345551","0.0-51.0","63f98876f71b876342753da1","64e509735e9d23ee1e1b4766","","","","","null","","null","key","null","16.652513569937376","500","250","pog","331","2","0","0","0","333","351"
"","psychophysics","52","353561","0.0-52.0","63f98876f71b876342753da1","64e509735e9d23ee1e1b4766","","","","","null","","null","key","null","16.65305625000001","500","250","pog","297","2","0","0","0","397","323"
"","psychophysics","53","361570","0.0-53.0","63f98876f71b876342753da1","64e509735e9d23ee1e1b4766","","","","","null","","null","key","null","16.653495833333363","500","250","pog","323","2","0","0","0","357","345"
"","psychophysics","54","369576","0.0-54.0","63f98876f71b876342753da1","64e509735e9d23ee1e1b4766","","","","","null","","null","key","null","16.653647916666767","500","250","pog","292","2","0","0","0","358","315"
"","psychophysics","55","377578","0.0-55.0","63f98876f71b876342753da1","64e509735e9d23ee1e1b4766","","","","","null","","null","key","null","16.65324425887261","500","250","pog","315","2","0","0","0","319","332"
"","psychophysics","56","378611","0.0-56.0","63f98876f71b876342753da1","64e509735e9d23ee1e1b4766","","","","","1028",""," ","key"," ","16.648225806451652","500","250","inst","","","","","","",""
"","psychophysics","57","380015","0.0-57.0","63f98876f71b876342753da1","64e509735e9d23ee1e1b4766","","","","","1401",""," ","key"," ","16.650121951219482","500","250","instEB0","40","1","","0","0","40","40"
"","psychophysics","58","384917","0.0-58.0","63f98876f71b876342753da1","64e509735e9d23ee1e1b4766","","","","","4898",""," ","key"," ","16.65165986394554","500","250","instEB1","35","1","","0","0","40","30"
"","psychophysics","59","388573","0.0-59.0","63f98876f71b876342753da1","64e509735e9d23ee1e1b4766","","","","","3653",""," ","key"," ","16.653054794520415","500","250","instEB2","33","1","","0","0","30","40"
"","psychophysics","60","395610","0.0-60.0","63f98876f71b876342753da1","64e509735e9d23ee1e1b4766","","","","","7035",""," ","key"," ","16.89348915662653","500","250","instEB3","34","1","","0","0","27","45"
"","psychophysics","61","401036","0.0-61.0","63f98876f71b876342753da1","64e509735e9d23ee1e1b4766","","","","","5419",""," ","key"," ","16.651716923076982","500","250","instEB4","36","1","","0","0","40","30"
"","psychophysics","62","402065","0.0-62.0","63f98876f71b876342753da1","64e509735e9d23ee1e1b4766","","","","","1026",""," ","key"," ","16.653819672130698","500","250","inst","","","","","","",""
"","psychophysics","63","410067","0.0-63.0","63f98876f71b876342753da1","64e509735e9d23ee1e1b4766","","","","","null","","null","key","null","16.653676409185753","500","250","eb","23","1","","0","0","50","27"
"","psychophysics","64","418077","0.0-64.0","63f98876f71b876342753da1","64e509735e9d23ee1e1b4766","","","","","null","","null","key","null","16.652137500000027","500","250","eb","23","1","","0","0","46","24"
"","psychophysics","65","426085","0.0-65.0","63f98876f71b876342753da1","64e509735e9d23ee1e1b4766","","","","","null","","null","key","null","16.65315833333322","500","250","eb","47","1","","0","0","54","50"
"","psychophysics","66","434094","0.0-66.0","63f98876f71b876342753da1","64e509735e9d23ee1e1b4766","","","","","null","","null","key","null","16.65266041666667","500","250","eb","36","1","","0","0","51","29"
"","psychophysics","67","442105","0.0-67.0","63f98876f71b876342753da1","64e509735e9d23ee1e1b4766","","","","","null","","null","key","null","16.688281837160822","500","250","eb","36","1","","0","0","27","49"
"","psychophysics","68","450115","0.0-68.0","63f98876f71b876342753da1","64e509735e9d23ee1e1b4766","","","","","null","","null","key","null","16.652868749999957","500","250","eb","27","1","","0","0","29","32"
"","psychophysics","69","458125","0.0-69.0","63f98876f71b876342753da1","64e509735e9d23ee1e1b4766","","","","","null","","null","key","null","16.652520833333377","500","250","eb","44","1","","0","0","50","50"
"","psychophysics","70","466134","0.0-70.0","63f98876f71b876342753da1","64e509735e9d23ee1e1b4766","","","","","null","","null","key","null","16.65244166666671","500","250","eb","45","1","","0","0","54","45"
"","psychophysics","71","474144","0.0-71.0","63f98876f71b876342753da1","64e509735e9d23ee1e1b4766","","","","","null","","null","key","null","16.652497916666714","500","250","eb","37","1","","0","0","33","42"
"","psychophysics","72","482153","0.0-72.0","63f98876f71b876342753da1","64e509735e9d23ee1e1b4766","","","","","null","","null","key","null","16.65264166666663","500","250","eb","23","1","","0","0","43","25"
"","psychophysics","73","490158","0.0-73.0","63f98876f71b876342753da1","64e509735e9d23ee1e1b4766","","","","","null","","null","key","null","16.65255625000003","500","250","eb","46","1","","0","0","51","50"
"","psychophysics","74","498161","0.0-74.0","63f98876f71b876342753da1","64e509735e9d23ee1e1b4766","","","","","null","","null","key","null","16.653570833333287","500","250","eb","37","1","","0","0","32","43"
"","psychophysics","75","506167","0.0-75.0","63f98876f71b876342753da1","64e509735e9d23ee1e1b4766","","","","","null","","null","key","null","16.653006263047974","500","250","eb","37","1","","0","0","33","46"
"","psychophysics","76","514176","0.0-76.0","63f98876f71b876342753da1","64e509735e9d23ee1e1b4766","","","","","null","","null","key","null","16.65210833333331","500","250","eb","42","1","","0","0","32","45"
"","psychophysics","77","522185","0.0-77.0","63f98876f71b876342753da1","64e509735e9d23ee1e1b4766","","","","","null","","null","key","null","16.652364583333352","500","250","eb","43","1","","0","0","46","49"
"","psychophysics","78","523198","0.0-78.0","63f98876f71b876342753da1","64e509735e9d23ee1e1b4766","","","","","1006",""," ","key"," ","16.657683333333505","500","250","inst","","","","","","",""
"","psychophysics","79","524617","0.0-79.0","63f98876f71b876342753da1","64e509735e9d23ee1e1b4766","","","","","1417",""," ","key"," ","16.649761904761405","500","250","instPzPre","50","0","","","","50","50"
"","psychophysics","80","526939","0.0-80.0","63f98876f71b876342753da1","64e509735e9d23ee1e1b4766","","","","","2314",""," ","key"," ","16.654798561151026","500","250","instPz0","51","1","","","","50","50"
"","psychophysics","81","530356","0.0-81.0","63f98876f71b876342753da1","64e509735e9d23ee1e1b4766","","","","","3415",""," ","key"," ","16.653225490196228","500","250","instPz1","37","1","","","","25","50"
"","psychophysics","82","535650","0.0-82.0","63f98876f71b876342753da1","64e509735e9d23ee1e1b4766","","","","","5291",""," ","key"," ","16.65305993690821","500","250","instPz2","20","1","","","","35","20"
"","psychophysics","83","539690","0.0-83.0","63f98876f71b876342753da1","64e509735e9d23ee1e1b4766","","","","","4035",""," ","key"," ","16.65315352697109","500","250","instPz3","120","1","","","","100","30"
"","psychophysics","84","547606","0.0-84.0","63f98876f71b876342753da1","64e509735e9d23ee1e1b4766","","","","","7911",""," ","key"," ","16.65344631578945","500","250","instPz4","34","1","","","","100","30"
"","psychophysics","85","548203","0.0-85.0","63f98876f71b876342753da1","64e509735e9d23ee1e1b4766","","","","","595",""," ","key"," ","16.651200000000454","500","250","inst","","","","","","",""
"","psychophysics","86","556210","0.0-86.0","63f98876f71b876342753da1","64e509735e9d23ee1e1b4766","","","","","null","","null","key","null","16.653471816284","500","250","pz","48","1","0","","","28","55"
"","psychophysics","87","564218","0.0-87.0","63f98876f71b876342753da1","64e509735e9d23ee1e1b4766","","","","","null","","null","key","null","16.65272708333335","500","250","pz","39","1","0","","","32","38"
"","psychophysics","88","572228","0.0-88.0","63f98876f71b876342753da1","64e509735e9d23ee1e1b4766","","","","","null","","null","key","null","16.65327291666666","500","250","pz","46","1","0","","","46","42"
"","psychophysics","89","580234","0.0-89.0","63f98876f71b876342753da1","64e509735e9d23ee1e1b4766","","","","","null","","null","key","null","16.65339583333334","500","250","pz","34","1","0","","","23","37"
"","psychophysics","90","588238","0.0-90.0","63f98876f71b876342753da1","64e509735e9d23ee1e1b4766","","","","","null","","null","key","null","16.65345416666678","500","250","pz","43","1","0","","","52","38"
"","psychophysics","91","596243","0.0-91.0","63f98876f71b876342753da1","64e509735e9d23ee1e1b4766","","","","","null","","null","key","null","16.65211691022977","500","250","pz","35","1","0","","","36","35"
"","psychophysics","92","604251","0.0-92.0","63f98876f71b876342753da1","64e509735e9d23ee1e1b4766","","","","","null","","null","key","null","16.652239583333238","500","250","pz","38","1","0","","","21","37"
"","psychophysics","93","612257","0.0-93.0","63f98876f71b876342753da1","64e509735e9d23ee1e1b4766","","","","","null","","null","key","null","16.65256041666677","500","250","pz","49","1","0","","","49","39"
"","psychophysics","94","620262","0.0-94.0","63f98876f71b876342753da1","64e509735e9d23ee1e1b4766","","","","","null","","null","key","null","16.687098121085587","500","250","pz","24","1","0","","","52","24"
"","psychophysics","95","628266","0.0-95.0","63f98876f71b876342753da1","64e509735e9d23ee1e1b4766","","","","","null","","null","key","null","16.65280584551152","500","250","pz","60","1","0","","","57","53"
"","psychophysics","96","636276","0.0-96.0","63f98876f71b876342753da1","64e509735e9d23ee1e1b4766","","","","","null","","null","key","null","16.652949999999933","500","250","pz","29","1","0","","","32","27"
"","psychophysics","97","644287","0.0-97.0","63f98876f71b876342753da1","64e509735e9d23ee1e1b4766","","","","","null","","null","key","null","16.652962500000044","500","250","pz","52","1","0","","","35","44"
"","psychophysics","98","652293","0.0-98.0","63f98876f71b876342753da1","64e509735e9d23ee1e1b4766","","","","","null","","null","key","null","16.65224583333329","500","250","pz","43","1","0","","","36","46"
"","psychophysics","99","660303","0.0-99.0","63f98876f71b876342753da1","64e509735e9d23ee1e1b4766","","","","","null","","null","key","null","16.652529166666742","500","250","pz","38","1","0","","","46","34"
"","psychophysics","100","668310","0.0-100.0","63f98876f71b876342753da1","64e509735e9d23ee1e1b4766","","","","","null","","null","key","null","16.65234583333343","500","250","pz","33","1","0","","","47","30"
"","psychophysics","101","669192","0.0-101.0","63f98876f71b876342753da1","64e509735e9d23ee1e1b4766","","","","","875",""," ","key"," ","16.65675000000136","500","250","inst","","","","","","",""
"","psychophysics","102","670483","0.0-102.0","63f98876f71b876342753da1","64e509735e9d23ee1e1b4766","","","","","1280",""," ","key"," ","16.656896103896177","500","250","instBr0","0","","","0","0","0","300"
"","psychophysics","103","671645","0.0-103.0","63f98876f71b876342753da1","64e509735e9d23ee1e1b4766","","","","","1159",""," ","key"," ","16.654942028985385","500","250","instBr1","-40","","","0","0","-40","300"
"","psychophysics","104","673643","0.0-104.0","63f98876f71b876342753da1","64e509735e9d23ee1e1b4766","","","","","1996",""," ","key"," ","16.649361344537613","500","250","instBr3","40","2","","0","0","40","300"
"","psychophysics","105","674229","0.0-105.0","63f98876f71b876342753da1","64e509735e9d23ee1e1b4766","","","","","584",""," ","key"," ","16.646764705882077","500","250","inst","","","","","","",""
"","psychophysics","106","682232","0.0-106.0","63f98876f71b876342753da1","64e509735e9d23ee1e1b4766","","","","","null","","null","key","null","16.65231106471803","500","250","br","12","2","0","10","-18","4","261"
"","psychophysics","107","690238","0.0-107.0","63f98876f71b876342753da1","64e509735e9d23ee1e1b4766","","","","","null","","null","key","null","16.653052083333264","500","250","br","14","2","0","-2","-27","-21","272"
"","psychophysics","108","698244","0.0-108.0","63f98876f71b876342753da1","64e509735e9d23ee1e1b4766","","","","","null","","null","key","null","16.653183333333192","500","250","br","14","2","0","30","-25","-27","251"
"","psychophysics","109","706250","0.0-109.0","63f98876f71b876342753da1","64e509735e9d23ee1e1b4766","","","","","null","","null","key","null","16.687321503131432","500","250","br","16","2","0","28","-8","-13","241"
"","psychophysics","110","714256","0.0-110.0","63f98876f71b876342753da1","64e509735e9d23ee1e1b4766","","","","","null","","null","key","null","16.6523215031314","500","250","br","14","2","0","14","17","29","202"
"","psychophysics","111","722268","0.0-111.0","63f98876f71b876342753da1","64e509735e9d23ee1e1b4766","","","","","null","","null","key","null","16.68810855949906","500","250","br","25","2","0","15","-4","-19","206"
"","psychophysics","112","730272","0.0-112.0","63f98876f71b876342753da1","64e509735e9d23ee1e1b4766","","","","","null","","null","key","null","16.653322916666852","500","250","br","21","2","0","27","3","25","290"
"","psychophysics","113","738277","0.0-113.0","63f98876f71b876342753da1","64e509735e9d23ee1e1b4766","","","","","null","","null","key","null","16.653416666666697","500","250","br","22","2","0","-14","15","5","284"
"","psychophysics","114","746282","0.0-114.0","63f98876f71b876342753da1","64e509735e9d23ee1e1b4766","","","","","null","","null","key","null","16.653050104384107","500","250","br","19","2","0","25","-27","-2","247"
"","psychophysics","115","754291","0.0-115.0","63f98876f71b876342753da1","64e509735e9d23ee1e1b4766","","","","","null","","null","key","null","16.65209791666663","500","250","br","17","2","0","-6","-1","-6","222"
"","psychophysics","116","762297","0.0-116.0","63f98876f71b876342753da1","64e509735e9d23ee1e1b4766","","","","","null","","null","key","null","16.65345624999997","500","250","br","12","2","0","23","-16","-22","272"
"","psychophysics","117","770300","0.0-117.0","63f98876f71b876342753da1","64e509735e9d23ee1e1b4766","","","","","null","","null","key","null","16.688286012526124","500","250","br","19","2","0","5","-23","-19","236"
"","psychophysics","118","778306","0.0-118.0","63f98876f71b876342753da1","64e509735e9d23ee1e1b4766","","","","","null","","null","key","null","16.687029288702735","500","250","br","20","2","0","13","21","-19","244"
"","psychophysics","119","786311","0.0-119.0","63f98876f71b876342753da1","64e509735e9d23ee1e1b4766","","","","","null","","null","key","null","16.65228333333313","500","250","br","22","2","0","26","-29","23","222"
"","psychophysics","120","794319","0.0-120.0","63f98876f71b876342753da1","64e509735e9d23ee1e1b4766","","","","","null","","null","key","null","16.652972916666478","500","250","br","18","2","0","-17","2","-2","253"
"","psychophysics","121","795294","0.0-121.0","63f98876f71b876342753da1","64e509735e9d23ee1e1b4766","","","","","969",""," ","key"," ","16.650965517242277","500","250","inst","","","","","","",""
"","psychophysics","122","800467","0.0-122.0","63f98876f71b876342753da1","64e509735e9d23ee1e1b4766","","","","","5170",""," ","key"," ","16.653100323624844","500","250","instZol1","0.30000000000000004","","","0","0","-1.3",""
"","psychophysics","123","803105","0.0-123.0","63f98876f71b876342753da1","64e509735e9d23ee1e1b4766","","","","","2632",""," ","key"," ","16.654537974683645","500","250","instZol2","-2.7000000000000006","1","","0","0","2",""
"","psychophysics","124","803827","0.0-124.0","63f98876f71b876342753da1","64e509735e9d23ee1e1b4766","","","","","719",""," ","key"," ","16.66411904762","500","250","inst","","","","","","",""
"","psychophysics","125","811829","0.0-125.0","63f98876f71b876342753da1","64e509735e9d23ee1e1b4766","","","","","null","","null","key","null","16.652466666666683","500","250","zol","0.17","1","1","-10","23","0.63",""
"","psychophysics","126","819834","0.0-126.0","63f98876f71b876342753da1","64e509735e9d23ee1e1b4766","","","","","null","","null","key","null","16.651793319415514","500","250","zol","0.7599999999999999","1","1","23","-20","-0.06",""
"","psychophysics","127","827843","0.0-127.0","63f98876f71b876342753da1","64e509735e9d23ee1e1b4766","","","","","null","","null","key","null","16.652627083333453","500","250","zol","1.0499999999999998","1","1","1","27","0.15",""
"","psychophysics","128","835848","0.0-128.0","63f98876f71b876342753da1","64e509735e9d23ee1e1b4766","","","","","null","","null","key","null","16.653410416666883","500","250","zol","0.74","1","1","24","0","0.36",""
"","psychophysics","129","843857","0.0-129.0","63f98876f71b876342753da1","64e509735e9d23ee1e1b4766","","","","","null","","null","key","null","16.65320208333336","500","250","zol","0.37","1","1","21","22","-0.37",""
"","psychophysics","130","851863","0.0-130.0","63f98876f71b876342753da1","64e509735e9d23ee1e1b4766","","","","","null","","null","key","null","16.653154488517814","500","250","zol","0.23","1","1","-25","18","0.37",""
"","psychophysics","131","859873","0.0-131.0","63f98876f71b876342753da1","64e509735e9d23ee1e1b4766","","","","","null","","null","key","null","16.65255208333353","500","250","zol","1.19","1","1","-12","-3","-0.69",""
"","psychophysics","132","867883","0.0-132.0","63f98876f71b876342753da1","64e509735e9d23ee1e1b4766","","","","","null","","null","key","null","16.652904166666605","500","250","zol","0.5","1","1","21","-30","-0.3",""
"","psychophysics","133","875888","0.0-133.0","63f98876f71b876342753da1","64e509735e9d23ee1e1b4766","","","","","null","","null","key","null","16.652766666666626","500","250","zol","0.7799999999999999","1","1","-28","-6","0.72",""
"","psychophysics","134","883897","0.0-134.0","63f98876f71b876342753da1","64e509735e9d23ee1e1b4766","","","","","null","","null","key","null","16.653343749999962","500","250","zol","1.2600000000000002","1","1","-22","7","-0.46",""
"","psychophysics","135","891902","0.0-135.0","63f98876f71b876342753da1","64e509735e9d23ee1e1b4766","","","","","null","","null","key","null","16.653404166666586","500","250","zol","0.9199999999999999","1","1","19","-16","0.28",""
"","psychophysics","136","899906","0.0-136.0","63f98876f71b876342753da1","64e509735e9d23ee1e1b4766","","","","","null","","null","key","null","16.652198329853967","500","250","zol","0.7799999999999999","1","1","9","12","0.12",""
"","psychophysics","137","907909","0.0-137.0","63f98876f71b876342753da1","64e509735e9d23ee1e1b4766","","","","","null","","null","key","null","16.6870438413362","500","250","zol","1.28","1","1","14","7","0.42",""
"","psychophysics","138","915923","0.0-138.0","63f98876f71b876342753da1","64e509735e9d23ee1e1b4766","","","","","null","","null","key","null","16.65291458333328","500","250","zol","0.5200000000000001","1","1","19","-27","-0.72",""
"","psychophysics","139","923934","0.0-139.0","63f98876f71b876342753da1","64e509735e9d23ee1e1b4766","","","","","null","","null","key","null","16.652266112266094","500","250","zol","-0.04000000000000001","1","1","13","23","0.04",""
"","psychophysics","140","924788","0.0-140.0","63f98876f71b876342753da1","64e509735e9d23ee1e1b4766","","","","","847",""," ","key"," ","16.653800000001212","500","250","inst","","","","","","",""
"","psychophysics","141","929949","0.0-141.0","63f98876f71b876342753da1","64e509735e9d23ee1e1b4766","","","","","5159",""," ","key"," ","16.65294174757269","500","250","instPz1","22","2","","","","25","50"
"","psychophysics","142","930481","0.0-142.0","63f98876f71b876342753da1","64e509735e9d23ee1e1b4766","","","","","529",""," ","key"," ","16.6608387096785","500","250","instPz2","20","2","","","","20","35"
"","psychophysics","143","931699","0.0-143.0","63f98876f71b876342753da1","64e509735e9d23ee1e1b4766","","","","","1208",""," ","key"," ","16.654847222221886","500","250","instPz3","30","2","","","","30","100"
"","psychophysics","144","932295","0.0-144.0","63f98876f71b876342753da1","64e509735e9d23ee1e1b4766","","","","","593",""," ","key"," ","16.648200000000983","500","250","instPz4","30","2","","","","30","100"
"","psychophysics","145","932911","0.0-145.0","63f98876f71b876342753da1","64e509735e9d23ee1e1b4766","","","","","614",""," ","key"," ","16.641583333331962","500","250","inst","","","","","","",""
"","psychophysics","146","940915","0.0-146.0","63f98876f71b876342753da1","64e509735e9d23ee1e1b4766","","","","","null","","null","key","null","16.653008350730623","500","250","pz","27","2","1","","","41","33"
"","psychophysics","147","948920","0.0-147.0","63f98876f71b876342753da1","64e509735e9d23ee1e1b4766","","","","","null","","null","key","null","16.652806249999898","500","250","pz","31","2","1","","","36","31"
"","psychophysics","148","956927","0.0-148.0","63f98876f71b876342753da1","64e509735e9d23ee1e1b4766","","","","","null","","null","key","null","16.65315416666684","500","250","pz","34","2","1","","","41","40"
"","psychophysics","149","964939","0.0-149.0","63f98876f71b876342753da1","64e509735e9d23ee1e1b4766","","","","","null","","null","key","null","16.652850000000036","500","250","pz","36","2","1","","","48","34"
"","psychophysics","150","972944","0.0-150.0","63f98876f71b876342753da1","64e509735e9d23ee1e1b4766","","","","","null","","null","key","null","16.65350104384134","500","250","pz","30","2","1","","","27","50"
"","psychophysics","151","980952","0.0-151.0","63f98876f71b876342753da1","64e509735e9d23ee1e1b4766","","","","","null","","null","key","null","16.65292916666658","500","250","pz","27","2","1","","","33","34"
"","psychophysics","152","988962","0.0-152.0","63f98876f71b876342753da1","64e509735e9d23ee1e1b4766","","","","","null","","null","key","null","16.65275833333338","500","250","pz","36","2","1","","","32","45"
"","psychophysics","153","996969","0.0-153.0","63f98876f71b876342753da1","64e509735e9d23ee1e1b4766","","","","","null","","null","key","null","16.653414583333262","500","250","pz","40","2","1","","","32","56"
"","psychophysics","154","1004978","0.0-154.0","63f98876f71b876342753da1","64e509735e9d23ee1e1b4766","","","","","null","","null","key","null","16.653095833333403","500","250","pz","21","2","1","","","35","24"
"","psychophysics","155","1012987","0.0-155.0","63f98876f71b876342753da1","64e509735e9d23ee1e1b4766","","","","","null","","null","key","null","16.653445833333535","500","250","pz","41","2","1","","","47","44"
"","psychophysics","156","1020986","0.0-156.0","63f98876f71b876342753da1","64e509735e9d23ee1e1b4766","","","","","null","","null","key","null","16.652962500000044","500","250","pz","21","2","1","","","48","23"
"","psychophysics","157","1028993","0.0-157.0","63f98876f71b876342753da1","64e509735e9d23ee1e1b4766","","","","","null","","null","key","null","16.65294780793317","500","250","pz","32","2","1","","","34","36"
"","psychophysics","158","1037005","0.0-158.0","63f98876f71b876342753da1","64e509735e9d23ee1e1b4766","","","","","null","","null","key","null","16.65319334719332","500","250","pz","42","2","1","","","45","47"
"","psychophysics","159","1045016","0.0-159.0","63f98876f71b876342753da1","64e509735e9d23ee1e1b4766","","","","","null","","null","key","null","16.65337291666656","500","250","pz","17","2","1","","","58","20"
"","psychophysics","160","1053026","0.0-160.0","63f98876f71b876342753da1","64e509735e9d23ee1e1b4766","","","","","null","","null","key","null","16.652441666666952","500","250","pz","30","2","1","","","27","33"
"","psychophysics","161","1054004","0.0-161.0","63f98876f71b876342753da1","64e509735e9d23ee1e1b4766","","","","","972",""," ","key"," ","16.65215789474008","500","250","inst","","","","","","",""
"","psychophysics","162","1057927","0.0-162.0","63f98876f71b876342753da1","64e509735e9d23ee1e1b4766","","","","","3918",""," ","key"," ","16.654080851063963","500","250","instPog0","168","1","","0","0","190","160"
"","psychophysics","163","1058244","0.0-163.0","63f98876f71b876342753da1","64e509735e9d23ee1e1b4766","","","","","314",""," ","key"," ","16.64988888889396","500","250","instPog1","190","1","","0","0","190","160"
"","psychophysics","164","1059369","0.0-164.0","63f98876f71b876342753da1","64e509735e9d23ee1e1b4766","","","","","1115",""," ","key"," ","16.659196969696715","500","250","instPog2","160","1","","0","0","160","160"
"","psychophysics","165","1060380","0.0-165.0","63f98876f71b876342753da1","64e509735e9d23ee1e1b4766","","","","","1007",""," ","key"," ","16.654882352940703","500","250","inst","","","","","","",""
"","psychophysics","166","1068384","0.0-166.0","63f98876f71b876342753da1","64e509735e9d23ee1e1b4766","","","","","null","","null","key","null","16.627839916839754","500","250","pog","196","1","1","0","0","218","166"
"","psychophysics","167","1076390","0.0-167.0","63f98876f71b876342753da1","64e509735e9d23ee1e1b4766","","","","","null","","null","key","null","16.65352291666689","500","250","pog","146","1","1","0","0","216","132"
"","psychophysics","168","1084403","0.0-168.0","63f98876f71b876342753da1","64e509735e9d23ee1e1b4766","","","","","null","","null","key","null","16.653935416667082","500","250","pog","171","1","1","0","0","107","145"
"","psychophysics","169","1092413","0.0-169.0","63f98876f71b876342753da1","64e509735e9d23ee1e1b4766","","","","","null","","null","key","null","16.652947916666744","500","250","pog","229","1","1","0","0","133","197"
"","psychophysics","170","1100416","0.0-170.0","63f98876f71b876342753da1","64e509735e9d23ee1e1b4766","","","","","null","","null","key","null","16.65261586638807","500","250","pog","207","1","1","0","0","109","174"
"","psychophysics","171","1108423","0.0-171.0","63f98876f71b876342753da1","64e509735e9d23ee1e1b4766","","","","","null","","null","key","null","16.649958333333295","500","250","pog","221","1","1","0","0","201","194"
"","psychophysics","172","1116426","0.0-172.0","63f98876f71b876342753da1","64e509735e9d23ee1e1b4766","","","","","null","","null","key","null","16.65222083333307","500","250","pog","169","1","1","0","0","203","143"
"","psychophysics","173","1124429","0.0-173.0","63f98876f71b876342753da1","64e509735e9d23ee1e1b4766","","","","","null","","null","key","null","16.650208768267127","500","250","pog","223","1","1","0","0","133","187"
"","psychophysics","174","1132431","0.0-174.0","63f98876f71b876342753da1","64e509735e9d23ee1e1b4766","","","","","null","","null","key","null","16.65432083333338","500","250","pog","167","1","1","0","0","175","140"
"","psychophysics","175","1140442","0.0-175.0","63f98876f71b876342753da1","64e509735e9d23ee1e1b4766","","","","","null","","null","key","null","16.653464583333697","500","250","pog","154","1","1","0","0","150","134"
"","psychophysics","176","1148446","0.0-176.0","63f98876f71b876342753da1","64e509735e9d23ee1e1b4766","","","","","null","","null","key","null","16.65198124999976","500","250","pog","127","1","1","0","0","127","133"
"","psychophysics","177","1156449","0.0-177.0","63f98876f71b876342753da1","64e509735e9d23ee1e1b4766","","","","","null","","null","key","null","16.653885177452807","500","250","pog","146","1","1","0","0","182","129"
"","psychophysics","178","1164453","0.0-178.0","63f98876f71b876342753da1","64e509735e9d23ee1e1b4766","","","","","null","","null","key","null","16.653050000000317","500","250","pog","184","1","1","0","0","208","156"
"","psychophysics","179","1172462","0.0-179.0","63f98876f71b876342753da1","64e509735e9d23ee1e1b4766","","","","","null","","null","key","null","16.654666666666646","500","250","pog","157","1","1","0","0","135","131"
"","psychophysics","180","1180471","0.0-180.0","63f98876f71b876342753da1","64e509735e9d23ee1e1b4766","","","","","null","","null","key","null","16.654375000000194","500","250","pog","215","1","1","0","0","105","176"
"","psychophysics","181","1215411","0.0-181.0","63f98876f71b876342753da1","64e509735e9d23ee1e1b4766","","","","","34931",""," ","key"," ","16.65268240343339","500","250","inst","","","","","","",""
"","psychophysics","182","1221294","0.0-182.0","63f98876f71b876342753da1","64e509735e9d23ee1e1b4766","","","","","5880",""," ","key"," ","16.99077391304359","500","250","instEB1","35","2","","0","0","30","40"
"","psychophysics","183","1221491","0.0-183.0","63f98876f71b876342753da1","64e509735e9d23ee1e1b4766","","","","","193",""," ","key"," ","16.678545454538174","500","250","instEB2","40","2","","0","0","40","30"
"","psychophysics","184","1221654","0.0-184.0","63f98876f71b876342753da1","64e509735e9d23ee1e1b4766","","","","","156",""," ","key"," ","16.701250000012806","500","250","instEB3","45","2","","0","0","45","27"
"","psychophysics","185","1221828","0.0-185.0","63f98876f71b876342753da1","64e509735e9d23ee1e1b4766","","","","","170",""," ","key"," ","16.577799999993296","500","250","instEB4","30","2","","0","0","30","40"
"","psychophysics","186","1222326","0.0-186.0","63f98876f71b876342753da1","64e509735e9d23ee1e1b4766","","","","","496",""," ","key"," ","16.647344827587748","500","250","inst","","","","","","",""
"","psychophysics","187","1230328","0.0-187.0","63f98876f71b876342753da1","64e509735e9d23ee1e1b4766","","","","","null","","null","key","null","16.652839583333602","500","250","eb","37","2","","0","0","26","29"
"","psychophysics","188","1238334","0.0-188.0","63f98876f71b876342753da1","64e509735e9d23ee1e1b4766","","","","","null","","null","key","null","16.65329227557392","500","250","eb","47","2","","0","0","47","37"
"","psychophysics","189","1246343","0.0-189.0","63f98876f71b876342753da1","64e509735e9d23ee1e1b4766","","","","","null","","null","key","null","16.652668749999915","500","250","eb","48","2","","0","0","42","42"
"","psychophysics","190","1254356","0.0-190.0","63f98876f71b876342753da1","64e509735e9d23ee1e1b4766","","","","","null","","null","key","null","16.653670833333067","500","250","eb","48","2","","0","0","51","42"
"","psychophysics","191","1262362","0.0-191.0","63f98876f71b876342753da1","64e509735e9d23ee1e1b4766","","","","","null","","null","key","null","16.652168749999934","500","250","eb","32","2","","0","0","26","25"
"","psychophysics","192","1270373","0.0-192.0","63f98876f71b876342753da1","64e509735e9d23ee1e1b4766","","","","","null","","null","key","null","16.65289166666674","500","250","eb","51","2","","0","0","39","46"
"","psychophysics","193","1278382","0.0-193.0","63f98876f71b876342753da1","64e509735e9d23ee1e1b4766","","","","","null","","null","key","null","16.6529541666668","500","250","eb","30","2","","0","0","37","27"
"","psychophysics","194","1286391","0.0-194.0","63f98876f71b876342753da1","64e509735e9d23ee1e1b4766","","","","","null","","null","key","null","16.653018750000047","500","250","eb","44","2","","0","0","49","38"
"","psychophysics","195","1294401","0.0-195.0","63f98876f71b876342753da1","64e509735e9d23ee1e1b4766","","","","","null","","null","key","null","16.653062500000427","500","250","eb","54","2","","0","0","24","50"
"","psychophysics","196","1302408","0.0-196.0","63f98876f71b876342753da1","64e509735e9d23ee1e1b4766","","","","","null","","null","key","null","16.653420833333318","500","250","eb","35","2","","0","0","42","29"
"","psychophysics","197","1310417","0.0-197.0","63f98876f71b876342753da1","64e509735e9d23ee1e1b4766","","","","","null","","null","key","null","16.653343749999962","500","250","eb","55","2","","0","0","43","46"
"","psychophysics","198","1318429","0.0-198.0","63f98876f71b876342753da1","64e509735e9d23ee1e1b4766","","","","","null","","null","key","null","16.653312500000176","500","250","eb","52","2","","0","0","54","42"
"","psychophysics","199","1326439","0.0-199.0","63f98876f71b876342753da1","64e509735e9d23ee1e1b4766","","","","","null","","null","key","null","16.653572916666842","500","250","eb","49","2","","0","0","29","45"
"","psychophysics","200","1334442","0.0-200.0","63f98876f71b876342753da1","64e509735e9d23ee1e1b4766","","","","","null","","null","key","null","16.652495833333038","500","250","eb","33","2","","0","0","40","28"
"","psychophysics","201","1342451","0.0-201.0","63f98876f71b876342753da1","64e509735e9d23ee1e1b4766","","","","","null","","null","key","null","16.652901878914385","500","250","eb","57","2","","0","0","28","52"
"","psychophysics","202","1344019","0.0-202.0","63f98876f71b876342753da1","64e509735e9d23ee1e1b4766","","","","","1556",""," ","key"," ","16.65489361702187","500","250","inst","","","","","","",""
"","psychophysics","203","1344931","0.0-203.0","63f98876f71b876342753da1","64e509735e9d23ee1e1b4766","","","","","906",""," ","key"," ","16.656584905658164","500","250","instBr3","40","1","","0","0","40","300"
"","psychophysics","204","1345389","0.0-204.0","63f98876f71b876342753da1","64e509735e9d23ee1e1b4766","","","","","454",""," ","key"," ","16.66333333333023","500","250","inst","","","","","","",""
"","psychophysics","205","1353392","0.0-205.0","63f98876f71b876342753da1","64e509735e9d23ee1e1b4766","","","","","null","","null","key","null","16.653047916667127","500","250","br","-16","1","1","22","-7","-8","273"
"","psychophysics","206","1361403","0.0-206.0","63f98876f71b876342753da1","64e509735e9d23ee1e1b4766","","","","","null","","null","key","null","16.65263750000013","500","250","br","-20","1","1","12","21","16","276"
"","psychophysics","207","1369414","0.0-207.0","63f98876f71b876342753da1","64e509735e9d23ee1e1b4766","","","","","null","","null","key","null","16.653554166666677","500","250","br","-15","1","1","6","-2","18","265"
"","psychophysics","208","1377417","0.0-208.0","63f98876f71b876342753da1","64e509735e9d23ee1e1b4766","","","","","null","","null","key","null","16.652759916492737","500","250","br","-14","1","1","-21","-5","-12","201"
"","psychophysics","209","1385436","0.0-209.0","63f98876f71b876342753da1","64e509735e9d23ee1e1b4766","","","","","null","","null","key","null","16.653301455301722","500","250","br","-11","1","1","-4","14","6","219"
"","psychophysics","210","1393442","0.0-210.0","63f98876f71b876342753da1","64e509735e9d23ee1e1b4766","","","","","null","","null","key","null","16.651968684759563","500","250","br","-17","1","1","0","-7","-20","234"
"","psychophysics","211","1401454","0.0-211.0","63f98876f71b876342753da1","64e509735e9d23ee1e1b4766","","","","","null","","null","key","null","16.65246777546741","500","250","br","-14","1","1","-23","29","8","249"
"","psychophysics","212","1409461","0.0-212.0","63f98876f71b876342753da1","64e509735e9d23ee1e1b4766","","","","","null","","null","key","null","16.652436325678483","500","250","br","-12","1","1","24","14","16","249"
"","psychophysics","213","1417469","0.0-213.0","63f98876f71b876342753da1","64e509735e9d23ee1e1b4766","","","","","null","","null","key","null","16.65282916666668","500","250","br","-10","1","1","14","21","22","229"
"","psychophysics","214","1425480","0.0-214.0","63f98876f71b876342753da1","64e509735e9d23ee1e1b4766","","","","","null","","null","key","null","16.652535416666556","500","250","br","-12","1","1","29","-11","19","259"
"","psychophysics","215","1433491","0.0-215.0","63f98876f71b876342753da1","64e509735e9d23ee1e1b4766","","","","","null","","null","key","null","16.652772916666677","500","250","br","-16","1","1","30","9","-16","259"
"","psychophysics","216","1441503","0.0-216.0","63f98876f71b876342753da1","64e509735e9d23ee1e1b4766","","","","","null","","null","key","null","16.65342411642416","500","250","br","-10","1","1","28","18","1","273"
"","psychophysics","217","1449509","0.0-217.0","63f98876f71b876342753da1","64e509735e9d23ee1e1b4766","","","","","null","","null","key","null","16.652286012526233","500","250","br","-14","1","1","-4","9","9","250"
"","psychophysics","218","1457513","0.0-218.0","63f98876f71b876342753da1","64e509735e9d23ee1e1b4766","","","","","null","","null","key","null","16.65211249999993","500","250","br","-18","1","1","-8","6","-19","227"
"","psychophysics","219","1465522","0.0-219.0","63f98876f71b876342753da1","64e509735e9d23ee1e1b4766","","","","","null","","null","key","null","16.652685416666404","500","250","br","-14","1","1","4","-25","-8","269"
