"success","trial_type","trial_index","time_elapsed","internal_node_id","pid","sid","timeout","failed_images","failed_audio","failed_video","rt","stimulus","response","response_type","key_press","avg_frame_time","center_x","center_y","task","resp","version","block","start","jitterX","jitterY","parA"
"true","fullscreen","0","3031","0.0-0.0","5a61207cc0d8360001078f07","64e50cd27f39027073ba50e6","","","","","","","","","","","","","","","","","","","",""
"true","preload","1","3166","0.0-1.0","5a61207cc0d8360001078f07","64e50cd27f39027073ba50e6","false","[]","[]","[]","","","","","","","","","","","","","","","",""
"","html-button-response","2","5345","0.0-2.0","5a61207cc0d8360001078f07","64e50cd27f39027073ba50e6","","","","","2177","Please Make Sure Your Audio Is On.","0","","","","","","","","","","","","",""
"","psychophysics","3","11213","0.0-3.0","5a61207cc0d8360001078f07","64e50cd27f39027073ba50e6","","","","","5863",""," ","key"," ","16.66136467236467","768","250","","","","","","","",""
"","psychophysics","4","17970","0.0-4.0","5a61207cc0d8360001078f07","64e50cd27f39027073ba50e6","","","","","6753",""," ","key"," ","16.661089108910886","500","250","inst","","","","","","",""
"","psychophysics","5","22008","0.0-5.0","5a61207cc0d8360001078f07","64e50cd27f39027073ba50e6","","","","","4022",""," ","key"," ","16.66069008264464","500","250","sample0","","","","","","",""
"","psychophysics","6","24535","0.0-6.0","5a61207cc0d8360001078f07","64e50cd27f39027073ba50e6","","","","","2526",""," ","key"," ","16.662699999999994","500","250","sample1","","","","","","",""
"","psychophysics","7","48205","0.0-7.0","5a61207cc0d8360001078f07","64e50cd27f39027073ba50e6","","","","","23653",""," ","key"," ","16.66112746478873","500","250","sample2","102","","","","","",""
"","psychophysics","8","59007","0.0-8.0","5a61207cc0d8360001078f07","64e50cd27f39027073ba50e6","","","","","10797",""," ","key"," ","16.661420401854713","500","250","sample3","98","","","","","",""
"","psychophysics","9","71691","0.0-9.0","5a61207cc0d8360001078f07","64e50cd27f39027073ba50e6","","","","","12675",""," ","key"," ","16.66103679369251","500","250","sample4","102","","","","","",""
"","psychophysics","10","76903","0.0-10.0","5a61207cc0d8360001078f07","64e50cd27f39027073ba50e6","","","","","5207",""," ","key"," ","16.660983922829555","500","250","sample5","","","","","","",""
"","psychophysics","11","87660","0.0-11.0","5a61207cc0d8360001078f07","64e50cd27f39027073ba50e6","","","","","10754",""," ","key"," ","16.66124806201549","500","250","sample6","502","","","","","",""
"","psychophysics","12","93358","0.0-12.0","5a61207cc0d8360001078f07","64e50cd27f39027073ba50e6","","","","","5692",""," ","key"," ","16.66170381231668","500","250","inst","","","","","","",""
"","psychophysics","13","97981","0.0-13.0","5a61207cc0d8360001078f07","64e50cd27f39027073ba50e6","","","","","4620",""," ","key"," ","16.66101083032493","500","250","inst","","","","","","",""
"","psychophysics","14","102789","0.0-14.0","5a61207cc0d8360001078f07","64e50cd27f39027073ba50e6","","","","","4804",""," ","key"," ","16.661874564459925","500","250","inst","","","","","","",""
"","psychophysics","15","106158","0.0-15.0","5a61207cc0d8360001078f07","64e50cd27f39027073ba50e6","","","","","3366",""," ","key"," ","16.661049751243777","500","250","inst","","","","","","",""
"","psychophysics","16","107942","0.0-16.0","5a61207cc0d8360001078f07","64e50cd27f39027073ba50e6","","","","","1777",""," ","key"," ","16.661245283018907","500","250","inst","","","","","","",""
"","psychophysics","17","122010","0.0-17.0","5a61207cc0d8360001078f07","64e50cd27f39027073ba50e6","","","","","14063",""," ","key"," ","16.661112559241698","500","250","instPog0","160","1","","190","0","0","160"
"","psychophysics","18","136455","0.0-18.0","5a61207cc0d8360001078f07","64e50cd27f39027073ba50e6","","","","","14441",""," ","key"," ","16.661273672055444","500","250","instPog1","180","1","","190","0","0","160"
"","psychophysics","19","145309","0.0-19.0","5a61207cc0d8360001078f07","64e50cd27f39027073ba50e6","","","","","8849",""," ","key"," ","16.661532075471687","500","250","instPog2","164","1","","160","0","0","160"
"","psychophysics","20","148234","0.0-20.0","5a61207cc0d8360001078f07","64e50cd27f39027073ba50e6","","","","","2921",""," ","key"," ","16.662131428571385","500","250","inst","","","","","","",""
"","psychophysics","21","156240","0.0-21.0","5a61207cc0d8360001078f07","64e50cd27f39027073ba50e6","","","","","null","","null","key","null","16.661081419624207","500","250","pog","149","1","0","179","0","0","121"
"","psychophysics","22","162344","0.0-22.0","5a61207cc0d8360001078f07","64e50cd27f39027073ba50e6","","","","","6099",""," ","key"," ","16.66170491803281","500","250","pog","146","1","0","116","0","0","126"
"","psychophysics","23","170347","0.0-23.0","5a61207cc0d8360001078f07","64e50cd27f39027073ba50e6","","","","","null","","null","key","null","16.660943632567857","500","250","pog","152","1","0","188","0","0","120"
"","psychophysics","24","174284","0.0-24.0","5a61207cc0d8360001078f07","64e50cd27f39027073ba50e6","","","","","3933",""," ","key"," ","16.661757446808537","500","250","pog","213","1","0","219","0","0","193"
"","psychophysics","25","177745","0.0-25.0","5a61207cc0d8360001078f07","64e50cd27f39027073ba50e6","","","","","3455",""," ","key"," ","16.66133333333337","500","250","pog","147","1","0","147","0","0","134"
"","psychophysics","26","184560","0.0-26.0","5a61207cc0d8360001078f07","64e50cd27f39027073ba50e6","","","","","6812",""," ","key"," ","16.66096568627451","500","250","pog","148","1","0","194","0","0","135"
"","psychophysics","27","188507","0.0-27.0","5a61207cc0d8360001078f07","64e50cd27f39027073ba50e6","","","","","3944",""," ","key"," ","16.66118220338979","500","250","pog","206","1","0","114","0","0","174"
"","psychophysics","28","193548","0.0-28.0","5a61207cc0d8360001078f07","64e50cd27f39027073ba50e6","","","","","5037",""," ","key"," ","16.660956953642373","500","250","pog","166","1","0","184","0","0","135"
"","psychophysics","29","199884","0.0-29.0","5a61207cc0d8360001078f07","64e50cd27f39027073ba50e6","","","","","6331",""," ","key"," ","16.661060686015794","500","250","pog","195","1","0","111","0","0","175"
"","psychophysics","30","204604","0.0-30.0","5a61207cc0d8360001078f07","64e50cd27f39027073ba50e6","","","","","4716",""," ","key"," ","16.66109929078012","500","250","pog","181","1","0","105","0","0","156"
"","psychophysics","31","210224","0.0-31.0","5a61207cc0d8360001078f07","64e50cd27f39027073ba50e6","","","","","5616",""," ","key"," ","16.66108928571434","500","250","pog","208","1","0","178","0","0","197"
"","psychophysics","32","214914","0.0-32.0","5a61207cc0d8360001078f07","64e50cd27f39027073ba50e6","","","","","4685",""," ","key"," ","16.660661921708215","500","250","pog","159","1","0","153","0","0","143"
"","psychophysics","33","219502","0.0-33.0","5a61207cc0d8360001078f07","64e50cd27f39027073ba50e6","","","","","4585",""," ","key"," ","16.661291970802985","500","250","pog","204","1","0","150","0","0","190"
"","psychophysics","34","222496","0.0-34.0","5a61207cc0d8360001078f07","64e50cd27f39027073ba50e6","","","","","2989",""," ","key"," ","16.66134078212293","500","250","pog","219","1","0","175","0","0","186"
"","psychophysics","35","224782","0.0-35.0","5a61207cc0d8360001078f07","64e50cd27f39027073ba50e6","","","","","2283",""," ","key"," ","16.661147058823726","500","250","pog","201","1","0","201","0","0","178"
"","psychophysics","36","226322","0.0-36.0","5a61207cc0d8360001078f07","64e50cd27f39027073ba50e6","","","","","1536",""," ","key"," ","16.66124999999991","500","250","inst","","","","","","",""
"","psychophysics","37","228741","0.0-37.0","5a61207cc0d8360001078f07","64e50cd27f39027073ba50e6","","","","","2415",""," ","key"," ","16.661201388888813","500","250","instZol0","0","","","0","0","0",""
"","psychophysics","38","240419","0.0-38.0","5a61207cc0d8360001078f07","64e50cd27f39027073ba50e6","","","","","11677",""," ","key"," ","16.661114285714284","500","250","instZol1","2.7755575615628914e-17","","","-1.3","0","0",""
"","psychophysics","39","253232","0.0-39.0","5a61207cc0d8360001078f07","64e50cd27f39027073ba50e6","","","","","12807",""," ","key"," ","16.660940104166645","500","250","instZol2","1.0000000000000007","1","","2","0","0",""
"","psychophysics","40","255268","0.0-40.0","5a61207cc0d8360001078f07","64e50cd27f39027073ba50e6","","","","","2034",""," ","key"," ","16.66048760330574","500","250","inst","","","","","","",""
"","psychophysics","41","259794","0.0-41.0","5a61207cc0d8360001078f07","64e50cd27f39027073ba50e6","","","","","4523",""," ","key"," ","16.66046863468643","500","250","zol","1.26","1","0","0.74","-23","16",""
"","psychophysics","42","264704","0.0-42.0","5a61207cc0d8360001078f07","64e50cd27f39027073ba50e6","","","","","4906",""," ","key"," ","16.662006825938544","500","250","zol","0.9699999999999999","1","0","0.23","-11","5",""
"","psychophysics","43","270515","0.0-43.0","5a61207cc0d8360001078f07","64e50cd27f39027073ba50e6","","","","","5804",""," ","key"," ","16.661249999999974","500","250","zol","1.4400000000000004","1","0","0.06","22","29",""
"","psychophysics","44","278522","0.0-44.0","5a61207cc0d8360001078f07","64e50cd27f39027073ba50e6","","","","","null","","null","key","null","16.661043750000076","500","250","zol","0.09000000000000002","1","0","0.61","5","-9",""
"","psychophysics","45","281858","0.0-45.0","5a61207cc0d8360001078f07","64e50cd27f39027073ba50e6","","","","","3333",""," ","key"," ","16.661060301507717","500","250","zol","1.01","1","0","0.59","-28","22",""
"","psychophysics","46","284173","0.0-46.0","5a61207cc0d8360001078f07","64e50cd27f39027073ba50e6","","","","","2307",""," ","key"," ","16.661492753622927","500","250","zol","0.61","1","0","-0.41","-21","-1",""
"","psychophysics","47","286667","0.0-47.0","5a61207cc0d8360001078f07","64e50cd27f39027073ba50e6","","","","","2488",""," ","key"," ","16.66048993288591","500","250","zol","0.72","1","0","-0.32","-26","20",""
"","psychophysics","48","290396","0.0-48.0","5a61207cc0d8360001078f07","64e50cd27f39027073ba50e6","","","","","3722",""," ","key"," ","16.661229729729754","500","250","zol","1.11","1","0","-0.41","5","-9",""
"","psychophysics","49","293992","0.0-49.0","5a61207cc0d8360001078f07","64e50cd27f39027073ba50e6","","","","","3586",""," ","key"," ","16.660999999999955","500","250","zol","0.8799999999999999","1","0","-0.08","-22","24",""
"","psychophysics","50","296328","0.0-50.0","5a61207cc0d8360001078f07","64e50cd27f39027073ba50e6","","","","","2330",""," ","key"," ","16.66148201438846","500","250","zol","0.08999999999999997","1","0","0.71","-23","20",""
"","psychophysics","51","300364","0.0-51.0","5a61207cc0d8360001078f07","64e50cd27f39027073ba50e6","","","","","4030",""," ","key"," ","16.661413223140638","500","250","zol","0.8999999999999999","1","0","-0.7","-3","2",""
"","psychophysics","52","302663","0.0-52.0","5a61207cc0d8360001078f07","64e50cd27f39027073ba50e6","","","","","2292",""," ","key"," ","16.66056934306585","500","250","zol","0.5","1","0","-0.2","-6","20",""
"","psychophysics","53","307556","0.0-53.0","5a61207cc0d8360001078f07","64e50cd27f39027073ba50e6","","","","","4887",""," ","key"," ","16.661390410958866","500","250","zol","0.9099999999999999","1","0","-0.71","28","29",""
"","psychophysics","54","312861","0.0-54.0","5a61207cc0d8360001078f07","64e50cd27f39027073ba50e6","","","","","5298",""," ","key"," ","16.661232704402508","500","250","zol","0.9399999999999998","1","0","0.66","-27","27",""
"","psychophysics","55","319373","0.0-55.0","5a61207cc0d8360001078f07","64e50cd27f39027073ba50e6","","","","","6510",""," ","key"," ","16.660771794871795","500","250","zol","0.8200000000000001","1","0","-0.12","6","-15",""
"","psychophysics","56","320384","0.0-56.0","5a61207cc0d8360001078f07","64e50cd27f39027073ba50e6","","","","","1007",""," ","key"," ","16.6608305084746","500","250","inst","","","","","","",""
"","psychophysics","57","323144","0.0-57.0","5a61207cc0d8360001078f07","64e50cd27f39027073ba50e6","","","","","2755",""," ","key"," ","16.661387878787973","500","250","instBr0","0","","","0","0","0","300"
"","psychophysics","58","332024","0.0-58.0","5a61207cc0d8360001078f07","64e50cd27f39027073ba50e6","","","","","8875",""," ","key"," ","16.66105639097739","500","250","instBr1","-2","","","-40","0","0","300"
"","psychophysics","59","341090","0.0-59.0","5a61207cc0d8360001078f07","64e50cd27f39027073ba50e6","","","","","9062",""," ","key"," ","16.660922651933692","500","250","instBr3","-12","1","","40","0","0","300"
"","psychophysics","60","342529","0.0-60.0","5a61207cc0d8360001078f07","64e50cd27f39027073ba50e6","","","","","1437",""," ","key"," ","16.66187058823553","500","250","inst","","","","","","",""
"","psychophysics","61","348004","0.0-61.0","5a61207cc0d8360001078f07","64e50cd27f39027073ba50e6","","","","","5468",""," ","key"," ","16.661192073170685","500","250","br","-11","1","0","19","-19","-27","268"
"","psychophysics","62","350948","0.0-62.0","5a61207cc0d8360001078f07","64e50cd27f39027073ba50e6","","","","","2940",""," ","key"," ","16.661585227272802","500","250","br","-12","1","0","5","27","-26","214"
"","psychophysics","63","356384","0.0-63.0","5a61207cc0d8360001078f07","64e50cd27f39027073ba50e6","","","","","5432",""," ","key"," ","16.661163076923156","500","250","br","-9","1","0","24","30","13","238"
"","psychophysics","64","359969","0.0-64.0","5a61207cc0d8360001078f07","64e50cd27f39027073ba50e6","","","","","3581",""," ","key"," ","16.661696261682255","500","250","br","-15","1","0","-13","24","-22","296"
"","psychophysics","65","364941","0.0-65.0","5a61207cc0d8360001078f07","64e50cd27f39027073ba50e6","","","","","4967",""," ","key"," ","16.660899328858974","500","250","br","-6","1","0","26","16","-9","212"
"","psychophysics","66","369278","0.0-66.0","5a61207cc0d8360001078f07","64e50cd27f39027073ba50e6","","","","","4333",""," ","key"," ","16.66116602316613","500","250","br","-13","1","0","-25","28","-9","291"
"","psychophysics","67","372941","0.0-67.0","5a61207cc0d8360001078f07","64e50cd27f39027073ba50e6","","","","","3659",""," ","key"," ","16.660954337899593","500","250","br","-12","1","0","-3","4","-7","285"
"","psychophysics","68","377046","0.0-68.0","5a61207cc0d8360001078f07","64e50cd27f39027073ba50e6","","","","","4101",""," ","key"," ","16.66107755102032","500","250","br","-13","1","0","13","28","13","296"
"","psychophysics","69","383962","0.0-69.0","5a61207cc0d8360001078f07","64e50cd27f39027073ba50e6","","","","","6913",""," ","key"," ","16.66107971014501","500","250","br","-14","1","0","27","12","1","265"
"","psychophysics","70","388599","0.0-70.0","5a61207cc0d8360001078f07","64e50cd27f39027073ba50e6","","","","","4633",""," ","key"," ","16.661025179856164","500","250","br","-10","1","0","30","-28","7","279"
"","psychophysics","71","392782","0.0-71.0","5a61207cc0d8360001078f07","64e50cd27f39027073ba50e6","","","","","4178",""," ","key"," ","16.661172000000022","500","250","br","-9","1","0","17","-8","30","246"
"","psychophysics","72","396933","0.0-72.0","5a61207cc0d8360001078f07","64e50cd27f39027073ba50e6","","","","","4148",""," ","key"," ","16.661177419354875","500","250","br","-20","1","0","-22","27","-20","285"
"","psychophysics","73","401305","0.0-73.0","5a61207cc0d8360001078f07","64e50cd27f39027073ba50e6","","","","","4368",""," ","key"," ","16.66085823754788","500","250","br","-19","1","0","-24","28","20","216"
"","psychophysics","74","404730","0.0-74.0","5a61207cc0d8360001078f07","64e50cd27f39027073ba50e6","","","","","3421",""," ","key"," ","16.660951219512455","500","250","br","-13","1","0","13","-7","-2","263"
"","psychophysics","75","409345","0.0-75.0","5a61207cc0d8360001078f07","64e50cd27f39027073ba50e6","","","","","4611",""," ","key"," ","16.661061594203034","500","250","br","-3","1","0","26","-22","-4","235"
"","psychophysics","76","410338","0.0-76.0","5a61207cc0d8360001078f07","64e50cd27f39027073ba50e6","","","","","991",""," ","key"," ","16.65813793103383","500","250","inst","","","","","","",""
"","psychophysics","77","412832","0.0-77.0","5a61207cc0d8360001078f07","64e50cd27f39027073ba50e6","","","","","2489",""," ","key"," ","16.661852348993154","500","250","instEB0","40","1","","40","0","0","40"
"","psychophysics","78","424618","0.0-78.0","5a61207cc0d8360001078f07","64e50cd27f39027073ba50e6","","","","","11782",""," ","key"," ","16.660760623229507","500","250","instEB1","30","1","","40","0","0","30"
"","psychophysics","79","433298","0.0-79.0","5a61207cc0d8360001078f07","64e50cd27f39027073ba50e6","","","","","8676",""," ","key"," ","16.660982692307712","500","250","instEB2","38","1","","30","0","0","40"
"","psychophysics","80","442513","0.0-80.0","5a61207cc0d8360001078f07","64e50cd27f39027073ba50e6","","","","","9212",""," ","key"," ","16.661405797101484","500","250","instEB3","40","1","","27","0","0","45"
"","psychophysics","81","449445","0.0-81.0","5a61207cc0d8360001078f07","64e50cd27f39027073ba50e6","","","","","6929",""," ","key"," ","16.66133734939763","500","250","instEB4","27","1","","40","0","0","30"
"","psychophysics","82","450776","0.0-82.0","5a61207cc0d8360001078f07","64e50cd27f39027073ba50e6","","","","","1326",""," ","key"," ","16.6615949367089","500","250","inst","","","","","","",""
"","psychophysics","83","455732","0.0-83.0","5a61207cc0d8360001078f07","64e50cd27f39027073ba50e6","","","","","4950",""," ","key"," ","16.66145454545471","500","250","eb","42","1","","38","0","0","48"
"","psychophysics","84","461593","0.0-84.0","5a61207cc0d8360001078f07","64e50cd27f39027073ba50e6","","","","","5857",""," ","key"," ","16.661051282051393","500","250","eb","41","1","","53","0","0","48"
"","psychophysics","85","466926","0.0-85.0","5a61207cc0d8360001078f07","64e50cd27f39027073ba50e6","","","","","5329",""," ","key"," ","16.66065830721003","500","250","eb","22","1","","34","0","0","24"
"","psychophysics","86","471036","0.0-86.0","5a61207cc0d8360001078f07","64e50cd27f39027073ba50e6","","","","","4108",""," ","key"," ","16.661040816326597","500","250","eb","31","1","","46","0","0","34"
"","psychophysics","87","479040","0.0-87.0","5a61207cc0d8360001078f07","64e50cd27f39027073ba50e6","","","","","null","","null","key","null","16.66122083333333","500","250","eb","48","1","","27","0","0","54"
"","psychophysics","88","485412","0.0-88.0","5a61207cc0d8360001078f07","64e50cd27f39027073ba50e6","","","","","6368",""," ","key"," ","16.660839895013044","500","250","eb","34","1","","48","0","0","34"
"","psychophysics","89","490087","0.0-89.0","5a61207cc0d8360001078f07","64e50cd27f39027073ba50e6","","","","","4668",""," ","key"," ","16.661107142857094","500","250","eb","39","1","","35","0","0","44"
"","psychophysics","90","493710","0.0-90.0","5a61207cc0d8360001078f07","64e50cd27f39027073ba50e6","","","","","3619",""," ","key"," ","16.66086574074062","500","250","eb","45","1","","31","0","0","54"
"","psychophysics","91","497415","0.0-91.0","5a61207cc0d8360001078f07","64e50cd27f39027073ba50e6","","","","","3699",""," ","key"," ","16.661468468468556","500","250","eb","42","1","","51","0","0","46"
"","psychophysics","92","503605","0.0-92.0","5a61207cc0d8360001078f07","64e50cd27f39027073ba50e6","","","","","6186",""," ","key"," ","16.660937837837892","500","250","eb","29","1","","49","0","0","28"
"","psychophysics","93","507071","0.0-93.0","5a61207cc0d8360001078f07","64e50cd27f39027073ba50e6","","","","","3462",""," ","key"," ","16.661743961352514","500","250","eb","45","1","","51","0","0","53"
"","psychophysics","94","510631","0.0-94.0","5a61207cc0d8360001078f07","64e50cd27f39027073ba50e6","","","","","3553",""," ","key"," ","16.661906103286544","500","250","eb","24","1","","37","0","0","25"
"","psychophysics","95","516356","0.0-95.0","5a61207cc0d8360001078f07","64e50cd27f39027073ba50e6","","","","","5721",""," ","key"," ","16.660411078717054","500","250","eb","40","1","","31","0","0","44"
"","psychophysics","96","519183","0.0-96.0","5a61207cc0d8360001078f07","64e50cd27f39027073ba50e6","","","","","2824",""," ","key"," ","16.66096428571438","500","250","eb","37","1","","47","0","0","40"
"","psychophysics","97","524168","0.0-97.0","5a61207cc0d8360001078f07","64e50cd27f39027073ba50e6","","","","","4981",""," ","key"," ","16.661151006711364","500","250","eb","35","1","","52","0","0","37"
"","psychophysics","98","524962","0.0-98.0","5a61207cc0d8360001078f07","64e50cd27f39027073ba50e6","","","","","789",""," ","key"," ","16.663127659574805","500","250","inst","","","","","","",""
"","psychophysics","99","527225","0.0-99.0","5a61207cc0d8360001078f07","64e50cd27f39027073ba50e6","","","","","2260",""," ","key"," ","16.6609037037042","500","250","instPzPre","50","0","","50","","","50"
"","psychophysics","100","530258","0.0-100.0","5a61207cc0d8360001078f07","64e50cd27f39027073ba50e6","","","","","3030",""," ","key"," ","16.660928176795725","500","250","instPz0","50","1","","50","","","50"
"","psychophysics","101","537858","0.0-101.0","5a61207cc0d8360001078f07","64e50cd27f39027073ba50e6","","","","","7595",""," ","key"," ","16.661041758241705","500","250","instPz1","49","1","","25","","","50"
"","psychophysics","102","543939","0.0-102.0","5a61207cc0d8360001078f07","64e50cd27f39027073ba50e6","","","","","6079",""," ","key"," ","16.661079670329755","500","250","instPz2","20","1","","35","","","20"
"","psychophysics","103","556710","0.0-103.0","5a61207cc0d8360001078f07","64e50cd27f39027073ba50e6","","","","","12765",""," ","key"," ","16.66115796344653","500","250","instPz3","54","1","","100","","","30"
"","psychophysics","104","568157","0.0-104.0","5a61207cc0d8360001078f07","64e50cd27f39027073ba50e6","","","","","11443",""," ","key"," ","16.661120991253615","500","250","instPz4","56","1","","100","","","30"
"","psychophysics","105","570273","0.0-105.0","5a61207cc0d8360001078f07","64e50cd27f39027073ba50e6","","","","","2114",""," ","key"," ","16.661119047619795","500","250","inst","","","","","","",""
"","psychophysics","106","576142","0.0-106.0","5a61207cc0d8360001078f07","64e50cd27f39027073ba50e6","","","","","5865",""," ","key"," ","16.660923076923233","500","250","pz","67","1","0","57","","","37"
"","psychophysics","107","580134","0.0-107.0","5a61207cc0d8360001078f07","64e50cd27f39027073ba50e6","","","","","3989",""," ","key"," ","16.661138655461798","500","250","pz","68","1","0","46","","","34"
"","psychophysics","108","584854","0.0-108.0","5a61207cc0d8360001078f07","64e50cd27f39027073ba50e6","","","","","4716",""," ","key"," ","16.661558303886995","500","250","pz","67","1","0","56","","","35"
"","psychophysics","109","589353","0.0-109.0","5a61207cc0d8360001078f07","64e50cd27f39027073ba50e6","","","","","4496",""," ","key"," ","16.66094795539049","500","250","pz","40","1","0","32","","","20"
"","psychophysics","110","594051","0.0-110.0","5a61207cc0d8360001078f07","64e50cd27f39027073ba50e6","","","","","4694",""," ","key"," ","16.661266903914562","500","250","pz","82","1","0","38","","","57"
"","psychophysics","111","598433","0.0-111.0","5a61207cc0d8360001078f07","64e50cd27f39027073ba50e6","","","","","4379",""," ","key"," ","16.66100381679419","500","250","pz","66","1","0","54","","","43"
"","psychophysics","112","602052","0.0-112.0","5a61207cc0d8360001078f07","64e50cd27f39027073ba50e6","","","","","3616",""," ","key"," ","16.660935185185128","500","250","pz","80","1","0","56","","","58"
"","psychophysics","113","605433","0.0-113.0","5a61207cc0d8360001078f07","64e50cd27f39027073ba50e6","","","","","3378",""," ","key"," ","16.66095544554473","500","250","pz","70","1","0","51","","","41"
"","psychophysics","114","610748","0.0-114.0","5a61207cc0d8360001078f07","64e50cd27f39027073ba50e6","","","","","5311",""," ","key"," ","16.661012578616504","500","250","pz","79","1","0","49","","","60"
"","psychophysics","115","617296","0.0-115.0","5a61207cc0d8360001078f07","64e50cd27f39027073ba50e6","","","","","6544",""," ","key"," ","16.661076530612227","500","250","pz","65","1","0","56","","","37"
"","psychophysics","116","619747","0.0-116.0","5a61207cc0d8360001078f07","64e50cd27f39027073ba50e6","","","","","2448",""," ","key"," ","16.66117123287643","500","250","pz","63","1","0","57","","","41"
"","psychophysics","117","625475","0.0-117.0","5a61207cc0d8360001078f07","64e50cd27f39027073ba50e6","","","","","5724",""," ","key"," ","16.66102623906694","500","250","pz","61","1","0","41","","","39"
"","psychophysics","118","629929","0.0-118.0","5a61207cc0d8360001078f07","64e50cd27f39027073ba50e6","","","","","4451",""," ","key"," ","16.66109022556382","500","250","pz","58","1","0","42","","","45"
"","psychophysics","119","632073","0.0-119.0","5a61207cc0d8360001078f07","64e50cd27f39027073ba50e6","","","","","2123",""," ","key"," ","16.661398437499884","500","250","pz","50","1","0","43","","","27"
"","psychophysics","120","640080","0.0-120.0","5a61207cc0d8360001078f07","64e50cd27f39027073ba50e6","","","","","null","","null","key","null","16.661102296451073","500","250","pz","77","1","0","24","","","58"
"","psychophysics","121","641260","0.0-121.0","5a61207cc0d8360001078f07","64e50cd27f39027073ba50e6","","","","","1174",""," ","key"," ","16.65945714285564","500","250","inst","","","","","","",""
"","psychophysics","122","649940","0.0-122.0","5a61207cc0d8360001078f07","64e50cd27f39027073ba50e6","","","","","8679",""," ","key"," ","16.66062884615385","500","250","instBr3","18","2","","40","0","0","300"
"","psychophysics","123","651207","0.0-123.0","5a61207cc0d8360001078f07","64e50cd27f39027073ba50e6","","","","","1265",""," ","key"," ","16.66327999999902","500","250","inst","","","","","","",""
"","psychophysics","124","654819","0.0-124.0","5a61207cc0d8360001078f07","64e50cd27f39027073ba50e6","","","","","3601",""," ","key"," ","16.661861111111378","500","250","br","10","2","1","-8","-23","-3","218"
"","psychophysics","125","657882","0.0-125.0","5a61207cc0d8360001078f07","64e50cd27f39027073ba50e6","","","","","3060",""," ","key"," ","16.660994535519443","500","250","br","7","2","1","-21","7","-18","273"
"","psychophysics","126","661124","0.0-126.0","5a61207cc0d8360001078f07","64e50cd27f39027073ba50e6","","","","","3239",""," ","key"," ","16.660510309278177","500","250","br","7","2","1","-12","24","23","215"
"","psychophysics","127","664910","0.0-127.0","5a61207cc0d8360001078f07","64e50cd27f39027073ba50e6","","","","","3781",""," ","key"," ","16.660553097344764","500","250","br","15","2","1","24","6","-29","258"
"","psychophysics","128","668035","0.0-128.0","5a61207cc0d8360001078f07","64e50cd27f39027073ba50e6","","","","","3121",""," ","key"," ","16.661440860214693","500","250","br","16","2","1","29","18","-5","295"
"","psychophysics","129","673140","0.0-129.0","5a61207cc0d8360001078f07","64e50cd27f39027073ba50e6","","","","","5099",""," ","key"," ","16.661176470588067","500","250","br","14","2","1","-22","-10","-15","280"
"","psychophysics","130","677188","0.0-130.0","5a61207cc0d8360001078f07","64e50cd27f39027073ba50e6","","","","","4044",""," ","key"," ","16.660615702479124","500","250","br","15","2","1","24","-27","7","215"
"","psychophysics","131","680778","0.0-131.0","5a61207cc0d8360001078f07","64e50cd27f39027073ba50e6","","","","","3588",""," ","key"," ","16.660728971962925","500","250","br","12","2","1","17","-2","-4","255"
"","psychophysics","132","683375","0.0-132.0","5a61207cc0d8360001078f07","64e50cd27f39027073ba50e6","","","","","2594",""," ","key"," ","16.661038709677484","500","250","br","17","2","1","27","3","2","253"
"","psychophysics","133","687865","0.0-133.0","5a61207cc0d8360001078f07","64e50cd27f39027073ba50e6","","","","","4487",""," ","key"," ","16.660617100371766","500","250","br","15","2","1","-18","-17","28","247"
"","psychophysics","134","693472","0.0-134.0","5a61207cc0d8360001078f07","64e50cd27f39027073ba50e6","","","","","5604",""," ","key"," ","16.661029850746463","500","250","br","11","2","1","-26","-14","20","202"
"","psychophysics","135","699303","0.0-135.0","5a61207cc0d8360001078f07","64e50cd27f39027073ba50e6","","","","","5828",""," ","key"," ","16.66102005730658","500","250","br","15","2","1","-15","11","-20","292"
"","psychophysics","136","706861","0.0-136.0","5a61207cc0d8360001078f07","64e50cd27f39027073ba50e6","","","","","7555",""," ","key"," ","16.661169977924967","500","250","br","15","2","1","-20","22","3","275"
"","psychophysics","137","710967","0.0-137.0","5a61207cc0d8360001078f07","64e50cd27f39027073ba50e6","","","","","4102",""," ","key"," ","16.66104081632636","500","250","br","11","2","1","-15","-6","-30","235"
"","psychophysics","138","714829","0.0-138.0","5a61207cc0d8360001078f07","64e50cd27f39027073ba50e6","","","","","3859",""," ","key"," ","16.66135497835467","500","250","br","19","2","1","22","-29","-30","281"
"","psychophysics","139","715798","0.0-139.0","5a61207cc0d8360001078f07","64e50cd27f39027073ba50e6","","","","","966",""," ","key"," ","16.66054385964832","500","250","inst","","","","","","",""
"","psychophysics","140","722158","0.0-140.0","5a61207cc0d8360001078f07","64e50cd27f39027073ba50e6","","","","","6357",""," ","key"," ","16.66128346456699","500","250","instPz1","50","2","","25","","","50"
"","psychophysics","141","727895","0.0-141.0","5a61207cc0d8360001078f07","64e50cd27f39027073ba50e6","","","","","5734",""," ","key"," ","16.660542274052453","500","250","instPz2","33","2","","20","","","35"
"","psychophysics","142","733093","0.0-142.0","5a61207cc0d8360001078f07","64e50cd27f39027073ba50e6","","","","","5195",""," ","key"," ","16.661006430868085","500","250","instPz3","30","2","","30","","","100"
"","psychophysics","143","744338","0.0-143.0","5a61207cc0d8360001078f07","64e50cd27f39027073ba50e6","","","","","11242",""," ","key"," ","16.661143916913996","500","250","instPz4","69","2","","30","","","100"
"","psychophysics","144","745975","0.0-144.0","5a61207cc0d8360001078f07","64e50cd27f39027073ba50e6","","","","","1634",""," ","key"," ","16.661237113402205","500","250","inst","","","","","","",""
"","psychophysics","145","750879","0.0-145.0","5a61207cc0d8360001078f07","64e50cd27f39027073ba50e6","","","","","4897",""," ","key"," ","16.660802721088675","500","250","pz","39","2","1","32","","","59"
"","psychophysics","146","755452","0.0-146.0","5a61207cc0d8360001078f07","64e50cd27f39027073ba50e6","","","","","4572",""," ","key"," ","16.661849816850022","500","250","pz","25","2","1","32","","","36"
"","psychophysics","147","758508","0.0-147.0","5a61207cc0d8360001078f07","64e50cd27f39027073ba50e6","","","","","3053",""," ","key"," ","16.660524590164194","500","250","pz","30","2","1","29","","","42"
"","psychophysics","148","764583","0.0-148.0","5a61207cc0d8360001078f07","64e50cd27f39027073ba50e6","","","","","6071",""," ","key"," ","16.66118457300278","500","250","pz","48","2","1","56","","","60"
"","psychophysics","149","768494","0.0-149.0","5a61207cc0d8360001078f07","64e50cd27f39027073ba50e6","","","","","3908",""," ","key"," ","16.660965811965678","500","250","pz","22","2","1","31","","","27"
"","psychophysics","150","773576","0.0-150.0","5a61207cc0d8360001078f07","64e50cd27f39027073ba50e6","","","","","5079",""," ","key"," ","16.66133881578954","500","250","pz","49","2","1","56","","","60"
"","psychophysics","151","778127","0.0-151.0","5a61207cc0d8360001078f07","64e50cd27f39027073ba50e6","","","","","4548",""," ","key"," ","16.661000000000058","500","250","pz","24","2","1","21","","","30"
"","psychophysics","152","784474","0.0-152.0","5a61207cc0d8360001078f07","64e50cd27f39027073ba50e6","","","","","6344",""," ","key"," ","16.661007894736738","500","250","pz","19","2","1","57","","","22"
"","psychophysics","153","787801","0.0-153.0","5a61207cc0d8360001078f07","64e50cd27f39027073ba50e6","","","","","3324",""," ","key"," ","16.661050251256277","500","250","pz","25","2","1","32","","","29"
"","psychophysics","154","791841","0.0-154.0","5a61207cc0d8360001078f07","64e50cd27f39027073ba50e6","","","","","4037",""," ","key"," ","16.660697095435697","500","250","pz","38","2","1","46","","","50"
"","psychophysics","155","798924","0.0-155.0","5a61207cc0d8360001078f07","64e50cd27f39027073ba50e6","","","","","7077",""," ","key"," ","16.66144339622653","500","250","pz","24","2","1","52","","","30"
"","psychophysics","156","801703","0.0-156.0","5a61207cc0d8360001078f07","64e50cd27f39027073ba50e6","","","","","2773",""," ","key"," ","16.660951807228876","500","250","pz","22","2","1","21","","","32"
"","psychophysics","157","804917","0.0-157.0","5a61207cc0d8360001078f07","64e50cd27f39027073ba50e6","","","","","3211",""," ","key"," ","16.66077083333342","500","250","pz","41","2","1","45","","","53"
"","psychophysics","158","809683","0.0-158.0","5a61207cc0d8360001078f07","64e50cd27f39027073ba50e6","","","","","4762",""," ","key"," ","16.661157894737023","500","250","pz","39","2","1","31","","","51"
"","psychophysics","159","815843","0.0-159.0","5a61207cc0d8360001078f07","64e50cd27f39027073ba50e6","","","","","6157",""," ","key"," ","16.660983739837533","500","250","pz","40","2","1","60","","","53"
"","psychophysics","160","816884","0.0-160.0","5a61207cc0d8360001078f07","64e50cd27f39027073ba50e6","","","","","1039",""," ","key"," ","16.662852459014623","500","250","inst","","","","","","",""
"","psychophysics","161","825239","0.0-161.0","5a61207cc0d8360001078f07","64e50cd27f39027073ba50e6","","","","","8352",""," ","key"," ","16.661155688622642","500","250","instEB1","39","2","","30","0","0","40"
"","psychophysics","162","831832","0.0-162.0","5a61207cc0d8360001078f07","64e50cd27f39027073ba50e6","","","","","6588",""," ","key"," ","16.661065989847916","500","250","instEB2","31","2","","40","0","0","30"
"","psychophysics","163","839430","0.0-163.0","5a61207cc0d8360001078f07","64e50cd27f39027073ba50e6","","","","","7595",""," ","key"," ","16.661328947368403","500","250","instEB3","33","2","","45","0","0","27"
"","psychophysics","164","847660","0.0-164.0","5a61207cc0d8360001078f07","64e50cd27f39027073ba50e6","","","","","8228",""," ","key"," ","16.661063008130114","500","250","instEB4","53","2","","30","0","0","40"
"","psychophysics","165","849205","0.0-165.0","5a61207cc0d8360001078f07","64e50cd27f39027073ba50e6","","","","","1539",""," ","key"," ","16.6625978260873","500","250","inst","","","","","","",""
"","psychophysics","166","856795","0.0-166.0","5a61207cc0d8360001078f07","64e50cd27f39027073ba50e6","","","","","7586",""," ","key"," ","16.661432967032816","500","250","eb","30","2","","54","0","0","25"
"","psychophysics","167","861747","0.0-167.0","5a61207cc0d8360001078f07","64e50cd27f39027073ba50e6","","","","","4948",""," ","key"," ","16.660929054054087","500","250","eb","39","2","","29","0","0","31"
"","psychophysics","168","867259","0.0-168.0","5a61207cc0d8360001078f07","64e50cd27f39027073ba50e6","","","","","5509",""," ","key"," ","16.66143636363629","500","250","eb","42","2","","25","0","0","30"
"","psychophysics","169","872174","0.0-169.0","5a61207cc0d8360001078f07","64e50cd27f39027073ba50e6","","","","","4910",""," ","key"," ","16.661214285714276","500","250","eb","54","2","","48","0","0","44"
"","psychophysics","170","876002","0.0-170.0","5a61207cc0d8360001078f07","64e50cd27f39027073ba50e6","","","","","3824",""," ","key"," ","16.660960698689895","500","250","eb","57","2","","52","0","0","50"
"","psychophysics","171","880051","0.0-171.0","5a61207cc0d8360001078f07","64e50cd27f39027073ba50e6","","","","","4044",""," ","key"," ","16.660838842975007","500","250","eb","43","2","","47","0","0","34"
"","psychophysics","172","884722","0.0-172.0","5a61207cc0d8360001078f07","64e50cd27f39027073ba50e6","","","","","4667",""," ","key"," ","16.661275985663234","500","250","eb","59","2","","48","0","0","51"
"","psychophysics","173","890015","0.0-173.0","5a61207cc0d8360001078f07","64e50cd27f39027073ba50e6","","","","","5289",""," ","key"," ","16.661495268138857","500","250","eb","49","2","","45","0","0","41"
"","psychophysics","174","893905","0.0-174.0","5a61207cc0d8360001078f07","64e50cd27f39027073ba50e6","","","","","3887",""," ","key"," ","16.6605215517238","500","250","eb","50","2","","53","0","0","42"
"","psychophysics","175","898611","0.0-175.0","5a61207cc0d8360001078f07","64e50cd27f39027073ba50e6","","","","","4702",""," ","key"," ","16.660925531914664","500","250","eb","33","2","","38","0","0","28"
"","psychophysics","176","906175","0.0-176.0","5a61207cc0d8360001078f07","64e50cd27f39027073ba50e6","","","","","7560",""," ","key"," ","16.66123620309059","500","250","eb","30","2","","53","0","0","26"
"","psychophysics","177","911428","0.0-177.0","5a61207cc0d8360001078f07","64e50cd27f39027073ba50e6","","","","","5251",""," ","key"," ","16.661095541401373","500","250","eb","44","2","","51","0","0","37"
"","psychophysics","178","915148","0.0-178.0","5a61207cc0d8360001078f07","64e50cd27f39027073ba50e6","","","","","3716",""," ","key"," ","16.661423423422946","500","250","eb","31","2","","32","0","0","24"
"","psychophysics","179","920073","0.0-179.0","5a61207cc0d8360001078f07","64e50cd27f39027073ba50e6","","","","","4922",""," ","key"," ","16.66099661016971","500","250","eb","61","2","","29","0","0","51"
"","psychophysics","180","925417","0.0-180.0","5a61207cc0d8360001078f07","64e50cd27f39027073ba50e6","","","","","5340",""," ","key"," ","16.66125705329151","500","250","eb","60","2","","32","0","0","51"
"","psychophysics","181","926274","0.0-181.0","5a61207cc0d8360001078f07","64e50cd27f39027073ba50e6","","","","","852",""," ","key"," ","16.651490196076622","500","250","inst","","","","","","",""
"","psychophysics","182","934865","0.0-182.0","5a61207cc0d8360001078f07","64e50cd27f39027073ba50e6","","","","","8589",""," ","key"," ","16.66073009708729","500","250","instZol1","0.2999999999999998","","","-1.3","0","0",""
"","psychophysics","183","943387","0.0-183.0","5a61207cc0d8360001078f07","64e50cd27f39027073ba50e6","","","","","8519",""," ","key"," ","16.661062745098025","500","250","instZol2","-1.1999999999999993","2","","2","0","0",""
"","psychophysics","184","944628","0.0-184.0","5a61207cc0d8360001078f07","64e50cd27f39027073ba50e6","","","","","1239",""," ","key"," ","16.66170270270133","500","250","inst","","","","","","",""
"","psychophysics","185","952633","0.0-185.0","5a61207cc0d8360001078f07","64e50cd27f39027073ba50e6","","","","","null","","null","key","null","16.66098121085592","500","250","zol","-0.74","2","1","0.04","1","-1",""
"","psychophysics","186","952812","0.0-186.0","5a61207cc0d8360001078f07","64e50cd27f39027073ba50e6","","","","","174",""," ","key"," ","16.65","500","250","zol","0.68","2","1","-0.68","-21","-9",""
"","psychophysics","187","958183","0.0-187.0","5a61207cc0d8360001078f07","64e50cd27f39027073ba50e6","","","","","5369",""," ","key"," ","16.661517133956597","500","250","zol","-0.9899999999999998","2","1","-0.71","26","21",""
"","psychophysics","188","962100","0.0-188.0","5a61207cc0d8360001078f07","64e50cd27f39027073ba50e6","","","","","3908",""," ","key"," ","16.66145299145311","500","250","zol","-0.9599999999999999","2","1","0.06","-30","18",""
"","psychophysics","189","967699","0.0-189.0","5a61207cc0d8360001078f07","64e50cd27f39027073ba50e6","","","","","5586",""," ","key"," ","16.66072238805954","500","250","zol","-0.7","2","1","0.1","-7","13",""
"","psychophysics","190","973713","0.0-190.0","5a61207cc0d8360001078f07","64e50cd27f39027073ba50e6","","","","","6009",""," ","key"," ","16.66176944444467","500","250","zol","-1.2500000000000002","2","1","0.65","8","30",""
"","psychophysics","191","981023","0.0-191.0","5a61207cc0d8360001078f07","64e50cd27f39027073ba50e6","","","","","7302",""," ","key"," ","16.661276255707687","500","250","zol","-0.64","2","1","-0.36","5","-27",""
"","psychophysics","192","986421","0.0-192.0","5a61207cc0d8360001078f07","64e50cd27f39027073ba50e6","","","","","5393",""," ","key"," ","16.660928792569962","500","250","zol","-0.7699999999999999","2","1","0.47","29","16",""
"","psychophysics","193","989901","0.0-193.0","5a61207cc0d8360001078f07","64e50cd27f39027073ba50e6","","","","","3476",""," ","key"," ","16.661153846153937","500","250","zol","-1.2500000000000002","2","1","0.65","23","-13",""
"","psychophysics","194","992641","0.0-194.0","5a61207cc0d8360001078f07","64e50cd27f39027073ba50e6","","","","","2735",""," ","key"," ","16.66195705521529","500","250","zol","-0.85","2","1","0.65","-28","20",""
"","psychophysics","195","996605","0.0-195.0","5a61207cc0d8360001078f07","64e50cd27f39027073ba50e6","","","","","3956",""," ","key"," ","16.661248945147744","500","250","zol","-0.8599999999999999","2","1","0.36","-4","-9",""
"","psychophysics","196","999883","0.0-196.0","5a61207cc0d8360001078f07","64e50cd27f39027073ba50e6","","","","","3269",""," ","key"," ","16.66133163265328","500","250","zol","-0.44999999999999996","2","1","-0.15","-6","-7",""
"","psychophysics","197","1003545","0.0-197.0","5a61207cc0d8360001078f07","64e50cd27f39027073ba50e6","","","","","3656",""," ","key"," ","16.661063926940844","500","250","zol","-0.48","2","1","-0.32","15","-6",""
"","psychophysics","198","1006874","0.0-198.0","5a61207cc0d8360001078f07","64e50cd27f39027073ba50e6","","","","","3324",""," ","key"," ","16.66032663316597","500","250","zol","-1.0599999999999998","2","1","-0.24","1","4",""
"","psychophysics","199","1011685","0.0-199.0","5a61207cc0d8360001078f07","64e50cd27f39027073ba50e6","","","","","4807",""," ","key"," ","16.660912891986168","500","250","zol","-0.59","2","1","0.29","13","7",""
"","psychophysics","200","1012747","0.0-200.0","5a61207cc0d8360001078f07","64e50cd27f39027073ba50e6","","","","","1056",""," ","key"," ","16.661079365080074","500","250","inst","","","","","","",""
"","psychophysics","201","1020314","0.0-201.0","5a61207cc0d8360001078f07","64e50cd27f39027073ba50e6","","","","","7565",""," ","key"," ","16.660977924944707","500","250","instPog0","340","2","","370","0","0","340"
"","psychophysics","202","1025001","0.0-202.0","5a61207cc0d8360001078f07","64e50cd27f39027073ba50e6","","","","","4685",""," ","key"," ","16.661149466192363","500","250","instPog1","354","2","","370","0","0","340"
"","psychophysics","203","1029314","0.0-203.0","5a61207cc0d8360001078f07","64e50cd27f39027073ba50e6","","","","","4312",""," ","key"," ","16.661256809338404","500","250","instPog2","340","2","","340","0","0","340"
"","psychophysics","204","1030939","0.0-204.0","5a61207cc0d8360001078f07","64e50cd27f39027073ba50e6","","","","","1619",""," ","key"," ","16.662907216495103","500","250","inst","","","","","","",""
"","psychophysics","205","1033903","0.0-205.0","5a61207cc0d8360001078f07","64e50cd27f39027073ba50e6","","","","","2961",""," ","key"," ","16.660983050847822","500","250","pog","362","2","1","374","0","0","370"
"","psychophysics","206","1038488","0.0-206.0","5a61207cc0d8360001078f07","64e50cd27f39027073ba50e6","","","","","4582",""," ","key"," ","16.66125912408737","500","250","pog","352","2","1","326","0","0","380"
"","psychophysics","207","1045289","0.0-207.0","5a61207cc0d8360001078f07","64e50cd27f39027073ba50e6","","","","","6798",""," ","key"," ","16.66092383292365","500","250","pog","332","2","1","350","0","0","347"
"","psychophysics","208","1050885","0.0-208.0","5a61207cc0d8360001078f07","64e50cd27f39027073ba50e6","","","","","5593",""," ","key"," ","16.66103880597042","500","250","pog","312","2","1","326","0","0","320"
"","psychophysics","209","1058227","0.0-209.0","5a61207cc0d8360001078f07","64e50cd27f39027073ba50e6","","","","","7340",""," ","key"," ","16.66110000000018","500","250","pog","332","2","1","292","0","0","364"
"","psychophysics","210","1061313","0.0-210.0","5a61207cc0d8360001078f07","64e50cd27f39027073ba50e6","","","","","3085",""," ","key"," ","16.661021739130575","500","250","pog","315","2","1","325","0","0","330"
"","psychophysics","211","1066303","0.0-211.0","5a61207cc0d8360001078f07","64e50cd27f39027073ba50e6","","","","","4987",""," ","key"," ","16.660738255033245","500","250","pog","287","2","1","283","0","0","305"
"","psychophysics","212","1074307","0.0-212.0","5a61207cc0d8360001078f07","64e50cd27f39027073ba50e6","","","","","null","","null","key","null","16.661358333333435","500","250","pog","338","2","1","282","0","0","364"
"","psychophysics","213","1079703","0.0-213.0","5a61207cc0d8360001078f07","64e50cd27f39027073ba50e6","","","","","5394",""," ","key"," ","16.66089164086649","500","250","pog","322","2","1","286","0","0","359"
"","psychophysics","214","1086996","0.0-214.0","5a61207cc0d8360001078f07","64e50cd27f39027073ba50e6","","","","","7290",""," ","key"," ","16.661188073394875","500","250","pog","290","2","1","380","0","0","306"
"","psychophysics","215","1089712","0.0-215.0","5a61207cc0d8360001078f07","64e50cd27f39027073ba50e6","","","","","2710",""," ","key"," ","16.66190123456864","500","250","pog","283","2","1","303","0","0","302"
"","psychophysics","216","1091879","0.0-216.0","5a61207cc0d8360001078f07","64e50cd27f39027073ba50e6","","","","","2163",""," ","key"," ","16.661338461537916","500","250","pog","344","2","1","348","0","0","376"
"","psychophysics","217","1095215","0.0-217.0","5a61207cc0d8360001078f07","64e50cd27f39027073ba50e6","","","","","3332",""," ","key"," ","16.661000000000534","500","250","pog","329","2","1","337","0","0","339"
"","psychophysics","218","1096500","0.0-218.0","5a61207cc0d8360001078f07","64e50cd27f39027073ba50e6","","","","","1282",""," ","key"," ","16.659986842105067","500","250","pog","295","2","1","295","0","0","315"
"","psychophysics","219","1102369","0.0-219.0","5a61207cc0d8360001078f07","64e50cd27f39027073ba50e6","","","","","5867",""," ","key"," ","16.66091452991428","500","250","pog","334","2","1","298","0","0","359"
