"success","trial_type","trial_index","time_elapsed","internal_node_id","pid","sid","timeout","failed_images","failed_audio","failed_video","rt","stimulus","response","response_type","key_press","avg_frame_time","center_x","center_y","task","resp","version","block","jitterX","jitterY","start","parA"
"true","fullscreen","0","4284","0.0-0.0","5e83ab61cd31510f15585845","64e50364eb9d960020c22518","","","","","","","","","","","","","","","","","","","",""
"true","preload","1","4362","0.0-1.0","5e83ab61cd31510f15585845","64e50364eb9d960020c22518","false","[]","[]","[]","","","","","","","","","","","","","","","",""
"","html-button-response","2","8663","0.0-2.0","5e83ab61cd31510f15585845","64e50364eb9d960020c22518","","","","","4301","Please Make Sure Your Audio Is On.","0","","","","","","","","","","","","",""
"","psychophysics","3","13383","0.0-3.0","5e83ab61cd31510f15585845","64e50364eb9d960020c22518","","","","","4716",""," ","key"," ","16.682720848056533","960","250","","","","","","","",""
"","psychophysics","4","16576","0.0-4.0","5e83ab61cd31510f15585845","64e50364eb9d960020c22518","","","","","3191",""," ","key"," ","16.68307894736841","500","250","inst","","","","","","",""
"","psychophysics","5","22016","0.0-5.0","5e83ab61cd31510f15585845","64e50364eb9d960020c22518","","","","","5439",""," ","key"," ","16.683036923076926","500","250","sample0","","","","","","",""
"","psychophysics","6","24313","0.0-6.0","5e83ab61cd31510f15585845","64e50364eb9d960020c22518","","","","","2295",""," ","key"," ","16.68310948905109","500","250","sample1","","","","","","",""
"","psychophysics","7","41018","0.0-7.0","5e83ab61cd31510f15585845","64e50364eb9d960020c22518","","","","","16704",""," ","key"," ","16.683069999999997","500","250","sample2","104","","","","","",""
"","psychophysics","8","49116","0.0-8.0","5e83ab61cd31510f15585845","64e50364eb9d960020c22518","","","","","8094",""," ","key"," ","16.683018556701022","500","250","sample3","100","","","","","",""
"","psychophysics","9","57925","0.0-9.0","5e83ab61cd31510f15585845","64e50364eb9d960020c22518","","","","","8808",""," ","key"," ","16.683034155597714","500","250","sample4","100","","","","","",""
"","psychophysics","10","61709","0.0-10.0","5e83ab61cd31510f15585845","64e50364eb9d960020c22518","","","","","3783",""," ","key"," ","16.683119469026558","500","250","sample5","","","","","","",""
"","psychophysics","11","70254","0.0-11.0","5e83ab61cd31510f15585845","64e50364eb9d960020c22518","","","","","8544",""," ","key"," ","16.683121330724063","500","250","sample6","500","","","","","",""
"","psychophysics","12","72999","0.0-12.0","5e83ab61cd31510f15585845","64e50364eb9d960020c22518","","","","","2743",""," ","key"," ","16.68303067484664","500","250","inst","","","","","","",""
"","psychophysics","13","79192","0.0-13.0","5e83ab61cd31510f15585845","64e50364eb9d960020c22518","","","","","6191",""," ","key"," ","16.68300808625339","500","250","inst","","","","","","",""
"","psychophysics","14","82072","0.0-14.0","5e83ab61cd31510f15585845","64e50364eb9d960020c22518","","","","","2879",""," ","key"," ","16.68318713450291","500","250","inst","","","","","","",""
"","psychophysics","15","83488","0.0-15.0","5e83ab61cd31510f15585845","64e50364eb9d960020c22518","","","","","1415",""," ","key"," ","16.683119047619023","500","250","inst","","","","","","",""
"","psychophysics","16","84928","0.0-16.0","5e83ab61cd31510f15585845","64e50364eb9d960020c22518","","","","","1439",""," ","key"," ","16.68342352941177","500","250","inst","","","","","","",""
"","psychophysics","17","88888","0.0-17.0","5e83ab61cd31510f15585845","64e50364eb9d960020c22518","","","","","3959",""," ","key"," ","16.683215189873444","500","250","instZol0","0","","","0","0","0",""
"","psychophysics","18","104450","0.0-18.0","5e83ab61cd31510f15585845","64e50364eb9d960020c22518","","","","","15561",""," ","key"," ","16.683059012875525","500","250","instZol1","0.19999999999999982","","","0","0","-1.3",""
"","psychophysics","19","131261","0.0-19.0","5e83ab61cd31510f15585845","64e50364eb9d960020c22518","","","","","26809",""," ","key"," ","16.683059775840594","500","250","instZol2","-0.1999999999999972","2","","0","0","2",""
"","psychophysics","20","134597","0.0-20.0","5e83ab61cd31510f15585845","64e50364eb9d960020c22518","","","","","3335",""," ","key"," ","16.682994974874358","500","250","inst","","","","","","",""
"","psychophysics","21","142600","0.0-21.0","5e83ab61cd31510f15585845","64e50364eb9d960020c22518","","","","","null","","null","key","null","16.682964435146435","500","250","zol","-1.27","2","0","-14","-17","-0.63",""
"","psychophysics","22","142686","0.0-22.0","5e83ab61cd31510f15585845","64e50364eb9d960020c22518","","","","","84",""," ","key"," ","16.683249999994587","500","250","zol","-0.58","2","0","-19","-19","0.58",""
"","psychophysics","23","148231","0.0-23.0","5e83ab61cd31510f15585845","64e50364eb9d960020c22518","","","","","5542",""," ","key"," ","16.683063253012055","500","250","zol","0.030000000000000165","2","0","-21","-10","-0.53",""
"","psychophysics","24","152319","0.0-24.0","5e83ab61cd31510f15585845","64e50364eb9d960020c22518","","","","","4086",""," ","key"," ","16.6831106557376","500","250","zol","-0.7799999999999999","2","0","-24","-15","0.38",""
"","psychophysics","25","157808","0.0-25.0","5e83ab61cd31510f15585845","64e50364eb9d960020c22518","","","","","5486",""," ","key"," ","16.683045731707374","500","250","zol","-1.0899999999999999","2","0","13","-15","0.59",""
"","psychophysics","26","162705","0.0-26.0","5e83ab61cd31510f15585845","64e50364eb9d960020c22518","","","","","4894",""," ","key"," ","16.682996575342457","500","250","zol","-1.6500000000000006","2","0","4","0","0.45",""
"","psychophysics","27","168721","0.0-27.0","5e83ab61cd31510f15585845","64e50364eb9d960020c22518","","","","","6010",""," ","key"," ","16.683011111111085","500","250","zol","-1.6000000000000003","2","0","5","-13","0",""
"","psychophysics","28","173090","0.0-28.0","5e83ab61cd31510f15585845","64e50364eb9d960020c22518","","","","","4366",""," ","key"," ","16.6829425287356","500","250","zol","-1.6800000000000004","2","0","-15","-6","0.38",""
"","psychophysics","29","181092","0.0-29.0","5e83ab61cd31510f15585845","64e50364eb9d960020c22518","","","","","null","","null","key","null","16.682636743214985","500","250","zol","-1.9000000000000004","2","0","-21","6","-0.5",""
"","psychophysics","30","181355","0.0-30.0","5e83ab61cd31510f15585845","64e50364eb9d960020c22518","","","","","260",""," ","key"," ","16.681428571429155","500","250","zol","-0.71","2","0","9","-8","0.71",""
"","psychophysics","31","189060","0.0-31.0","5e83ab61cd31510f15585845","64e50364eb9d960020c22518","","","","","7702",""," ","key"," ","16.683043383947943","500","250","zol","0.03","2","0","29","-13","0.57",""
"","psychophysics","32","192620","0.0-32.0","5e83ab61cd31510f15585845","64e50364eb9d960020c22518","","","","","3558",""," ","key"," ","16.683084507042267","500","250","zol","-0.9799999999999999","2","0","26","7","-0.32",""
"","psychophysics","33","196765","0.0-33.0","5e83ab61cd31510f15585845","64e50364eb9d960020c22518","","","","","4142",""," ","key"," ","16.683048582995905","500","250","zol","-1.35","2","0","18","11","0.05",""
"","psychophysics","34","200478","0.0-34.0","5e83ab61cd31510f15585845","64e50364eb9d960020c22518","","","","","3710",""," ","key"," ","16.68268018018028","500","250","zol","-1.12","2","0","2","-23","0.62",""
"","psychophysics","35","205518","0.0-35.0","5e83ab61cd31510f15585845","64e50364eb9d960020c22518","","","","","5037",""," ","key"," ","16.68297674418605","500","250","zol","-1.28","2","0","16","-8","0.18",""
"","psychophysics","36","207830","0.0-36.0","5e83ab61cd31510f15585845","64e50364eb9d960020c22518","","","","","2311",""," ","key"," ","16.68302189781017","500","250","inst","","","","","","",""
"","psychophysics","37","210830","0.0-37.0","5e83ab61cd31510f15585845","64e50364eb9d960020c22518","","","","","2999",""," ","key"," ","16.68294413407823","500","250","instEB0","40","2","","0","0","40","40"
"","psychophysics","38","220160","0.0-38.0","5e83ab61cd31510f15585845","64e50364eb9d960020c22518","","","","","9328",""," ","key"," ","16.683152329749092","500","250","instEB1","38","2","","0","0","30","40"
"","psychophysics","39","228073","0.0-39.0","5e83ab61cd31510f15585845","64e50364eb9d960020c22518","","","","","7912",""," ","key"," ","16.683031645569585","500","250","instEB2","32","2","","0","0","40","30"
"","psychophysics","40","242730","0.0-40.0","5e83ab61cd31510f15585845","64e50364eb9d960020c22518","","","","","14656",""," ","key"," ","16.682996579247447","500","250","instEB3","31","2","","0","0","45","27"
"","psychophysics","41","255132","0.0-41.0","5e83ab61cd31510f15585845","64e50364eb9d960020c22518","","","","","12400",""," ","key"," ","16.683056527590846","500","250","instEB4","41","2","","0","0","30","40"
"","psychophysics","42","257068","0.0-42.0","5e83ab61cd31510f15585845","64e50364eb9d960020c22518","","","","","1935",""," ","key"," ","16.68282608695647","500","250","inst","","","","","","",""
"","psychophysics","43","263149","0.0-43.0","5e83ab61cd31510f15585845","64e50364eb9d960020c22518","","","","","6079",""," ","key"," ","16.683060606060607","500","250","eb","38","2","","0","0","53","34"
"","psychophysics","44","268477","0.0-44.0","5e83ab61cd31510f15585845","64e50364eb9d960020c22518","","","","","5326",""," ","key"," ","16.683012539184933","500","250","eb","38","2","","0","0","27","35"
"","psychophysics","45","273070","0.0-45.0","5e83ab61cd31510f15585845","64e50364eb9d960020c22518","","","","","4591",""," ","key"," ","16.683058394160568","500","250","eb","41","2","","0","0","31","40"
"","psychophysics","46","276791","0.0-46.0","5e83ab61cd31510f15585845","64e50364eb9d960020c22518","","","","","3719",""," ","key"," ","16.683148648648583","500","250","eb","45","2","","0","0","43","42"
"","psychophysics","47","281303","0.0-47.0","5e83ab61cd31510f15585845","64e50364eb9d960020c22518","","","","","4511",""," ","key"," ","16.68308178438644","500","250","eb","34","2","","0","0","38","31"
"","psychophysics","48","287232","0.0-48.0","5e83ab61cd31510f15585845","64e50364eb9d960020c22518","","","","","5926",""," ","key"," ","16.682966197183042","500","250","eb","51","2","","0","0","32","48"
"","psychophysics","49","293001","0.0-49.0","5e83ab61cd31510f15585845","64e50364eb9d960020c22518","","","","","5767",""," ","key"," ","16.683087209302208","500","250","eb","48","2","","0","0","38","40"
"","psychophysics","50","299874","0.0-50.0","5e83ab61cd31510f15585845","64e50364eb9d960020c22518","","","","","6870",""," ","key"," ","16.682992700729837","500","250","eb","60","2","","0","0","39","54"
"","psychophysics","51","305802","0.0-51.0","5e83ab61cd31510f15585845","64e50364eb9d960020c22518","","","","","5923",""," ","key"," ","16.683126760563407","500","250","eb","55","2","","0","0","39","48"
"","psychophysics","52","311211","0.0-52.0","5e83ab61cd31510f15585845","64e50364eb9d960020c22518","","","","","5406",""," ","key"," ","16.68313003095979","500","250","eb","42","2","","0","0","25","42"
"","psychophysics","53","314387","0.0-53.0","5e83ab61cd31510f15585845","64e50364eb9d960020c22518","","","","","3175",""," ","key"," ","16.683089947090213","500","250","eb","44","2","","0","0","37","45"
"","psychophysics","54","318788","0.0-54.0","5e83ab61cd31510f15585845","64e50364eb9d960020c22518","","","","","4398",""," ","key"," ","16.683026615969577","500","250","eb","38","2","","0","0","30","37"
"","psychophysics","55","322445","0.0-55.0","5e83ab61cd31510f15585845","64e50364eb9d960020c22518","","","","","3655",""," ","key"," ","16.683022935779704","500","250","eb","39","2","","0","0","40","37"
"","psychophysics","56","327325","0.0-56.0","5e83ab61cd31510f15585845","64e50364eb9d960020c22518","","","","","4877",""," ","key"," ","16.68303424657533","500","250","eb","34","2","","0","0","43","29"
"","psychophysics","57","331694","0.0-57.0","5e83ab61cd31510f15585845","64e50364eb9d960020c22518","","","","","4367",""," ","key"," ","16.68291954022977","500","250","eb","45","2","","0","0","26","41"
"","psychophysics","58","332750","0.0-58.0","5e83ab61cd31510f15585845","64e50364eb9d960020c22518","","","","","1055",""," ","key"," ","16.682741935484135","500","250","inst","","","","","","",""
"","psychophysics","59","335502","0.0-59.0","5e83ab61cd31510f15585845","64e50364eb9d960020c22518","","","","","2752",""," ","key"," ","16.683439024390438","500","250","instPzPre","50","0","","","","50","50"
"","psychophysics","60","340078","0.0-60.0","5e83ab61cd31510f15585845","64e50364eb9d960020c22518","","","","","4575",""," ","key"," ","16.683091575091563","500","250","instPz0","140","1","","","","50","50"
"","psychophysics","61","355144","0.0-61.0","5e83ab61cd31510f15585845","64e50364eb9d960020c22518","","","","","15064",""," ","key"," ","16.683039911308217","500","250","instPz1","177","1","","","","25","50"
"","psychophysics","62","364449","0.0-62.0","5e83ab61cd31510f15585845","64e50364eb9d960020c22518","","","","","9303",""," ","key"," ","16.68305385996411","500","250","instPz2","147","1","","","","35","20"
"","psychophysics","63","371674","0.0-63.0","5e83ab61cd31510f15585845","64e50364eb9d960020c22518","","","","","7222",""," ","key"," ","16.683046296296297","500","250","instPz3","169","1","","","","100","30"
"","psychophysics","64","381715","0.0-64.0","5e83ab61cd31510f15585845","64e50364eb9d960020c22518","","","","","10040",""," ","key"," ","16.6831347753744","500","250","instPz4","165","1","","","","100","30"
"","psychophysics","65","382796","0.0-65.0","5e83ab61cd31510f15585845","64e50364eb9d960020c22518","","","","","1079",""," ","key"," ","16.682718749999367","500","250","inst","","","","","","",""
"","psychophysics","66","390797","0.0-66.0","5e83ab61cd31510f15585845","64e50364eb9d960020c22518","","","","","null","","null","key","null","16.68304602510457","500","250","pz","179","1","0","","","50","48"
"","psychophysics","67","398799","0.0-67.0","5e83ab61cd31510f15585845","64e50364eb9d960020c22518","","","","","null","","null","key","null","16.683098121085653","500","250","pz","149","1","0","","","30","20"
"","psychophysics","68","405638","0.0-68.0","5e83ab61cd31510f15585845","64e50364eb9d960020c22518","","","","","6838",""," ","key"," ","16.683044009779927","500","250","pz","173","1","0","","","56","32"
"","psychophysics","69","413199","0.0-69.0","5e83ab61cd31510f15585845","64e50364eb9d960020c22518","","","","","7559",""," ","key"," ","16.683000000000032","500","250","pz","169","1","0","","","44","31"
"","psychophysics","70","420656","0.0-70.0","5e83ab61cd31510f15585845","64e50364eb9d960020c22518","","","","","7455",""," ","key"," ","16.683078475336302","500","250","pz","166","1","0","","","24","26"
"","psychophysics","71","428658","0.0-71.0","5e83ab61cd31510f15585845","64e50364eb9d960020c22518","","","","","null","","null","key","null","16.68310229645095","500","250","pz","169","1","0","","","22","31"
"","psychophysics","72","435898","0.0-72.0","5e83ab61cd31510f15585845","64e50364eb9d960020c22518","","","","","7238",""," ","key"," ","16.683004618937733","500","250","pz","171","1","0","","","21","40"
"","psychophysics","73","443163","0.0-73.0","5e83ab61cd31510f15585845","64e50364eb9d960020c22518","","","","","7263",""," ","key"," ","16.6830368663595","500","250","pz","158","1","0","","","43","26"
"","psychophysics","74","451165","0.0-74.0","5e83ab61cd31510f15585845","64e50364eb9d960020c22518","","","","","null","","null","key","null","16.85910337552748","500","250","pz","193","1","0","","","21","60"
"","psychophysics","75","458253","0.0-75.0","5e83ab61cd31510f15585845","64e50364eb9d960020c22518","","","","","7086",""," ","key"," ","16.683030660377316","500","250","pz","187","1","0","","","33","50"
"","psychophysics","76","465142","0.0-76.0","5e83ab61cd31510f15585845","64e50364eb9d960020c22518","","","","","6887",""," ","key"," ","16.683065533980606","500","250","pz","193","1","0","","","27","55"
"","psychophysics","77","472606","0.0-77.0","5e83ab61cd31510f15585845","64e50364eb9d960020c22518","","","","","7463",""," ","key"," ","16.683069506726532","500","250","pz","192","1","0","","","25","57"
"","psychophysics","78","479255","0.0-78.0","5e83ab61cd31510f15585845","64e50364eb9d960020c22518","","","","","6647",""," ","key"," ","16.683060301507556","500","250","pz","175","1","0","","","56","44"
"","psychophysics","79","485448","0.0-79.0","5e83ab61cd31510f15585845","64e50364eb9d960020c22518","","","","","6191",""," ","key"," ","16.683067567567686","500","250","pz","164","1","0","","","39","26"
"","psychophysics","80","491960","0.0-80.0","5e83ab61cd31510f15585845","64e50364eb9d960020c22518","","","","","6510",""," ","key"," ","16.683064267352183","500","250","pz","177","1","0","","","46","45"
"","psychophysics","81","492977","0.0-81.0","5e83ab61cd31510f15585845","64e50364eb9d960020c22518","","","","","1015",""," ","key"," ","16.68299999999969","500","250","inst","","","","","","",""
"","psychophysics","82","495377","0.0-82.0","5e83ab61cd31510f15585845","64e50364eb9d960020c22518","","","","","2398",""," ","key"," ","16.682972027972287","500","250","instBr0","0","","","0","0","0","300"
"","psychophysics","83","503962","0.0-83.0","5e83ab61cd31510f15585845","64e50364eb9d960020c22518","","","","","8584",""," ","key"," ","16.68311867704284","500","250","instBr1","-6","","","0","0","-40","300"
"","psychophysics","84","514363","0.0-84.0","5e83ab61cd31510f15585845","64e50364eb9d960020c22518","","","","","10400",""," ","key"," ","16.68336495176851","500","250","instBr3","-24","1","","0","0","40","300"
"","psychophysics","85","515211","0.0-85.0","5e83ab61cd31510f15585845","64e50364eb9d960020c22518","","","","","847",""," ","key"," ","16.68308000000077","500","250","inst","","","","","","",""
"","psychophysics","86","519812","0.0-86.0","5e83ab61cd31510f15585845","64e50364eb9d960020c22518","","","","","4599",""," ","key"," ","16.682978181818246","500","250","br","-16","1","0","-15","-2","26","211"
"","psychophysics","87","523596","0.0-87.0","5e83ab61cd31510f15585845","64e50364eb9d960020c22518","","","","","3783",""," ","key"," ","16.683057522124084","500","250","br","-14","1","0","16","16","12","209"
"","psychophysics","88","526429","0.0-88.0","5e83ab61cd31510f15585845","64e50364eb9d960020c22518","","","","","2831",""," ","key"," ","16.683238095238007","500","250","br","-22","1","0","11","16","-7","256"
"","psychophysics","89","529845","0.0-89.0","5e83ab61cd31510f15585845","64e50364eb9d960020c22518","","","","","3414",""," ","key"," ","16.683073529412095","500","250","br","-22","1","0","-8","-7","-4","231"
"","psychophysics","90","532109","0.0-90.0","5e83ab61cd31510f15585845","64e50364eb9d960020c22518","","","","","2263",""," ","key"," ","16.68331851851868","500","250","br","-22","1","0","10","10","-5","292"
"","psychophysics","91","535870","0.0-91.0","5e83ab61cd31510f15585845","64e50364eb9d960020c22518","","","","","3759",""," ","key"," ","16.68315178571408","500","250","br","-24","1","0","-10","14","7","290"
"","psychophysics","92","539046","0.0-92.0","5e83ab61cd31510f15585845","64e50364eb9d960020c22518","","","","","3174",""," ","key"," ","16.68303157894774","500","250","br","-22","1","0","17","-7","0","259"
"","psychophysics","93","541559","0.0-93.0","5e83ab61cd31510f15585845","64e50364eb9d960020c22518","","","","","2511",""," ","key"," ","16.683100671140984","500","250","br","-22","1","0","3","5","-16","242"
"","psychophysics","94","545871","0.0-94.0","5e83ab61cd31510f15585845","64e50364eb9d960020c22518","","","","","4311",""," ","key"," ","16.68308527131796","500","250","br","-19","1","0","28","27","9","209"
"","psychophysics","95","548983","0.0-95.0","5e83ab61cd31510f15585845","64e50364eb9d960020c22518","","","","","3111",""," ","key"," ","16.683005405405563","500","250","br","-28","1","0","20","10","-3","285"
"","psychophysics","96","552752","0.0-96.0","5e83ab61cd31510f15585845","64e50364eb9d960020c22518","","","","","3767",""," ","key"," ","16.68306222222228","500","250","br","-21","1","0","18","-3","29","246"
"","psychophysics","97","554376","0.0-97.0","5e83ab61cd31510f15585845","64e50364eb9d960020c22518","","","","","1623",""," ","key"," ","16.682865979381567","500","250","br","-25","1","0","22","2","-12","222"
"","psychophysics","98","555880","0.0-98.0","5e83ab61cd31510f15585845","64e50364eb9d960020c22518","","","","","1503",""," ","key"," ","16.68289887640374","500","250","br","-23","1","0","3","15","-15","223"
"","psychophysics","99","560273","0.0-99.0","5e83ab61cd31510f15585845","64e50364eb9d960020c22518","","","","","4391",""," ","key"," ","16.683087786259254","500","250","br","-17","1","0","13","4","29","220"
"","psychophysics","100","564537","0.0-100.0","5e83ab61cd31510f15585845","64e50364eb9d960020c22518","","","","","4263",""," ","key"," ","16.68300392156896","500","250","br","-17","1","0","-3","-14","30","245"
"","psychophysics","101","565465","0.0-101.0","5e83ab61cd31510f15585845","64e50364eb9d960020c22518","","","","","927",""," ","key"," ","16.68212962962894","500","250","inst","","","","","","",""
"","psychophysics","102","573394","0.0-102.0","5e83ab61cd31510f15585845","64e50364eb9d960020c22518","","","","","7927",""," ","key"," ","16.683071578947434","500","250","instPog0","160","1","","0","0","190","160"
"","psychophysics","103","578891","0.0-103.0","5e83ab61cd31510f15585845","64e50364eb9d960020c22518","","","","","5496",""," ","key"," ","16.683079268292826","500","250","instPog1","162","1","","0","0","190","160"
"","psychophysics","104","586036","0.0-104.0","5e83ab61cd31510f15585845","64e50364eb9d960020c22518","","","","","7143",""," ","key"," ","16.68304215456671","500","250","instPog2","176","1","","0","0","160","160"
"","psychophysics","105","586948","0.0-105.0","5e83ab61cd31510f15585845","64e50364eb9d960020c22518","","","","","911",""," ","key"," ","16.682703703702256","500","250","inst","","","","","","",""
"","psychophysics","106","591477","0.0-106.0","5e83ab61cd31510f15585845","64e50364eb9d960020c22518","","","","","4527",""," ","key"," ","16.683118518518665","500","250","pog","172","1","0","0","0","132","153"
"","psychophysics","107","593765","0.0-107.0","5e83ab61cd31510f15585845","64e50364eb9d960020c22518","","","","","2285",""," ","key"," ","16.682905109488765","500","250","pog","154","1","0","0","0","152","142"
"","psychophysics","108","599054","0.0-108.0","5e83ab61cd31510f15585845","64e50364eb9d960020c22518","","","","","5288",""," ","key"," ","16.683123417721422","500","250","pog","160","1","0","0","0","126","151"
"","psychophysics","109","603174","0.0-109.0","5e83ab61cd31510f15585845","64e50364eb9d960020c22518","","","","","4119",""," ","key"," ","16.683028455284646","500","250","pog","144","1","0","0","0","180","134"
"","psychophysics","110","607751","0.0-110.0","5e83ab61cd31510f15585845","64e50364eb9d960020c22518","","","","","4575",""," ","key"," ","16.683018315018447","500","250","pog","206","1","0","0","0","200","195"
"","psychophysics","111","611439","0.0-111.0","5e83ab61cd31510f15585845","64e50364eb9d960020c22518","","","","","3687",""," ","key"," ","16.682977272727292","500","250","pog","150","1","0","0","0","132","131"
"","psychophysics","112","615400","0.0-112.0","5e83ab61cd31510f15585845","64e50364eb9d960020c22518","","","","","3959",""," ","key"," ","16.683050847457924","500","250","pog","183","1","0","0","0","139","155"
"","psychophysics","113","620968","0.0-113.0","5e83ab61cd31510f15585845","64e50364eb9d960020c22518","","","","","5565",""," ","key"," ","16.683033033033244","500","250","pog","149","1","0","0","0","169","131"
"","psychophysics","114","628970","0.0-114.0","5e83ab61cd31510f15585845","64e50364eb9d960020c22518","","","","","null","","null","key","null","16.683043841336026","500","250","pog","198","1","0","0","0","108","180"
"","psychophysics","115","631058","0.0-115.0","5e83ab61cd31510f15585845","64e50364eb9d960020c22518","","","","","2086",""," ","key"," ","16.682967741936146","500","250","pog","206","1","0","0","0","212","196"
"","psychophysics","116","634234","0.0-116.0","5e83ab61cd31510f15585845","64e50364eb9d960020c22518","","","","","3175",""," ","key"," ","16.68298412698368","500","250","pog","200","1","0","0","0","206","189"
"","psychophysics","117","636146","0.0-117.0","5e83ab61cd31510f15585845","64e50364eb9d960020c22518","","","","","1911",""," ","key"," ","16.682938596491066","500","250","pog","173","1","0","0","0","177","160"
"","psychophysics","118","637499","0.0-118.0","5e83ab61cd31510f15585845","64e50364eb9d960020c22518","","","","","1351",""," ","key"," ","16.682762500000536","500","250","pog","162","1","0","0","0","166","144"
"","psychophysics","119","642467","0.0-119.0","5e83ab61cd31510f15585845","64e50364eb9d960020c22518","","","","","4967",""," ","key"," ","16.683057239057295","500","250","pog","194","1","0","0","0","220","176"
"","psychophysics","120","646188","0.0-120.0","5e83ab61cd31510f15585845","64e50364eb9d960020c22518","","","","","3719",""," ","key"," ","16.68297297297295","500","250","pog","155","1","0","0","0","107","140"
"","psychophysics","121","647100","0.0-121.0","5e83ab61cd31510f15585845","64e50364eb9d960020c22518","","","","","911",""," ","key"," ","16.683462962963084","500","250","inst","","","","","","",""
"","psychophysics","122","663213","0.0-122.0","5e83ab61cd31510f15585845","64e50364eb9d960020c22518","","","","","16112",""," ","key"," ","16.683049792531083","500","250","instPz1","-126","2","","","","25","50"
"","psychophysics","123","680671","0.0-123.0","5e83ab61cd31510f15585845","64e50364eb9d960020c22518","","","","","17455",""," ","key"," ","16.6830621414914","500","250","instPz2","-35","2","","","","20","35"
"","psychophysics","124","692912","0.0-124.0","5e83ab61cd31510f15585845","64e50364eb9d960020c22518","","","","","12239",""," ","key"," ","16.683069577080413","500","250","instPz3","-46","2","","","","30","100"
"","psychophysics","125","696961","0.0-125.0","5e83ab61cd31510f15585845","64e50364eb9d960020c22518","","","","","4047",""," ","key"," ","16.682941908713843","500","250","instPz4","30","2","","","","30","100"
"","psychophysics","126","698553","0.0-126.0","5e83ab61cd31510f15585845","64e50364eb9d960020c22518","","","","","1591",""," ","key"," ","16.682926315789746","500","250","inst","","","","","","",""
"","psychophysics","127","702313","0.0-127.0","5e83ab61cd31510f15585845","64e50364eb9d960020c22518","","","","","3759",""," ","key"," ","16.683133928571415","500","250","pz","17","2","1","","","32","24"
"","psychophysics","128","706810","0.0-128.0","5e83ab61cd31510f15585845","64e50364eb9d960020c22518","","","","","4495",""," ","key"," ","16.683070631969986","500","250","pz","30","2","1","","","38","52"
"","psychophysics","129","710579","0.0-129.0","5e83ab61cd31510f15585845","64e50364eb9d960020c22518","","","","","3767",""," ","key"," ","16.68295999999986","500","250","pz","27","2","1","","","56","35"
"","psychophysics","130","714243","0.0-130.0","5e83ab61cd31510f15585845","64e50364eb9d960020c22518","","","","","3663",""," ","key"," ","16.683027522935888","500","250","pz","31","2","1","","","57","37"
"","psychophysics","131","717252","0.0-131.0","5e83ab61cd31510f15585845","64e50364eb9d960020c22518","","","","","3007",""," ","key"," ","16.68288888888912","500","250","pz","36","2","1","","","51","54"
"","psychophysics","132","720476","0.0-132.0","5e83ab61cd31510f15585845","64e50364eb9d960020c22518","","","","","3223",""," ","key"," ","16.68306770833321","500","250","pz","21","2","1","","","47","26"
"","psychophysics","133","723596","0.0-133.0","5e83ab61cd31510f15585845","64e50364eb9d960020c22518","","","","","3119",""," ","key"," ","16.683134408601966","500","250","pz","20","2","1","","","51","24"
"","psychophysics","134","725917","0.0-134.0","5e83ab61cd31510f15585845","64e50364eb9d960020c22518","","","","","2319",""," ","key"," ","16.682985507246222","500","250","pz","33","2","1","","","43","43"
"","psychophysics","135","728869","0.0-135.0","5e83ab61cd31510f15585845","64e50364eb9d960020c22518","","","","","2951",""," ","key"," ","16.6826363636362","500","250","pz","28","2","1","","","43","36"
"","psychophysics","136","731781","0.0-136.0","5e83ab61cd31510f15585845","64e50364eb9d960020c22518","","","","","2911",""," ","key"," ","16.683052023121753","500","250","pz","30","2","1","","","41","50"
"","psychophysics","137","734254","0.0-137.0","5e83ab61cd31510f15585845","64e50364eb9d960020c22518","","","","","2469",""," ","key"," ","16.68283783783743","500","250","pz","25","2","1","","","39","34"
"","psychophysics","138","737822","0.0-138.0","5e83ab61cd31510f15585845","64e50364eb9d960020c22518","","","","","3567",""," ","key"," ","16.682539906102985","500","250","pz","29","2","1","","","33","48"
"","psychophysics","139","740150","0.0-139.0","5e83ab61cd31510f15585845","64e50364eb9d960020c22518","","","","","2326",""," ","key"," ","16.68302898550747","500","250","pz","29","2","1","","","38","45"
"","psychophysics","140","743167","0.0-140.0","5e83ab61cd31510f15585845","64e50364eb9d960020c22518","","","","","3015",""," ","key"," ","16.683527777777957","500","250","pz","29","2","1","","","56","36"
"","psychophysics","141","745527","0.0-141.0","5e83ab61cd31510f15585845","64e50364eb9d960020c22518","","","","","2358",""," ","key"," ","16.682957142857568","500","250","pz","26","2","1","","","50","30"
"","psychophysics","142","746391","0.0-142.0","5e83ab61cd31510f15585845","64e50364eb9d960020c22518","","","","","861",""," ","key"," ","16.68207843137184","500","250","inst","","","","","","",""
"","psychophysics","143","750840","0.0-143.0","5e83ab61cd31510f15585845","64e50364eb9d960020c22518","","","","","4447",""," ","key"," ","16.683026315789682","500","250","instZol1","0.6","","","0","0","-1.3",""
"","psychophysics","144","761953","0.0-144.0","5e83ab61cd31510f15585845","64e50364eb9d960020c22518","","","","","11111",""," ","key"," ","16.68305563909786","500","250","instZol2","0.4000000000000007","1","","0","0","2",""
"","psychophysics","145","762833","0.0-145.0","5e83ab61cd31510f15585845","64e50364eb9d960020c22518","","","","","879",""," ","key"," ","16.68290384615494","500","250","inst","","","","","","",""
"","psychophysics","146","768410","0.0-146.0","5e83ab61cd31510f15585845","64e50364eb9d960020c22518","","","","","5574",""," ","key"," ","16.68307207207204","500","250","zol","-0.08000000000000002","1","1","-2","-28","0.58",""
"","psychophysics","147","771042","0.0-147.0","5e83ab61cd31510f15585845","64e50364eb9d960020c22518","","","","","2630",""," ","key"," ","16.6829235668785","500","250","zol","0.08000000000000007","1","1","-3","-18","0.42",""
"","psychophysics","148","772770","0.0-148.0","5e83ab61cd31510f15585845","64e50364eb9d960020c22518","","","","","1726",""," ","key"," ","16.683137254902462","500","250","zol","0.57","1","1","-19","-5","-0.17",""
"","psychophysics","149","775771","0.0-149.0","5e83ab61cd31510f15585845","64e50364eb9d960020c22518","","","","","2997",""," ","key"," ","16.682871508379545","500","250","zol","0.44999999999999996","1","1","7","-8","0.05",""
"","psychophysics","150","777707","0.0-150.0","5e83ab61cd31510f15585845","64e50364eb9d960020c22518","","","","","1934",""," ","key"," ","16.682513043478778","500","250","zol","0.22","1","1","-8","-7","0.28",""
"","psychophysics","151","780771","0.0-151.0","5e83ab61cd31510f15585845","64e50364eb9d960020c22518","","","","","3062",""," ","key"," ","16.682896174863235","500","250","zol","0.44999999999999996","1","1","29","7","0.05",""
"","psychophysics","152","782780","0.0-152.0","5e83ab61cd31510f15585845","64e50364eb9d960020c22518","","","","","2006",""," ","key"," ","16.683075630251796","500","250","zol","-0.06","1","1","-12","16","-0.14",""
"","psychophysics","153","785700","0.0-153.0","5e83ab61cd31510f15585845","64e50364eb9d960020c22518","","","","","2918",""," ","key"," ","16.683022988505858","500","250","zol","0.39","1","1","-23","21","-0.59",""
"","psychophysics","154","787812","0.0-154.0","5e83ab61cd31510f15585845","64e50364eb9d960020c22518","","","","","2109",""," ","key"," ","16.682785714286315","500","250","zol","0.01999999999999999","1","1","25","-28","-0.02",""
"","psychophysics","155","792365","0.0-155.0","5e83ab61cd31510f15585845","64e50364eb9d960020c22518","","","","","4550",""," ","key"," ","16.68309926470615","500","250","zol","-0.13999999999999996","1","1","-19","-20","0.24",""
"","psychophysics","156","796013","0.0-156.0","5e83ab61cd31510f15585845","64e50364eb9d960020c22518","","","","","3646",""," ","key"," ","16.68302752293535","500","250","zol","0.8499999999999999","1","1","-28","-9","-0.35",""
"","psychophysics","157","799494","0.0-157.0","5e83ab61cd31510f15585845","64e50364eb9d960020c22518","","","","","3478",""," ","key"," ","16.68308695652162","500","250","zol","0.1299999999999999","1","1","8","-29","0.67",""
"","psychophysics","158","803318","0.0-158.0","5e83ab61cd31510f15585845","64e50364eb9d960020c22518","","","","","3822",""," ","key"," ","16.682960526315647","500","250","zol","0.9199999999999999","1","1","-3","9","-0.42",""
"","psychophysics","159","806110","0.0-159.0","5e83ab61cd31510f15585845","64e50364eb9d960020c22518","","","","","2789",""," ","key"," ","16.682964071855896","500","250","zol","1.17","1","1","7","-13","-0.17",""
"","psychophysics","160","810655","0.0-160.0","5e83ab61cd31510f15585845","64e50364eb9d960020c22518","","","","","4542",""," ","key"," ","16.683132841328685","500","250","zol","1.06","1","1","-12","-17","-0.46",""
"","psychophysics","161","811455","0.0-161.0","5e83ab61cd31510f15585845","64e50364eb9d960020c22518","","","","","799",""," ","key"," ","16.68310638297934","500","250","inst","","","","","","",""
"","psychophysics","162","819128","0.0-162.0","5e83ab61cd31510f15585845","64e50364eb9d960020c22518","","","","","7672",""," ","key"," ","16.682919389978387","500","250","instPog0","340","2","","0","0","370","340"
"","psychophysics","163","821768","0.0-163.0","5e83ab61cd31510f15585845","64e50364eb9d960020c22518","","","","","2639",""," ","key"," ","16.683038216560284","500","250","instPog1","364","2","","0","0","370","340"
"","psychophysics","164","823937","0.0-164.0","5e83ab61cd31510f15585845","64e50364eb9d960020c22518","","","","","2167",""," ","key"," ","16.68318604651113","500","250","instPog2","338","2","","0","0","340","340"
"","psychophysics","165","824553","0.0-165.0","5e83ab61cd31510f15585845","64e50364eb9d960020c22518","","","","","615",""," ","key"," ","16.68269444444579","500","250","inst","","","","","","",""
"","psychophysics","166","828513","0.0-166.0","5e83ab61cd31510f15585845","64e50364eb9d960020c22518","","","","","3959",""," ","key"," ","16.683025316455605","500","250","pog","348","2","1","0","0","388","368"
"","psychophysics","167","830482","0.0-167.0","5e83ab61cd31510f15585845","64e50364eb9d960020c22518","","","","","1967",""," ","key"," ","16.682735042735082","500","250","pog","362","2","1","0","0","362","372"
"","psychophysics","168","833034","0.0-168.0","5e83ab61cd31510f15585845","64e50364eb9d960020c22518","","","","","2551",""," ","key"," ","16.682782894737198","500","250","pog","310","2","1","0","0","340","322"
"","psychophysics","169","836122","0.0-169.0","5e83ab61cd31510f15585845","64e50364eb9d960020c22518","","","","","3087",""," ","key"," ","16.682902173912936","500","250","pog","312","2","1","0","0","374","321"
"","psychophysics","170","837754","0.0-170.0","5e83ab61cd31510f15585845","64e50364eb9d960020c22518","","","","","1631",""," ","key"," ","16.682907216494527","500","250","pog","344","2","1","0","0","366","357"
"","psychophysics","171","839539","0.0-171.0","5e83ab61cd31510f15585845","64e50364eb9d960020c22518","","","","","1783",""," ","key"," ","16.682905660377692","500","250","pog","311","2","1","0","0","307","337"
"","psychophysics","172","842651","0.0-172.0","5e83ab61cd31510f15585845","64e50364eb9d960020c22518","","","","","3111",""," ","key"," ","16.68295675675649","500","250","pog","299","2","1","0","0","343","323"
"","psychophysics","173","844427","0.0-173.0","5e83ab61cd31510f15585845","64e50364eb9d960020c22518","","","","","1774",""," ","key"," ","16.68293396226473","500","250","pog","301","2","1","0","0","289","336"
"","psychophysics","174","850412","0.0-174.0","5e83ab61cd31510f15585845","64e50364eb9d960020c22518","","","","","5983",""," ","key"," ","16.683042016806777","500","250","pog","304","2","1","0","0","366","311"
"","psychophysics","175","852732","0.0-175.0","5e83ab61cd31510f15585845","64e50364eb9d960020c22518","","","","","2319",""," ","key"," ","16.683072463768717","500","250","pog","360","2","1","0","0","358","375"
"","psychophysics","176","857069","0.0-176.0","5e83ab61cd31510f15585845","64e50364eb9d960020c22518","","","","","4334",""," ","key"," ","16.682899613899778","500","250","pog","336","2","1","0","0","290","352"
"","psychophysics","177","858221","0.0-177.0","5e83ab61cd31510f15585845","64e50364eb9d960020c22518","","","","","1151",""," ","key"," ","16.68258823529365","500","250","pog","315","2","1","0","0","313","339"
"","psychophysics","178","862838","0.0-178.0","5e83ab61cd31510f15585845","64e50364eb9d960020c22518","","","","","4614",""," ","key"," ","16.683032608695626","500","250","pog","326","2","1","0","0","280","356"
"","psychophysics","179","868222","0.0-179.0","5e83ab61cd31510f15585845","64e50364eb9d960020c22518","","","","","5383",""," ","key"," ","16.682981366459757","500","250","pog","311","2","1","0","0","363","338"
"","psychophysics","180","875463","0.0-180.0","5e83ab61cd31510f15585845","64e50364eb9d960020c22518","","","","","7240",""," ","key"," ","16.68297921478056","500","250","pog","296","2","1","0","0","372","304"
"","psychophysics","181","876671","0.0-181.0","5e83ab61cd31510f15585845","64e50364eb9d960020c22518","","","","","1207",""," ","key"," ","16.68304225352173","500","250","inst","","","","","","",""
"","psychophysics","182","882312","0.0-182.0","5e83ab61cd31510f15585845","64e50364eb9d960020c22518","","","","","5640",""," ","key"," ","16.682913946587515","500","250","instEB1","30","1","","0","0","40","30"
"","psychophysics","183","887376","0.0-183.0","5e83ab61cd31510f15585845","64e50364eb9d960020c22518","","","","","5062",""," ","key"," ","16.683062706270604","500","250","instEB2","39","1","","0","0","30","40"
"","psychophysics","184","892217","0.0-184.0","5e83ab61cd31510f15585845","64e50364eb9d960020c22518","","","","","4838",""," ","key"," ","16.683093425605502","500","250","instEB3","40","1","","0","0","27","45"
"","psychophysics","185","897418","0.0-185.0","5e83ab61cd31510f15585845","64e50364eb9d960020c22518","","","","","5199",""," ","key"," ","16.682971061093184","500","250","instEB4","28","1","","0","0","40","30"
"","psychophysics","186","898178","0.0-186.0","5e83ab61cd31510f15585845","64e50364eb9d960020c22518","","","","","759",""," ","key"," ","16.68227272727315","500","250","inst","","","","","","",""
"","psychophysics","187","902322","0.0-187.0","5e83ab61cd31510f15585845","64e50364eb9d960020c22518","","","","","4141",""," ","key"," ","16.68296370967742","500","250","eb","43","1","","0","0","37","49"
"","psychophysics","188","906115","0.0-188.0","5e83ab61cd31510f15585845","64e50364eb9d960020c22518","","","","","3791",""," ","key"," ","16.68302212389386","500","250","eb","35","1","","0","0","38","37"
"","psychophysics","189","908395","0.0-189.0","5e83ab61cd31510f15585845","64e50364eb9d960020c22518","","","","","2279",""," ","key"," ","16.683102941176486","500","250","eb","39","1","","0","0","42","43"
"","psychophysics","190","912236","0.0-190.0","5e83ab61cd31510f15585845","64e50364eb9d960020c22518","","","","","3839",""," ","key"," ","16.683074235808366","500","250","eb","40","1","","0","0","33","46"
"","psychophysics","191","915940","0.0-191.0","5e83ab61cd31510f15585845","64e50364eb9d960020c22518","","","","","3703",""," ","key"," ","16.6833619909499","500","250","eb","36","1","","0","0","42","39"
"","psychophysics","192","918260","0.0-192.0","5e83ab61cd31510f15585845","64e50364eb9d960020c22518","","","","","2318",""," ","key"," ","16.682942028985817","500","250","eb","34","1","","0","0","35","34"
"","psychophysics","193","921348","0.0-193.0","5e83ab61cd31510f15585845","64e50364eb9d960020c22518","","","","","3087",""," ","key"," ","16.68292391304314","500","250","eb","36","1","","0","0","50","34"
"","psychophysics","194","924829","0.0-194.0","5e83ab61cd31510f15585845","64e50364eb9d960020c22518","","","","","3479",""," ","key"," ","16.682918269230868","500","250","eb","41","1","","0","0","39","46"
"","psychophysics","195","927341","0.0-195.0","5e83ab61cd31510f15585845","64e50364eb9d960020c22518","","","","","2511",""," ","key"," ","16.682966666667102","500","250","eb","50","1","","0","0","51","52"
"","psychophysics","196","929245","0.0-196.0","5e83ab61cd31510f15585845","64e50364eb9d960020c22518","","","","","1903",""," ","key"," ","16.683398230088898","500","250","eb","40","1","","0","0","41","40"
"","psychophysics","197","934366","0.0-197.0","5e83ab61cd31510f15585845","64e50364eb9d960020c22518","","","","","5119",""," ","key"," ","16.68305228758159","500","250","eb","37","1","","0","0","46","37"
"","psychophysics","198","937238","0.0-198.0","5e83ab61cd31510f15585845","64e50364eb9d960020c22518","","","","","2870",""," ","key"," ","16.683029239765798","500","250","eb","31","1","","0","0","43","33"
"","psychophysics","199","941327","0.0-199.0","5e83ab61cd31510f15585845","64e50364eb9d960020c22518","","","","","4087",""," ","key"," ","16.68305327868868","500","250","eb","39","1","","0","0","25","41"
"","psychophysics","200","945912","0.0-200.0","5e83ab61cd31510f15585845","64e50364eb9d960020c22518","","","","","4582",""," ","key"," ","16.683043795620367","500","250","eb","27","1","","0","0","33","28"
"","psychophysics","201","949672","0.0-201.0","5e83ab61cd31510f15585845","64e50364eb9d960020c22518","","","","","3759",""," ","key"," ","16.682995535713935","500","250","eb","43","1","","0","0","52","44"
"","psychophysics","202","950328","0.0-202.0","5e83ab61cd31510f15585845","64e50364eb9d960020c22518","","","","","655",""," ","key"," ","16.683236842104968","500","250","inst","","","","","","",""
"","psychophysics","203","956664","0.0-203.0","5e83ab61cd31510f15585845","64e50364eb9d960020c22518","","","","","6336",""," ","key"," ","16.683021108179396","500","250","instBr3","18","2","","0","0","40","300"
"","psychophysics","204","957216","0.0-204.0","5e83ab61cd31510f15585845","64e50364eb9d960020c22518","","","","","551",""," ","key"," ","16.682218749996537","500","250","inst","","","","","","",""
"","psychophysics","205","960705","0.0-205.0","5e83ab61cd31510f15585845","64e50364eb9d960020c22518","","","","","3487",""," ","key"," ","16.683110576922793","500","250","br","6","2","1","-26","8","-24","249"
"","psychophysics","206","962569","0.0-206.0","5e83ab61cd31510f15585845","64e50364eb9d960020c22518","","","","","1862",""," ","key"," ","16.68324324324295","500","250","br","9","2","1","-16","26","2","282"
"","psychophysics","207","965649","0.0-207.0","5e83ab61cd31510f15585845","64e50364eb9d960020c22518","","","","","3079",""," ","key"," ","16.682961956521307","500","250","br","14","2","1","-25","-2","-1","267"
"","psychophysics","208","968065","0.0-208.0","5e83ab61cd31510f15585845","64e50364eb9d960020c22518","","","","","2415",""," ","key"," ","16.682652777777953","500","250","br","4","2","1","-8","30","-14","294"
"","psychophysics","209","971802","0.0-209.0","5e83ab61cd31510f15585845","64e50364eb9d960020c22518","","","","","3735",""," ","key"," ","16.68295067264552","500","250","br","13","2","1","24","-27","-20","285"
"","psychophysics","210","974002","0.0-210.0","5e83ab61cd31510f15585845","64e50364eb9d960020c22518","","","","","2198",""," ","key"," ","16.683107692307722","500","250","br","16","2","1","26","17","-4","252"
"","psychophysics","211","976026","0.0-211.0","5e83ab61cd31510f15585845","64e50364eb9d960020c22518","","","","","2022",""," ","key"," ","16.682999999999367","500","250","br","13","2","1","26","6","-1","200"
"","psychophysics","212","977619","0.0-212.0","5e83ab61cd31510f15585845","64e50364eb9d960020c22518","","","","","1591",""," ","key"," ","16.68297872340376","500","250","br","22","2","1","-17","-25","9","230"
"","psychophysics","213","980771","0.0-213.0","5e83ab61cd31510f15585845","64e50364eb9d960020c22518","","","","","3151",""," ","key"," ","16.68296276595743","500","250","br","24","2","1","-20","-28","-21","246"
"","psychophysics","214","983211","0.0-214.0","5e83ab61cd31510f15585845","64e50364eb9d960020c22518","","","","","2439",""," ","key"," ","16.68306206896548","500","250","br","12","2","1","-27","29","-22","207"
"","psychophysics","215","984364","0.0-215.0","5e83ab61cd31510f15585845","64e50364eb9d960020c22518","","","","","1150",""," ","key"," ","16.682768115942515","500","250","br","17","2","1","21","14","16","257"
"","psychophysics","216","985332","0.0-216.0","5e83ab61cd31510f15585845","64e50364eb9d960020c22518","","","","","966",""," ","key"," ","16.68303508771861","500","250","br","24","2","1","29","28","23","209"
"","psychophysics","217","988628","0.0-217.0","5e83ab61cd31510f15585845","64e50364eb9d960020c22518","","","","","3295",""," ","key"," ","16.682897959183663","500","250","br","15","2","1","10","19","-20","245"
"","psychophysics","218","990044","0.0-218.0","5e83ab61cd31510f15585845","64e50364eb9d960020c22518","","","","","1415",""," ","key"," ","16.68263095238113","500","250","br","23","2","1","-3","25","24","242"
"","psychophysics","219","992636","0.0-219.0","5e83ab61cd31510f15585845","64e50364eb9d960020c22518","","","","","2591",""," ","key"," ","16.682909090908748","500","250","br","19","2","1","-2","-24","0","264"
