"success","trial_type","trial_index","time_elapsed","internal_node_id","pid","sid","timeout","failed_images","failed_audio","failed_video","rt","stimulus","response","response_type","key_press","avg_frame_time","center_x","center_y","task","resp","version","block","start","jitterX","jitterY","parA"
"true","fullscreen","0","6887","0.0-0.0","5fe45e3b520dd11baee55be3","64de83c5bf64d1be88db439d","","","","","","","","","","","","","","","","","","","",""
"true","preload","1","7147","0.0-1.0","5fe45e3b520dd11baee55be3","64de83c5bf64d1be88db439d","false","[]","[]","[]","","","","","","","","","","","","","","","",""
"","html-button-response","2","8728","0.0-2.0","5fe45e3b520dd11baee55be3","64de83c5bf64d1be88db439d","","","","","1580","Please Make Sure Your Audio Is On.","0","","","","","","","","","","","","",""
"","psychophysics","3","11124","0.0-3.0","5fe45e3b520dd11baee55be3","64de83c5bf64d1be88db439d","","","","","2389",""," ","key"," ","16.666000000000007","720","250","","","","","","","",""
"","psychophysics","4","12422","0.0-4.0","5fe45e3b520dd11baee55be3","64de83c5bf64d1be88db439d","","","","","1291",""," ","key"," ","16.666000000000015","500","250","inst","","","","","","",""
"","psychophysics","5","13805","0.0-5.0","5fe45e3b520dd11baee55be3","64de83c5bf64d1be88db439d","","","","","1376",""," ","key"," ","16.66599999999999","500","250","sample0","","","","","","",""
"","psychophysics","6","14940","0.0-6.0","5fe45e3b520dd11baee55be3","64de83c5bf64d1be88db439d","","","","","1133",""," ","key"," ","16.66599999999999","500","250","sample1","","","","","","",""
"","psychophysics","7","21524","0.0-7.0","5fe45e3b520dd11baee55be3","64de83c5bf64d1be88db439d","","","","","6578",""," ","key"," ","16.66762784810126","500","250","sample2","122","","","","","",""
"","psychophysics","8","24950","0.0-8.0","5fe45e3b520dd11baee55be3","64de83c5bf64d1be88db439d","","","","","3423",""," ","key"," ","16.666000000000007","500","250","sample3","70","","","","","",""
"","psychophysics","9","27123","0.0-9.0","5fe45e3b520dd11baee55be3","64de83c5bf64d1be88db439d","","","","","2170",""," ","key"," ","16.666000000000004","500","250","sample4","130","","","","","",""
"","psychophysics","10","29529","0.0-10.0","5fe45e3b520dd11baee55be3","64de83c5bf64d1be88db439d","","","","","2398",""," ","key"," ","16.67035416666666","500","250","sample5","","","","","","",""
"","psychophysics","11","33180","0.0-11.0","5fe45e3b520dd11baee55be3","64de83c5bf64d1be88db439d","","","","","3649",""," ","key"," ","16.665999999999993","500","250","sample6","450","","","","","",""
"","psychophysics","12","37602","0.0-12.0","5fe45e3b520dd11baee55be3","64de83c5bf64d1be88db439d","","","","","4419",""," ","key"," ","16.668935606060586","500","250","inst","","","","","","",""
"","psychophysics","13","39421","0.0-13.0","5fe45e3b520dd11baee55be3","64de83c5bf64d1be88db439d","","","","","1816",""," ","key"," ","16.666","500","250","inst","","","","","","",""
"","psychophysics","14","40797","0.0-14.0","5fe45e3b520dd11baee55be3","64de83c5bf64d1be88db439d","","","","","1374",""," ","key"," ","16.66600000000001","500","250","inst","","","","","","",""
"","psychophysics","15","41696","0.0-15.0","5fe45e3b520dd11baee55be3","64de83c5bf64d1be88db439d","","","","","898",""," ","key"," ","16.666000000000047","500","250","inst","","","","","","",""
"","psychophysics","16","42354","0.0-16.0","5fe45e3b520dd11baee55be3","64de83c5bf64d1be88db439d","","","","","655",""," ","key"," ","16.66600000000012","500","250","inst","","","","","","",""
"","psychophysics","17","46496","0.0-17.0","5fe45e3b520dd11baee55be3","64de83c5bf64d1be88db439d","","","","","4135",""," ","key"," ","16.66599999999999","500","250","instPog0","340","2","","370","0","0","340"
"","psychophysics","18","50133","0.0-18.0","5fe45e3b520dd11baee55be3","64de83c5bf64d1be88db439d","","","","","3635",""," ","key"," ","16.669004608294927","500","250","instPog1","354","2","","370","0","0","340"
"","psychophysics","19","53408","0.0-19.0","5fe45e3b520dd11baee55be3","64de83c5bf64d1be88db439d","","","","","3272",""," ","key"," ","16.666000000000015","500","250","instPog2","332","2","","340","0","0","340"
"","psychophysics","20","54315","0.0-20.0","5fe45e3b520dd11baee55be3","64de83c5bf64d1be88db439d","","","","","903",""," ","key"," ","16.666","500","250","inst","","","","","","",""
"","psychophysics","21","58138","0.0-21.0","5fe45e3b520dd11baee55be3","64de83c5bf64d1be88db439d","","","","","3820",""," ","key"," ","16.66885964912281","500","250","pog","335","2","0","393","0","0","330"
"","psychophysics","22","61362","0.0-22.0","5fe45e3b520dd11baee55be3","64de83c5bf64d1be88db439d","","","","","3217",""," ","key"," ","16.666000000000004","500","250","pog","346","2","0","306","0","0","372"
"","psychophysics","23","62970","0.0-23.0","5fe45e3b520dd11baee55be3","64de83c5bf64d1be88db439d","","","","","1605",""," ","key"," ","16.665999999999965","500","250","pog","344","2","0","358","0","0","357"
"","psychophysics","24","64445","0.0-24.0","5fe45e3b520dd11baee55be3","64de83c5bf64d1be88db439d","","","","","1472",""," ","key"," ","16.666","500","250","pog","346","2","0","334","0","0","366"
"","psychophysics","25","65745","0.0-25.0","5fe45e3b520dd11baee55be3","64de83c5bf64d1be88db439d","","","","","1295",""," ","key"," ","16.66599999999999","500","250","pog","348","2","0","338","0","0","369"
"","psychophysics","26","68046","0.0-26.0","5fe45e3b520dd11baee55be3","64de83c5bf64d1be88db439d","","","","","2297",""," ","key"," ","16.670759124087592","500","250","pog","311","2","0","337","0","0","313"
"","psychophysics","27","69547","0.0-27.0","5fe45e3b520dd11baee55be3","64de83c5bf64d1be88db439d","","","","","1499",""," ","key"," ","16.666000000000054","500","250","pog","314","2","0","326","0","0","314"
"","psychophysics","28","72746","0.0-28.0","5fe45e3b520dd11baee55be3","64de83c5bf64d1be88db439d","","","","","3194",""," ","key"," ","16.66600000000003","500","250","pog","328","2","0","380","0","0","328"
"","psychophysics","29","74298","0.0-29.0","5fe45e3b520dd11baee55be3","64de83c5bf64d1be88db439d","","","","","1550",""," ","key"," ","16.66599999999997","500","250","pog","334","2","0","322","0","0","342"
"","psychophysics","30","75674","0.0-30.0","5fe45e3b520dd11baee55be3","64de83c5bf64d1be88db439d","","","","","1369",""," ","key"," ","16.666000000000135","500","250","pog","330","2","0","340","0","0","323"
"","psychophysics","31","77290","0.0-31.0","5fe45e3b520dd11baee55be3","64de83c5bf64d1be88db439d","","","","","1612",""," ","key"," ","16.666000000000015","500","250","pog","335","2","0","351","0","0","327"
"","psychophysics","32","79265","0.0-32.0","5fe45e3b520dd11baee55be3","64de83c5bf64d1be88db439d","","","","","1972",""," ","key"," ","16.67152542372886","500","250","pog","314","2","0","340","0","0","312"
"","psychophysics","33","83047","0.0-33.0","5fe45e3b520dd11baee55be3","64de83c5bf64d1be88db439d","","","","","3774",""," ","key"," ","16.666000000000015","500","250","pog","351","2","0","295","0","0","367"
"","psychophysics","34","85914","0.0-34.0","5fe45e3b520dd11baee55be3","64de83c5bf64d1be88db439d","","","","","2864",""," ","key"," ","16.665999999999993","500","250","pog","350","2","0","302","0","0","371"
"","psychophysics","35","87796","0.0-35.0","5fe45e3b520dd11baee55be3","64de83c5bf64d1be88db439d","","","","","1879",""," ","key"," ","16.671830357142817","500","250","pog","321","2","0","345","0","0","335"
"","psychophysics","36","88496","0.0-36.0","5fe45e3b520dd11baee55be3","64de83c5bf64d1be88db439d","","","","","698",""," ","key"," ","16.665999999999922","500","250","inst","","","","","","",""
"","psychophysics","37","89769","0.0-37.0","5fe45e3b520dd11baee55be3","64de83c5bf64d1be88db439d","","","","","1270",""," ","key"," ","16.66599999999996","500","250","instZol0","0","","","0","0","0",""
"","psychophysics","38","96631","0.0-38.0","5fe45e3b520dd11baee55be3","64de83c5bf64d1be88db439d","","","","","6856",""," ","key"," ","16.666000000000025","500","250","instZol1","2.7755575615628914e-17","","","-1.3","0","0",""
"","psychophysics","39","102632","0.0-39.0","5fe45e3b520dd11baee55be3","64de83c5bf64d1be88db439d","","","","","5996",""," ","key"," ","16.667816155988856","500","250","instZol2","1.6000000000000012","1","","2","0","0",""
"","psychophysics","40","103483","0.0-40.0","5fe45e3b520dd11baee55be3","64de83c5bf64d1be88db439d","","","","","848",""," ","key"," ","16.666000000000057","500","250","inst","","","","","","",""
"","psychophysics","41","108272","0.0-41.0","5fe45e3b520dd11baee55be3","64de83c5bf64d1be88db439d","","","","","4782",""," ","key"," ","16.66827972027971","500","250","zol","0.8499999999999999","1","0","-0.35","7","-25",""
"","psychophysics","42","113456","0.0-42.0","5fe45e3b520dd11baee55be3","64de83c5bf64d1be88db439d","","","","","5178",""," ","key"," ","16.66600000000002","500","250","zol","1.06","1","0","-0.66","30","-11",""
"","psychophysics","43","117609","0.0-43.0","5fe45e3b520dd11baee55be3","64de83c5bf64d1be88db439d","","","","","4147",""," ","key"," ","16.668629032258092","500","250","zol","0.82","1","0","-0.12","-6","-7",""
"","psychophysics","44","121192","0.0-44.0","5fe45e3b520dd11baee55be3","64de83c5bf64d1be88db439d","","","","","3577",""," ","key"," ","16.665999999999954","500","250","zol","1.3","1","0","0.1","2","-22",""
"","psychophysics","45","125442","0.0-45.0","5fe45e3b520dd11baee55be3","64de83c5bf64d1be88db439d","","","","","4245",""," ","key"," ","16.66599999999996","500","250","zol","0.4899999999999999","1","0","0.41","-9","27",""
"","psychophysics","46","126885","0.0-46.0","5fe45e3b520dd11baee55be3","64de83c5bf64d1be88db439d","","","","","1436",""," ","key"," ","16.665999999999976","500","250","zol","0.7399999999999999","1","0","-0.24","-28","25",""
"","psychophysics","47","129956","0.0-47.0","5fe45e3b520dd11baee55be3","64de83c5bf64d1be88db439d","","","","","3066",""," ","key"," ","16.66956284153005","500","250","zol","0.9899999999999999","1","0","0.31","3","-19",""
"","psychophysics","48","131690","0.0-48.0","5fe45e3b520dd11baee55be3","64de83c5bf64d1be88db439d","","","","","1729",""," ","key"," ","16.666000000000125","500","250","zol","0.73","1","0","-0.13","-15","26",""
"","psychophysics","49","133350","0.0-49.0","5fe45e3b520dd11baee55be3","64de83c5bf64d1be88db439d","","","","","1652",""," ","key"," ","16.66599999999979","500","250","zol","0.9599999999999999","1","0","-0.16","20","-30",""
"","psychophysics","50","134847","0.0-50.0","5fe45e3b520dd11baee55be3","64de83c5bf64d1be88db439d","","","","","1490",""," ","key"," ","16.665999999999727","500","250","zol","1.2600000000000002","1","0","-0.56","-6","30",""
"","psychophysics","51","136692","0.0-51.0","5fe45e3b520dd11baee55be3","64de83c5bf64d1be88db439d","","","","","1841",""," ","key"," ","16.66600000000011","500","250","zol","0.9199999999999999","1","0","0.08","-27","4",""
"","psychophysics","52","138200","0.0-52.0","5fe45e3b520dd11baee55be3","64de83c5bf64d1be88db439d","","","","","1502",""," ","key"," ","16.673244444444492","500","250","zol","1.2100000000000002","1","0","-0.51","2","13",""
"","psychophysics","53","140283","0.0-53.0","5fe45e3b520dd11baee55be3","64de83c5bf64d1be88db439d","","","","","2079",""," ","key"," ","16.66600000000002","500","250","zol","0.47","1","0","0.33","-3","-28",""
"","psychophysics","54","142939","0.0-54.0","5fe45e3b520dd11baee55be3","64de83c5bf64d1be88db439d","","","","","2651",""," ","key"," ","16.666000000000018","500","250","zol","0.71","1","0","0.49","1","-9",""
"","psychophysics","55","145148","0.0-55.0","5fe45e3b520dd11baee55be3","64de83c5bf64d1be88db439d","","","","","2205",""," ","key"," ","16.666000000000086","500","250","zol","0.64","1","0","0.46","-1","-23",""
"","psychophysics","56","145738","0.0-56.0","5fe45e3b520dd11baee55be3","64de83c5bf64d1be88db439d","","","","","587",""," ","key"," ","16.666000000000007","500","250","inst","","","","","","",""
"","psychophysics","57","146548","0.0-57.0","5fe45e3b520dd11baee55be3","64de83c5bf64d1be88db439d","","","","","807",""," ","key"," ","16.665999999999865","500","250","instBr0","0","","","0","0","0","300"
"","psychophysics","58","152459","0.0-58.0","5fe45e3b520dd11baee55be3","64de83c5bf64d1be88db439d","","","","","5904",""," ","key"," ","16.66784985835699","500","250","instBr1","-3","","","-40","0","0","300"
"","psychophysics","59","154918","0.0-59.0","5fe45e3b520dd11baee55be3","64de83c5bf64d1be88db439d","","","","","2455",""," ","key"," ","16.66600000000001","500","250","instBr3","29","2","","40","0","0","300"
"","psychophysics","60","155392","0.0-60.0","5fe45e3b520dd11baee55be3","64de83c5bf64d1be88db439d","","","","","472",""," ","key"," ","16.665999999999595","500","250","inst","","","","","","",""
"","psychophysics","61","158966","0.0-61.0","5fe45e3b520dd11baee55be3","64de83c5bf64d1be88db439d","","","","","3569",""," ","key"," ","16.669046728971995","500","250","br","10","2","0","-20","-4","30","248"
"","psychophysics","62","161604","0.0-62.0","5fe45e3b520dd11baee55be3","64de83c5bf64d1be88db439d","","","","","2636",""," ","key"," ","16.666000000000032","500","250","br","16","2","0","28","6","10","218"
"","psychophysics","63","164694","0.0-63.0","5fe45e3b520dd11baee55be3","64de83c5bf64d1be88db439d","","","","","3086",""," ","key"," ","16.66599999999997","500","250","br","11","2","0","-14","-3","-2","247"
"","psychophysics","64","168789","0.0-64.0","5fe45e3b520dd11baee55be3","64de83c5bf64d1be88db439d","","","","","4091",""," ","key"," ","16.668661224489856","500","250","br","11","2","0","-27","6","-7","220"
"","psychophysics","65","172442","0.0-65.0","5fe45e3b520dd11baee55be3","64de83c5bf64d1be88db439d","","","","","3650",""," ","key"," ","16.665999999999976","500","250","br","16","2","0","-17","11","-13","290"
"","psychophysics","66","174509","0.0-66.0","5fe45e3b520dd11baee55be3","64de83c5bf64d1be88db439d","","","","","2062",""," ","key"," ","16.666000000000043","500","250","br","12","2","0","-2","-15","-4","292"
"","psychophysics","67","179164","0.0-67.0","5fe45e3b520dd11baee55be3","64de83c5bf64d1be88db439d","","","","","4651",""," ","key"," ","16.668336917562673","500","250","br","15","2","0","-29","8","-30","219"
"","psychophysics","68","183621","0.0-68.0","5fe45e3b520dd11baee55be3","64de83c5bf64d1be88db439d","","","","","4453",""," ","key"," ","16.666000000000064","500","250","br","23","2","0","-22","-9","-24","277"
"","psychophysics","69","185398","0.0-69.0","5fe45e3b520dd11baee55be3","64de83c5bf64d1be88db439d","","","","","1774",""," ","key"," ","16.66599999999991","500","250","br","27","2","0","28","-3","26","291"
"","psychophysics","70","186667","0.0-70.0","5fe45e3b520dd11baee55be3","64de83c5bf64d1be88db439d","","","","","1266",""," ","key"," ","16.666000000000157","500","250","br","21","2","0","23","5","9","257"
"","psychophysics","71","189176","0.0-71.0","5fe45e3b520dd11baee55be3","64de83c5bf64d1be88db439d","","","","","2501",""," ","key"," ","16.670375838926166","500","250","br","27","2","0","6","-18","22","217"
"","psychophysics","72","191683","0.0-72.0","5fe45e3b520dd11baee55be3","64de83c5bf64d1be88db439d","","","","","2503",""," ","key"," ","16.66599999999996","500","250","br","25","2","0","2","-16","17","247"
"","psychophysics","73","193781","0.0-73.0","5fe45e3b520dd11baee55be3","64de83c5bf64d1be88db439d","","","","","2095",""," ","key"," ","16.666","500","250","br","21","2","0","4","-28","4","286"
"","psychophysics","74","197177","0.0-74.0","5fe45e3b520dd11baee55be3","64de83c5bf64d1be88db439d","","","","","3393",""," ","key"," ","16.665999999999887","500","250","br","23","2","0","-10","-3","24","295"
"","psychophysics","75","199452","0.0-75.0","5fe45e3b520dd11baee55be3","64de83c5bf64d1be88db439d","","","","","2271",""," ","key"," ","16.67079411764708","500","250","br","17","2","0","-3","28","13","217"
"","psychophysics","76","199984","0.0-76.0","5fe45e3b520dd11baee55be3","64de83c5bf64d1be88db439d","","","","","529",""," ","key"," ","16.666000000000256","500","250","inst","","","","","","",""
"","psychophysics","77","201301","0.0-77.0","5fe45e3b520dd11baee55be3","64de83c5bf64d1be88db439d","","","","","1311",""," ","key"," ","16.66600000000005","500","250","instPzPre","50","0","","50","","","50"
"","psychophysics","78","202551","0.0-78.0","5fe45e3b520dd11baee55be3","64de83c5bf64d1be88db439d","","","","","1246",""," ","key"," ","16.666000000000192","500","250","instPz0","50","1","","50","","","50"
"","psychophysics","79","207051","0.0-79.0","5fe45e3b520dd11baee55be3","64de83c5bf64d1be88db439d","","","","","4498",""," ","key"," ","16.665999999999926","500","250","instPz1","48","1","","25","","","50"
"","psychophysics","80","209873","0.0-80.0","5fe45e3b520dd11baee55be3","64de83c5bf64d1be88db439d","","","","","2819",""," ","key"," ","16.66988690476189","500","250","instPz2","20","1","","35","","","20"
"","psychophysics","81","213517","0.0-81.0","5fe45e3b520dd11baee55be3","64de83c5bf64d1be88db439d","","","","","3639",""," ","key"," ","16.665999999999976","500","250","instPz3","93","1","","100","","","30"
"","psychophysics","82","220768","0.0-82.0","5fe45e3b520dd11baee55be3","64de83c5bf64d1be88db439d","","","","","7248",""," ","key"," ","16.667502304147458","500","250","instPz4","31","1","","100","","","30"
"","psychophysics","83","221238","0.0-83.0","5fe45e3b520dd11baee55be3","64de83c5bf64d1be88db439d","","","","","468",""," ","key"," ","16.666000000000672","500","250","inst","","","","","","",""
"","psychophysics","84","223684","0.0-84.0","5fe45e3b520dd11baee55be3","64de83c5bf64d1be88db439d","","","","","2442",""," ","key"," ","16.66600000000003","500","250","pz","63","1","0","48","","","56"
"","psychophysics","85","225435","0.0-85.0","5fe45e3b520dd11baee55be3","64de83c5bf64d1be88db439d","","","","","1745",""," ","key"," ","16.665999999999958","500","250","pz","56","1","0","47","","","55"
"","psychophysics","86","226941","0.0-86.0","5fe45e3b520dd11baee55be3","64de83c5bf64d1be88db439d","","","","","1503",""," ","key"," ","16.666000000000054","500","250","pz","50","1","0","56","","","45"
"","psychophysics","87","229361","0.0-87.0","5fe45e3b520dd11baee55be3","64de83c5bf64d1be88db439d","","","","","2416",""," ","key"," ","16.670527777777654","500","250","pz","60","1","0","45","","","54"
"","psychophysics","88","232468","0.0-88.0","5fe45e3b520dd11baee55be3","64de83c5bf64d1be88db439d","","","","","3100",""," ","key"," ","16.6660000000001","500","250","pz","51","1","0","29","","","44"
"","psychophysics","89","233926","0.0-89.0","5fe45e3b520dd11baee55be3","64de83c5bf64d1be88db439d","","","","","1454",""," ","key"," ","16.666000000000146","500","250","pz","44","1","0","49","","","39"
"","psychophysics","90","236910","0.0-90.0","5fe45e3b520dd11baee55be3","64de83c5bf64d1be88db439d","","","","","2980",""," ","key"," ","16.66599999999989","500","250","pz","43","1","0","57","","","42"
"","psychophysics","91","238579","0.0-91.0","5fe45e3b520dd11baee55be3","64de83c5bf64d1be88db439d","","","","","1665",""," ","key"," ","16.671180000000167","500","250","pz","50","1","0","41","","","42"
"","psychophysics","92","240034","0.0-92.0","5fe45e3b520dd11baee55be3","64de83c5bf64d1be88db439d","","","","","1452",""," ","key"," ","16.66599999999981","500","250","pz","53","1","0","48","","","42"
"","psychophysics","93","242159","0.0-93.0","5fe45e3b520dd11baee55be3","64de83c5bf64d1be88db439d","","","","","2117",""," ","key"," ","16.66599999999998","500","250","pz","25","1","0","39","","","20"
"","psychophysics","94","243595","0.0-94.0","5fe45e3b520dd11baee55be3","64de83c5bf64d1be88db439d","","","","","1433",""," ","key"," ","16.665999999999837","500","250","pz","55","1","0","45","","","48"
"","psychophysics","95","245228","0.0-95.0","5fe45e3b520dd11baee55be3","64de83c5bf64d1be88db439d","","","","","1628",""," ","key"," ","16.66600000000014","500","250","pz","31","1","0","42","","","22"
"","psychophysics","96","246685","0.0-96.0","5fe45e3b520dd11baee55be3","64de83c5bf64d1be88db439d","","","","","1452",""," ","key"," ","16.666000000000114","500","250","pz","55","1","0","54","","","48"
"","psychophysics","97","249360","0.0-97.0","5fe45e3b520dd11baee55be3","64de83c5bf64d1be88db439d","","","","","2672",""," ","key"," ","16.66994339622628","500","250","pz","41","1","0","27","","","33"
"","psychophysics","98","251154","0.0-98.0","5fe45e3b520dd11baee55be3","64de83c5bf64d1be88db439d","","","","","1787",""," ","key"," ","16.66600000000016","500","250","pz","41","1","0","28","","","38"
"","psychophysics","99","251849","0.0-99.0","5fe45e3b520dd11baee55be3","64de83c5bf64d1be88db439d","","","","","694",""," ","key"," ","16.666000000000277","500","250","inst","","","","","","",""
"","psychophysics","100","252741","0.0-100.0","5fe45e3b520dd11baee55be3","64de83c5bf64d1be88db439d","","","","","891",""," ","key"," ","16.665999999999677","500","250","instEB0","40","1","","40","0","0","40"
"","psychophysics","101","256874","0.0-101.0","5fe45e3b520dd11baee55be3","64de83c5bf64d1be88db439d","","","","","4126",""," ","key"," ","16.666000000000032","500","250","instEB1","31","1","","40","0","0","30"
"","psychophysics","102","259479","0.0-102.0","5fe45e3b520dd11baee55be3","64de83c5bf64d1be88db439d","","","","","2601",""," ","key"," ","16.67004516129044","500","250","instEB2","39","1","","30","0","0","40"
"","psychophysics","103","263689","0.0-103.0","5fe45e3b520dd11baee55be3","64de83c5bf64d1be88db439d","","","","","4207",""," ","key"," ","16.665999999999865","500","250","instEB3","38","1","","27","0","0","45"
"","psychophysics","104","267271","0.0-104.0","5fe45e3b520dd11baee55be3","64de83c5bf64d1be88db439d","","","","","3579",""," ","key"," ","16.665999999999887","500","250","instEB4","32","1","","40","0","0","30"
"","psychophysics","105","269572","0.0-105.0","5fe45e3b520dd11baee55be3","64de83c5bf64d1be88db439d","","","","","2298",""," ","key"," ","16.67057664233581","500","250","inst","","","","","","",""
"","psychophysics","106","272177","0.0-106.0","5fe45e3b520dd11baee55be3","64de83c5bf64d1be88db439d","","","","","2601",""," ","key"," ","16.666000000000256","500","250","eb","35","1","","24","0","0","37"
"","psychophysics","107","274434","0.0-107.0","5fe45e3b520dd11baee55be3","64de83c5bf64d1be88db439d","","","","","2252",""," ","key"," ","16.666000000000242","500","250","eb","31","1","","34","0","0","30"
"","psychophysics","108","275886","0.0-108.0","5fe45e3b520dd11baee55be3","64de83c5bf64d1be88db439d","","","","","1449",""," ","key"," ","16.666000000000146","500","250","eb","21","1","","25","0","0","24"
"","psychophysics","109","278184","0.0-109.0","5fe45e3b520dd11baee55be3","64de83c5bf64d1be88db439d","","","","","2294",""," ","key"," ","16.670576642335387","500","250","eb","25","1","","33","0","0","26"
"","psychophysics","110","280852","0.0-110.0","5fe45e3b520dd11baee55be3","64de83c5bf64d1be88db439d","","","","","2665",""," ","key"," ","16.66599999999982","500","250","eb","38","1","","29","0","0","39"
"","psychophysics","111","282834","0.0-111.0","5fe45e3b520dd11baee55be3","64de83c5bf64d1be88db439d","","","","","1978",""," ","key"," ","16.665999999999904","500","250","eb","39","1","","29","0","0","43"
"","psychophysics","112","287035","0.0-112.0","5fe45e3b520dd11baee55be3","64de83c5bf64d1be88db439d","","","","","4199",""," ","key"," ","16.665999999999872","500","250","eb","25","1","","54","0","0","26"
"","psychophysics","113","288301","0.0-113.0","5fe45e3b520dd11baee55be3","64de83c5bf64d1be88db439d","","","","","1262",""," ","key"," ","16.67435999999987","500","250","eb","27","1","","33","0","0","25"
"","psychophysics","114","290757","0.0-114.0","5fe45e3b520dd11baee55be3","64de83c5bf64d1be88db439d","","","","","2453",""," ","key"," ","16.66599999999983","500","250","eb","50","1","","37","0","0","54"
"","psychophysics","115","292767","0.0-115.0","5fe45e3b520dd11baee55be3","64de83c5bf64d1be88db439d","","","","","2006",""," ","key"," ","16.66600000000035","500","250","eb","45","1","","33","0","0","54"
"","psychophysics","116","295427","0.0-116.0","5fe45e3b520dd11baee55be3","64de83c5bf64d1be88db439d","","","","","2657",""," ","key"," ","16.666000000000018","500","250","eb","35","1","","54","0","0","39"
"","psychophysics","117","296921","0.0-117.0","5fe45e3b520dd11baee55be3","64de83c5bf64d1be88db439d","","","","","1491",""," ","key"," ","16.665999999999727","500","250","eb","35","1","","43","0","0","37"
"","psychophysics","118","297869","0.0-118.0","5fe45e3b520dd11baee55be3","64de83c5bf64d1be88db439d","","","","","944",""," ","key"," ","16.665999999999517","500","250","eb","34","1","","36","0","0","31"
"","psychophysics","119","299253","0.0-119.0","5fe45e3b520dd11baee55be3","64de83c5bf64d1be88db439d","","","","","1378",""," ","key"," ","16.675243902438968","500","250","eb","28","1","","33","0","0","25"
"","psychophysics","120","302219","0.0-120.0","5fe45e3b520dd11baee55be3","64de83c5bf64d1be88db439d","","","","","2963",""," ","key"," ","16.666000000000235","500","250","eb","25","1","","40","0","0","26"
"","psychophysics","121","302758","0.0-121.0","5fe45e3b520dd11baee55be3","64de83c5bf64d1be88db439d","","","","","537",""," ","key"," ","16.666000000000256","500","250","inst","","","","","","",""
"","psychophysics","122","304955","0.0-122.0","5fe45e3b520dd11baee55be3","64de83c5bf64d1be88db439d","","","","","2192",""," ","key"," ","16.665999999999883","500","250","instEB1","41","2","","30","0","0","40"
"","psychophysics","123","307168","0.0-123.0","5fe45e3b520dd11baee55be3","64de83c5bf64d1be88db439d","","","","","2209",""," ","key"," ","16.666000000000086","500","250","instEB2","36","2","","40","0","0","30"
"","psychophysics","124","310351","0.0-124.0","5fe45e3b520dd11baee55be3","64de83c5bf64d1be88db439d","","","","","3181",""," ","key"," ","16.66943157894727","500","250","instEB3","37","2","","45","0","0","27"
"","psychophysics","125","314187","0.0-125.0","5fe45e3b520dd11baee55be3","64de83c5bf64d1be88db439d","","","","","3833",""," ","key"," ","16.665999999999855","500","250","instEB4","49","2","","30","0","0","40"
"","psychophysics","126","314608","0.0-126.0","5fe45e3b520dd11baee55be3","64de83c5bf64d1be88db439d","","","","","418",""," ","key"," ","16.665999999999865","500","250","inst","","","","","","",""
"","psychophysics","127","316335","0.0-127.0","5fe45e3b520dd11baee55be3","64de83c5bf64d1be88db439d","","","","","1719",""," ","key"," ","16.665999999999983","500","250","eb","47","2","","47","0","0","40"
"","psychophysics","128","320252","0.0-128.0","5fe45e3b520dd11baee55be3","64de83c5bf64d1be88db439d","","","","","3913",""," ","key"," ","16.66878632478626","500","250","eb","61","2","","37","0","0","54"
"","psychophysics","129","322995","0.0-129.0","5fe45e3b520dd11baee55be3","64de83c5bf64d1be88db439d","","","","","2740",""," ","key"," ","16.66599999999976","500","250","eb","55","2","","42","0","0","48"
"","psychophysics","130","324669","0.0-130.0","5fe45e3b520dd11baee55be3","64de83c5bf64d1be88db439d","","","","","1669",""," ","key"," ","16.665999999999766","500","250","eb","46","2","","43","0","0","41"
"","psychophysics","131","326301","0.0-131.0","5fe45e3b520dd11baee55be3","64de83c5bf64d1be88db439d","","","","","1629",""," ","key"," ","16.66600000000014","500","250","eb","49","2","","44","0","0","43"
"","psychophysics","132","329590","0.0-132.0","5fe45e3b520dd11baee55be3","64de83c5bf64d1be88db439d","","","","","3286",""," ","key"," ","16.669326530612366","500","250","eb","57","2","","32","0","0","50"
"","psychophysics","133","332545","0.0-133.0","5fe45e3b520dd11baee55be3","64de83c5bf64d1be88db439d","","","","","2950",""," ","key"," ","16.666000000000086","500","250","eb","47","2","","24","0","0","42"
"","psychophysics","134","336359","0.0-134.0","5fe45e3b520dd11baee55be3","64de83c5bf64d1be88db439d","","","","","3809",""," ","key"," ","16.665999999999993","500","250","eb","29","2","","51","0","0","26"
"","psychophysics","135","339405","0.0-135.0","5fe45e3b520dd11baee55be3","64de83c5bf64d1be88db439d","","","","","3041",""," ","key"," ","16.669582417582426","500","250","eb","30","2","","48","0","0","24"
"","psychophysics","136","340954","0.0-136.0","5fe45e3b520dd11baee55be3","64de83c5bf64d1be88db439d","","","","","1546",""," ","key"," ","16.66599999999997","500","250","eb","44","2","","41","0","0","33"
"","psychophysics","137","346305","0.0-137.0","5fe45e3b520dd11baee55be3","64de83c5bf64d1be88db439d","","","","","5347",""," ","key"," ","16.665999999999986","500","250","eb","63","2","","26","0","0","54"
"","psychophysics","138","349304","0.0-138.0","5fe45e3b520dd11baee55be3","64de83c5bf64d1be88db439d","","","","","2995",""," ","key"," ","16.66964804469289","500","250","eb","38","2","","53","0","0","31"
"","psychophysics","139","352838","0.0-139.0","5fe45e3b520dd11baee55be3","64de83c5bf64d1be88db439d","","","","","3531",""," ","key"," ","16.66600000000006","500","250","eb","61","2","","54","0","0","49"
"","psychophysics","140","356937","0.0-140.0","5fe45e3b520dd11baee55be3","64de83c5bf64d1be88db439d","","","","","4095",""," ","key"," ","16.66600000000017","500","250","eb","49","2","","24","0","0","40"
"","psychophysics","141","360009","0.0-141.0","5fe45e3b520dd11baee55be3","64de83c5bf64d1be88db439d","","","","","3068",""," ","key"," ","16.669562841530208","500","250","eb","30","2","","42","0","0","25"
"","psychophysics","142","360613","0.0-142.0","5fe45e3b520dd11baee55be3","64de83c5bf64d1be88db439d","","","","","601",""," ","key"," ","16.665999999999933","500","250","inst","","","","","","",""
"","psychophysics","143","366592","0.0-143.0","5fe45e3b520dd11baee55be3","64de83c5bf64d1be88db439d","","","","","5976",""," ","key"," ","16.66600000000004","500","250","instBr3","-11","1","","40","0","0","300"
"","psychophysics","144","367037","0.0-144.0","5fe45e3b520dd11baee55be3","64de83c5bf64d1be88db439d","","","","","442",""," ","key"," ","16.665999999999677","500","250","inst","","","","","","",""
"","psychophysics","145","369954","0.0-145.0","5fe45e3b520dd11baee55be3","64de83c5bf64d1be88db439d","","","","","2914",""," ","key"," ","16.669747126436572","500","250","br","-12","1","1","11","-13","-7","292"
"","psychophysics","146","371488","0.0-146.0","5fe45e3b520dd11baee55be3","64de83c5bf64d1be88db439d","","","","","1531",""," ","key"," ","16.666000000000317","500","250","br","-17","1","1","-6","-22","-4","273"
"","psychophysics","147","372606","0.0-147.0","5fe45e3b520dd11baee55be3","64de83c5bf64d1be88db439d","","","","","1116",""," ","key"," ","16.666000000000086","500","250","br","-19","1","1","-15","-29","12","262"
"","psychophysics","148","374504","0.0-148.0","5fe45e3b520dd11baee55be3","64de83c5bf64d1be88db439d","","","","","1895",""," ","key"," ","16.665999999999755","500","250","br","-13","1","1","-10","-18","14","239"
"","psychophysics","149","376722","0.0-149.0","5fe45e3b520dd11baee55be3","64de83c5bf64d1be88db439d","","","","","2215",""," ","key"," ","16.665999999999645","500","250","br","-8","1","1","6","14","-27","233"
"","psychophysics","150","380370","0.0-150.0","5fe45e3b520dd11baee55be3","64de83c5bf64d1be88db439d","","","","","3644",""," ","key"," ","16.668990825687924","500","250","br","-11","1","1","20","4","3","240"
"","psychophysics","151","383391","0.0-151.0","5fe45e3b520dd11baee55be3","64de83c5bf64d1be88db439d","","","","","3018",""," ","key"," ","16.666000000000025","500","250","br","-14","1","1","7","4","15","249"
"","psychophysics","152","387119","0.0-152.0","5fe45e3b520dd11baee55be3","64de83c5bf64d1be88db439d","","","","","3724",""," ","key"," ","16.666000000000178","500","250","br","-12","1","1","25","-17","30","239"
"","psychophysics","153","391143","0.0-153.0","5fe45e3b520dd11baee55be3","64de83c5bf64d1be88db439d","","","","","4020",""," ","key"," ","16.668716666666782","500","250","br","-14","1","1","27","0","20","207"
"","psychophysics","154","393282","0.0-154.0","5fe45e3b520dd11baee55be3","64de83c5bf64d1be88db439d","","","","","2135",""," ","key"," ","16.66599999999996","500","250","br","-21","1","1","-28","-8","-5","201"
"","psychophysics","155","394571","0.0-155.0","5fe45e3b520dd11baee55be3","64de83c5bf64d1be88db439d","","","","","1285",""," ","key"," ","16.666000000000086","500","250","br","-17","1","1","-19","-2","14","221"
"","psychophysics","156","398587","0.0-156.0","5fe45e3b520dd11baee55be3","64de83c5bf64d1be88db439d","","","","","4012",""," ","key"," ","16.668716666666782","500","250","br","-14","1","1","20","-27","30","238"
"","psychophysics","157","402537","0.0-157.0","5fe45e3b520dd11baee55be3","64de83c5bf64d1be88db439d","","","","","3948",""," ","key"," ","16.665999999999904","500","250","br","-16","1","1","11","-12","-13","213"
"","psychophysics","158","404722","0.0-158.0","5fe45e3b520dd11baee55be3","64de83c5bf64d1be88db439d","","","","","2182",""," ","key"," ","16.666000000000125","500","250","br","-22","1","1","-14","22","15","275"
"","psychophysics","159","407260","0.0-159.0","5fe45e3b520dd11baee55be3","64de83c5bf64d1be88db439d","","","","","2535",""," ","key"," ","16.665999999999944","500","250","br","-21","1","1","-29","-16","28","299"
"","psychophysics","160","407703","0.0-160.0","5fe45e3b520dd11baee55be3","64de83c5bf64d1be88db439d","","","","","441",""," ","key"," ","16.666000000001915","500","250","inst","","","","","","",""
"","psychophysics","161","413945","0.0-161.0","5fe45e3b520dd11baee55be3","64de83c5bf64d1be88db439d","","","","","6240",""," ","key"," ","16.667750670241276","500","250","instZol1","-0.1000000000000002","","","-1.3","0","0",""
"","psychophysics","162","417271","0.0-162.0","5fe45e3b520dd11baee55be3","64de83c5bf64d1be88db439d","","","","","3322",""," ","key"," ","16.665999999999926","500","250","instZol2","-1.1999999999999993","2","","2","0","0",""
"","psychophysics","163","417739","0.0-163.0","5fe45e3b520dd11baee55be3","64de83c5bf64d1be88db439d","","","","","465",""," ","key"," ","16.666000000000672","500","250","inst","","","","","","",""
"","psychophysics","164","424245","0.0-164.0","5fe45e3b520dd11baee55be3","64de83c5bf64d1be88db439d","","","","","6500",""," ","key"," ","16.667676092544898","500","250","zol","-0.43000000000000005","2","1","-0.57","14","11",""
"","psychophysics","165","426655","0.0-165.0","5fe45e3b520dd11baee55be3","64de83c5bf64d1be88db439d","","","","","2405",""," ","key"," ","16.665999999999865","500","250","zol","-0.9999999999999999","2","1","-0.1","11","-30",""
"","psychophysics","166","429847","0.0-166.0","5fe45e3b520dd11baee55be3","64de83c5bf64d1be88db439d","","","","","3184",""," ","key"," ","16.66943157894727","500","250","zol","-1.0599999999999998","2","1","-0.64","14","-18",""
"","psychophysics","167","432666","0.0-167.0","5fe45e3b520dd11baee55be3","64de83c5bf64d1be88db439d","","","","","2812",""," ","key"," ","16.665999999999865","500","250","zol","-1.0699999999999998","2","1","-0.63","-16","0",""
"","psychophysics","168","434772","0.0-168.0","5fe45e3b520dd11baee55be3","64de83c5bf64d1be88db439d","","","","","2101",""," ","key"," ","16.665999999999748","500","250","zol","-0.8500000000000001","2","1","0.65","-26","-14",""
"","psychophysics","169","436857","0.0-169.0","5fe45e3b520dd11baee55be3","64de83c5bf64d1be88db439d","","","","","2080",""," ","key"," ","16.665999999999787","500","250","zol","-0.5599999999999999","2","1","-0.54","1","1",""
"","psychophysics","170","438811","0.0-170.0","5fe45e3b520dd11baee55be3","64de83c5bf64d1be88db439d","","","","","1949",""," ","key"," ","16.671620689655136","500","250","zol","-0.8799999999999999","2","1","-0.22","17","6",""
"","psychophysics","171","441467","0.0-171.0","5fe45e3b520dd11baee55be3","64de83c5bf64d1be88db439d","","","","","2651",""," ","key"," ","16.666000000000018","500","250","zol","-1.0399999999999998","2","1","0.44","-1","21",""
"","psychophysics","172","443926","0.0-172.0","5fe45e3b520dd11baee55be3","64de83c5bf64d1be88db439d","","","","","2455",""," ","key"," ","16.66600000000001","500","250","zol","-1.3100000000000003","2","1","0.01","-5","27",""
"","psychophysics","173","447189","0.0-173.0","5fe45e3b520dd11baee55be3","64de83c5bf64d1be88db439d","","","","","3257",""," ","key"," ","16.665999999999976","500","250","zol","-1.3200000000000003","2","1","0.02","11","1",""
"","psychophysics","174","455198","0.0-174.0","5fe45e3b520dd11baee55be3","64de83c5bf64d1be88db439d","","","","","null","","null","key","null","16.66736116910223","500","250","zol","-2.220000000000001","2","1","0.22","26","-14",""
"","psychophysics","175","457705","0.0-175.0","5fe45e3b520dd11baee55be3","64de83c5bf64d1be88db439d","","","","","2501",""," ","key"," ","16.666000000000157","500","250","zol","-0.7599999999999998","2","1","-0.64","-19","22",""
"","psychophysics","176","459416","0.0-176.0","5fe45e3b520dd11baee55be3","64de83c5bf64d1be88db439d","","","","","1706",""," ","key"," ","16.672455445544607","500","250","zol","-0.79","2","1","-0.41","20","29",""
"","psychophysics","177","461337","0.0-177.0","5fe45e3b520dd11baee55be3","64de83c5bf64d1be88db439d","","","","","1915",""," ","key"," ","16.665999999999716","500","250","zol","-0.7599999999999999","2","1","-0.74","30","2",""
"","psychophysics","178","462941","0.0-178.0","5fe45e3b520dd11baee55be3","64de83c5bf64d1be88db439d","","","","","1600",""," ","key"," ","16.665999999999585","500","250","zol","-0.89","2","1","-0.41","-3","-20",""
"","psychophysics","179","463414","0.0-179.0","5fe45e3b520dd11baee55be3","64de83c5bf64d1be88db439d","","","","","472",""," ","key"," ","16.666000000000672","500","250","inst","","","","","","",""
"","psychophysics","180","469709","0.0-180.0","5fe45e3b520dd11baee55be3","64de83c5bf64d1be88db439d","","","","","6293",""," ","key"," ","16.667732095490678","500","250","instPz1","46","2","","25","","","50"
"","psychophysics","181","472558","0.0-181.0","5fe45e3b520dd11baee55be3","64de83c5bf64d1be88db439d","","","","","2846",""," ","key"," ","16.665999999999837","500","250","instPz2","33","2","","20","","","35"
"","psychophysics","182","479257","0.0-182.0","5fe45e3b520dd11baee55be3","64de83c5bf64d1be88db439d","","","","","6695",""," ","key"," ","16.66762593516208","500","250","instPz3","83","2","","30","","","100"
"","psychophysics","183","485082","0.0-183.0","5fe45e3b520dd11baee55be3","64de83c5bf64d1be88db439d","","","","","5823",""," ","key"," ","16.665999999999947","500","250","instPz4","80","2","","30","","","100"
"","psychophysics","184","485507","0.0-184.0","5fe45e3b520dd11baee55be3","64de83c5bf64d1be88db439d","","","","","421",""," ","key"," ","16.66600000000093","500","250","inst","","","","","","",""
"","psychophysics","185","487517","0.0-185.0","5fe45e3b520dd11baee55be3","64de83c5bf64d1be88db439d","","","","","2003",""," ","key"," ","16.66599999999964","500","250","pz","38","2","1","30","","","41"
"","psychophysics","186","489105","0.0-186.0","5fe45e3b520dd11baee55be3","64de83c5bf64d1be88db439d","","","","","1584",""," ","key"," ","16.67286315789495","500","250","pz","28","2","1","23","","","31"
"","psychophysics","187","490511","0.0-187.0","5fe45e3b520dd11baee55be3","64de83c5bf64d1be88db439d","","","","","1403",""," ","key"," ","16.665999999999894","500","250","pz","51","2","1","54","","","55"
"","psychophysics","188","492415","0.0-188.0","5fe45e3b520dd11baee55be3","64de83c5bf64d1be88db439d","","","","","1900",""," ","key"," ","16.665999999999755","500","250","pz","30","2","1","40","","","33"
"","psychophysics","189","494106","0.0-189.0","5fe45e3b520dd11baee55be3","64de83c5bf64d1be88db439d","","","","","1687",""," ","key"," ","16.666000000000032","500","250","pz","42","2","1","33","","","47"
"","psychophysics","190","497064","0.0-190.0","5fe45e3b520dd11baee55be3","64de83c5bf64d1be88db439d","","","","","2955",""," ","key"," ","16.666000000000086","500","250","pz","35","2","1","54","","","36"
"","psychophysics","191","500608","0.0-191.0","5fe45e3b520dd11baee55be3","64de83c5bf64d1be88db439d","","","","","3536",""," ","key"," ","16.66907075471695","500","250","pz","49","2","1","23","","","57"
"","psychophysics","192","502342","0.0-192.0","5fe45e3b520dd11baee55be3","64de83c5bf64d1be88db439d","","","","","1731",""," ","key"," ","16.665999999999983","500","250","pz","50","2","1","46","","","56"
"","psychophysics","193","503663","0.0-193.0","5fe45e3b520dd11baee55be3","64de83c5bf64d1be88db439d","","","","","1318",""," ","key"," ","16.665999999999677","500","250","pz","46","2","1","46","","","48"
"","psychophysics","194","507457","0.0-194.0","5fe45e3b520dd11baee55be3","64de83c5bf64d1be88db439d","","","","","3787",""," ","key"," ","16.665999999999876","500","250","pz","52","2","1","26","","","58"
"","psychophysics","195","510676","0.0-195.0","5fe45e3b520dd11baee55be3","64de83c5bf64d1be88db439d","","","","","3216",""," ","key"," ","16.66939583333321","500","250","pz","31","2","1","58","","","33"
"","psychophysics","196","513958","0.0-196.0","5fe45e3b520dd11baee55be3","64de83c5bf64d1be88db439d","","","","","3278",""," ","key"," ","16.665999999999816","500","250","pz","54","2","1","27","","","58"
"","psychophysics","197","516692","0.0-197.0","5fe45e3b520dd11baee55be3","64de83c5bf64d1be88db439d","","","","","2731",""," ","key"," ","16.666000000000118","500","250","pz","49","2","1","30","","","54"
"","psychophysics","198","519102","0.0-198.0","5fe45e3b520dd11baee55be3","64de83c5bf64d1be88db439d","","","","","2407",""," ","key"," ","16.67055944055954","500","250","pz","49","2","1","33","","","52"
"","psychophysics","199","521125","0.0-199.0","5fe45e3b520dd11baee55be3","64de83c5bf64d1be88db439d","","","","","2019",""," ","key"," ","16.666000000000086","500","250","pz","41","2","1","53","","","48"
"","psychophysics","200","521691","0.0-200.0","5fe45e3b520dd11baee55be3","64de83c5bf64d1be88db439d","","","","","564",""," ","key"," ","16.666000000000086","500","250","inst","","","","","","",""
"","psychophysics","201","526425","0.0-201.0","5fe45e3b520dd11baee55be3","64de83c5bf64d1be88db439d","","","","","4732",""," ","key"," ","16.66600000000001","500","250","instPog0","160","1","","190","0","0","160"
"","psychophysics","202","529225","0.0-202.0","5fe45e3b520dd11baee55be3","64de83c5bf64d1be88db439d","","","","","2798",""," ","key"," ","16.66991017964072","500","250","instPog1","164","1","","190","0","0","160"
"","psychophysics","203","531352","0.0-203.0","5fe45e3b520dd11baee55be3","64de83c5bf64d1be88db439d","","","","","2123",""," ","key"," ","16.665999999999748","500","250","instPog2","182","1","","160","0","0","160"
"","psychophysics","204","531757","0.0-204.0","5fe45e3b520dd11baee55be3","64de83c5bf64d1be88db439d","","","","","402",""," ","key"," ","16.66600000000229","500","250","inst","","","","","","",""
"","psychophysics","205","535124","0.0-205.0","5fe45e3b520dd11baee55be3","64de83c5bf64d1be88db439d","","","","","3361",""," ","key"," ","16.66600000000019","500","250","pog","196","1","1","140","0","0","170"
"","psychophysics","206","537673","0.0-206.0","5fe45e3b520dd11baee55be3","64de83c5bf64d1be88db439d","","","","","2546",""," ","key"," ","16.665999999999737","500","250","pog","202","1","1","158","0","0","179"
"","psychophysics","207","539924","0.0-207.0","5fe45e3b520dd11baee55be3","64de83c5bf64d1be88db439d","","","","","2248",""," ","key"," ","16.670865671641415","500","250","pog","169","1","1","129","0","0","141"
"","psychophysics","208","543279","0.0-208.0","5fe45e3b520dd11baee55be3","64de83c5bf64d1be88db439d","","","","","3348",""," ","key"," ","16.66600000000035","500","250","pog","183","1","1","119","0","0","155"
"","psychophysics","209","545742","0.0-209.0","5fe45e3b520dd11baee55be3","64de83c5bf64d1be88db439d","","","","","2460",""," ","key"," ","16.66600000000001","500","250","pog","191","1","1","147","0","0","156"
"","psychophysics","210","550793","0.0-210.0","5fe45e3b520dd11baee55be3","64de83c5bf64d1be88db439d","","","","","5049",""," ","key"," ","16.6681589403973","500","250","pog","232","1","1","124","0","0","200"
"","psychophysics","211","552900","0.0-211.0","5fe45e3b520dd11baee55be3","64de83c5bf64d1be88db439d","","","","","2104",""," ","key"," ","16.666","500","250","pog","170","1","1","134","0","0","145"
"","psychophysics","212","556274","0.0-212.0","5fe45e3b520dd11baee55be3","64de83c5bf64d1be88db439d","","","","","3371",""," ","key"," ","16.666000000000032","500","250","pog","182","1","1","220","0","0","158"
"","psychophysics","213","559211","0.0-213.0","5fe45e3b520dd11baee55be3","64de83c5bf64d1be88db439d","","","","","2930",""," ","key"," ","16.669725714285992","500","250","pog","168","1","1","214","0","0","139"
"","psychophysics","214","561574","0.0-214.0","5fe45e3b520dd11baee55be3","64de83c5bf64d1be88db439d","","","","","2360",""," ","key"," ","16.66599999999971","500","250","pog","166","1","1","200","0","0","135"
"","psychophysics","215","567242","0.0-215.0","5fe45e3b520dd11baee55be3","64de83c5bf64d1be88db439d","","","","","5667",""," ","key"," ","16.66599999999993","500","250","pog","205","1","1","125","0","0","173"
"","psychophysics","216","572093","0.0-216.0","5fe45e3b520dd11baee55be3","64de83c5bf64d1be88db439d","","","","","4847",""," ","key"," ","16.668248275862123","500","250","pog","219","1","1","123","0","0","189"
"","psychophysics","217","575356","0.0-217.0","5fe45e3b520dd11baee55be3","64de83c5bf64d1be88db439d","","","","","3261",""," ","key"," ","16.665999999999976","500","250","pog","212","1","1","156","0","0","181"
"","psychophysics","218","577426","0.0-218.0","5fe45e3b520dd11baee55be3","64de83c5bf64d1be88db439d","","","","","2063",""," ","key"," ","16.666000000000516","500","250","pog","175","1","1","199","0","0","145"
"","psychophysics","219","578960","0.0-219.0","5fe45e3b520dd11baee55be3","64de83c5bf64d1be88db439d","","","","","1531",""," ","key"," ","16.666000000000317","500","250","pog","180","1","1","188","0","0","156"
