"success","trial_type","trial_index","time_elapsed","internal_node_id","pid","sid","timeout","failed_images","failed_audio","failed_video","rt","stimulus","response","response_type","key_press","avg_frame_time","center_x","center_y","task","resp","start","parA","version","block","jitterX","jitterY"
"true","fullscreen","0","2699","0.0-0.0","5dd9df0e946f7c97406a55ea","64de82f0d4d0e300e6f6c3ea","","","","","","","","","","","","","","","","","","","",""
"true","preload","1","2835","0.0-1.0","5dd9df0e946f7c97406a55ea","64de82f0d4d0e300e6f6c3ea","false","[]","[]","[]","","","","","","","","","","","","","","","",""
"","html-button-response","2","4629","0.0-2.0","5dd9df0e946f7c97406a55ea","64de82f0d4d0e300e6f6c3ea","","","","","1791","Please Make Sure Your Audio Is On.","0","","","","","","","","","","","","",""
"","psychophysics","3","8635","0.0-3.0","5dd9df0e946f7c97406a55ea","64de82f0d4d0e300e6f6c3ea","","","","","3991",""," ","key"," ","7.0175183887915935","768","250","","","","","","","",""
"","psychophysics","4","11752","0.0-4.0","5dd9df0e946f7c97406a55ea","64de82f0d4d0e300e6f6c3ea","","","","","3088",""," ","key"," ","6.975710762331837","500","250","inst","","","","","","",""
"","psychophysics","5","16082","0.0-5.0","5dd9df0e946f7c97406a55ea","64de82f0d4d0e300e6f6c3ea","","","","","4326",""," ","key"," ","6.956061191626412","500","250","sample0","","","","","","",""
"","psychophysics","6","19147","0.0-6.0","5dd9df0e946f7c97406a55ea","64de82f0d4d0e300e6f6c3ea","","","","","3057",""," ","key"," ","6.9444467120181415","500","250","sample1","","","","","","",""
"","psychophysics","7","38310","0.0-7.0","5dd9df0e946f7c97406a55ea","64de82f0d4d0e300e6f6c3ea","","","","","19147",""," ","key"," ","6.952126678765881","500","250","sample2","122","","","","","",""
"","psychophysics","8","50930","0.0-8.0","5dd9df0e946f7c97406a55ea","64de82f0d4d0e300e6f6c3ea","","","","","12609",""," ","key"," ","6.944744493392068","500","250","sample3","102","","","","","",""
"","psychophysics","9","59101","0.0-9.0","5dd9df0e946f7c97406a55ea","64de82f0d4d0e300e6f6c3ea","","","","","8161",""," ","key"," ","6.9447746598639455","500","250","sample4","100","","","","","",""
"","psychophysics","10","64362","0.0-10.0","5dd9df0e946f7c97406a55ea","64de82f0d4d0e300e6f6c3ea","","","","","5247",""," ","key"," ","6.944520475561418","500","250","sample5","","","","","","",""
"","psychophysics","11","75721","0.0-11.0","5dd9df0e946f7c97406a55ea","64de82f0d4d0e300e6f6c3ea","","","","","11354",""," ","key"," ","6.944577111383108","500","250","sample6","502","","","","","",""
"","psychophysics","12","79673","0.0-12.0","5dd9df0e946f7c97406a55ea","64de82f0d4d0e300e6f6c3ea","","","","","3940",""," ","key"," ","6.944985915492971","500","250","inst","","","","","","",""
"","psychophysics","13","80713","0.0-13.0","5dd9df0e946f7c97406a55ea","64de82f0d4d0e300e6f6c3ea","","","","","1033",""," ","key"," ","6.94451677852354","500","250","inst","","","","","","",""
"","psychophysics","14","83721","0.0-14.0","5dd9df0e946f7c97406a55ea","64de82f0d4d0e300e6f6c3ea","","","","","3001",""," ","key"," ","6.945356481481482","500","250","inst","","","","","","",""
"","psychophysics","15","89113","0.0-15.0","5dd9df0e946f7c97406a55ea","64de82f0d4d0e300e6f6c3ea","","","","","5385",""," ","key"," ","7.02650652741513","500","250","inst","","","","","","",""
"","psychophysics","16","90785","0.0-16.0","5dd9df0e946f7c97406a55ea","64de82f0d4d0e300e6f6c3ea","","","","","1666",""," ","key"," ","7.062652542372913","500","250","inst","","","","","","",""
"","psychophysics","17","95302","0.0-17.0","5dd9df0e946f7c97406a55ea","64de82f0d4d0e300e6f6c3ea","","","","","4511",""," ","key"," ","6.944512307692315","500","250","instPzPre","50","50","50","0","","",""
"","psychophysics","18","103641","0.0-18.0","5dd9df0e946f7c97406a55ea","64de82f0d4d0e300e6f6c3ea","","","","","8330",""," ","key"," ","6.9445671392827295","500","250","instPz0","48","50","50","1","","",""
"","psychophysics","19","111060","0.0-19.0","5dd9df0e946f7c97406a55ea","64de82f0d4d0e300e6f6c3ea","","","","","7412",""," ","key"," ","6.944907303370793","500","250","instPz1","45","25","50","1","","",""
"","psychophysics","20","118964","0.0-20.0","5dd9df0e946f7c97406a55ea","64de82f0d4d0e300e6f6c3ea","","","","","7895",""," ","key"," ","6.944549692172378","500","250","instPz2","20","35","20","1","","",""
"","psychophysics","21","128782","0.0-21.0","5dd9df0e946f7c97406a55ea","64de82f0d4d0e300e6f6c3ea","","","","","9807",""," ","key"," ","6.944456475583869","500","250","instPz3","52","100","30","1","","",""
"","psychophysics","22","138157","0.0-22.0","5dd9df0e946f7c97406a55ea","64de82f0d4d0e300e6f6c3ea","","","","","9364",""," ","key"," ","6.944507418397612","500","250","instPz4","45","100","30","1","","",""
"","psychophysics","23","141293","0.0-23.0","5dd9df0e946f7c97406a55ea","64de82f0d4d0e300e6f6c3ea","","","","","3125",""," ","key"," ","6.9593126385809185","500","250","inst","","","","","","",""
"","psychophysics","24","147486","0.0-24.0","5dd9df0e946f7c97406a55ea","64de82f0d4d0e300e6f6c3ea","","","","","6180",""," ","key"," ","6.944906741573038","500","250","pz","51","49","38","1","0","",""
"","psychophysics","25","152220","0.0-25.0","5dd9df0e946f7c97406a55ea","64de82f0d4d0e300e6f6c3ea","","","","","4729",""," ","key"," ","6.944580029368562","500","250","pz","79","59","58","1","0","",""
"","psychophysics","26","156830","0.0-26.0","5dd9df0e946f7c97406a55ea","64de82f0d4d0e300e6f6c3ea","","","","","4603",""," ","key"," ","6.944515837104083","500","250","pz","60","57","46","1","0","",""
"","psychophysics","27","161617","0.0-27.0","5dd9df0e946f7c97406a55ea","64de82f0d4d0e300e6f6c3ea","","","","","4777",""," ","key"," ","6.94452180232559","500","250","pz","33","30","25","1","0","",""
"","psychophysics","28","166115","0.0-28.0","5dd9df0e946f7c97406a55ea","64de82f0d4d0e300e6f6c3ea","","","","","4489",""," ","key"," ","6.944548686244192","500","250","pz","67","55","47","1","0","",""
"","psychophysics","29","169909","0.0-29.0","5dd9df0e946f7c97406a55ea","64de82f0d4d0e300e6f6c3ea","","","","","3788",""," ","key"," ","6.944757798165158","500","250","pz","68","56","54","1","0","",""
"","psychophysics","30","177097","0.0-30.0","5dd9df0e946f7c97406a55ea","64de82f0d4d0e300e6f6c3ea","","","","","7181",""," ","key"," ","6.95803488372094","500","250","pz","69","40","51","1","0","",""
"","psychophysics","31","185102","0.0-31.0","5dd9df0e946f7c97406a55ea","64de82f0d4d0e300e6f6c3ea","","","","","null","","null","key","null","6.944528645833341","500","250","pz","72","49","55","1","0","",""
"","psychophysics","32","185207","0.0-32.0","5dd9df0e946f7c97406a55ea","64de82f0d4d0e300e6f6c3ea","","","","","100",""," ","key"," ","6.949642857141693","500","250","pz","45","45","41","1","0","",""
"","psychophysics","33","192395","0.0-33.0","5dd9df0e946f7c97406a55ea","64de82f0d4d0e300e6f6c3ea","","","","","7182",""," ","key"," ","6.9445367504835716","500","250","pz","60","44","53","1","0","",""
"","psychophysics","34","192981","0.0-34.0","5dd9df0e946f7c97406a55ea","64de82f0d4d0e300e6f6c3ea","","","","","579",""," ","key"," ","6.9455180722891905","500","250","pz","46","46","34","1","0","",""
"","psychophysics","35","200545","0.0-35.0","5dd9df0e946f7c97406a55ea","64de82f0d4d0e300e6f6c3ea","","","","","7558",""," ","key"," ","6.9445702479339","500","250","pz","28","53","20","1","0","",""
"","psychophysics","36","205337","0.0-36.0","5dd9df0e946f7c97406a55ea","64de82f0d4d0e300e6f6c3ea","","","","","4787",""," ","key"," ","6.944740203193043","500","250","pz","46","48","36","1","0","",""
"","psychophysics","37","209578","0.0-37.0","5dd9df0e946f7c97406a55ea","64de82f0d4d0e300e6f6c3ea","","","","","4233",""," ","key"," ","6.944528735632173","500","250","pz","28","32","20","1","0","",""
"","psychophysics","38","215645","0.0-38.0","5dd9df0e946f7c97406a55ea","64de82f0d4d0e300e6f6c3ea","","","","","6061",""," ","key"," ","6.94499312714779","500","250","pz","63","50","49","1","0","",""
"","psychophysics","39","223834","0.0-39.0","5dd9df0e946f7c97406a55ea","64de82f0d4d0e300e6f6c3ea","","","","","8182",""," ","key"," ","7.00433904109589","500","250","inst","","","","","","",""
"","psychophysics","40","228789","0.0-40.0","5dd9df0e946f7c97406a55ea","64de82f0d4d0e300e6f6c3ea","","","","","4944",""," ","key"," ","6.9446404494382055","500","250","instZol0","0","0","","","","0","0"
"","psychophysics","41","239826","0.0-41.0","5dd9df0e946f7c97406a55ea","64de82f0d4d0e300e6f6c3ea","","","","","11026",""," ","key"," ","6.944541850220269","500","250","instZol1","-0.10000000000000003","-1.3","","","","0","0"
"","psychophysics","42","261329","0.0-42.0","5dd9df0e946f7c97406a55ea","64de82f0d4d0e300e6f6c3ea","","","","","21490",""," ","key"," ","6.944550565428116","500","250","instZol2","-1.0999999999999972","2","","2","","0","0"
"","psychophysics","43","263302","0.0-43.0","5dd9df0e946f7c97406a55ea","64de82f0d4d0e300e6f6c3ea","","","","","1967",""," ","key"," ","6.944530035335572","500","250","inst","","","","","","",""
"","psychophysics","44","271309","0.0-44.0","5dd9df0e946f7c97406a55ea","64de82f0d4d0e300e6f6c3ea","","","","","null","","null","key","null","6.9505864465682015","500","250","zol","-0.09999999999999981","0.4","","2","0","-5","-21"
"","psychophysics","45","278234","0.0-45.0","5dd9df0e946f7c97406a55ea","64de82f0d4d0e300e6f6c3ea","","","","","6905",""," ","key"," ","6.951620481927724","500","250","zol","-1.3100000000000003","0.01","","2","0","4","7"
"","psychophysics","46","284413","0.0-46.0","5dd9df0e946f7c97406a55ea","64de82f0d4d0e300e6f6c3ea","","","","","6162",""," ","key"," ","6.9445421822271935","500","250","zol","-1.5600000000000005","0.46","","2","0","5","7"
"","psychophysics","47","287572","0.0-47.0","5dd9df0e946f7c97406a55ea","64de82f0d4d0e300e6f6c3ea","","","","","3149",""," ","key"," ","6.944450331125722","500","250","zol","-1.5300000000000005","0.63","","2","0","-1","-18"
"","psychophysics","48","292199","0.0-48.0","5dd9df0e946f7c97406a55ea","64de82f0d4d0e300e6f6c3ea","","","","","4617",""," ","key"," ","6.965454819277073","500","250","zol","-1.6500000000000004","-0.25","","2","0","-16","5"
"","psychophysics","49","299248","0.0-49.0","5dd9df0e946f7c97406a55ea","64de82f0d4d0e300e6f6c3ea","","","","","7036",""," ","key"," ","6.944609467455595","500","250","zol","-0.8200000000000001","-0.18","","2","0","-3","1"
"","psychophysics","50","304385","0.0-50.0","5dd9df0e946f7c97406a55ea","64de82f0d4d0e300e6f6c3ea","","","","","5126",""," ","key"," ","6.963512228260895","500","250","zol","-1.3200000000000003","-0.08","","2","0","-25","-26"
"","psychophysics","51","312392","0.0-51.0","5dd9df0e946f7c97406a55ea","64de82f0d4d0e300e6f6c3ea","","","","","null","","null","key","null","6.94451215277776","500","250","zol","-1.3300000000000003","-0.17","","2","0","-25","-15"
"","psychophysics","52","312481","0.0-52.0","5dd9df0e946f7c97406a55ea","64de82f0d4d0e300e6f6c3ea","","","","","79",""," ","key"," ","6.944416666665347","500","250","zol","0.24","-0.24","","2","0","24","-4"
"","psychophysics","53","317752","0.0-53.0","5dd9df0e946f7c97406a55ea","64de82f0d4d0e300e6f6c3ea","","","","","5261",""," ","key"," ","6.944642480211068","500","250","zol","-1.2400000000000002","-0.46","","2","0","-13","-23"
"","psychophysics","54","320372","0.0-54.0","5dd9df0e946f7c97406a55ea","64de82f0d4d0e300e6f6c3ea","","","","","2610",""," ","key"," ","6.944676392572896","500","250","zol","-1.0999999999999999","0","","2","0","15","-1"
"","psychophysics","55","322548","0.0-55.0","5dd9df0e946f7c97406a55ea","64de82f0d4d0e300e6f6c3ea","","","","","2166",""," ","key"," ","6.944935897435919","500","250","zol","-0.9999999999999999","0.4","","2","0","13","24"
"","psychophysics","56","324817","0.0-56.0","5dd9df0e946f7c97406a55ea","64de82f0d4d0e300e6f6c3ea","","","","","2258",""," ","key"," ","6.944469325153365","500","250","zol","-1.7200000000000006","0.52","","2","0","-20","22"
"","psychophysics","57","327525","0.0-57.0","5dd9df0e946f7c97406a55ea","64de82f0d4d0e300e6f6c3ea","","","","","2698",""," ","key"," ","6.944809768637427","500","250","zol","-1.4600000000000002","-0.14","","2","0","9","-4"
"","psychophysics","58","330020","0.0-58.0","5dd9df0e946f7c97406a55ea","64de82f0d4d0e300e6f6c3ea","","","","","2485",""," ","key"," ","6.945201117318389","500","250","zol","-0.9499999999999998","-0.75","","2","0","20","8"
"","psychophysics","59","331053","0.0-59.0","5dd9df0e946f7c97406a55ea","64de82f0d4d0e300e6f6c3ea","","","","","1030",""," ","key"," ","6.944513513513517","500","250","inst","","","","","","",""
"","psychophysics","60","346893","0.0-60.0","5dd9df0e946f7c97406a55ea","64de82f0d4d0e300e6f6c3ea","","","","","15836",""," ","key"," ","6.9445269855199605","500","250","instPog0","160","190","160","1","","0","0"
"","psychophysics","61","355672","0.0-61.0","5dd9df0e946f7c97406a55ea","64de82f0d4d0e300e6f6c3ea","","","","","8772",""," ","key"," ","6.944341772151888","500","250","instPog1","168","190","160","1","","0","0"
"","psychophysics","62","366704","0.0-62.0","5dd9df0e946f7c97406a55ea","64de82f0d4d0e300e6f6c3ea","","","","","11028",""," ","key"," ","6.944540012602386","500","250","instPog2","184","160","160","1","","0","0"
"","psychophysics","63","367730","0.0-63.0","5dd9df0e946f7c97406a55ea","64de82f0d4d0e300e6f6c3ea","","","","","1020",""," ","key"," ","6.944863945578358","500","250","inst","","","","","","",""
"","psychophysics","64","372276","0.0-64.0","5dd9df0e946f7c97406a55ea","64de82f0d4d0e300e6f6c3ea","","","","","4541",""," ","key"," ","6.944506116207943","500","250","pog","145","131","132","1","0","0","0"
"","psychophysics","65","378781","0.0-65.0","5dd9df0e946f7c97406a55ea","64de82f0d4d0e300e6f6c3ea","","","","","6500",""," ","key"," ","6.944611764705882","500","250","pog","210","128","188","1","0","0","0"
"","psychophysics","66","384764","0.0-66.0","5dd9df0e946f7c97406a55ea","64de82f0d4d0e300e6f6c3ea","","","","","5977",""," ","key"," ","6.945002322880368","500","250","pog","189","161","161","1","0","0","0"
"","psychophysics","67","390332","0.0-67.0","5dd9df0e946f7c97406a55ea","64de82f0d4d0e300e6f6c3ea","","","","","5562",""," ","key"," ","6.944434456928801","500","250","pog","168","158","133","1","0","0","0"
"","psychophysics","68","394933","0.0-68.0","5dd9df0e946f7c97406a55ea","64de82f0d4d0e300e6f6c3ea","","","","","4594",""," ","key"," ","6.944488653555176","500","250","pog","205","187","175","1","0","0","0"
"","psychophysics","69","402937","0.0-69.0","5dd9df0e946f7c97406a55ea","64de82f0d4d0e300e6f6c3ea","","","","","null","","null","key","null","6.9446059027777665","500","250","pog","171","175","147","1","0","0","0"
"","psychophysics","70","402967","0.0-70.0","5dd9df0e946f7c97406a55ea","64de82f0d4d0e300e6f6c3ea","","","","","24",""," ","key"," ","7.012999999996585","500","250","pog","162","162","140","1","0","0","0"
"","psychophysics","71","409489","0.0-71.0","5dd9df0e946f7c97406a55ea","64de82f0d4d0e300e6f6c3ea","","","","","6521",""," ","key"," ","6.944713219616208","500","250","pog","197","145","180","1","0","0","0"
"","psychophysics","72","413981","0.0-72.0","5dd9df0e946f7c97406a55ea","64de82f0d4d0e300e6f6c3ea","","","","","4484",""," ","key"," ","6.944998452012357","500","250","pog","177","133","153","1","0","0","0"
"","psychophysics","73","419144","0.0-73.0","5dd9df0e946f7c97406a55ea","64de82f0d4d0e300e6f6c3ea","","","","","5157",""," ","key"," ","6.944567967698458","500","250","pog","188","126","170","1","0","0","0"
"","psychophysics","74","423200","0.0-74.0","5dd9df0e946f7c97406a55ea","64de82f0d4d0e300e6f6c3ea","","","","","4051",""," ","key"," ","6.944475128644966","500","250","pog","199","163","178","1","0","0","0"
"","psychophysics","75","428584","0.0-75.0","5dd9df0e946f7c97406a55ea","64de82f0d4d0e300e6f6c3ea","","","","","5380",""," ","key"," ","6.944912144702871","500","250","pog","178","220","138","1","0","0","0"
"","psychophysics","76","433860","0.0-76.0","5dd9df0e946f7c97406a55ea","64de82f0d4d0e300e6f6c3ea","","","","","5269",""," ","key"," ","6.944523056653468","500","250","pog","217","113","192","1","0","0","0"
"","psychophysics","77","439376","0.0-77.0","5dd9df0e946f7c97406a55ea","64de82f0d4d0e300e6f6c3ea","","","","","5511",""," ","key"," ","6.9449029003783345","500","250","pog","174","152","149","1","0","0","0"
"","psychophysics","78","442624","0.0-78.0","5dd9df0e946f7c97406a55ea","64de82f0d4d0e300e6f6c3ea","","","","","3243",""," ","key"," ","6.944867237687422","500","250","pog","173","183","147","1","0","0","0"
"","psychophysics","79","479473","0.0-79.0","5dd9df0e946f7c97406a55ea","64de82f0d4d0e300e6f6c3ea","","","","","36845",""," ","key"," ","6.944516682375122","500","250","inst","","","","","","",""
"","psychophysics","80","482456","0.0-80.0","5dd9df0e946f7c97406a55ea","64de82f0d4d0e300e6f6c3ea","","","","","2976",""," ","key"," ","6.944600467289695","500","250","instBr0","0","0","300","","","0","0"
"","psychophysics","81","487488","0.0-81.0","5dd9df0e946f7c97406a55ea","64de82f0d4d0e300e6f6c3ea","","","","","5024",""," ","key"," ","6.944726519337042","500","250","instBr1","0","-40","300","","","0","0"
"","psychophysics","82","493976","0.0-82.0","5dd9df0e946f7c97406a55ea","64de82f0d4d0e300e6f6c3ea","","","","","6481",""," ","key"," ","6.952013948497856","500","250","instBr3","-9","40","300","1","","0","0"
"","psychophysics","83","494696","0.0-83.0","5dd9df0e946f7c97406a55ea","64de82f0d4d0e300e6f6c3ea","","","","","714",""," ","key"," ","7.012892156862768","500","250","inst","","","","","","",""
"","psychophysics","84","499208","0.0-84.0","5dd9df0e946f7c97406a55ea","64de82f0d4d0e300e6f6c3ea","","","","","4505",""," ","key"," ","6.965993817619816","500","250","br","-15","-28","296","1","0","6","23"
"","psychophysics","85","502177","0.0-85.0","5dd9df0e946f7c97406a55ea","64de82f0d4d0e300e6f6c3ea","","","","","2964",""," ","key"," ","6.9447511737090055","500","250","br","-16","-19","266","1","0","-23","8"
"","psychophysics","86","507811","0.0-86.0","5dd9df0e946f7c97406a55ea","64de82f0d4d0e300e6f6c3ea","","","","","5628",""," ","key"," ","6.94453086419754","500","250","br","-8","29","255","1","0","27","17"
"","psychophysics","87","514389","0.0-87.0","5dd9df0e946f7c97406a55ea","64de82f0d4d0e300e6f6c3ea","","","","","6570",""," ","key"," ","6.9445258711721385","500","250","br","-15","29","299","1","0","18","15"
"","psychophysics","88","517532","0.0-88.0","5dd9df0e946f7c97406a55ea","64de82f0d4d0e300e6f6c3ea","","","","","3138",""," ","key"," ","6.944483370288247","500","250","br","-12","-3","266","1","0","0","3"
"","psychophysics","89","520709","0.0-89.0","5dd9df0e946f7c97406a55ea","64de82f0d4d0e300e6f6c3ea","","","","","3170",""," ","key"," ","6.944678336980292","500","250","br","-12","-10","232","1","0","13","2"
"","psychophysics","90","524190","0.0-90.0","5dd9df0e946f7c97406a55ea","64de82f0d4d0e300e6f6c3ea","","","","","3477",""," ","key"," ","6.944662000000011","500","250","br","-11","1","246","1","0","21","14"
"","psychophysics","91","532195","0.0-91.0","5dd9df0e946f7c97406a55ea","64de82f0d4d0e300e6f6c3ea","","","","","null","","null","key","null","6.944608506944456","500","250","br","-9","14","261","1","0","26","30"
"","psychophysics","92","532396","0.0-92.0","5dd9df0e946f7c97406a55ea","64de82f0d4d0e300e6f6c3ea","","","","","192",""," ","key"," ","6.945185185185875","500","250","br","18","19","241","1","0","17","19"
"","psychophysics","93","538361","0.0-93.0","5dd9df0e946f7c97406a55ea","64de82f0d4d0e300e6f6c3ea","","","","","5959",""," ","key"," ","6.960705950991914","500","250","br","-11","-24","215","1","0","-24","9"
"","psychophysics","94","540892","0.0-94.0","5dd9df0e946f7c97406a55ea","64de82f0d4d0e300e6f6c3ea","","","","","2521",""," ","key"," ","6.944493112947725","500","250","br","-14","-23","233","1","0","30","23"
"","psychophysics","95","543932","0.0-95.0","5dd9df0e946f7c97406a55ea","64de82f0d4d0e300e6f6c3ea","","","","","3031",""," ","key"," ","6.944867276887887","500","250","br","-9","19","231","1","0","26","-8"
"","psychophysics","96","546539","0.0-96.0","5dd9df0e946f7c97406a55ea","64de82f0d4d0e300e6f6c3ea","","","","","2601",""," ","key"," ","6.964160857908802","500","250","br","-8","24","251","1","0","12","18"
"","psychophysics","97","549563","0.0-97.0","5dd9df0e946f7c97406a55ea","64de82f0d4d0e300e6f6c3ea","","","","","3017",""," ","key"," ","6.944560919540142","500","250","br","-13","-1","300","1","0","-13","11"
"","psychophysics","98","551764","0.0-98.0","5dd9df0e946f7c97406a55ea","64de82f0d4d0e300e6f6c3ea","","","","","2196",""," ","key"," ","6.944718354430618","500","250","br","-13","-8","251","1","0","-28","-6"
"","psychophysics","99","552729","0.0-99.0","5dd9df0e946f7c97406a55ea","64de82f0d4d0e300e6f6c3ea","","","","","962",""," ","key"," ","7.047058823529583","500","250","inst","","","","","","",""
"","psychophysics","100","555619","0.0-100.0","5dd9df0e946f7c97406a55ea","64de82f0d4d0e300e6f6c3ea","","","","","2885",""," ","key"," ","6.94470602409628","500","250","instEB0","40","40","40","1","","0","0"
"","psychophysics","101","562552","0.0-101.0","5dd9df0e946f7c97406a55ea","64de82f0d4d0e300e6f6c3ea","","","","","6924",""," ","key"," ","6.944593781344041","500","250","instEB1","29","40","30","1","","0","0"
"","psychophysics","102","569119","0.0-102.0","5dd9df0e946f7c97406a55ea","64de82f0d4d0e300e6f6c3ea","","","","","6560",""," ","key"," ","6.944502645502577","500","250","instEB2","38","30","40","1","","0","0"
"","psychophysics","103","576543","0.0-103.0","5dd9df0e946f7c97406a55ea","64de82f0d4d0e300e6f6c3ea","","","","","7412",""," ","key"," ","6.944633895131037","500","250","instEB3","41","27","45","1","","0","0"
"","psychophysics","104","581743","0.0-104.0","5dd9df0e946f7c97406a55ea","64de82f0d4d0e300e6f6c3ea","","","","","5190",""," ","key"," ","6.944510695187096","500","250","instEB4","29","40","30","1","","0","0"
"","psychophysics","105","582864","0.0-105.0","5dd9df0e946f7c97406a55ea","64de82f0d4d0e300e6f6c3ea","","","","","1115",""," ","key"," ","6.944574999999896","500","250","inst","","","","","","",""
"","psychophysics","106","588003","0.0-106.0","5dd9df0e946f7c97406a55ea","64de82f0d4d0e300e6f6c3ea","","","","","5131",""," ","key"," ","6.944558863328797","500","250","eb","33","52","36","1","","0","0"
"","psychophysics","107","592520","0.0-107.0","5dd9df0e946f7c97406a55ea","64de82f0d4d0e300e6f6c3ea","","","","","4504",""," ","key"," ","6.9445870570108035","500","250","eb","42","29","45","1","","0","0"
"","psychophysics","108","596284","0.0-108.0","5dd9df0e946f7c97406a55ea","64de82f0d4d0e300e6f6c3ea","","","","","3751",""," ","key"," ","6.944695009242282","500","250","eb","30","50","33","1","","0","0"
"","psychophysics","109","598692","0.0-109.0","5dd9df0e946f7c97406a55ea","64de82f0d4d0e300e6f6c3ea","","","","","2397",""," ","key"," ","6.9455000000001155","500","250","eb","30","25","31","1","","0","0"
"","psychophysics","110","603342","0.0-110.0","5dd9df0e946f7c97406a55ea","64de82f0d4d0e300e6f6c3ea","","","","","4638",""," ","key"," ","6.94443647234693","500","250","eb","23","25","25","1","","0","0"
"","psychophysics","111","609748","0.0-111.0","5dd9df0e946f7c97406a55ea","64de82f0d4d0e300e6f6c3ea","","","","","6398",""," ","key"," ","6.94455700325724","500","250","eb","22","51","24","1","","0","0"
"","psychophysics","112","615868","0.0-112.0","5dd9df0e946f7c97406a55ea","64de82f0d4d0e300e6f6c3ea","","","","","6113",""," ","key"," ","6.960370159453255","500","250","eb","40","36","43","1","","0","0"
"","psychophysics","113","616620","0.0-113.0","5dd9df0e946f7c97406a55ea","64de82f0d4d0e300e6f6c3ea","","","","","743",""," ","key"," ","6.944574074073763","500","250","eb","39","39","43","1","","0","0"
"","psychophysics","114","620632","0.0-114.0","5dd9df0e946f7c97406a55ea","64de82f0d4d0e300e6f6c3ea","","","","","4005",""," ","key"," ","6.944555555555578","500","250","eb","44","33","49","1","","0","0"
"","psychophysics","115","624816","0.0-115.0","5dd9df0e946f7c97406a55ea","64de82f0d4d0e300e6f6c3ea","","","","","4175",""," ","key"," ","6.944491694352212","500","250","eb","27","44","29","1","","0","0"
"","psychophysics","116","630924","0.0-116.0","5dd9df0e946f7c97406a55ea","64de82f0d4d0e300e6f6c3ea","","","","","6100",""," ","key"," ","6.944556947608196","500","250","eb","41","36","43","1","","0","0"
"","psychophysics","117","635385","0.0-117.0","5dd9df0e946f7c97406a55ea","64de82f0d4d0e300e6f6c3ea","","","","","4452",""," ","key"," ","6.944523364485922","500","250","eb","44","36","50","1","","0","0"
"","psychophysics","118","640197","0.0-118.0","5dd9df0e946f7c97406a55ea","64de82f0d4d0e300e6f6c3ea","","","","","4803",""," ","key"," ","6.9546208393633","500","250","eb","48","35","53","1","","0","0"
"","psychophysics","119","645636","0.0-119.0","5dd9df0e946f7c97406a55ea","64de82f0d4d0e300e6f6c3ea","","","","","5431",""," ","key"," ","6.944887468030693","500","250","eb","32","51","35","1","","0","0"
"","psychophysics","120","649671","0.0-120.0","5dd9df0e946f7c97406a55ea","64de82f0d4d0e300e6f6c3ea","","","","","4028",""," ","key"," ","6.945096551724268","500","250","eb","35","38","39","1","","0","0"
"","psychophysics","121","674373","0.0-121.0","5dd9df0e946f7c97406a55ea","64de82f0d4d0e300e6f6c3ea","","","","","24695",""," ","key"," ","6.944865298087737","500","250","inst","","","","","","",""
"","psychophysics","122","678872","0.0-122.0","5dd9df0e946f7c97406a55ea","64de82f0d4d0e300e6f6c3ea","","","","","4488",""," ","key"," ","6.944187017001494","500","250","instZol1","0.10000000000000003","-1.3","","","","0","0"
"","psychophysics","123","694492","0.0-123.0","5dd9df0e946f7c97406a55ea","64de82f0d4d0e300e6f6c3ea","","","","","15610",""," ","key"," ","6.944709074733098","500","250","instZol2","1.6000000000000012","2","","1","","0","0"
"","psychophysics","124","696056","0.0-124.0","5dd9df0e946f7c97406a55ea","64de82f0d4d0e300e6f6c3ea","","","","","1556",""," ","key"," ","6.946522321428347","500","250","inst","","","","","","",""
"","psychophysics","125","699640","0.0-125.0","5dd9df0e946f7c97406a55ea","64de82f0d4d0e300e6f6c3ea","","","","","3575",""," ","key"," ","6.944660194174757","500","250","zol","1.6400000000000006","-0.54","","1","1","-30","26"
"","psychophysics","126","702516","0.0-126.0","5dd9df0e946f7c97406a55ea","64de82f0d4d0e300e6f6c3ea","","","","","2867",""," ","key"," ","6.944647342995245","500","250","zol","1.6400000000000006","-0.74","","1","1","-10","-25"
"","psychophysics","127","705611","0.0-127.0","5dd9df0e946f7c97406a55ea","64de82f0d4d0e300e6f6c3ea","","","","","3085",""," ","key"," ","6.960379232505587","500","250","zol","1.7300000000000006","-0.53","","1","1","-26","-27"
"","psychophysics","128","709067","0.0-128.0","5dd9df0e946f7c97406a55ea","64de82f0d4d0e300e6f6c3ea","","","","","3446",""," ","key"," ","6.945273641851061","500","250","zol","1.6700000000000004","-0.27","","1","1","25","-6"
"","psychophysics","129","716692","0.0-129.0","5dd9df0e946f7c97406a55ea","64de82f0d4d0e300e6f6c3ea","","","","","7616",""," ","key"," ","6.9445050136736315","500","250","zol","1.6800000000000004","0.62","","1","1","5","-28"
"","psychophysics","130","721155","0.0-130.0","5dd9df0e946f7c97406a55ea","64de82f0d4d0e300e6f6c3ea","","","","","4451",""," ","key"," ","6.944551401869162","500","250","zol","2.0800000000000005","-0.48","","1","1","25","-9"
"","psychophysics","131","723833","0.0-131.0","5dd9df0e946f7c97406a55ea","64de82f0d4d0e300e6f6c3ea","","","","","2665",""," ","key"," ","6.944598958333397","500","250","zol","1.0799999999999998","0.52","","1","1","-26","-4"
"","psychophysics","132","727920","0.0-132.0","5dd9df0e946f7c97406a55ea","64de82f0d4d0e300e6f6c3ea","","","","","4081",""," ","key"," ","6.944719387755094","500","250","zol","1.02","0.48","","1","1","23","-17"
"","psychophysics","133","731489","0.0-133.0","5dd9df0e946f7c97406a55ea","64de82f0d4d0e300e6f6c3ea","","","","","3559",""," ","key"," ","6.944573099415188","500","250","zol","1.4000000000000001","0.6","","1","1","-11","-19"
"","psychophysics","134","735755","0.0-134.0","5dd9df0e946f7c97406a55ea","64de82f0d4d0e300e6f6c3ea","","","","","4257",""," ","key"," ","6.944696574225197","500","250","zol","1.4700000000000002","0.53","","1","1","13","-24"
"","psychophysics","135","741100","0.0-135.0","5dd9df0e946f7c97406a55ea","64de82f0d4d0e300e6f6c3ea","","","","","5334",""," ","key"," ","6.944525357607239","500","250","zol","2.120000000000001","-0.62","","1","1","25","0"
"","psychophysics","136","745443","0.0-136.0","5dd9df0e946f7c97406a55ea","64de82f0d4d0e300e6f6c3ea","","","","","4333",""," ","key"," ","6.9451201923077","500","250","zol","2.220000000000001","-0.12","","1","1","4","4"
"","psychophysics","137","747899","0.0-137.0","5dd9df0e946f7c97406a55ea","64de82f0d4d0e300e6f6c3ea","","","","","2445",""," ","key"," ","6.944478753540947","500","250","zol","1.8000000000000005","-0.3","","1","1","13","25"
"","psychophysics","138","750788","0.0-138.0","5dd9df0e946f7c97406a55ea","64de82f0d4d0e300e6f6c3ea","","","","","2880",""," ","key"," ","6.944532530120552","500","250","zol","1.4900000000000002","0.21","","1","1","-7","2"
"","psychophysics","139","753151","0.0-139.0","5dd9df0e946f7c97406a55ea","64de82f0d4d0e300e6f6c3ea","","","","","2352",""," ","key"," ","6.966446745562086","500","250","zol","1.7900000000000005","0.21","","1","1","-24","19"
"","psychophysics","140","772792","0.0-140.0","5dd9df0e946f7c97406a55ea","64de82f0d4d0e300e6f6c3ea","","","","","19635",""," ","key"," ","6.944592854616181","500","250","inst","","","","","","",""
"","psychophysics","141","781514","0.0-141.0","5dd9df0e946f7c97406a55ea","64de82f0d4d0e300e6f6c3ea","","","","","8716",""," ","key"," ","6.94451952191233","500","250","instPz1","46","25","50","2","","",""
"","psychophysics","142","785635","0.0-142.0","5dd9df0e946f7c97406a55ea","64de82f0d4d0e300e6f6c3ea","","","","","4114",""," ","key"," ","6.9445210792578544","500","250","instPz2","31","20","35","2","","",""
"","psychophysics","143","793095","0.0-143.0","5dd9df0e946f7c97406a55ea","64de82f0d4d0e300e6f6c3ea","","","","","7451",""," ","key"," ","6.944644920782899","500","250","instPz3","63","30","100","2","","",""
"","psychophysics","144","801441","0.0-144.0","5dd9df0e946f7c97406a55ea","64de82f0d4d0e300e6f6c3ea","","","","","8339",""," ","key"," ","6.944492089925128","500","250","instPz4","74","30","100","2","","",""
"","psychophysics","145","802895","0.0-145.0","5dd9df0e946f7c97406a55ea","64de82f0d4d0e300e6f6c3ea","","","","","1445",""," ","key"," ","6.945144230769074","500","250","inst","","","","","","",""
"","psychophysics","146","806925","0.0-146.0","5dd9df0e946f7c97406a55ea","64de82f0d4d0e300e6f6c3ea","","","","","4023",""," ","key"," ","6.945143350604311","500","250","pz","23","27","28","2","1","",""
"","psychophysics","147","810047","0.0-147.0","5dd9df0e946f7c97406a55ea","64de82f0d4d0e300e6f6c3ea","","","","","3115",""," ","key"," ","6.9450913140309645","500","250","pz","21","34","26","2","1","",""
"","psychophysics","148","814171","0.0-148.0","5dd9df0e946f7c97406a55ea","64de82f0d4d0e300e6f6c3ea","","","","","4117",""," ","key"," ","6.944494097807694","500","250","pz","22","31","26","2","1","",""
"","psychophysics","149","817422","0.0-149.0","5dd9df0e946f7c97406a55ea","64de82f0d4d0e300e6f6c3ea","","","","","3245",""," ","key"," ","6.945297644539672","500","250","pz","25","34","32","2","1","",""
"","psychophysics","150","819726","0.0-150.0","5dd9df0e946f7c97406a55ea","64de82f0d4d0e300e6f6c3ea","","","","","2297",""," ","key"," ","6.944441087613603","500","250","pz","29","38","36","2","1","",""
"","psychophysics","151","823034","0.0-151.0","5dd9df0e946f7c97406a55ea","64de82f0d4d0e300e6f6c3ea","","","","","3303",""," ","key"," ","6.94456842105272","500","250","pz","33","42","43","2","1","",""
"","psychophysics","152","825144","0.0-152.0","5dd9df0e946f7c97406a55ea","64de82f0d4d0e300e6f6c3ea","","","","","2102",""," ","key"," ","6.9905581395350636","500","250","pz","23","32","29","2","1","",""
"","psychophysics","153","829270","0.0-153.0","5dd9df0e946f7c97406a55ea","64de82f0d4d0e300e6f6c3ea","","","","","4119",""," ","key"," ","6.944510961214118","500","250","pz","26","58","26","2","1","",""
"","psychophysics","154","832334","0.0-154.0","5dd9df0e946f7c97406a55ea","64de82f0d4d0e300e6f6c3ea","","","","","3056",""," ","key"," ","6.945322727272816","500","250","pz","41","33","58","2","1","",""
"","psychophysics","155","835478","0.0-155.0","5dd9df0e946f7c97406a55ea","64de82f0d4d0e300e6f6c3ea","","","","","3138",""," ","key"," ","6.960015521064181","500","250","pz","27","35","35","2","1","",""
"","psychophysics","156","837593","0.0-156.0","5dd9df0e946f7c97406a55ea","64de82f0d4d0e300e6f6c3ea","","","","","2108",""," ","key"," ","6.944539473684256","500","250","pz","24","20","29","2","1","",""
"","psychophysics","157","840024","0.0-157.0","5dd9df0e946f7c97406a55ea","64de82f0d4d0e300e6f6c3ea","","","","","2426",""," ","key"," ","6.9445530085959195","500","250","pz","36","35","53","2","1","",""
"","psychophysics","158","843751","0.0-158.0","5dd9df0e946f7c97406a55ea","64de82f0d4d0e300e6f6c3ea","","","","","3722",""," ","key"," ","6.957601123595609","500","250","pz","30","46","37","2","1","",""
"","psychophysics","159","847311","0.0-159.0","5dd9df0e946f7c97406a55ea","64de82f0d4d0e300e6f6c3ea","","","","","3554",""," ","key"," ","6.9454199218751","500","250","pz","38","53","54","2","1","",""
"","psychophysics","160","849872","0.0-160.0","5dd9df0e946f7c97406a55ea","64de82f0d4d0e300e6f6c3ea","","","","","2554",""," ","key"," ","6.94429891304342","500","250","pz","41","34","58","2","1","",""
"","psychophysics","161","850974","0.0-161.0","5dd9df0e946f7c97406a55ea","64de82f0d4d0e300e6f6c3ea","","","","","1098",""," ","key"," ","6.946044585987137","500","250","inst","","","","","","",""
"","psychophysics","162","856582","0.0-162.0","5dd9df0e946f7c97406a55ea","64de82f0d4d0e300e6f6c3ea","","","","","5601",""," ","key"," ","6.944480793060714","500","250","instBr3","25","40","300","2","","0","0"
"","psychophysics","163","857290","0.0-163.0","5dd9df0e946f7c97406a55ea","64de82f0d4d0e300e6f6c3ea","","","","","703",""," ","key"," ","6.944554455445775","500","250","inst","","","","","","",""
"","psychophysics","164","861510","0.0-164.0","5dd9df0e946f7c97406a55ea","64de82f0d4d0e300e6f6c3ea","","","","","4213",""," ","key"," ","6.944701812191117","500","250","br","27","16","210","2","1","19","-7"
"","psychophysics","165","866722","0.0-165.0","5dd9df0e946f7c97406a55ea","64de82f0d4d0e300e6f6c3ea","","","","","5207",""," ","key"," ","6.944931909212226","500","250","br","22","-8","299","2","1","-25","16"
"","psychophysics","166","869178","0.0-166.0","5dd9df0e946f7c97406a55ea","64de82f0d4d0e300e6f6c3ea","","","","","2449",""," ","key"," ","6.944841359773315","500","250","br","23","28","214","2","1","-2","-17"
"","psychophysics","167","875422","0.0-167.0","5dd9df0e946f7c97406a55ea","64de82f0d4d0e300e6f6c3ea","","","","","6239",""," ","key"," ","6.944572383073394","500","250","br","27","-30","299","2","1","21","20"
"","psychophysics","168","879134","0.0-168.0","5dd9df0e946f7c97406a55ea","64de82f0d4d0e300e6f6c3ea","","","","","3705",""," ","key"," ","6.944626641650876","500","250","br","22","-12","244","2","1","12","14"
"","psychophysics","169","881719","0.0-169.0","5dd9df0e946f7c97406a55ea","64de82f0d4d0e300e6f6c3ea","","","","","2578",""," ","key"," ","6.944545698924847","500","250","br","19","-5","255","2","1","-14","8"
"","psychophysics","170","885768","0.0-170.0","5dd9df0e946f7c97406a55ea","64de82f0d4d0e300e6f6c3ea","","","","","4039",""," ","key"," ","6.956562068965487","500","250","br","27","-11","287","2","1","0","5"
"","psychophysics","171","887900","0.0-171.0","5dd9df0e946f7c97406a55ea","64de82f0d4d0e300e6f6c3ea","","","","","2125",""," ","key"," ","6.944498371335539","500","250","br","23","25","282","2","1","2","-19"
"","psychophysics","172","891995","0.0-172.0","5dd9df0e946f7c97406a55ea","64de82f0d4d0e300e6f6c3ea","","","","","4090",""," ","key"," ","6.944795918367411","500","250","br","22","7","272","2","1","0","-13"
"","psychophysics","173","893879","0.0-173.0","5dd9df0e946f7c97406a55ea","64de82f0d4d0e300e6f6c3ea","","","","","1878",""," ","key"," ","6.945022140221492","500","250","br","25","6","266","2","1","27","-8"
"","psychophysics","174","898091","0.0-174.0","5dd9df0e946f7c97406a55ea","64de82f0d4d0e300e6f6c3ea","","","","","4207",""," ","key"," ","6.94463966942146","500","250","br","26","-1","277","2","1","28","-27"
"","psychophysics","175","902327","0.0-175.0","5dd9df0e946f7c97406a55ea","64de82f0d4d0e300e6f6c3ea","","","","","4228",""," ","key"," ","6.9445911330048204","500","250","br","22","-17","261","2","1","-26","-4"
"","psychophysics","176","908067","0.0-176.0","5dd9df0e946f7c97406a55ea","64de82f0d4d0e300e6f6c3ea","","","","","5733",""," ","key"," ","6.94451452784503","500","250","br","21","-14","200","2","1","29","-27"
"","psychophysics","177","910239","0.0-177.0","5dd9df0e946f7c97406a55ea","64de82f0d4d0e300e6f6c3ea","","","","","2167",""," ","key"," ","6.9448360128618685","500","250","br","25","11","231","2","1","-6","-19"
"","psychophysics","178","916972","0.0-178.0","5dd9df0e946f7c97406a55ea","64de82f0d4d0e300e6f6c3ea","","","","","6727",""," ","key"," ","6.944557275541869","500","250","br","20","-30","201","2","1","2","-25"
"","psychophysics","179","918736","0.0-179.0","5dd9df0e946f7c97406a55ea","64de82f0d4d0e300e6f6c3ea","","","","","1757",""," ","key"," ","6.944608695651846","500","250","inst","","","","","","",""
"","psychophysics","180","922751","0.0-180.0","5dd9df0e946f7c97406a55ea","64de82f0d4d0e300e6f6c3ea","","","","","4007",""," ","key"," ","6.944521663778266","500","250","instPog0","340","370","340","2","","0","0"
"","psychophysics","181","927710","0.0-181.0","5dd9df0e946f7c97406a55ea","64de82f0d4d0e300e6f6c3ea","","","","","4953",""," ","key"," ","6.9445610098177655","500","250","instPog1","340","370","340","2","","0","0"
"","psychophysics","182","931963","0.0-182.0","5dd9df0e946f7c97406a55ea","64de82f0d4d0e300e6f6c3ea","","","","","4247",""," ","key"," ","6.944606209150401","500","250","instPog2","322","340","340","2","","0","0"
"","psychophysics","183","944885","0.0-183.0","5dd9df0e946f7c97406a55ea","64de82f0d4d0e300e6f6c3ea","","","","","12918",""," ","key"," ","6.951926225094214","500","250","inst","","","","","","",""
"","psychophysics","184","952085","0.0-184.0","5dd9df0e946f7c97406a55ea","64de82f0d4d0e300e6f6c3ea","","","","","7197",""," ","key"," ","6.944591698841764","500","250","pog","293","359","314","2","1","0","0"
"","psychophysics","185","953737","0.0-185.0","5dd9df0e946f7c97406a55ea","64de82f0d4d0e300e6f6c3ea","","","","","1651",""," ","key"," ","6.976152542372771","500","250","pog","304","306","326","2","1","0","0"
"","psychophysics","186","958022","0.0-186.0","5dd9df0e946f7c97406a55ea","64de82f0d4d0e300e6f6c3ea","","","","","4285",""," ","key"," ","6.9449480519480336","500","250","pog","347","329","378","2","1","0","0"
"","psychophysics","187","961741","0.0-187.0","5dd9df0e946f7c97406a55ea","64de82f0d4d0e300e6f6c3ea","","","","","3717",""," ","key"," ","6.944581308411043","500","250","pog","278","352","305","2","1","0","0"
"","psychophysics","188","966689","0.0-188.0","5dd9df0e946f7c97406a55ea","64de82f0d4d0e300e6f6c3ea","","","","","4945",""," ","key"," ","6.944874824191255","500","250","pog","346","396","370","2","1","0","0"
"","psychophysics","189","970465","0.0-189.0","5dd9df0e946f7c97406a55ea","64de82f0d4d0e300e6f6c3ea","","","","","3774",""," ","key"," ","6.945294659300047","500","250","pog","316","396","335","2","1","0","0"
"","psychophysics","190","973009","0.0-190.0","5dd9df0e946f7c97406a55ea","64de82f0d4d0e300e6f6c3ea","","","","","2543",""," ","key"," ","6.944583561643639","500","250","pog","322","300","353","2","1","0","0"
"","psychophysics","191","974493","0.0-191.0","5dd9df0e946f7c97406a55ea","64de82f0d4d0e300e6f6c3ea","","","","","1483",""," ","key"," ","6.94541784037591","500","250","pog","332","318","358","2","1","0","0"
"","psychophysics","192","979742","0.0-192.0","5dd9df0e946f7c97406a55ea","64de82f0d4d0e300e6f6c3ea","","","","","5248",""," ","key"," ","6.944909933774843","500","250","pog","338","328","365","2","1","0","0"
"","psychophysics","193","982309","0.0-193.0","5dd9df0e946f7c97406a55ea","64de82f0d4d0e300e6f6c3ea","","","","","2566",""," ","key"," ","6.9447961956520095","500","250","pog","339","301","368","2","1","0","0"
"","psychophysics","194","984205","0.0-194.0","5dd9df0e946f7c97406a55ea","64de82f0d4d0e300e6f6c3ea","","","","","1894",""," ","key"," ","6.944720588235428","500","250","pog","301","295","333","2","1","0","0"
"","psychophysics","195","986341","0.0-195.0","5dd9df0e946f7c97406a55ea","64de82f0d4d0e300e6f6c3ea","","","","","2134",""," ","key"," ","6.944869706840239","500","250","pog","297","309","315","2","1","0","0"
"","psychophysics","196","993301","0.0-196.0","5dd9df0e946f7c97406a55ea","64de82f0d4d0e300e6f6c3ea","","","","","6959",""," ","key"," ","6.944916083916001","500","250","pog","303","353","332","2","1","0","0"
"","psychophysics","197","997407","0.0-197.0","5dd9df0e946f7c97406a55ea","64de82f0d4d0e300e6f6c3ea","","","","","4103",""," ","key"," ","6.944489001691997","500","250","pog","294","370","313","2","1","0","0"
"","psychophysics","198","1000309","0.0-198.0","5dd9df0e946f7c97406a55ea","64de82f0d4d0e300e6f6c3ea","","","","","2900",""," ","key"," ","6.944930288461574","500","250","pog","273","315","302","2","1","0","0"
"","psychophysics","199","1001152","0.0-199.0","5dd9df0e946f7c97406a55ea","64de82f0d4d0e300e6f6c3ea","","","","","841",""," ","key"," ","6.947834710744479","500","250","inst","","","","","","",""
"","psychophysics","200","1010793","0.0-200.0","5dd9df0e946f7c97406a55ea","64de82f0d4d0e300e6f6c3ea","","","","","9639",""," ","key"," ","6.965017353579138","500","250","instEB1","40","30","40","2","","0","0"
"","psychophysics","201","1015449","0.0-201.0","5dd9df0e946f7c97406a55ea","64de82f0d4d0e300e6f6c3ea","","","","","4654",""," ","key"," ","6.944650224215276","500","250","instEB2","33","40","30","2","","0","0"
"","psychophysics","202","1022193","0.0-202.0","5dd9df0e946f7c97406a55ea","64de82f0d4d0e300e6f6c3ea","","","","","6742",""," ","key"," ","6.944758762886566","500","250","instEB3","29","45","27","2","","0","0"
"","psychophysics","203","1027713","0.0-203.0","5dd9df0e946f7c97406a55ea","64de82f0d4d0e300e6f6c3ea","","","","","5518",""," ","key"," ","6.944979848866515","500","250","instEB4","45","30","40","2","","0","0"
"","psychophysics","204","1028686","0.0-204.0","5dd9df0e946f7c97406a55ea","64de82f0d4d0e300e6f6c3ea","","","","","971",""," ","key"," ","6.946482014388395","500","250","inst","","","","","","",""
"","psychophysics","205","1034581","0.0-205.0","5dd9df0e946f7c97406a55ea","64de82f0d4d0e300e6f6c3ea","","","","","5892",""," ","key"," ","6.945204009433889","500","250","eb","39","48","33","2","","0","0"
"","psychophysics","206","1041112","0.0-206.0","5dd9df0e946f7c97406a55ea","64de82f0d4d0e300e6f6c3ea","","","","","6530",""," ","key"," ","6.944920212765933","500","250","eb","48","25","44","2","","0","0"
"","psychophysics","207","1049116","0.0-207.0","5dd9df0e946f7c97406a55ea","64de82f0d4d0e300e6f6c3ea","","","","","null","","null","key","null","6.944632493483924","500","250","eb","33","30","49","2","","0","0"
"","psychophysics","208","1054276","0.0-208.0","5dd9df0e946f7c97406a55ea","64de82f0d4d0e300e6f6c3ea","","","","","5158",""," ","key"," ","6.944579514824833","500","250","eb","41","45","34","2","","0","0"
"","psychophysics","209","1059220","0.0-209.0","5dd9df0e946f7c97406a55ea","64de82f0d4d0e300e6f6c3ea","","","","","4941",""," ","key"," ","6.945052039381196","500","250","eb","48","35","45","2","","0","0"
"","psychophysics","210","1061020","0.0-210.0","5dd9df0e946f7c97406a55ea","64de82f0d4d0e300e6f6c3ea","","","","","1797",""," ","key"," ","6.946337209302434","500","250","eb","37","36","32","2","","0","0"
"","psychophysics","211","1067480","0.0-211.0","5dd9df0e946f7c97406a55ea","64de82f0d4d0e300e6f6c3ea","","","","","6457",""," ","key"," ","6.944229032258223","500","250","eb","54","25","49","2","","0","0"
"","psychophysics","212","1072996","0.0-212.0","5dd9df0e946f7c97406a55ea","64de82f0d4d0e300e6f6c3ea","","","","","5514",""," ","key"," ","6.944741488020388","500","250","eb","30","37","25","2","","0","0"
"","psychophysics","213","1080999","0.0-213.0","5dd9df0e946f7c97406a55ea","64de82f0d4d0e300e6f6c3ea","","","","","null","","null","key","null","6.944690703736015","500","250","eb","32","46","25","2","","0","0"
"","psychophysics","214","1086368","0.0-214.0","5dd9df0e946f7c97406a55ea","64de82f0d4d0e300e6f6c3ea","","","","","5367",""," ","key"," ","6.944051746442555","500","250","eb","42","47","37","2","","0","0"
"","psychophysics","215","1091521","0.0-215.0","5dd9df0e946f7c97406a55ea","64de82f0d4d0e300e6f6c3ea","","","","","5152",""," ","key"," ","6.945278002699213","500","250","eb","47","41","44","2","","0","0"
"","psychophysics","216","1095998","0.0-216.0","5dd9df0e946f7c97406a55ea","64de82f0d4d0e300e6f6c3ea","","","","","4475",""," ","key"," ","6.945069984448161","500","250","eb","53","41","46","2","","0","0"
"","psychophysics","217","1102588","0.0-217.0","5dd9df0e946f7c97406a55ea","64de82f0d4d0e300e6f6c3ea","","","","","6588",""," ","key"," ","6.944531645569587","500","250","eb","41","53","36","2","","0","0"
"","psychophysics","218","1107118","0.0-218.0","5dd9df0e946f7c97406a55ea","64de82f0d4d0e300e6f6c3ea","","","","","4528",""," ","key"," ","6.9444141104293164","500","250","eb","28","43","25","2","","0","0"
"","psychophysics","219","1112552","0.0-219.0","5dd9df0e946f7c97406a55ea","64de82f0d4d0e300e6f6c3ea","","","","","5433",""," ","key"," ","6.944653008963135","500","250","eb","39","35","36","2","","0","0"
