"success","trial_type","trial_index","time_elapsed","internal_node_id","pid","sid","timeout","failed_images","failed_audio","failed_video","rt","stimulus","response","response_type","key_press","avg_frame_time","center_x","center_y","task","resp","version","block","start","jitterX","jitterY","parA"
"true","fullscreen","0","12452","0.0-0.0","64010a38650fe3a1a2de05a9","64de82c6c6704420c06094e7","","","","","","","","","","","","","","","","","","","",""
"true","preload","1","13343","0.0-1.0","64010a38650fe3a1a2de05a9","64de82c6c6704420c06094e7","false","[]","[]","[]","","","","","","","","","","","","","","","",""
"","html-button-response","2","18652","0.0-2.0","64010a38650fe3a1a2de05a9","64de82c6c6704420c06094e7","","","","","5307","Please Make Sure Your Audio Is On.","0","","","","","","","","","","","","",""
"","psychophysics","3","23594","0.0-3.0","64010a38650fe3a1a2de05a9","64de82c6c6704420c06094e7","","","","","4937",""," ","key"," ","6.944410112359553","960","250","","","","","","","",""
"","psychophysics","4","27802","0.0-4.0","64010a38650fe3a1a2de05a9","64de82c6c6704420c06094e7","","","","","4207",""," ","key"," ","6.944482644628099","500","250","inst","","","","","","",""
"","psychophysics","5","34058","0.0-5.0","64010a38650fe3a1a2de05a9","64de82c6c6704420c06094e7","","","","","6254",""," ","key"," ","6.944433333333339","500","250","sample0","","","","","","",""
"","psychophysics","6","38378","0.0-6.0","64010a38650fe3a1a2de05a9","64de82c6c6704420c06094e7","","","","","4318",""," ","key"," ","6.944396135265702","500","250","sample1","","","","","","",""
"","psychophysics","7","49474","0.0-7.0","64010a38650fe3a1a2de05a9","64de82c6c6704420c06094e7","","","","","11095",""," ","key"," ","6.944393237319972","500","250","sample2","102","","","","","",""
"","psychophysics","8","53386","0.0-8.0","64010a38650fe3a1a2de05a9","64de82c6c6704420c06094e7","","","","","3911",""," ","key"," ","6.944494661921703","500","250","sample3","102","","","","","",""
"","psychophysics","9","73442","0.0-9.0","64010a38650fe3a1a2de05a9","64de82c6c6704420c06094e7","","","","","20055",""," ","key"," ","6.949252686308491","500","250","sample4","100","","","","","",""
"","psychophysics","10","79780","0.0-10.0","64010a38650fe3a1a2de05a9","64de82c6c6704420c06094e7","","","","","6335",""," ","key"," ","6.959619361936188","500","250","sample5","","","","","","",""
"","psychophysics","11","86050","0.0-11.0","64010a38650fe3a1a2de05a9","64de82c6c6704420c06094e7","","","","","6267",""," ","key"," ","6.974482758620703","500","250","sample6","500","","","","","",""
"","psychophysics","12","92266","0.0-12.0","64010a38650fe3a1a2de05a9","64de82c6c6704420c06094e7","","","","","6215",""," ","key"," ","6.944436241610739","500","250","inst","","","","","","",""
"","psychophysics","13","98099","0.0-13.0","64010a38650fe3a1a2de05a9","64de82c6c6704420c06094e7","","","","","5832",""," ","key"," ","6.944376638855792","500","250","inst","","","","","","",""
"","psychophysics","14","103090","0.0-14.0","64010a38650fe3a1a2de05a9","64de82c6c6704420c06094e7","","","","","4990",""," ","key"," ","6.944444909344493","500","250","inst","","","","","","",""
"","psychophysics","15","114355","0.0-15.0","64010a38650fe3a1a2de05a9","64de82c6c6704420c06094e7","","","","","11258",""," ","key"," ","6.948704320987653","500","250","inst","","","","","","",""
"","psychophysics","16","115690","0.0-16.0","64010a38650fe3a1a2de05a9","64de82c6c6704420c06094e7","","","","","1333",""," ","key"," ","6.944421874999989","500","250","inst","","","","","","",""
"","psychophysics","17","119163","0.0-17.0","64010a38650fe3a1a2de05a9","64de82c6c6704420c06094e7","","","","","3470",""," ","key"," ","6.944300601202416","500","250","instEB0","40","2","","40","0","0","40"
"","psychophysics","18","122619","0.0-18.0","64010a38650fe3a1a2de05a9","64de82c6c6704420c06094e7","","","","","3454",""," ","key"," ","7.001050709939141","500","250","instEB1","43","2","","30","0","0","40"
"","psychophysics","19","131330","0.0-19.0","64010a38650fe3a1a2de05a9","64de82c6c6704420c06094e7","","","","","8708",""," ","key"," ","6.972232371794876","500","250","instEB2","35","2","","40","0","0","30"
"","psychophysics","20","139724","0.0-20.0","64010a38650fe3a1a2de05a9","64de82c6c6704420c06094e7","","","","","8392",""," ","key"," ","6.944420878210437","500","250","instEB3","36","2","","45","0","0","27"
"","psychophysics","21","146802","0.0-21.0","64010a38650fe3a1a2de05a9","64de82c6c6704420c06094e7","","","","","7075",""," ","key"," ","6.943942100098143","500","250","instEB4","46","2","","30","0","0","40"
"","psychophysics","22","149883","0.0-22.0","64010a38650fe3a1a2de05a9","64de82c6c6704420c06094e7","","","","","3080",""," ","key"," ","6.944400452488727","500","250","inst","","","","","","",""
"","psychophysics","23","153723","0.0-23.0","64010a38650fe3a1a2de05a9","64de82c6c6704420c06094e7","","","","","3831",""," ","key"," ","6.944440217391315","500","250","eb","59","2","","37","0","0","51"
"","psychophysics","24","157266","0.0-24.0","64010a38650fe3a1a2de05a9","64de82c6c6704420c06094e7","","","","","3540",""," ","key"," ","6.944496078431372","500","250","eb","38","2","","54","0","0","35"
"","psychophysics","25","160202","0.0-25.0","64010a38650fe3a1a2de05a9","64de82c6c6704420c06094e7","","","","","2934",""," ","key"," ","6.944334123222796","500","250","eb","50","2","","39","0","0","46"
"","psychophysics","26","164363","0.0-26.0","64010a38650fe3a1a2de05a9","64de82c6c6704420c06094e7","","","","","4159",""," ","key"," ","6.944408026755843","500","250","eb","49","2","","32","0","0","42"
"","psychophysics","27","166394","0.0-27.0","64010a38650fe3a1a2de05a9","64de82c6c6704420c06094e7","","","","","2029",""," ","key"," ","6.944477663230318","500","250","eb","41","2","","36","0","0","33"
"","psychophysics","28","168251","0.0-28.0","64010a38650fe3a1a2de05a9","64de82c6c6704420c06094e7","","","","","1853",""," ","key"," ","6.9442969924812745","500","250","eb","44","2","","36","0","0","37"
"","psychophysics","29","171386","0.0-29.0","64010a38650fe3a1a2de05a9","64de82c6c6704420c06094e7","","","","","3133",""," ","key"," ","6.944321507760522","500","250","eb","33","2","","49","0","0","27"
"","psychophysics","30","174322","0.0-30.0","64010a38650fe3a1a2de05a9","64de82c6c6704420c06094e7","","","","","2934",""," ","key"," ","6.944433649289116","500","250","eb","42","2","","44","0","0","34"
"","psychophysics","31","176932","0.0-31.0","64010a38650fe3a1a2de05a9","64de82c6c6704420c06094e7","","","","","2608",""," ","key"," ","6.944227272727281","500","250","eb","37","2","","26","0","0","28"
"","psychophysics","32","179963","0.0-32.0","64010a38650fe3a1a2de05a9","64de82c6c6704420c06094e7","","","","","3026",""," ","key"," ","6.961664367816144","500","250","eb","41","2","","24","0","0","45"
"","psychophysics","33","181490","0.0-33.0","64010a38650fe3a1a2de05a9","64de82c6c6704420c06094e7","","","","","1526",""," ","key"," ","6.944205479452001","500","250","eb","48","2","","48","0","0","39"
"","psychophysics","34","184370","0.0-34.0","64010a38650fe3a1a2de05a9","64de82c6c6704420c06094e7","","","","","2878",""," ","key"," ","6.9441062801932025","500","250","eb","42","2","","52","0","0","27"
"","psychophysics","35","187547","0.0-35.0","64010a38650fe3a1a2de05a9","64de82c6c6704420c06094e7","","","","","3175",""," ","key"," ","6.944475877193008","500","250","eb","55","2","","48","0","0","46"
"","psychophysics","36","190082","0.0-36.0","64010a38650fe3a1a2de05a9","64de82c6c6704420c06094e7","","","","","2532",""," ","key"," ","6.963548209366421","500","250","eb","35","2","","25","0","0","27"
"","psychophysics","37","192050","0.0-37.0","64010a38650fe3a1a2de05a9","64de82c6c6704420c06094e7","","","","","1964",""," ","key"," ","6.944579505300323","500","250","eb","44","2","","47","0","0","31"
"","psychophysics","38","194138","0.0-38.0","64010a38650fe3a1a2de05a9","64de82c6c6704420c06094e7","","","","","2087",""," ","key"," ","6.94439464882937","500","250","inst","","","","","","",""
"","psychophysics","39","196050","0.0-39.0","64010a38650fe3a1a2de05a9","64de82c6c6704420c06094e7","","","","","1909",""," ","key"," ","6.944403636363673","500","250","instPzPre","50","0","","50","","","50"
"","psychophysics","40","199130","0.0-40.0","64010a38650fe3a1a2de05a9","64de82c6c6704420c06094e7","","","","","3078",""," ","key"," ","6.944334841628978","500","250","instPz0","50","2","","50","","","50"
"","psychophysics","41","204747","0.0-41.0","64010a38650fe3a1a2de05a9","64de82c6c6704420c06094e7","","","","","5614",""," ","key"," ","6.961666253101741","500","250","instPz1","40","2","","25","","","50"
"","psychophysics","42","209418","0.0-42.0","64010a38650fe3a1a2de05a9","64de82c6c6704420c06094e7","","","","","4670",""," ","key"," ","6.944467261904763","500","250","instPz2","33","2","","20","","","35"
"","psychophysics","43","220114","0.0-43.0","64010a38650fe3a1a2de05a9","64de82c6c6704420c06094e7","","","","","10693",""," ","key"," ","6.971589041095907","500","250","instPz3","30","2","","30","","","100"
"","psychophysics","44","226994","0.0-44.0","64010a38650fe3a1a2de05a9","64de82c6c6704420c06094e7","","","","","6878",""," ","key"," ","6.944454545454555","500","250","instPz4","35","2","","30","","","100"
"","psychophysics","45","228658","0.0-45.0","64010a38650fe3a1a2de05a9","64de82c6c6704420c06094e7","","","","","1662",""," ","key"," ","6.944432773109219","500","250","inst","","","","","","",""
"","psychophysics","46","231682","0.0-46.0","64010a38650fe3a1a2de05a9","64de82c6c6704420c06094e7","","","","","3022",""," ","key"," ","6.944356321839043","500","250","pz","25","2","0","20","","","42"
"","psychophysics","47","234411","0.0-47.0","64010a38650fe3a1a2de05a9","64de82c6c6704420c06094e7","","","","","2727",""," ","key"," ","6.980051282051285","500","250","pz","27","2","0","56","","","26"
"","psychophysics","48","237203","0.0-48.0","64010a38650fe3a1a2de05a9","64de82c6c6704420c06094e7","","","","","2790",""," ","key"," ","6.944421052631562","500","250","pz","29","2","0","40","","","53"
"","psychophysics","49","239706","0.0-49.0","64010a38650fe3a1a2de05a9","64de82c6c6704420c06094e7","","","","","2494",""," ","key"," ","6.944409972299171","500","250","pz","22","2","0","37","","","32"
"","psychophysics","50","241818","0.0-50.0","64010a38650fe3a1a2de05a9","64de82c6c6704420c06094e7","","","","","2109",""," ","key"," ","6.944422442244236","500","250","pz","22","2","0","43","","","21"
"","psychophysics","51","243586","0.0-51.0","64010a38650fe3a1a2de05a9","64de82c6c6704420c06094e7","","","","","1763",""," ","key"," ","6.944366141732307","500","250","pz","29","2","0","40","","","40"
"","psychophysics","52","244850","0.0-52.0","64010a38650fe3a1a2de05a9","64de82c6c6704420c06094e7","","","","","1262",""," ","key"," ","6.944325966850722","500","250","pz","35","2","0","35","","","55"
"","psychophysics","53","247426","0.0-53.0","64010a38650fe3a1a2de05a9","64de82c6c6704420c06094e7","","","","","2575",""," ","key"," ","6.944478378378443","500","250","pz","27","2","0","45","","","58"
"","psychophysics","54","250306","0.0-54.0","64010a38650fe3a1a2de05a9","64de82c6c6704420c06094e7","","","","","2879",""," ","key"," ","6.944533816425148","500","250","pz","14","2","0","21","","","41"
"","psychophysics","55","251834","0.0-55.0","64010a38650fe3a1a2de05a9","64de82c6c6704420c06094e7","","","","","1527",""," ","key"," ","6.94462557077622","500","250","pz","21","2","0","21","","","52"
"","psychophysics","56","254690","0.0-56.0","64010a38650fe3a1a2de05a9","64de82c6c6704420c06094e7","","","","","2853",""," ","key"," ","6.944499999999989","500","250","pz","9","2","0","28","","","23"
"","psychophysics","57","257251","0.0-57.0","64010a38650fe3a1a2de05a9","64de82c6c6704420c06094e7","","","","","2560",""," ","key"," ","6.944535326086976","500","250","pz","13","2","0","40","","","20"
"","psychophysics","58","258914","0.0-58.0","64010a38650fe3a1a2de05a9","64de82c6c6704420c06094e7","","","","","1661",""," ","key"," ","6.944336134453814","500","250","pz","28","2","0","32","","","56"
"","psychophysics","59","261906","0.0-59.0","64010a38650fe3a1a2de05a9","64de82c6c6704420c06094e7","","","","","2991",""," ","key"," ","6.9444418604650835","500","250","pz","18","2","0","48","","","38"
"","psychophysics","60","265498","0.0-60.0","64010a38650fe3a1a2de05a9","64de82c6c6704420c06094e7","","","","","3590",""," ","key"," ","6.944416666666701","500","250","pz","24","2","0","53","","","47"
"","psychophysics","61","266410","0.0-61.0","64010a38650fe3a1a2de05a9","64de82c6c6704420c06094e7","","","","","909",""," ","key"," ","6.944396946564999","500","250","inst","","","","","","",""
"","psychophysics","62","270786","0.0-62.0","64010a38650fe3a1a2de05a9","64de82c6c6704420c06094e7","","","","","4374",""," ","key"," ","6.944400635930034","500","250","instBr0","0","","","0","0","0","300"
"","psychophysics","63","277002","0.0-63.0","64010a38650fe3a1a2de05a9","64de82c6c6704420c06094e7","","","","","6214",""," ","key"," ","6.9443959731543385","500","250","instBr1","-4","","","-40","0","0","300"
"","psychophysics","64","285794","0.0-64.0","64010a38650fe3a1a2de05a9","64de82c6c6704420c06094e7","","","","","8791",""," ","key"," ","6.944415019762844","500","250","instBr3","-24","1","","40","0","0","300"
"","psychophysics","65","286530","0.0-65.0","64010a38650fe3a1a2de05a9","64de82c6c6704420c06094e7","","","","","735",""," ","key"," ","6.944895238095584","500","250","inst","","","","","","",""
"","psychophysics","66","289290","0.0-66.0","64010a38650fe3a1a2de05a9","64de82c6c6704420c06094e7","","","","","2759",""," ","key"," ","6.944292929292935","500","250","br","-19","1","0","5","-14","24","256"
"","psychophysics","67","291882","0.0-67.0","64010a38650fe3a1a2de05a9","64de82c6c6704420c06094e7","","","","","2589",""," ","key"," ","6.944463806970597","500","250","br","-17","1","0","26","-13","21","221"
"","psychophysics","68","293546","0.0-68.0","64010a38650fe3a1a2de05a9","64de82c6c6704420c06094e7","","","","","1662",""," ","key"," ","6.944470588235476","500","250","br","-17","1","0","-5","-26","-28","203"
"","psychophysics","69","294746","0.0-69.0","64010a38650fe3a1a2de05a9","64de82c6c6704420c06094e7","","","","","1199",""," ","key"," ","6.944796511627934","500","250","br","-17","1","0","-16","16","-3","226"
"","psychophysics","70","297410","0.0-70.0","64010a38650fe3a1a2de05a9","64de82c6c6704420c06094e7","","","","","2663",""," ","key"," ","6.944475195822446","500","250","br","-22","1","0","20","-7","16","220"
"","psychophysics","71","298675","0.0-71.0","64010a38650fe3a1a2de05a9","64de82c6c6704420c06094e7","","","","","1262",""," ","key"," ","6.944469613259792","500","250","br","-27","1","0","-27","-19","19","214"
"","psychophysics","72","300586","0.0-72.0","64010a38650fe3a1a2de05a9","64de82c6c6704420c06094e7","","","","","1910",""," ","key"," ","6.944284671532835","500","250","br","-19","1","0","-28","5","6","233"
"","psychophysics","73","302082","0.0-73.0","64010a38650fe3a1a2de05a9","64de82c6c6704420c06094e7","","","","","1494",""," ","key"," ","6.977192488262876","500","250","br","-22","1","0","-13","4","-9","271"
"","psychophysics","74","304314","0.0-74.0","64010a38650fe3a1a2de05a9","64de82c6c6704420c06094e7","","","","","2229",""," ","key"," ","6.944246105919012","500","250","br","-23","1","0","-29","14","-12","244"
"","psychophysics","75","306474","0.0-75.0","64010a38650fe3a1a2de05a9","64de82c6c6704420c06094e7","","","","","2159",""," ","key"," ","6.94441935483877","500","250","br","-18","1","0","5","23","3","203"
"","psychophysics","76","307906","0.0-76.0","64010a38650fe3a1a2de05a9","64de82c6c6704420c06094e7","","","","","1430",""," ","key"," ","6.9445414634146045","500","250","br","-21","1","0","-7","-14","17","249"
"","psychophysics","77","309698","0.0-77.0","64010a38650fe3a1a2de05a9","64de82c6c6704420c06094e7","","","","","1791",""," ","key"," ","6.9442607003890595","500","250","br","-36","1","0","-13","3","27","271"
"","psychophysics","78","312010","0.0-78.0","64010a38650fe3a1a2de05a9","64de82c6c6704420c06094e7","","","","","2311",""," ","key"," ","6.9444518072287975","500","250","br","-28","1","0","11","25","23","257"
"","psychophysics","79","313426","0.0-79.0","64010a38650fe3a1a2de05a9","64de82c6c6704420c06094e7","","","","","1414",""," ","key"," ","6.944330049261194","500","250","br","-21","1","0","-12","20","11","240"
"","psychophysics","80","314746","0.0-80.0","64010a38650fe3a1a2de05a9","64de82c6c6704420c06094e7","","","","","1318",""," ","key"," ","6.944634920634728","500","250","br","-31","1","0","-21","-10","3","215"
"","psychophysics","81","315362","0.0-81.0","64010a38650fe3a1a2de05a9","64de82c6c6704420c06094e7","","","","","615",""," ","key"," ","6.944693181818531","500","250","inst","","","","","","",""
"","psychophysics","82","323979","0.0-82.0","64010a38650fe3a1a2de05a9","64de82c6c6704420c06094e7","","","","","8615",""," ","key"," ","6.944415657788534","500","250","instZol0","0","","","0","0","0",""
"","psychophysics","83","330962","0.0-83.0","64010a38650fe3a1a2de05a9","64de82c6c6704420c06094e7","","","","","6981",""," ","key"," ","6.944390049751209","500","250","instZol1","-0.09999999999999998","","","-1.3","0","0",""
"","psychophysics","84","336634","0.0-84.0","64010a38650fe3a1a2de05a9","64de82c6c6704420c06094e7","","","","","5668",""," ","key"," ","6.944351715686293","500","250","instZol2","2.3000000000000016","1","","2","0","0",""
"","psychophysics","85","337514","0.0-85.0","64010a38650fe3a1a2de05a9","64de82c6c6704420c06094e7","","","","","879",""," ","key"," ","6.943484126984249","500","250","inst","","","","","","",""
"","psychophysics","86","344482","0.0-86.0","64010a38650fe3a1a2de05a9","64de82c6c6704420c06094e7","","","","","6966",""," ","key"," ","6.944457085828363","500","250","zol","3.410000000000002","1","0","-0.51","4","-22",""
"","psychophysics","87","349091","0.0-87.0","64010a38650fe3a1a2de05a9","64de82c6c6704420c06094e7","","","","","4606",""," ","key"," ","6.944392156862808","500","250","zol","1.3500000000000003","1","0","-0.65","27","-11",""
"","psychophysics","88","352858","0.0-88.0","64010a38650fe3a1a2de05a9","64de82c6c6704420c06094e7","","","","","3766",""," ","key"," ","6.9575333333333855","500","250","zol","1.4600000000000002","1","0","0.74","12","-12",""
"","psychophysics","89","354619","0.0-89.0","64010a38650fe3a1a2de05a9","64de82c6c6704420c06094e7","","","","","1756",""," ","key"," ","6.944415019762752","500","250","zol","1.4200000000000004","1","0","-0.12","4","28",""
"","psychophysics","90","356154","0.0-90.0","64010a38650fe3a1a2de05a9","64de82c6c6704420c06094e7","","","","","1533",""," ","key"," ","6.944395454545421","500","250","zol","1.2","1","0","-0.5","-10","25",""
"","psychophysics","91","359514","0.0-91.0","64010a38650fe3a1a2de05a9","64de82c6c6704420c06094e7","","","","","3358",""," ","key"," ","6.944325051759828","500","250","zol","1.12","1","0","0.28","-27","-6",""
"","psychophysics","92","362506","0.0-92.0","64010a38650fe3a1a2de05a9","64de82c6c6704420c06094e7","","","","","2990",""," ","key"," ","6.94448951048948","500","250","zol","0.8799999999999998","1","0","0.62","24","-5",""
"","psychophysics","93","365418","0.0-93.0","64010a38650fe3a1a2de05a9","64de82c6c6704420c06094e7","","","","","2909",""," ","key"," ","6.944305489260119","500","250","zol","1.4300000000000004","1","0","0.17","27","2",""
"","psychophysics","94","367330","0.0-94.0","64010a38650fe3a1a2de05a9","64de82c6c6704420c06094e7","","","","","1909",""," ","key"," ","6.969835164835003","500","250","zol","1.5900000000000003","1","0","-0.49","5","-16",""
"","psychophysics","95","370306","0.0-95.0","64010a38650fe3a1a2de05a9","64de82c6c6704420c06094e7","","","","","2972",""," ","key"," ","6.944359813084081","500","250","zol","2.150000000000001","1","0","-0.65","22","28",""
"","psychophysics","96","373250","0.0-96.0","64010a38650fe3a1a2de05a9","64de82c6c6704420c06094e7","","","","","2942",""," ","key"," ","6.94446335697393","500","250","zol","1.8100000000000007","1","0","0.59","18","-7",""
"","psychophysics","97","376538","0.0-97.0","64010a38650fe3a1a2de05a9","64de82c6c6704420c06094e7","","","","","3285",""," ","key"," ","6.944362288135596","500","250","zol","2.0000000000000004","1","0","-0.3","23","-6",""
"","psychophysics","98","378706","0.0-98.0","64010a38650fe3a1a2de05a9","64de82c6c6704420c06094e7","","","","","2164",""," ","key"," ","6.94436655948545","500","250","zol","1.2","1","0","0.3","4","-2",""
"","psychophysics","99","382403","0.0-99.0","64010a38650fe3a1a2de05a9","64de82c6c6704420c06094e7","","","","","3693",""," ","key"," ","6.944407894736821","500","250","zol","3.420000000000002","1","0","-0.22","1","12",""
"","psychophysics","100","384522","0.0-100.0","64010a38650fe3a1a2de05a9","64de82c6c6704420c06094e7","","","","","2117",""," ","key"," ","6.944328947368424","500","250","zol","2.3000000000000007","1","0","-0.6","21","-2",""
"","psychophysics","101","385186","0.0-101.0","64010a38650fe3a1a2de05a9","64de82c6c6704420c06094e7","","","","","663",""," ","key"," ","6.94453191489385","500","250","inst","","","","","","",""
"","psychophysics","102","391442","0.0-102.0","64010a38650fe3a1a2de05a9","64de82c6c6704420c06094e7","","","","","6253",""," ","key"," ","6.9676410256410115","500","250","instPog0","340","2","","370","0","0","340"
"","psychophysics","103","394482","0.0-103.0","64010a38650fe3a1a2de05a9","64de82c6c6704420c06094e7","","","","","3038",""," ","key"," ","6.944354691075558","500","250","instPog1","346","2","","370","0","0","340"
"","psychophysics","104","398490","0.0-104.0","64010a38650fe3a1a2de05a9","64de82c6c6704420c06094e7","","","","","4007",""," ","key"," ","6.944416666666661","500","250","instPog2","334","2","","340","0","0","340"
"","psychophysics","105","399098","0.0-105.0","64010a38650fe3a1a2de05a9","64de82c6c6704420c06094e7","","","","","607",""," ","key"," ","6.944183908045646","500","250","inst","","","","","","",""
"","psychophysics","106","401594","0.0-106.0","64010a38650fe3a1a2de05a9","64de82c6c6704420c06094e7","","","","","2495",""," ","key"," ","6.944446927374202","500","250","pog","303","2","0","369","0","0","333"
"","psychophysics","107","405034","0.0-107.0","64010a38650fe3a1a2de05a9","64de82c6c6704420c06094e7","","","","","3439",""," ","key"," ","6.9444303030303365","500","250","pog","344","2","0","310","0","0","376"
"","psychophysics","108","408306","0.0-108.0","64010a38650fe3a1a2de05a9","64de82c6c6704420c06094e7","","","","","3270",""," ","key"," ","6.9443446808510725","500","250","pog","321","2","0","377","0","0","361"
"","psychophysics","109","412107","0.0-109.0","64010a38650fe3a1a2de05a9","64de82c6c6704420c06094e7","","","","","3800",""," ","key"," ","6.944402930402878","500","250","pog","266","2","0","370","0","0","302"
"","psychophysics","110","414218","0.0-110.0","64010a38650fe3a1a2de05a9","64de82c6c6704420c06094e7","","","","","2109",""," ","key"," ","6.944475247524679","500","250","pog","321","2","0","363","0","0","339"
"","psychophysics","111","416146","0.0-111.0","64010a38650fe3a1a2de05a9","64de82c6c6704420c06094e7","","","","","1927",""," ","key"," ","6.944364620938549","500","250","pog","348","2","0","364","0","0","374"
"","psychophysics","112","417810","0.0-112.0","64010a38650fe3a1a2de05a9","64de82c6c6704420c06094e7","","","","","1662",""," ","key"," ","6.944436974789968","500","250","pog","320","2","0","302","0","0","334"
"","psychophysics","113","419098","0.0-113.0","64010a38650fe3a1a2de05a9","64de82c6c6704420c06094e7","","","","","1285",""," ","key"," ","6.944383783783839","500","250","pog","352","2","0","348","0","0","376"
"","psychophysics","114","425314","0.0-114.0","64010a38650fe3a1a2de05a9","64de82c6c6704420c06094e7","","","","","6215",""," ","key"," ","6.952164613661809","500","250","pog","281","2","0","379","0","0","301"
"","psychophysics","115","427306","0.0-115.0","64010a38650fe3a1a2de05a9","64de82c6c6704420c06094e7","","","","","1990",""," ","key"," ","6.944059440559607","500","250","pog","358","2","0","398","0","0","375"
"","psychophysics","116","429570","0.0-116.0","64010a38650fe3a1a2de05a9","64de82c6c6704420c06094e7","","","","","2263",""," ","key"," ","6.944513846153859","500","250","pog","290","2","0","352","0","0","309"
"","psychophysics","117","432467","0.0-117.0","64010a38650fe3a1a2de05a9","64de82c6c6704420c06094e7","","","","","2896",""," ","key"," ","6.944444711538381","500","250","pog","283","2","0","379","0","0","306"
"","psychophysics","118","433626","0.0-118.0","64010a38650fe3a1a2de05a9","64de82c6c6704420c06094e7","","","","","1157",""," ","key"," ","6.9863454545452965","500","250","pog","318","2","0","318","0","0","324"
"","psychophysics","119","436218","0.0-119.0","64010a38650fe3a1a2de05a9","64de82c6c6704420c06094e7","","","","","2590",""," ","key"," ","6.944548387096704","500","250","pog","342","2","0","366","0","0","347"
"","psychophysics","120","438027","0.0-120.0","64010a38650fe3a1a2de05a9","64de82c6c6704420c06094e7","","","","","1808",""," ","key"," ","6.944320463320568","500","250","pog","335","2","0","355","0","0","338"
"","psychophysics","121","438722","0.0-121.0","64010a38650fe3a1a2de05a9","64de82c6c6704420c06094e7","","","","","692",""," ","key"," ","6.943769999999786","500","250","inst","","","","","","",""
"","psychophysics","122","441586","0.0-122.0","64010a38650fe3a1a2de05a9","64de82c6c6704420c06094e7","","","","","2863",""," ","key"," ","6.944574209245674","500","250","instZol1","0.4","","","-1.3","0","0",""
"","psychophysics","123","487363","0.0-123.0","64010a38650fe3a1a2de05a9","64de82c6c6704420c06094e7","","","","","45774",""," ","key"," ","6.954964443093752","500","250","instZol2","-2.6000000000000005","2","","2","0","0",""
"","psychophysics","124","489162","0.0-124.0","64010a38650fe3a1a2de05a9","64de82c6c6704420c06094e7","","","","","1798",""," ","key"," ","6.9444689922481","500","250","inst","","","","","","",""
"","psychophysics","125","492306","0.0-125.0","64010a38650fe3a1a2de05a9","64de82c6c6704420c06094e7","","","","","3142",""," ","key"," ","6.944327433628342","500","250","zol","-0.59","2","1","0.59","-28","19",""
"","psychophysics","126","494618","0.0-126.0","64010a38650fe3a1a2de05a9","64de82c6c6704420c06094e7","","","","","2310",""," ","key"," ","6.9445753012047815","500","250","zol","-1.0299999999999998","2","1","-0.67","21","-26",""
"","psychophysics","127","498178","0.0-127.0","64010a38650fe3a1a2de05a9","64de82c6c6704420c06094e7","","","","","3558",""," ","key"," ","6.9443483365948655","500","250","zol","-1.9300000000000008","2","1","0.53","17","30",""
"","psychophysics","128","501906","0.0-128.0","64010a38650fe3a1a2de05a9","64de82c6c6704420c06094e7","","","","","3724",""," ","key"," ","6.957375700934682","500","250","zol","-1.7600000000000005","2","1","-0.44","-25","24",""
"","psychophysics","129","503722","0.0-129.0","64010a38650fe3a1a2de05a9","64de82c6c6704420c06094e7","","","","","1812",""," ","key"," ","6.94424137931029","500","250","zol","-1.5400000000000005","2","1","-0.36","14","-17",""
"","psychophysics","130","505418","0.0-130.0","64010a38650fe3a1a2de05a9","64de82c6c6704420c06094e7","","","","","1694",""," ","key"," ","6.9446543209878016","500","250","zol","-1.5200000000000005","2","1","0.02","-3","-11",""
"","psychophysics","131","507499","0.0-131.0","64010a38650fe3a1a2de05a9","64de82c6c6704420c06094e7","","","","","2079",""," ","key"," ","6.944288590603982","500","250","zol","-2.240000000000001","2","1","0.34","29","15",""
"","psychophysics","132","509132","0.0-132.0","64010a38650fe3a1a2de05a9","64de82c6c6704420c06094e7","","","","","1630",""," ","key"," ","6.974307692307744","500","250","zol","-1.8700000000000006","2","1","-0.03","-3","-19",""
"","psychophysics","133","510764","0.0-133.0","64010a38650fe3a1a2de05a9","64de82c6c6704420c06094e7","","","","","1630",""," ","key"," ","6.944418803418829","500","250","zol","-1.8200000000000007","2","1","-0.18","-19","29",""
"","psychophysics","134","512370","0.0-134.0","64010a38650fe3a1a2de05a9","64de82c6c6704420c06094e7","","","","","1604",""," ","key"," ","6.944486956521818","500","250","zol","-1.7100000000000006","2","1","-0.19","11","5",""
"","psychophysics","135","513882","0.0-135.0","64010a38650fe3a1a2de05a9","64de82c6c6704420c06094e7","","","","","1510",""," ","key"," ","6.9444239631336515","500","250","zol","-1.8400000000000007","2","1","0.74","-1","-9",""
"","psychophysics","136","515570","0.0-136.0","64010a38650fe3a1a2de05a9","64de82c6c6704420c06094e7","","","","","1686",""," ","key"," ","6.944545454545281","500","250","zol","-1.6600000000000004","2","1","-0.64","-2","-7",""
"","psychophysics","137","516858","0.0-137.0","64010a38650fe3a1a2de05a9","64de82c6c6704420c06094e7","","","","","1286",""," ","key"," ","6.944347826086691","500","250","zol","-1.3500000000000003","2","1","0.55","-28","-13",""
"","psychophysics","138","518715","0.0-138.0","64010a38650fe3a1a2de05a9","64de82c6c6704420c06094e7","","","","","1852",""," ","key"," ","6.944270676691864","500","250","zol","-2.150000000000001","2","1","-0.55","-21","-10",""
"","psychophysics","139","520210","0.0-139.0","64010a38650fe3a1a2de05a9","64de82c6c6704420c06094e7","","","","","1493",""," ","key"," ","6.944362790697676","500","250","zol","-2.250000000000001","2","1","0.25","-19","-1",""
"","psychophysics","140","521042","0.0-140.0","64010a38650fe3a1a2de05a9","64de82c6c6704420c06094e7","","","","","831",""," ","key"," ","6.944235294117659","500","250","inst","","","","","","",""
"","psychophysics","141","528195","0.0-141.0","64010a38650fe3a1a2de05a9","64de82c6c6704420c06094e7","","","","","7151",""," ","key"," ","6.9443838678328556","500","250","instBr3","11","2","","40","0","0","300"
"","psychophysics","142","529451","0.0-142.0","64010a38650fe3a1a2de05a9","64de82c6c6704420c06094e7","","","","","1255",""," ","key"," ","6.944687150837593","500","250","inst","","","","","","",""
"","psychophysics","143","531618","0.0-143.0","64010a38650fe3a1a2de05a9","64de82c6c6704420c06094e7","","","","","2166",""," ","key"," ","6.944500000000027","500","250","br","32","2","1","7","-21","17","233"
"","psychophysics","144","532306","0.0-144.0","64010a38650fe3a1a2de05a9","64de82c6c6704420c06094e7","","","","","686",""," ","key"," ","6.944357142857352","500","250","br","18","2","1","18","21","-24","287"
"","psychophysics","145","533659","0.0-145.0","64010a38650fe3a1a2de05a9","64de82c6c6704420c06094e7","","","","","1351",""," ","key"," ","6.944601036269227","500","250","br","41","2","1","30","-15","-16","255"
"","psychophysics","146","535291","0.0-146.0","64010a38650fe3a1a2de05a9","64de82c6c6704420c06094e7","","","","","1629",""," ","key"," ","6.944387234042478","500","250","br","28","2","1","10","13","24","286"
"","psychophysics","147","537026","0.0-147.0","64010a38650fe3a1a2de05a9","64de82c6c6704420c06094e7","","","","","1733",""," ","key"," ","6.944330645161362","500","250","br","22","2","1","-2","-12","-25","215"
"","psychophysics","148","537874","0.0-148.0","64010a38650fe3a1a2de05a9","64de82c6c6704420c06094e7","","","","","845",""," ","key"," ","6.944704918032436","500","250","br","14","2","1","13","25","28","269"
"","psychophysics","149","540410","0.0-149.0","64010a38650fe3a1a2de05a9","64de82c6c6704420c06094e7","","","","","2534",""," ","key"," ","6.944442307692313","500","250","br","23","2","1","-15","11","0","258"
"","psychophysics","150","542547","0.0-150.0","64010a38650fe3a1a2de05a9","64de82c6c6704420c06094e7","","","","","2134",""," ","key"," ","6.944421568627506","500","250","br","28","2","1","-10","-18","4","208"
"","psychophysics","151","545507","0.0-151.0","64010a38650fe3a1a2de05a9","64de82c6c6704420c06094e7","","","","","2958",""," ","key"," ","6.944281690140766","500","250","br","24","2","1","-16","-21","8","228"
"","psychophysics","152","547514","0.0-152.0","64010a38650fe3a1a2de05a9","64de82c6c6704420c06094e7","","","","","2005",""," ","key"," ","6.9443090277778134","500","250","br","22","2","1","-8","-3","-2","293"
"","psychophysics","153","549802","0.0-153.0","64010a38650fe3a1a2de05a9","64de82c6c6704420c06094e7","","","","","2287",""," ","key"," ","6.944487804878097","500","250","br","32","2","1","-8","7","30","230"
"","psychophysics","154","551842","0.0-154.0","64010a38650fe3a1a2de05a9","64de82c6c6704420c06094e7","","","","","2038",""," ","key"," ","6.944508532422941","500","250","br","36","2","1","0","-23","-18","266"
"","psychophysics","155","553522","0.0-155.0","64010a38650fe3a1a2de05a9","64de82c6c6704420c06094e7","","","","","1678",""," ","key"," ","6.944282157676047","500","250","br","30","2","1","5","23","9","299"
"","psychophysics","156","555426","0.0-156.0","64010a38650fe3a1a2de05a9","64de82c6c6704420c06094e7","","","","","1903",""," ","key"," ","6.944490842490914","500","250","br","22","2","1","-10","22","-4","238"
"","psychophysics","157","556746","0.0-157.0","64010a38650fe3a1a2de05a9","64de82c6c6704420c06094e7","","","","","1318",""," ","key"," ","6.944428571428434","500","250","br","34","2","1","19","0","11","200"
"","psychophysics","158","557378","0.0-158.0","64010a38650fe3a1a2de05a9","64de82c6c6704420c06094e7","","","","","631",""," ","key"," ","6.944355555555214","500","250","inst","","","","","","",""
"","psychophysics","159","563298","0.0-159.0","64010a38650fe3a1a2de05a9","64de82c6c6704420c06094e7","","","","","5917",""," ","key"," ","6.9444037558685245","500","250","instPog0","160","1","","190","0","0","160"
"","psychophysics","160","565930","0.0-160.0","64010a38650fe3a1a2de05a9","64de82c6c6704420c06094e7","","","","","2630",""," ","key"," ","6.944404761905033","500","250","instPog1","160","1","","190","0","0","160"
"","psychophysics","161","572651","0.0-161.0","64010a38650fe3a1a2de05a9","64de82c6c6704420c06094e7","","","","","6719",""," ","key"," ","6.944410973084863","500","250","instPog2","180","1","","160","0","0","160"
"","psychophysics","162","573763","0.0-162.0","64010a38650fe3a1a2de05a9","64de82c6c6704420c06094e7","","","","","1110",""," ","key"," ","6.944358490566348","500","250","inst","","","","","","",""
"","psychophysics","163","577754","0.0-163.0","64010a38650fe3a1a2de05a9","64de82c6c6704420c06094e7","","","","","3990",""," ","key"," ","6.944444250871139","500","250","pog","205","1","1","133","0","0","178"
"","psychophysics","164","580283","0.0-164.0","64010a38650fe3a1a2de05a9","64de82c6c6704420c06094e7","","","","","2526",""," ","key"," ","6.944363636363326","500","250","pog","165","1","1","209","0","0","131"
"","psychophysics","165","582026","0.0-165.0","64010a38650fe3a1a2de05a9","64de82c6c6704420c06094e7","","","","","1741",""," ","key"," ","6.9441240000003015","500","250","pog","174","1","1","172","0","0","162"
"","psychophysics","166","584218","0.0-166.0","64010a38650fe3a1a2de05a9","64de82c6c6704420c06094e7","","","","","2189",""," ","key"," ","6.944412698412669","500","250","pog","164","1","1","122","0","0","150"
"","psychophysics","167","585018","0.0-167.0","64010a38650fe3a1a2de05a9","64de82c6c6704420c06094e7","","","","","799",""," ","key"," ","6.9444035087720275","500","250","pog","183","1","1","183","0","0","166"
"","psychophysics","168","588714","0.0-168.0","64010a38650fe3a1a2de05a9","64de82c6c6704420c06094e7","","","","","3694",""," ","key"," ","6.944458646616632","500","250","pog","191","1","1","187","0","0","169"
"","psychophysics","169","590274","0.0-169.0","64010a38650fe3a1a2de05a9","64de82c6c6704420c06094e7","","","","","1559",""," ","key"," ","6.944484304932715","500","250","pog","184","1","1","202","0","0","152"
"","psychophysics","170","592778","0.0-170.0","64010a38650fe3a1a2de05a9","64de82c6c6704420c06094e7","","","","","2502",""," ","key"," ","6.944355555555537","500","250","pog","220","1","1","164","0","0","172"
"","psychophysics","171","595154","0.0-171.0","64010a38650fe3a1a2de05a9","64de82c6c6704420c06094e7","","","","","2374",""," ","key"," ","6.944331378299099","500","250","pog","200","1","1","178","0","0","177"
"","psychophysics","172","596738","0.0-172.0","64010a38650fe3a1a2de05a9","64de82c6c6704420c06094e7","","","","","1582",""," ","key"," ","6.944515418502326","500","250","pog","144","1","1","160","0","0","120"
"","psychophysics","173","597698","0.0-173.0","64010a38650fe3a1a2de05a9","64de82c6c6704420c06094e7","","","","","959",""," ","key"," ","6.944518248175005","500","250","pog","168","1","1","168","0","0","132"
"","psychophysics","174","599187","0.0-174.0","64010a38650fe3a1a2de05a9","64de82c6c6704420c06094e7","","","","","1486",""," ","key"," ","7.009830188678846","500","250","pog","167","1","1","189","0","0","149"
"","psychophysics","175","600771","0.0-175.0","64010a38650fe3a1a2de05a9","64de82c6c6704420c06094e7","","","","","1582",""," ","key"," ","6.944229074890237","500","250","pog","178","1","1","206","0","0","158"
"","psychophysics","176","601243","0.0-176.0","64010a38650fe3a1a2de05a9","64de82c6c6704420c06094e7","","","","","471",""," ","key"," ","6.9444328358209235","500","250","pog","175","1","1","175","0","0","159"
"","psychophysics","177","605170","0.0-177.0","64010a38650fe3a1a2de05a9","64de82c6c6704420c06094e7","","","","","3926",""," ","key"," ","6.944413120567539","500","250","pog","199","1","1","101","0","0","180"
"","psychophysics","178","605802","0.0-178.0","64010a38650fe3a1a2de05a9","64de82c6c6704420c06094e7","","","","","629",""," ","key"," ","6.9442000000000315","500","250","inst","","","","","","",""
"","psychophysics","179","612066","0.0-179.0","64010a38650fe3a1a2de05a9","64de82c6c6704420c06094e7","","","","","6262",""," ","key"," ","6.94443507214205","500","250","instPz1","52","1","","25","","","50"
"","psychophysics","180","613971","0.0-180.0","64010a38650fe3a1a2de05a9","64de82c6c6704420c06094e7","","","","","1902",""," ","key"," ","6.944273722627417","500","250","instPz2","27","1","","35","","","20"
"","psychophysics","181","615434","0.0-181.0","64010a38650fe3a1a2de05a9","64de82c6c6704420c06094e7","","","","","1461",""," ","key"," ","6.944655502392714","500","250","instPz3","100","1","","100","","","30"
"","psychophysics","182","618314","0.0-182.0","64010a38650fe3a1a2de05a9","64de82c6c6704420c06094e7","","","","","2877",""," ","key"," ","6.944330917874347","500","250","instPz4","102","1","","100","","","30"
"","psychophysics","183","618931","0.0-183.0","64010a38650fe3a1a2de05a9","64de82c6c6704420c06094e7","","","","","615",""," ","key"," ","6.944579545454789","500","250","inst","","","","","","",""
"","psychophysics","184","624187","0.0-184.0","64010a38650fe3a1a2de05a9","64de82c6c6704420c06094e7","","","","","5254",""," ","key"," ","6.944402116402108","500","250","pz","123","1","1","41","","","53"
"","psychophysics","185","627043","0.0-185.0","64010a38650fe3a1a2de05a9","64de82c6c6704420c06094e7","","","","","2854",""," ","key"," ","6.944509756097445","500","250","pz","75","1","1","22","","","46"
"","psychophysics","186","629522","0.0-186.0","64010a38650fe3a1a2de05a9","64de82c6c6704420c06094e7","","","","","2478",""," ","key"," ","6.983576271186404","500","250","pz","87","1","1","38","","","36"
"","psychophysics","187","631395","0.0-187.0","64010a38650fe3a1a2de05a9","64de82c6c6704420c06094e7","","","","","1870",""," ","key"," ","6.944486988847296","500","250","pz","70","1","1","44","","","37"
"","psychophysics","188","633075","0.0-188.0","64010a38650fe3a1a2de05a9","64de82c6c6704420c06094e7","","","","","1678",""," ","key"," ","7.0027268907562","500","250","pz","61","1","1","38","","","31"
"","psychophysics","189","634362","0.0-189.0","64010a38650fe3a1a2de05a9","64de82c6c6704420c06094e7","","","","","1285",""," ","key"," ","6.944367567567482","500","250","pz","56","1","1","42","","","20"
"","psychophysics","190","638179","0.0-190.0","64010a38650fe3a1a2de05a9","64de82c6c6704420c06094e7","","","","","3815",""," ","key"," ","6.944394160583819","500","250","pz","115","1","1","31","","","39"
"","psychophysics","191","640138","0.0-191.0","64010a38650fe3a1a2de05a9","64de82c6c6704420c06094e7","","","","","1957",""," ","key"," ","6.943326241134481","500","250","pz","79","1","1","49","","","26"
"","psychophysics","192","641690","0.0-192.0","64010a38650fe3a1a2de05a9","64de82c6c6704420c06094e7","","","","","1550",""," ","key"," ","6.9445765765765595","500","250","pz","54","1","1","40","","","27"
"","psychophysics","193","645195","0.0-193.0","64010a38650fe3a1a2de05a9","64de82c6c6704420c06094e7","","","","","3502",""," ","key"," ","6.944434523809514","500","250","pz","108","1","1","36","","","53"
"","psychophysics","194","646731","0.0-194.0","64010a38650fe3a1a2de05a9","64de82c6c6704420c06094e7","","","","","1534",""," ","key"," ","6.9442227272729555","500","250","pz","58","1","1","45","","","24"
"","psychophysics","195","647411","0.0-195.0","64010a38650fe3a1a2de05a9","64de82c6c6704420c06094e7","","","","","678",""," ","key"," ","6.9442061855668955","500","250","pz","61","1","1","60","","","21"
"","psychophysics","196","650563","0.0-196.0","64010a38650fe3a1a2de05a9","64de82c6c6704420c06094e7","","","","","3150",""," ","key"," ","6.9442980132450165","500","250","pz","107","1","1","42","","","31"
"","psychophysics","197","652755","0.0-197.0","64010a38650fe3a1a2de05a9","64de82c6c6704420c06094e7","","","","","2190",""," ","key"," ","6.94438216560498","500","250","pz","56","1","1","25","","","38"
"","psychophysics","198","655674","0.0-198.0","64010a38650fe3a1a2de05a9","64de82c6c6704420c06094e7","","","","","2917",""," ","key"," ","6.944273809523743","500","250","pz","109","1","1","59","","","48"
"","psychophysics","199","656906","0.0-199.0","64010a38650fe3a1a2de05a9","64de82c6c6704420c06094e7","","","","","1231",""," ","key"," ","6.944420454545417","500","250","inst","","","","","","",""
"","psychophysics","200","662082","0.0-200.0","64010a38650fe3a1a2de05a9","64de82c6c6704420c06094e7","","","","","5173",""," ","key"," ","6.972540431266847","500","250","instEB1","31","1","","40","0","0","30"
"","psychophysics","201","664066","0.0-201.0","64010a38650fe3a1a2de05a9","64de82c6c6704420c06094e7","","","","","1982",""," ","key"," ","6.9441971830985985","500","250","instEB2","39","1","","30","0","0","40"
"","psychophysics","202","666002","0.0-202.0","64010a38650fe3a1a2de05a9","64de82c6c6704420c06094e7","","","","","1933",""," ","key"," ","6.9443417266187115","500","250","instEB3","43","1","","27","0","0","45"
"","psychophysics","203","667986","0.0-203.0","64010a38650fe3a1a2de05a9","64de82c6c6704420c06094e7","","","","","1982",""," ","key"," ","6.944445614035144","500","250","instEB4","30","1","","40","0","0","30"
"","psychophysics","204","669034","0.0-204.0","64010a38650fe3a1a2de05a9","64de82c6c6704420c06094e7","","","","","1047",""," ","key"," ","6.944533333332899","500","250","inst","","","","","","",""
"","psychophysics","205","670834","0.0-205.0","64010a38650fe3a1a2de05a9","64de82c6c6704420c06094e7","","","","","1797",""," ","key"," ","6.944565891472771","500","250","eb","37","1","","37","0","0","41"
"","psychophysics","206","674050","0.0-206.0","64010a38650fe3a1a2de05a9","64de82c6c6704420c06094e7","","","","","3214",""," ","key"," ","6.944406926406908","500","250","eb","56","1","","35","0","0","53"
"","psychophysics","207","676298","0.0-207.0","64010a38650fe3a1a2de05a9","64de82c6c6704420c06094e7","","","","","2247",""," ","key"," ","6.944402476780235","500","250","eb","25","1","","40","0","0","29"
"","psychophysics","208","678354","0.0-208.0","64010a38650fe3a1a2de05a9","64de82c6c6704420c06094e7","","","","","2054",""," ","key"," ","6.944325423728817","500","250","eb","44","1","","28","0","0","43"
"","psychophysics","209","679867","0.0-209.0","64010a38650fe3a1a2de05a9","64de82c6c6704420c06094e7","","","","","1511",""," ","key"," ","6.944456221198358","500","250","eb","48","1","","32","0","0","45"
"","psychophysics","210","681266","0.0-210.0","64010a38650fe3a1a2de05a9","64de82c6c6704420c06094e7","","","","","1398",""," ","key"," ","6.979286432160935","500","250","eb","49","1","","35","0","0","50"
"","psychophysics","211","683066","0.0-211.0","64010a38650fe3a1a2de05a9","64de82c6c6704420c06094e7","","","","","1796",""," ","key"," ","6.943794573643678","500","250","eb","38","1","","47","0","0","39"
"","psychophysics","212","685194","0.0-212.0","64010a38650fe3a1a2de05a9","64de82c6c6704420c06094e7","","","","","2125",""," ","key"," ","6.9443235294117285","500","250","eb","43","1","","47","0","0","40"
"","psychophysics","213","687426","0.0-213.0","64010a38650fe3a1a2de05a9","64de82c6c6704420c06094e7","","","","","2230",""," ","key"," ","6.944493750000038","500","250","eb","44","1","","24","0","0","49"
"","psychophysics","214","690547","0.0-214.0","64010a38650fe3a1a2de05a9","64de82c6c6704420c06094e7","","","","","3117",""," ","key"," ","6.95991964285713","500","250","eb","22","1","","30","0","0","24"
"","psychophysics","215","694082","0.0-215.0","64010a38650fe3a1a2de05a9","64de82c6c6704420c06094e7","","","","","3533",""," ","key"," ","6.944322834645699","500","250","eb","25","1","","50","0","0","30"
"","psychophysics","216","696082","0.0-216.0","64010a38650fe3a1a2de05a9","64de82c6c6704420c06094e7","","","","","1998",""," ","key"," ","6.944216027874532","500","250","eb","50","1","","33","0","0","50"
"","psychophysics","217","698730","0.0-217.0","64010a38650fe3a1a2de05a9","64de82c6c6704420c06094e7","","","","","2646",""," ","key"," ","6.944421052631591","500","250","eb","50","1","","32","0","0","54"
"","psychophysics","218","701707","0.0-218.0","64010a38650fe3a1a2de05a9","64de82c6c6704420c06094e7","","","","","2975",""," ","key"," ","6.9444602803736775","500","250","eb","31","1","","51","0","0","32"
"","psychophysics","219","704634","0.0-219.0","64010a38650fe3a1a2de05a9","64de82c6c6704420c06094e7","","","","","2925",""," ","key"," ","6.9444190476189505","500","250","eb","38","1","","53","0","0","44"
