"success","trial_type","trial_index","time_elapsed","internal_node_id","pid","sid","timeout","failed_images","failed_audio","failed_video","rt","stimulus","response","response_type","key_press","avg_frame_time","center_x","center_y","task","resp","version","block","jitterX","jitterY","start","parA"
"true","fullscreen","0","3741","0.0-0.0","631c07ce7e0c76f62a1bd822","64de660e700513704b84dde9","","","","","","","","","","","","","","","","","","","",""
"true","preload","1","3776","0.0-1.0","631c07ce7e0c76f62a1bd822","64de660e700513704b84dde9","false","[]","[]","[]","","","","","","","","","","","","","","","",""
"","html-button-response","2","5052","0.0-2.0","631c07ce7e0c76f62a1bd822","64de660e700513704b84dde9","","","","","1275","Please Make Sure Your Audio Is On.","0","","","","","","","","","","","","",""
"","psychophysics","3","9584","0.0-3.0","631c07ce7e0c76f62a1bd822","64de660e700513704b84dde9","","","","","4528",""," ","key"," ","6.945007656967841","960","250","","","","","","","",""
"","psychophysics","4","15331","0.0-4.0","631c07ce7e0c76f62a1bd822","64de660e700513704b84dde9","","","","","5746",""," ","key"," ","6.945466101694917","500","250","inst","","","","","","",""
"","psychophysics","5","18677","0.0-5.0","631c07ce7e0c76f62a1bd822","64de660e700513704b84dde9","","","","","3345",""," ","key"," ","6.945588357588361","500","250","sample0","","","","","","",""
"","psychophysics","6","20945","0.0-6.0","631c07ce7e0c76f62a1bd822","64de660e700513704b84dde9","","","","","2267",""," ","key"," ","6.9456399999999965","500","250","sample1","","","","","","",""
"","psychophysics","7","36447","0.0-7.0","631c07ce7e0c76f62a1bd822","64de660e700513704b84dde9","","","","","15500",""," ","key"," ","6.951570403587443","500","250","sample2","100","","","","","",""
"","psychophysics","8","43251","0.0-8.0","631c07ce7e0c76f62a1bd822","64de660e700513704b84dde9","","","","","6804",""," ","key"," ","6.945333333333333","500","250","sample3","100","","","","","",""
"","psychophysics","9","66883","0.0-9.0","631c07ce7e0c76f62a1bd822","64de660e700513704b84dde9","","","","","23629",""," ","key"," ","6.9453212815990595","500","250","sample4","102","","","","","",""
"","psychophysics","10","70784","0.0-10.0","631c07ce7e0c76f62a1bd822","64de660e700513704b84dde9","","","","","3899",""," ","key"," ","6.9451265597147955","500","250","sample5","","","","","","",""
"","psychophysics","11","81050","0.0-11.0","631c07ce7e0c76f62a1bd822","64de660e700513704b84dde9","","","","","10265",""," ","key"," ","6.9452951929587","500","250","sample6","498","","","","","",""
"","psychophysics","12","91291","0.0-12.0","631c07ce7e0c76f62a1bd822","64de660e700513704b84dde9","","","","","10240",""," ","key"," ","6.945266123557371","500","250","inst","","","","","","",""
"","psychophysics","13","94801","0.0-13.0","631c07ce7e0c76f62a1bd822","64de660e700513704b84dde9","","","","","3509",""," ","key"," ","6.945279207920781","500","250","inst","","","","","","",""
"","psychophysics","14","99702","0.0-14.0","631c07ce7e0c76f62a1bd822","64de660e700513704b84dde9","","","","","4901",""," ","key"," ","6.945318181818183","500","250","inst","","","","","","",""
"","psychophysics","15","101019","0.0-15.0","631c07ce7e0c76f62a1bd822","64de660e700513704b84dde9","","","","","1316",""," ","key"," ","6.9459947089947365","500","250","inst","","","","","","",""
"","psychophysics","16","102016","0.0-16.0","631c07ce7e0c76f62a1bd822","64de660e700513704b84dde9","","","","","996",""," ","key"," ","6.944774647887295","500","250","inst","","","","","","",""
"","psychophysics","17","104007","0.0-17.0","631c07ce7e0c76f62a1bd822","64de660e700513704b84dde9","","","","","1988",""," ","key"," ","6.945884615384619","500","250","instBr0","0","","","0","0","0","300"
"","psychophysics","18","110662","0.0-18.0","631c07ce7e0c76f62a1bd822","64de660e700513704b84dde9","","","","","6654",""," ","key"," ","6.945398119122271","500","250","instBr1","-1","","","0","0","-40","300"
"","psychophysics","19","120620","0.0-19.0","631c07ce7e0c76f62a1bd822","64de660e700513704b84dde9","","","","","9958",""," ","key"," ","6.945394975575708","500","250","instBr3","-20","1","","0","0","40","300"
"","psychophysics","20","122614","0.0-20.0","631c07ce7e0c76f62a1bd822","64de660e700513704b84dde9","","","","","1993",""," ","key"," ","6.945587412587445","500","250","inst","","","","","","",""
"","psychophysics","21","130616","0.0-21.0","631c07ce7e0c76f62a1bd822","64de660e700513704b84dde9","","","","","null","","null","key","null","6.951389565217377","500","250","br","-17","1","0","-29","30","-29","289"
"","psychophysics","22","138617","0.0-22.0","631c07ce7e0c76f62a1bd822","64de660e700513704b84dde9","","","","","null","","null","key","null","6.945297132927898","500","250","br","-11","1","0","-4","-23","25","225"
"","psychophysics","23","146620","0.0-23.0","631c07ce7e0c76f62a1bd822","64de660e700513704b84dde9","","","","","null","","null","key","null","6.945360556038241","500","250","br","-14","1","0","-9","5","-14","200"
"","psychophysics","24","154622","0.0-24.0","631c07ce7e0c76f62a1bd822","64de660e700513704b84dde9","","","","","null","","null","key","null","6.945272569444443","500","250","br","-19","1","0","-21","-18","-30","239"
"","psychophysics","25","162623","0.0-25.0","631c07ce7e0c76f62a1bd822","64de660e700513704b84dde9","","","","","null","","null","key","null","6.945296264118152","500","250","br","-21","1","0","26","-6","16","249"
"","psychophysics","26","170623","0.0-26.0","631c07ce7e0c76f62a1bd822","64de660e700513704b84dde9","","","","","null","","null","key","null","6.945331016507386","500","250","br","-12","1","0","28","-1","-29","203"
"","psychophysics","27","178039","0.0-27.0","631c07ce7e0c76f62a1bd822","64de660e700513704b84dde9","","","","","7410",""," ","key"," ","6.945303939962466","500","250","br","-8","1","0","10","-25","-24","217"
"","psychophysics","28","186032","0.0-28.0","631c07ce7e0c76f62a1bd822","64de660e700513704b84dde9","","","","","7992",""," ","key"," ","6.945371304347822","500","250","br","-14","1","0","-28","-29","-9","268"
"","psychophysics","29","192940","0.0-29.0","631c07ce7e0c76f62a1bd822","64de660e700513704b84dde9","","","","","6907",""," ","key"," ","6.945319919517118","500","250","br","-11","1","0","1","25","8","263"
"","psychophysics","30","200194","0.0-30.0","631c07ce7e0c76f62a1bd822","64de660e700513704b84dde9","","","","","7253",""," ","key"," ","6.945390220517725","500","250","br","-9","1","0","28","-26","-16","297"
"","psychophysics","31","207575","0.0-31.0","631c07ce7e0c76f62a1bd822","64de660e700513704b84dde9","","","","","7380",""," ","key"," ","6.945378531073445","500","250","br","-10","1","0","12","7","1","231"
"","psychophysics","32","212243","0.0-32.0","631c07ce7e0c76f62a1bd822","64de660e700513704b84dde9","","","","","4667",""," ","key"," ","6.945305514157956","500","250","br","-14","1","0","24","30","20","252"
"","psychophysics","33","220244","0.0-33.0","631c07ce7e0c76f62a1bd822","64de660e700513704b84dde9","","","","","null","","null","key","null","6.945310165073845","500","250","br","-18","1","0","25","14","-3","237"
"","psychophysics","34","227048","0.0-34.0","631c07ce7e0c76f62a1bd822","64de660e700513704b84dde9","","","","","6803",""," ","key"," ","6.945326864147095","500","250","br","-13","1","0","-15","17","-24","270"
"","psychophysics","35","233215","0.0-35.0","631c07ce7e0c76f62a1bd822","64de660e700513704b84dde9","","","","","6166",""," ","key"," ","6.945343855693337","500","250","br","-14","1","0","14","-8","-1","242"
"","psychophysics","36","240473","0.0-36.0","631c07ce7e0c76f62a1bd822","64de660e700513704b84dde9","","","","","7258",""," ","key"," ","6.945334291187743","500","250","inst","","","","","","",""
"","psychophysics","37","242689","0.0-37.0","631c07ce7e0c76f62a1bd822","64de660e700513704b84dde9","","","","","2215",""," ","key"," ","6.945408805031399","500","250","instPzPre","50","0","","","","50","50"
"","psychophysics","38","245355","0.0-38.0","631c07ce7e0c76f62a1bd822","64de660e700513704b84dde9","","","","","2665",""," ","key"," ","6.945328981723203","500","250","instPz0","50","1","","","","50","50"
"","psychophysics","39","256653","0.0-39.0","631c07ce7e0c76f62a1bd822","64de660e700513704b84dde9","","","","","11297",""," ","key"," ","6.9667506172839495","500","250","instPz1","179","1","","","","25","50"
"","psychophysics","40","263033","0.0-40.0","631c07ce7e0c76f62a1bd822","64de660e700513704b84dde9","","","","","6379",""," ","key"," ","6.945346405228768","500","250","instPz2","149","1","","","","35","20"
"","psychophysics","41","267989","0.0-41.0","631c07ce7e0c76f62a1bd822","64de660e700513704b84dde9","","","","","4954",""," ","key"," ","6.945293127629742","500","250","instPz3","118","1","","","","100","30"
"","psychophysics","42","282026","0.0-42.0","631c07ce7e0c76f62a1bd822","64de660e700513704b84dde9","","","","","14036",""," ","key"," ","6.945286138613863","500","250","instPz4","166","1","","","","100","30"
"","psychophysics","43","288412","0.0-43.0","631c07ce7e0c76f62a1bd822","64de660e700513704b84dde9","","","","","6385",""," ","key"," ","6.945335511982602","500","250","inst","","","","","","",""
"","psychophysics","44","296413","0.0-44.0","631c07ce7e0c76f62a1bd822","64de660e700513704b84dde9","","","","","null","","null","key","null","6.945284969591648","500","250","pz","157","1","0","","","40","21"
"","psychophysics","45","304415","0.0-45.0","631c07ce7e0c76f62a1bd822","64de660e700513704b84dde9","","","","","null","","null","key","null","6.9452875760208626","500","250","pz","162","1","0","","","33","30"
"","psychophysics","46","312417","0.0-46.0","631c07ce7e0c76f62a1bd822","64de660e700513704b84dde9","","","","","null","","null","key","null","6.945333622936601","500","250","pz","185","1","0","","","20","41"
"","psychophysics","47","320419","0.0-47.0","631c07ce7e0c76f62a1bd822","64de660e700513704b84dde9","","","","","null","","null","key","null","6.945294526498683","500","250","pz","168","1","0","","","22","33"
"","psychophysics","48","328421","0.0-48.0","631c07ce7e0c76f62a1bd822","64de660e700513704b84dde9","","","","","null","","null","key","null","6.945290798611091","500","250","pz","194","1","0","","","30","55"
"","psychophysics","49","336422","0.0-49.0","631c07ce7e0c76f62a1bd822","64de660e700513704b84dde9","","","","","null","","null","key","null","6.945311033883592","500","250","pz","191","1","0","","","43","53"
"","psychophysics","50","344423","0.0-50.0","631c07ce7e0c76f62a1bd822","64de660e700513704b84dde9","","","","","null","","null","key","null","6.9513799999999994","500","250","pz","197","1","0","","","41","60"
"","psychophysics","51","352425","0.0-51.0","631c07ce7e0c76f62a1bd822","64de660e700513704b84dde9","","","","","null","","null","key","null","6.945295395308405","500","250","pz","176","1","0","","","37","33"
"","psychophysics","52","360426","0.0-52.0","631c07ce7e0c76f62a1bd822","64de660e700513704b84dde9","","","","","null","","null","key","null","6.945311902693313","500","250","pz","183","1","0","","","41","46"
"","psychophysics","53","368428","0.0-53.0","631c07ce7e0c76f62a1bd822","64de660e700513704b84dde9","","","","","null","","null","key","null","6.945323197219793","500","250","pz","154","1","0","","","54","20"
"","psychophysics","54","376429","0.0-54.0","631c07ce7e0c76f62a1bd822","64de660e700513704b84dde9","","","","","null","","null","key","null","6.94532145960035","500","250","pz","181","1","0","","","47","45"
"","psychophysics","55","384432","0.0-55.0","631c07ce7e0c76f62a1bd822","64de660e700513704b84dde9","","","","","null","","null","key","null","6.945343179843586","500","250","pz","194","1","0","","","36","49"
"","psychophysics","56","392434","0.0-56.0","631c07ce7e0c76f62a1bd822","64de660e700513704b84dde9","","","","","null","","null","key","null","6.945317984361414","500","250","pz","195","1","0","","","50","54"
"","psychophysics","57","400435","0.0-57.0","631c07ce7e0c76f62a1bd822","64de660e700513704b84dde9","","","","","null","","null","key","null","6.945257167680261","500","250","pz","156","1","0","","","21","24"
"","psychophysics","58","408437","0.0-58.0","631c07ce7e0c76f62a1bd822","64de660e700513704b84dde9","","","","","null","","null","key","null","6.945308159722218","500","250","pz","174","1","0","","","51","41"
"","psychophysics","59","418090","0.0-59.0","631c07ce7e0c76f62a1bd822","64de660e700513704b84dde9","","","","","9648",""," ","key"," ","6.94531340057639","500","250","inst","","","","","","",""
"","psychophysics","60","423040","0.0-60.0","631c07ce7e0c76f62a1bd822","64de660e700513704b84dde9","","","","","4948",""," ","key"," ","6.945379213483126","500","250","instPog0","340","2","","0","0","370","340"
"","psychophysics","61","428836","0.0-61.0","631c07ce7e0c76f62a1bd822","64de660e700513704b84dde9","","","","","5795",""," ","key"," ","6.945342925659504","500","250","instPog1","334","2","","0","0","370","340"
"","psychophysics","62","435148","0.0-62.0","631c07ce7e0c76f62a1bd822","64de660e700513704b84dde9","","","","","6311",""," ","key"," ","6.945381477398027","500","250","instPog2","312","2","","0","0","340","340"
"","psychophysics","63","435616","0.0-63.0","631c07ce7e0c76f62a1bd822","64de660e700513704b84dde9","","","","","466",""," ","key"," ","6.9455373134331975","500","250","inst","","","","","","",""
"","psychophysics","64","441297","0.0-64.0","631c07ce7e0c76f62a1bd822","64de660e700513704b84dde9","","","","","5680",""," ","key"," ","6.945310893512874","500","250","pog","348","2","0","0","0","378","380"
"","psychophysics","65","449298","0.0-65.0","631c07ce7e0c76f62a1bd822","64de660e700513704b84dde9","","","","","null","","null","key","null","6.945378801042566","500","250","pog","304","2","0","0","0","282","335"
"","psychophysics","66","457299","0.0-66.0","631c07ce7e0c76f62a1bd822","64de660e700513704b84dde9","","","","","null","","null","key","null","6.9453066898349345","500","250","pog","298","2","0","0","0","330","329"
"","psychophysics","67","461671","0.0-67.0","631c07ce7e0c76f62a1bd822","64de660e700513704b84dde9","","","","","4371",""," ","key"," ","6.945299363057304","500","250","pog","275","2","0","0","0","309","305"
"","psychophysics","68","465582","0.0-68.0","631c07ce7e0c76f62a1bd822","64de660e700513704b84dde9","","","","","3909",""," ","key"," ","6.945302491103219","500","250","pog","302","2","0","0","0","312","336"
"","psychophysics","69","469854","0.0-69.0","631c07ce7e0c76f62a1bd822","64de660e700513704b84dde9","","","","","4270",""," ","key"," ","6.945483713354957","500","250","pog","305","2","0","0","0","393","342"
"","psychophysics","70","471973","0.0-70.0","631c07ce7e0c76f62a1bd822","64de660e700513704b84dde9","","","","","2118",""," ","key"," ","6.945278688524582","500","250","pog","323","2","0","0","0","305","364"
"","psychophysics","71","477229","0.0-71.0","631c07ce7e0c76f62a1bd822","64de660e700513704b84dde9","","","","","5255",""," ","key"," ","6.945333774834455","500","250","pog","298","2","0","0","0","352","328"
"","psychophysics","72","480225","0.0-72.0","631c07ce7e0c76f62a1bd822","64de660e700513704b84dde9","","","","","2994",""," ","key"," ","6.945580046403674","500","250","pog","279","2","0","0","0","331","321"
"","psychophysics","73","488226","0.0-73.0","631c07ce7e0c76f62a1bd822","64de660e700513704b84dde9","","","","","null","","null","key","null","6.945378801042566","500","250","pog","299","2","0","0","0","357","331"
"","psychophysics","74","493524","0.0-74.0","631c07ce7e0c76f62a1bd822","64de660e700513704b84dde9","","","","","5296",""," ","key"," ","6.945304461942238","500","250","pog","286","2","0","0","0","296","320"
"","psychophysics","75","500841","0.0-75.0","631c07ce7e0c76f62a1bd822","64de660e700513704b84dde9","","","","","7316",""," ","key"," ","6.9453840304182455","500","250","pog","276","2","0","0","0","392","305"
"","psychophysics","76","508686","0.0-76.0","631c07ce7e0c76f62a1bd822","64de660e700513704b84dde9","","","","","7844",""," ","key"," ","6.94551550044289","500","250","pog","332","2","0","0","0","298","361"
"","psychophysics","77","511205","0.0-77.0","631c07ce7e0c76f62a1bd822","64de660e700513704b84dde9","","","","","2518",""," ","key"," ","6.94541551246549","500","250","pog","330","2","0","0","0","392","362"
"","psychophysics","78","515588","0.0-78.0","631c07ce7e0c76f62a1bd822","64de660e700513704b84dde9","","","","","4382",""," ","key"," ","6.945328571428527","500","250","pog","296","2","0","0","0","358","319"
"","psychophysics","79","516638","0.0-79.0","631c07ce7e0c76f62a1bd822","64de660e700513704b84dde9","","","","","1050",""," ","key"," ","6.945450331125676","500","250","inst","","","","","","",""
"","psychophysics","80","518543","0.0-80.0","631c07ce7e0c76f62a1bd822","64de660e700513704b84dde9","","","","","1903",""," ","key"," ","6.945260073260008","500","250","instZol0","0","","","0","0","0",""
"","psychophysics","81","532757","0.0-81.0","631c07ce7e0c76f62a1bd822","64de660e700513704b84dde9","","","","","14214",""," ","key"," ","6.945324694376563","500","250","instZol1","2.7755575615628914e-17","","","0","0","-1.3",""
"","psychophysics","82","606067","0.0-82.0","631c07ce7e0c76f62a1bd822","64de660e700513704b84dde9","","","","","73308",""," ","key"," ","6.946624182696861","500","250","instZol2","-180.899999999994","2","","0","0","2",""
"","psychophysics","83","607976","0.0-83.0","631c07ce7e0c76f62a1bd822","64de660e700513704b84dde9","","","","","1908",""," ","key"," ","6.945284671532959","500","250","inst","","","","","","",""
"","psychophysics","84","615979","0.0-84.0","631c07ce7e0c76f62a1bd822","64de660e700513704b84dde9","","","","","null","","null","key","null","6.9453301476976135","500","250","zol","-1.3200000000000003","2","0","-13","17","-0.38",""
"","psychophysics","85","623982","0.0-85.0","631c07ce7e0c76f62a1bd822","64de660e700513704b84dde9","","","","","null","","null","key","null","6.945326672458728","500","250","zol","-1.7100000000000006","2","0","16","-24","-0.39",""
"","psychophysics","86","630343","0.0-86.0","631c07ce7e0c76f62a1bd822","64de660e700513704b84dde9","","","","","6360",""," ","key"," ","6.960504928806125","500","250","zol","-1.3200000000000003","2","0","-10","25","-0.38",""
"","psychophysics","87","638345","0.0-87.0","631c07ce7e0c76f62a1bd822","64de660e700513704b84dde9","","","","","null","","null","key","null","6.963492160278777","500","250","zol","-1.4400000000000004","2","0","-6","-27","-0.06",""
"","psychophysics","88","646347","0.0-88.0","631c07ce7e0c76f62a1bd822","64de660e700513704b84dde9","","","","","null","","null","key","null","6.9453014769764545","500","250","zol","-1.29","2","0","29","-15","-0.21",""
"","psychophysics","89","650613","0.0-89.0","631c07ce7e0c76f62a1bd822","64de660e700513704b84dde9","","","","","4263",""," ","key"," ","6.945384364820871","500","250","zol","-1.6700000000000004","2","0","27","3","-0.63",""
"","psychophysics","90","658616","0.0-90.0","631c07ce7e0c76f62a1bd822","64de660e700513704b84dde9","","","","","null","","null","key","null","6.945284100781926","500","250","zol","-1.15","2","0","-10","-19","-0.45",""
"","psychophysics","91","666618","0.0-91.0","631c07ce7e0c76f62a1bd822","64de660e700513704b84dde9","","","","","null","","null","key","null","6.945342311033915","500","250","zol","-1.1500000000000001","2","0","27","22","0.55",""
"","psychophysics","92","673439","0.0-92.0","631c07ce7e0c76f62a1bd822","64de660e700513704b84dde9","","","","","6819",""," ","key"," ","6.945366972477093","500","250","zol","-1.03","2","0","16","-3","-0.37",""
"","psychophysics","93","680217","0.0-93.0","631c07ce7e0c76f62a1bd822","64de660e700513704b84dde9","","","","","6776",""," ","key"," ","6.945339487179374","500","250","zol","-0.7799999999999998","2","0","-25","0","-0.52",""
"","psychophysics","94","688219","0.0-94.0","631c07ce7e0c76f62a1bd822","64de660e700513704b84dde9","","","","","null","","null","key","null","6.945343179843586","500","250","zol","-0.8899999999999999","2","0","-7","2","-0.21",""
"","psychophysics","95","694830","0.0-95.0","631c07ce7e0c76f62a1bd822","64de660e700513704b84dde9","","","","","6609",""," ","key"," ","6.945323869610963","500","250","zol","-0.7","2","0","19","-6","0.1",""
"","psychophysics","96","701828","0.0-96.0","631c07ce7e0c76f62a1bd822","64de660e700513704b84dde9","","","","","6996",""," ","key"," ","6.94540317775566","500","250","zol","-0.8899999999999999","2","0","-16","-12","0.49",""
"","psychophysics","97","706432","0.0-97.0","631c07ce7e0c76f62a1bd822","64de660e700513704b84dde9","","","","","4603",""," ","key"," ","6.945326283987889","500","250","zol","-1.5200000000000005","2","0","4","6","-0.18",""
"","psychophysics","98","712042","0.0-98.0","631c07ce7e0c76f62a1bd822","64de660e700513704b84dde9","","","","","5609",""," ","key"," ","6.945399503722046","500","250","zol","-1.0299999999999998","2","0","-21","-9","-0.67",""
"","psychophysics","99","713005","0.0-99.0","631c07ce7e0c76f62a1bd822","64de660e700513704b84dde9","","","","","962",""," ","key"," ","6.945688405797135","500","250","inst","","","","","","",""
"","psychophysics","100","714171","0.0-100.0","631c07ce7e0c76f62a1bd822","64de660e700513704b84dde9","","","","","1165",""," ","key"," ","6.9455209580838435","500","250","instEB0","40","2","","0","0","40","40"
"","psychophysics","101","721564","0.0-101.0","631c07ce7e0c76f62a1bd822","64de660e700513704b84dde9","","","","","7393",""," ","key"," ","6.945356538099708","500","250","instEB1","42","2","","0","0","30","40"
"","psychophysics","102","727147","0.0-102.0","631c07ce7e0c76f62a1bd822","64de660e700513704b84dde9","","","","","5580",""," ","key"," ","6.945397260273948","500","250","instEB2","33","2","","0","0","40","30"
"","psychophysics","103","746324","0.0-103.0","631c07ce7e0c76f62a1bd822","64de660e700513704b84dde9","","","","","19177",""," ","key"," ","6.945324999999982","500","250","instEB3","31","2","","0","0","45","27"
"","psychophysics","104","751474","0.0-104.0","631c07ce7e0c76f62a1bd822","64de660e700513704b84dde9","","","","","5148",""," ","key"," ","6.945375168690862","500","250","instEB4","46","2","","0","0","30","40"
"","psychophysics","105","752105","0.0-105.0","631c07ce7e0c76f62a1bd822","64de660e700513704b84dde9","","","","","630",""," ","key"," ","6.945655555554873","500","250","inst","","","","","","",""
"","psychophysics","106","760107","0.0-106.0","631c07ce7e0c76f62a1bd822","64de660e700513704b84dde9","","","","","null","","null","key","null","6.945332754126929","500","250","eb","38","2","","0","0","45","35"
"","psychophysics","107","762093","0.0-107.0","631c07ce7e0c76f62a1bd822","64de660e700513704b84dde9","","","","","1985",""," ","key"," ","6.945245614034745","500","250","eb","52","2","","0","0","46","46"
"","psychophysics","108","766196","0.0-108.0","631c07ce7e0c76f62a1bd822","64de660e700513704b84dde9","","","","","4102",""," ","key"," ","6.945345762711989","500","250","eb","48","2","","0","0","33","42"
"","psychophysics","109","772196","0.0-109.0","631c07ce7e0c76f62a1bd822","64de660e700513704b84dde9","","","","","5998",""," ","key"," ","6.94520997679822","500","250","eb","33","2","","0","0","50","29"
"","psychophysics","110","779197","0.0-110.0","631c07ce7e0c76f62a1bd822","64de660e700513704b84dde9","","","","","6999",""," ","key"," ","6.9453594836147685","500","250","eb","43","2","","0","0","35","40"
"","psychophysics","111","785461","0.0-111.0","631c07ce7e0c76f62a1bd822","64de660e700513704b84dde9","","","","","6262",""," ","key"," ","6.945357380688116","500","250","eb","54","2","","0","0","40","48"
"","psychophysics","112","790555","0.0-112.0","631c07ce7e0c76f62a1bd822","64de660e700513704b84dde9","","","","","5092",""," ","key"," ","6.954800546448073","500","250","eb","28","2","","0","0","47","26"
"","psychophysics","113","795269","0.0-113.0","631c07ce7e0c76f62a1bd822","64de660e700513704b84dde9","","","","","4713",""," ","key"," ","6.945373156342167","500","250","eb","41","2","","0","0","26","37"
"","psychophysics","114","801377","0.0-114.0","631c07ce7e0c76f62a1bd822","64de660e700513704b84dde9","","","","","6107",""," ","key"," ","6.945348519362124","500","250","eb","44","2","","0","0","26","42"
"","psychophysics","115","806077","0.0-115.0","631c07ce7e0c76f62a1bd822","64de660e700513704b84dde9","","","","","4698",""," ","key"," ","6.94535355029587","500","250","eb","51","2","","0","0","51","47"
"","psychophysics","116","807964","0.0-116.0","631c07ce7e0c76f62a1bd822","64de660e700513704b84dde9","","","","","1886",""," ","key"," ","6.945800000000141","500","250","eb","47","2","","0","0","38","36"
"","psychophysics","117","809211","0.0-117.0","631c07ce7e0c76f62a1bd822","64de660e700513704b84dde9","","","","","1245",""," ","key"," ","6.945351955307226","500","250","eb","52","2","","0","0","48","44"
"","psychophysics","118","811227","0.0-118.0","631c07ce7e0c76f62a1bd822","64de660e700513704b84dde9","","","","","2015",""," ","key"," ","6.945633217993283","500","250","eb","48","2","","0","0","33","46"
"","psychophysics","119","815333","0.0-119.0","631c07ce7e0c76f62a1bd822","64de660e700513704b84dde9","","","","","4105",""," ","key"," ","6.945372881355964","500","250","eb","50","2","","0","0","32","48"
"","psychophysics","120","818847","0.0-120.0","631c07ce7e0c76f62a1bd822","64de660e700513704b84dde9","","","","","3511",""," ","key"," ","6.945251485148426","500","250","eb","37","2","","0","0","27","29"
"","psychophysics","121","819521","0.0-121.0","631c07ce7e0c76f62a1bd822","64de660e700513704b84dde9","","","","","674",""," ","key"," ","6.945562499999748","500","250","inst","","","","","","",""
"","psychophysics","122","823489","0.0-122.0","631c07ce7e0c76f62a1bd822","64de660e700513704b84dde9","","","","","3966",""," ","key"," ","6.945332749562229","500","250","instZol1","0.2999999999999998","","","0","0","-1.3",""
"","psychophysics","123","837872","0.0-123.0","631c07ce7e0c76f62a1bd822","64de660e700513704b84dde9","","","","","14382",""," ","key"," ","6.951996615087008","500","250","instZol2","1.2000000000000008","1","","0","0","2",""
"","psychophysics","124","838475","0.0-124.0","631c07ce7e0c76f62a1bd822","64de660e700513704b84dde9","","","","","602",""," ","key"," ","6.945623529412072","500","250","inst","","","","","","",""
"","psychophysics","125","846478","0.0-125.0","631c07ce7e0c76f62a1bd822","64de660e700513704b84dde9","","","","","null","","null","key","null","6.945421006944445","500","250","zol","1.19","1","1","-7","-2","-0.49",""
"","psychophysics","126","853048","0.0-126.0","631c07ce7e0c76f62a1bd822","64de660e700513704b84dde9","","","","","6569",""," ","key"," ","6.945277248677261","500","250","zol","0.9899999999999999","1","1","24","-25","-0.69",""
"","psychophysics","127","861050","0.0-127.0","631c07ce7e0c76f62a1bd822","64de660e700513704b84dde9","","","","","null","","null","key","null","6.945325803649058","500","250","zol","1.5100000000000002","1","1","-11","-7","-0.71",""
"","psychophysics","128","869052","0.0-128.0","631c07ce7e0c76f62a1bd822","64de660e700513704b84dde9","","","","","null","","null","key","null","6.945316246741971","500","250","zol","1.05","1","1","19","-17","-0.75",""
"","psychophysics","129","877054","0.0-129.0","631c07ce7e0c76f62a1bd822","64de660e700513704b84dde9","","","","","null","","null","key","null","6.9453110338835415","500","250","zol","1.02","1","1","-3","17","0.38",""
"","psychophysics","130","882239","0.0-130.0","631c07ce7e0c76f62a1bd822","64de660e700513704b84dde9","","","","","5183",""," ","key"," ","6.945281501340551","500","250","zol","1.0999999999999999","1","1","-27","3","0.2",""
"","psychophysics","131","885198","0.0-131.0","631c07ce7e0c76f62a1bd822","64de660e700513704b84dde9","","","","","2957",""," ","key"," ","6.945312941176269","500","250","zol","1.1700000000000002","1","1","20","21","-0.67",""
"","psychophysics","132","888740","0.0-132.0","631c07ce7e0c76f62a1bd822","64de660e700513704b84dde9","","","","","3540",""," ","key"," ","6.945379174852603","500","250","zol","1.1300000000000001","1","1","-12","-16","-0.23",""
"","psychophysics","133","892382","0.0-133.0","631c07ce7e0c76f62a1bd822","64de660e700513704b84dde9","","","","","3641",""," ","key"," ","6.945365200764775","500","250","zol","1.6700000000000004","1","1","18","25","-0.27",""
"","psychophysics","134","896093","0.0-134.0","631c07ce7e0c76f62a1bd822","64de660e700513704b84dde9","","","","","3710",""," ","key"," ","6.94533020637905","500","250","zol","1.27","1","1","-8","-25","-0.27",""
"","psychophysics","135","902478","0.0-135.0","631c07ce7e0c76f62a1bd822","64de660e700513704b84dde9","","","","","6382",""," ","key"," ","6.945313384113184","500","250","zol","1.0699999999999998","1","1","26","-15","-0.37",""
"","psychophysics","136","904706","0.0-136.0","631c07ce7e0c76f62a1bd822","64de660e700513704b84dde9","","","","","2227",""," ","key"," ","6.9453605015676025","500","250","zol","1.7800000000000005","1","1","16","27","-0.58",""
"","psychophysics","137","906659","0.0-137.0","631c07ce7e0c76f62a1bd822","64de660e700513704b84dde9","","","","","1951",""," ","key"," ","6.945320284697542","500","250","zol","1.6700000000000004","1","1","4","6","-0.37",""
"","psychophysics","138","909411","0.0-138.0","631c07ce7e0c76f62a1bd822","64de660e700513704b84dde9","","","","","2750",""," ","key"," ","6.945364556962011","500","250","zol","1.5500000000000005","1","1","-8","-17","0.45",""
"","psychophysics","139","911218","0.0-139.0","631c07ce7e0c76f62a1bd822","64de660e700513704b84dde9","","","","","1806",""," ","key"," ","6.945617760617455","500","250","zol","1.18","1","1","10","12","0.02",""
"","psychophysics","140","911817","0.0-140.0","631c07ce7e0c76f62a1bd822","64de660e700513704b84dde9","","","","","599",""," ","key"," ","6.945823529411983","500","250","inst","","","","","","",""
"","psychophysics","141","914210","0.0-141.0","631c07ce7e0c76f62a1bd822","64de660e700513704b84dde9","","","","","2392",""," ","key"," ","6.945331395348888","500","250","instPz1","57","2","","","","25","50"
"","psychophysics","142","930384","0.0-142.0","631c07ce7e0c76f62a1bd822","64de660e700513704b84dde9","","","","","16172",""," ","key"," ","6.948276321443905","500","250","instPz2","-127","2","","","","20","35"
"","psychophysics","143","946129","0.0-143.0","631c07ce7e0c76f62a1bd822","64de660e700513704b84dde9","","","","","15744",""," ","key"," ","6.945300088261273","500","250","instPz3","-130","2","","","","30","100"
"","psychophysics","144","958592","0.0-144.0","631c07ce7e0c76f62a1bd822","64de660e700513704b84dde9","","","","","12462",""," ","key"," ","6.945268265476876","500","250","instPz4","-127","2","","","","30","100"
"","psychophysics","145","959546","0.0-145.0","631c07ce7e0c76f62a1bd822","64de660e700513704b84dde9","","","","","953",""," ","key"," ","6.945889705882805","500","250","inst","","","","","","",""
"","psychophysics","146","966597","0.0-146.0","631c07ce7e0c76f62a1bd822","64de660e700513704b84dde9","","","","","7050",""," ","key"," ","6.945328078817765","500","250","pz","-128","2","1","","","38","49"
"","psychophysics","147","974600","0.0-147.0","631c07ce7e0c76f62a1bd822","64de660e700513704b84dde9","","","","","null","","null","key","null","6.945323197219843","500","250","pz","50","2","1","","","25","50"
"","psychophysics","148","978821","0.0-148.0","631c07ce7e0c76f62a1bd822","64de660e700513704b84dde9","","","","","4220",""," ","key"," ","6.945355848434935","500","250","pz","50","2","1","","","40","50"
"","psychophysics","149","984425","0.0-149.0","631c07ce7e0c76f62a1bd822","64de660e700513704b84dde9","","","","","5603",""," ","key"," ","6.945306451612923","500","250","pz","27","2","1","","","22","28"
"","psychophysics","150","990011","0.0-150.0","631c07ce7e0c76f62a1bd822","64de660e700513704b84dde9","","","","","5585",""," ","key"," ","6.945420921544294","500","250","pz","37","2","1","","","25","40"
"","psychophysics","151","994231","0.0-151.0","631c07ce7e0c76f62a1bd822","64de660e700513704b84dde9","","","","","4218",""," ","key"," ","6.94522277227712","500","250","pz","45","2","1","","","23","58"
"","psychophysics","152","997299","0.0-152.0","631c07ce7e0c76f62a1bd822","64de660e700513704b84dde9","","","","","3067",""," ","key"," ","6.9453356009071205","500","250","pz","26","2","1","","","21","32"
"","psychophysics","153","999359","0.0-153.0","631c07ce7e0c76f62a1bd822","64de660e700513704b84dde9","","","","","2059",""," ","key"," ","6.945513513513426","500","250","pz","34","2","1","","","47","42"
"","psychophysics","154","1000617","0.0-154.0","631c07ce7e0c76f62a1bd822","64de660e700513704b84dde9","","","","","1256",""," ","key"," ","6.946072222221927","500","250","pz","42","2","1","","","48","55"
"","psychophysics","155","1003592","0.0-155.0","631c07ce7e0c76f62a1bd822","64de660e700513704b84dde9","","","","","2974",""," ","key"," ","6.945332552693224","500","250","pz","35","2","1","","","34","47"
"","psychophysics","156","1006133","0.0-156.0","631c07ce7e0c76f62a1bd822","64de660e700513704b84dde9","","","","","2541",""," ","key"," ","6.9454027397261475","500","250","pz","43","2","1","","","52","52"
"","psychophysics","157","1007373","0.0-157.0","631c07ce7e0c76f62a1bd822","64de660e700513704b84dde9","","","","","1239",""," ","key"," ","6.945769662921071","500","250","pz","23","2","1","","","22","29"
"","psychophysics","158","1010119","0.0-158.0","631c07ce7e0c76f62a1bd822","64de660e700513704b84dde9","","","","","2745",""," ","key"," ","6.945360406091541","500","250","pz","21","2","1","","","45","24"
"","psychophysics","159","1013787","0.0-159.0","631c07ce7e0c76f62a1bd822","64de660e700513704b84dde9","","","","","3667",""," ","key"," ","6.945349146110099","500","250","pz","38","2","1","","","59","48"
"","psychophysics","160","1014839","0.0-160.0","631c07ce7e0c76f62a1bd822","64de660e700513704b84dde9","","","","","1050",""," ","key"," ","6.9451258278140395","500","250","pz","41","2","1","","","38","51"
"","psychophysics","161","1015679","0.0-161.0","631c07ce7e0c76f62a1bd822","64de660e700513704b84dde9","","","","","840",""," ","key"," ","6.945024999999442","500","250","inst","","","","","","",""
"","psychophysics","162","1021515","0.0-162.0","631c07ce7e0c76f62a1bd822","64de660e700513704b84dde9","","","","","5835",""," ","key"," ","6.945261025029824","500","250","instEB1","32","1","","0","0","40","30"
"","psychophysics","163","1024440","0.0-163.0","631c07ce7e0c76f62a1bd822","64de660e700513704b84dde9","","","","","2923",""," ","key"," ","6.945471428571424","500","250","instEB2","38","1","","0","0","30","40"
"","psychophysics","164","1027521","0.0-164.0","631c07ce7e0c76f62a1bd822","64de660e700513704b84dde9","","","","","3081",""," ","key"," ","6.9453882618508205","500","250","instEB3","40","1","","0","0","27","45"
"","psychophysics","165","1030198","0.0-165.0","631c07ce7e0c76f62a1bd822","64de660e700513704b84dde9","","","","","2676",""," ","key"," ","6.945070312500017","500","250","instEB4","27","1","","0","0","40","30"
"","psychophysics","166","1031591","0.0-166.0","631c07ce7e0c76f62a1bd822","64de660e700513704b84dde9","","","","","1392",""," ","key"," ","6.945800000000163","500","250","inst","","","","","","",""
"","psychophysics","167","1034477","0.0-167.0","631c07ce7e0c76f62a1bd822","64de660e700513704b84dde9","","","","","2884",""," ","key"," ","6.9453719806765175","500","250","eb","33","1","","0","0","38","36"
"","psychophysics","168","1037669","0.0-168.0","631c07ce7e0c76f62a1bd822","64de660e700513704b84dde9","","","","","3191",""," ","key"," ","6.975671772429102","500","250","eb","22","1","","0","0","36","26"
"","psychophysics","169","1041287","0.0-169.0","631c07ce7e0c76f62a1bd822","64de660e700513704b84dde9","","","","","3617",""," ","key"," ","6.945336538461449","500","250","eb","53","1","","0","0","52","53"
"","psychophysics","170","1044200","0.0-170.0","631c07ce7e0c76f62a1bd822","64de660e700513704b84dde9","","","","","2912",""," ","key"," ","6.9456172248802","500","250","eb","30","1","","0","0","52","33"
"","psychophysics","171","1046272","0.0-171.0","631c07ce7e0c76f62a1bd822","64de660e700513704b84dde9","","","","","2070",""," ","key"," ","6.945390572390434","500","250","eb","41","1","","0","0","32","48"
"","psychophysics","172","1048323","0.0-172.0","631c07ce7e0c76f62a1bd822","64de660e700513704b84dde9","","","","","2051",""," ","key"," ","6.9456338983048855","500","250","eb","25","1","","0","0","31","27"
"","psychophysics","173","1051019","0.0-173.0","631c07ce7e0c76f62a1bd822","64de660e700513704b84dde9","","","","","2694",""," ","key"," ","6.945788113695139","500","250","eb","51","1","","0","0","50","51"
"","psychophysics","174","1053838","0.0-174.0","631c07ce7e0c76f62a1bd822","64de660e700513704b84dde9","","","","","2818",""," ","key"," ","6.945634567901423","500","250","eb","32","1","","0","0","48","34"
"","psychophysics","175","1058313","0.0-175.0","631c07ce7e0c76f62a1bd822","64de660e700513704b84dde9","","","","","4474",""," ","key"," ","6.945479004665583","500","250","eb","24","1","","0","0","30","27"
"","psychophysics","176","1062010","0.0-176.0","631c07ce7e0c76f62a1bd822","64de660e700513704b84dde9","","","","","3696",""," ","key"," ","6.945491525423915","500","250","eb","33","1","","0","0","47","36"
"","psychophysics","177","1064731","0.0-177.0","631c07ce7e0c76f62a1bd822","64de660e700513704b84dde9","","","","","2719",""," ","key"," ","6.945355498721428","500","250","eb","54","1","","0","0","51","54"
"","psychophysics","178","1068906","0.0-178.0","631c07ce7e0c76f62a1bd822","64de660e700513704b84dde9","","","","","4174",""," ","key"," ","6.945436666666453","500","250","eb","29","1","","0","0","34","29"
"","psychophysics","179","1070935","0.0-179.0","631c07ce7e0c76f62a1bd822","64de660e700513704b84dde9","","","","","2027",""," ","key"," ","6.946003436426155","500","250","eb","34","1","","0","0","26","37"
"","psychophysics","180","1072778","0.0-180.0","631c07ce7e0c76f62a1bd822","64de660e700513704b84dde9","","","","","1842",""," ","key"," ","6.945471698112505","500","250","eb","25","1","","0","0","36","26"
"","psychophysics","181","1074601","0.0-181.0","631c07ce7e0c76f62a1bd822","64de660e700513704b84dde9","","","","","1822",""," ","key"," ","6.945632183907368","500","250","eb","34","1","","0","0","42","35"
"","psychophysics","182","1075044","0.0-182.0","631c07ce7e0c76f62a1bd822","64de660e700513704b84dde9","","","","","442",""," ","key"," ","6.947952380950843","500","250","inst","","","","","","",""
"","psychophysics","183","1077809","0.0-183.0","631c07ce7e0c76f62a1bd822","64de660e700513704b84dde9","","","","","2764",""," ","key"," ","6.9454987405538935","500","250","instPog0","160","1","","0","0","190","160"
"","psychophysics","184","1080199","0.0-184.0","631c07ce7e0c76f62a1bd822","64de660e700513704b84dde9","","","","","2389",""," ","key"," ","6.94538192419843","500","250","instPog1","180","1","","0","0","190","160"
"","psychophysics","185","1082088","0.0-185.0","631c07ce7e0c76f62a1bd822","64de660e700513704b84dde9","","","","","1888",""," ","key"," ","6.945571955719557","500","250","instPog2","168","1","","0","0","160","160"
"","psychophysics","186","1082502","0.0-186.0","631c07ce7e0c76f62a1bd822","64de660e700513704b84dde9","","","","","413",""," ","key"," ","6.945067796611496","500","250","inst","","","","","","",""
"","psychophysics","187","1084290","0.0-187.0","631c07ce7e0c76f62a1bd822","64de660e700513704b84dde9","","","","","1787",""," ","key"," ","6.945398437500444","500","250","pog","173","1","1","0","0","171","146"
"","psychophysics","188","1086403","0.0-188.0","631c07ce7e0c76f62a1bd822","64de660e700513704b84dde9","","","","","2112",""," ","key"," ","6.945398026316022","500","250","pog","201","1","1","0","0","209","171"
"","psychophysics","189","1088792","0.0-189.0","631c07ce7e0c76f62a1bd822","64de660e700513704b84dde9","","","","","2388",""," ","key"," ","6.945329446063863","500","250","pog","196","1","1","0","0","168","179"
"","psychophysics","190","1091609","0.0-190.0","631c07ce7e0c76f62a1bd822","64de660e700513704b84dde9","","","","","2816",""," ","key"," ","6.945485148514911","500","250","pog","188","1","1","0","0","104","166"
"","psychophysics","191","1094229","0.0-191.0","631c07ce7e0c76f62a1bd822","64de660e700513704b84dde9","","","","","2619",""," ","key"," ","6.945505319148961","500","250","pog","212","1","1","0","0","130","194"
"","psychophysics","192","1095590","0.0-192.0","631c07ce7e0c76f62a1bd822","64de660e700513704b84dde9","","","","","1359",""," ","key"," ","6.945343589743313","500","250","pog","203","1","1","0","0","189","180"
"","psychophysics","193","1097684","0.0-193.0","631c07ce7e0c76f62a1bd822","64de660e700513704b84dde9","","","","","2093",""," ","key"," ","6.945408637873655","500","250","pog","190","1","1","0","0","156","174"
"","psychophysics","194","1098864","0.0-194.0","631c07ce7e0c76f62a1bd822","64de660e700513704b84dde9","","","","","1179",""," ","key"," ","6.94560946745539","500","250","pog","199","1","1","0","0","185","168"
"","psychophysics","195","1102171","0.0-195.0","631c07ce7e0c76f62a1bd822","64de660e700513704b84dde9","","","","","3306",""," ","key"," ","6.945328421052546","500","250","pog","190","1","1","0","0","114","170"
"","psychophysics","196","1103794","0.0-196.0","631c07ce7e0c76f62a1bd822","64de660e700513704b84dde9","","","","","1623",""," ","key"," ","6.9455751072957135","500","250","pog","159","1","1","0","0","115","137"
"","psychophysics","197","1106142","0.0-197.0","631c07ce7e0c76f62a1bd822","64de660e700513704b84dde9","","","","","2346",""," ","key"," ","6.945418397626544","500","250","pog","210","1","1","0","0","144","175"
"","psychophysics","198","1108714","0.0-198.0","631c07ce7e0c76f62a1bd822","64de660e700513704b84dde9","","","","","2571",""," ","key"," ","6.945379403793962","500","250","pog","208","1","1","0","0","166","171"
"","psychophysics","199","1110618","0.0-199.0","631c07ce7e0c76f62a1bd822","64de660e700513704b84dde9","","","","","1903",""," ","key"," ","6.94532600732609","500","250","pog","214","1","1","0","0","158","183"
"","psychophysics","200","1111813","0.0-200.0","631c07ce7e0c76f62a1bd822","64de660e700513704b84dde9","","","","","1195",""," ","key"," ","6.9453157894735424","500","250","pog","211","1","1","0","0","215","165"
"","psychophysics","201","1116443","0.0-201.0","631c07ce7e0c76f62a1bd822","64de660e700513704b84dde9","","","","","4629",""," ","key"," ","6.9454294294293675","500","250","pog","155","1","1","0","0","215","124"
"","psychophysics","202","1116943","0.0-202.0","631c07ce7e0c76f62a1bd822","64de660e700513704b84dde9","","","","","499",""," ","key"," ","6.9462112676070245","500","250","inst","","","","","","",""
"","psychophysics","203","1122567","0.0-203.0","631c07ce7e0c76f62a1bd822","64de660e700513704b84dde9","","","","","5623",""," ","key"," ","6.945353522867699","500","250","instBr3","40","2","","0","0","40","300"
"","psychophysics","204","1123617","0.0-204.0","631c07ce7e0c76f62a1bd822","64de660e700513704b84dde9","","","","","1049",""," ","key"," ","6.945599999999007","500","250","inst","","","","","","",""
"","psychophysics","205","1131619","0.0-205.0","631c07ce7e0c76f62a1bd822","64de660e700513704b84dde9","","","","","null","","null","key","null","6.94529278887914","500","250","br","10","2","1","1","15","-19","245"
"","psychophysics","206","1131655","0.0-206.0","631c07ce7e0c76f62a1bd822","64de660e700513704b84dde9","","","","","34",""," ","key"," ","6.957750000001397","500","250","br","-4","2","1","14","8","-4","210"
"","psychophysics","207","1136546","0.0-207.0","631c07ce7e0c76f62a1bd822","64de660e700513704b84dde9","","","","","4890",""," ","key"," ","6.945391180654484","500","250","br","13","2","1","-9","-21","-15","205"
"","psychophysics","208","1138872","0.0-208.0","631c07ce7e0c76f62a1bd822","64de660e700513704b84dde9","","","","","2325",""," ","key"," ","6.945242514970439","500","250","br","19","2","1","26","-2","-11","273"
"","psychophysics","209","1140627","0.0-209.0","631c07ce7e0c76f62a1bd822","64de660e700513704b84dde9","","","","","1754",""," ","key"," ","6.945392857143093","500","250","br","15","2","1","-17","-22","20","282"
"","psychophysics","210","1144187","0.0-210.0","631c07ce7e0c76f62a1bd822","64de660e700513704b84dde9","","","","","3559",""," ","key"," ","6.945356164383656","500","250","br","12","2","1","13","22","30","216"
"","psychophysics","211","1147381","0.0-211.0","631c07ce7e0c76f62a1bd822","64de660e700513704b84dde9","","","","","3192",""," ","key"," ","6.945477124182852","500","250","br","16","2","1","-10","-4","9","272"
"","psychophysics","212","1150559","0.0-212.0","631c07ce7e0c76f62a1bd822","64de660e700513704b84dde9","","","","","3176",""," ","key"," ","6.945380743982727","500","250","br","19","2","1","-26","-1","-18","246"
"","psychophysics","213","1152074","0.0-213.0","631c07ce7e0c76f62a1bd822","64de660e700513704b84dde9","","","","","1514",""," ","key"," ","6.945465437787872","500","250","br","19","2","1","-29","23","9","253"
"","psychophysics","214","1152964","0.0-214.0","631c07ce7e0c76f62a1bd822","64de660e700513704b84dde9","","","","","889",""," ","key"," ","6.94548818897676","500","250","br","24","2","1","-6","14","24","279"
"","psychophysics","215","1154096","0.0-215.0","631c07ce7e0c76f62a1bd822","64de660e700513704b84dde9","","","","","1131",""," ","key"," ","6.94578395061695","500","250","br","15","2","1","-23","-11","0","275"
"","psychophysics","216","1157246","0.0-216.0","631c07ce7e0c76f62a1bd822","64de660e700513704b84dde9","","","","","3150",""," ","key"," ","6.945487858719351","500","250","br","22","2","1","16","-6","-23","278"
"","psychophysics","217","1158365","0.0-217.0","631c07ce7e0c76f62a1bd822","64de660e700513704b84dde9","","","","","1117",""," ","key"," ","6.945918750000419","500","250","br","25","2","1","-25","21","26","296"
"","psychophysics","218","1160857","0.0-218.0","631c07ce7e0c76f62a1bd822","64de660e700513704b84dde9","","","","","2490",""," ","key"," ","6.945318435753862","500","250","br","17","2","1","-12","23","-17","204"
"","psychophysics","219","1165008","0.0-219.0","631c07ce7e0c76f62a1bd822","64de660e700513704b84dde9","","","","","4150",""," ","key"," ","6.945352348993179","500","250","br","32","2","1","-13","-13","-14","290"
