"success","trial_type","trial_index","time_elapsed","internal_node_id","pid","sid","timeout","failed_images","failed_audio","failed_video","rt","stimulus","response","response_type","key_press","avg_frame_time","center_x","center_y","task","resp","version","block","jitterX","jitterY","start","parA"
"true","fullscreen","0","17008","0.0-0.0","5e4b550cbc830a0625f5ceff","64de82e482ce6f16d25c714b","","","","","","","","","","","","","","","","","","","",""
"true","preload","1","17243","0.0-1.0","5e4b550cbc830a0625f5ceff","64de82e482ce6f16d25c714b","false","[]","[]","[]","","","","","","","","","","","","","","","",""
"","html-button-response","2","19873","0.0-2.0","5e4b550cbc830a0625f5ceff","64de82e482ce6f16d25c714b","","","","","2632","Please Make Sure Your Audio Is On.","0","","","","","","","","","","","","",""
"","psychophysics","3","37030","0.0-3.0","5e4b550cbc830a0625f5ceff","64de82e482ce6f16d25c714b","","","","","17152",""," ","key"," ","16.698948393378775","960","250","","","","","","","",""
"","psychophysics","4","42898","0.0-4.0","5e4b550cbc830a0625f5ceff","64de82e482ce6f16d25c714b","","","","","5866",""," ","key"," ","16.666666666666668","500","250","inst","","","","","","",""
"","psychophysics","5","64277","0.0-5.0","5e4b550cbc830a0625f5ceff","64de82e482ce6f16d25c714b","","","","","21377",""," ","key"," ","16.66828393135726","500","250","sample0","","","","","","",""
"","psychophysics","6","69416","0.0-6.0","5e4b550cbc830a0625f5ceff","64de82e482ce6f16d25c714b","","","","","5137",""," ","key"," ","16.666644951140054","500","250","sample1","","","","","","",""
"","psychophysics","7","88312","0.0-7.0","5e4b550cbc830a0625f5ceff","64de82e482ce6f16d25c714b","","","","","18896",""," ","key"," ","16.666672550750217","500","250","sample2","100","","","","","",""
"","psychophysics","8","100564","0.0-8.0","5e4b550cbc830a0625f5ceff","64de82e482ce6f16d25c714b","","","","","12250",""," ","key"," ","16.669209809264302","500","250","sample3","100","","","","","",""
"","psychophysics","9","116142","0.0-9.0","5e4b550cbc830a0625f5ceff","64de82e482ce6f16d25c714b","","","","","15576",""," ","key"," ","16.666666666666668","500","250","sample4","100","","","","","",""
"","psychophysics","10","121578","0.0-10.0","5e4b550cbc830a0625f5ceff","64de82e482ce6f16d25c714b","","","","","5435",""," ","key"," ","16.666646153846166","500","250","sample5","","","","","","",""
"","psychophysics","11","133630","0.0-11.0","5e4b550cbc830a0625f5ceff","64de82e482ce6f16d25c714b","","","","","12050",""," ","key"," ","16.669322268326436","500","250","sample6","500","","","","","",""
"","psychophysics","12","138502","0.0-12.0","5e4b550cbc830a0625f5ceff","64de82e482ce6f16d25c714b","","","","","4871",""," ","key"," ","16.666666666666668","500","250","inst","","","","","","",""
"","psychophysics","13","143070","0.0-13.0","5e4b550cbc830a0625f5ceff","64de82e482ce6f16d25c714b","","","","","4565",""," ","key"," ","16.666666666666668","500","250","inst","","","","","","",""
"","psychophysics","14","145044","0.0-14.0","5e4b550cbc830a0625f5ceff","64de82e482ce6f16d25c714b","","","","","1973",""," ","key"," ","16.666666666666668","500","250","inst","","","","","","",""
"","psychophysics","15","146950","0.0-15.0","5e4b550cbc830a0625f5ceff","64de82e482ce6f16d25c714b","","","","","1904",""," ","key"," ","16.666666666666668","500","250","inst","","","","","","",""
"","psychophysics","16","153102","0.0-16.0","5e4b550cbc830a0625f5ceff","64de82e482ce6f16d25c714b","","","","","6150",""," ","key"," ","16.666684782608687","500","250","inst","","","","","","",""
"","psychophysics","17","157673","0.0-17.0","5e4b550cbc830a0625f5ceff","64de82e482ce6f16d25c714b","","","","","4570",""," ","key"," ","16.727941176470587","500","250","instZol0","0","","","0","0","0",""
"","psychophysics","18","172393","0.0-18.0","5e4b550cbc830a0625f5ceff","64de82e482ce6f16d25c714b","","","","","14719",""," ","key"," ","16.668843537414947","500","250","instZol1","2.7755575615628914e-17","","","0","0","-1.3",""
"","psychophysics","19","200426","0.0-19.0","5e4b550cbc830a0625f5ceff","64de82e482ce6f16d25c714b","","","","","28032",""," ","key"," ","16.66781677572872","500","250","instZol2","1.100000000000001","1","","0","0","2",""
"","psychophysics","20","203205","0.0-20.0","5e4b550cbc830a0625f5ceff","64de82e482ce6f16d25c714b","","","","","2778",""," ","key"," ","16.66674698795194","500","250","inst","","","","","","",""
"","psychophysics","21","208103","0.0-21.0","5e4b550cbc830a0625f5ceff","64de82e482ce6f16d25c714b","","","","","4896",""," ","key"," ","16.666689419795308","500","250","zol","0.9499999999999998","1","0","1","-10","-0.45",""
"","psychophysics","22","213042","0.0-22.0","5e4b550cbc830a0625f5ceff","64de82e482ce6f16d25c714b","","","","","4937",""," ","key"," ","16.66664406779662","500","250","zol","0.5599999999999999","1","0","5","2","-0.26",""
"","psychophysics","23","217606","0.0-23.0","5e4b550cbc830a0625f5ceff","64de82e482ce6f16d25c714b","","","","","4562",""," ","key"," ","16.666666666666668","500","250","zol","-0.09999999999999998","1","0","12","0","-0.2",""
"","psychophysics","24","225614","0.0-24.0","5e4b550cbc830a0625f5ceff","64de82e482ce6f16d25c714b","","","","","null","","null","key","null","16.6666805845512","500","250","zol","0.5300000000000001","1","0","30","-11","-0.73",""
"","psychophysics","25","225828","0.0-25.0","5e4b550cbc830a0625f5ceff","64de82e482ce6f16d25c714b","","","","","213",""," ","key"," ","16.666666666666668","500","250","zol","0.28","1","0","28","20","-0.28",""
"","psychophysics","26","231417","0.0-26.0","5e4b550cbc830a0625f5ceff","64de82e482ce6f16d25c714b","","","","","5588",""," ","key"," ","16.666706586826415","500","250","zol","0.31","1","0","-5","8","0.59",""
"","psychophysics","27","233744","0.0-27.0","5e4b550cbc830a0625f5ceff","64de82e482ce6f16d25c714b","","","","","2325",""," ","key"," ","16.666618705035997","500","250","zol","0.64","1","0","0","-7","-0.14",""
"","psychophysics","28","236248","0.0-28.0","5e4b550cbc830a0625f5ceff","64de82e482ce6f16d25c714b","","","","","2502",""," ","key"," ","16.679731543624154","500","250","zol","0.49","1","0","11","13","-0.29",""
"","psychophysics","29","239088","0.0-29.0","5e4b550cbc830a0625f5ceff","64de82e482ce6f16d25c714b","","","","","2840",""," ","key"," ","16.666705882353092","500","250","zol","1.11","1","0","-23","-10","-0.71",""
"","psychophysics","30","242587","0.0-30.0","5e4b550cbc830a0625f5ceff","64de82e482ce6f16d25c714b","","","","","3497",""," ","key"," ","16.666698564593425","500","250","zol","0.9699999999999999","1","0","-13","17","-0.37",""
"","psychophysics","31","245971","0.0-31.0","5e4b550cbc830a0625f5ceff","64de82e482ce6f16d25c714b","","","","","3382",""," ","key"," ","16.666732673267436","500","250","zol","0.52","1","0","-18","-17","-0.22",""
"","psychophysics","32","251718","0.0-32.0","5e4b550cbc830a0625f5ceff","64de82e482ce6f16d25c714b","","","","","5747",""," ","key"," ","16.666647230320624","500","250","zol","0.6699999999999999","1","0","-17","0","0.73",""
"","psychophysics","33","255018","0.0-33.0","5e4b550cbc830a0625f5ceff","64de82e482ce6f16d25c714b","","","","","3298",""," ","key"," ","16.66659898477146","500","250","zol","0.6499999999999999","1","0","-24","7","-0.05",""
"","psychophysics","34","259148","0.0-34.0","5e4b550cbc830a0625f5ceff","64de82e482ce6f16d25c714b","","","","","4126",""," ","key"," ","16.666639676113373","500","250","zol","0.7899999999999999","1","0","-18","-25","0.11",""
"","psychophysics","35","263431","0.0-35.0","5e4b550cbc830a0625f5ceff","64de82e482ce6f16d25c714b","","","","","4282",""," ","key"," ","16.666718750000086","500","250","zol","0.45999999999999996","1","0","-9","0","0.64",""
"","psychophysics","36","264361","0.0-36.0","5e4b550cbc830a0625f5ceff","64de82e482ce6f16d25c714b","","","","","929",""," ","key"," ","16.666909090908963","500","250","inst","","","","","","",""
"","psychophysics","37","267588","0.0-37.0","5e4b550cbc830a0625f5ceff","64de82e482ce6f16d25c714b","","","","","3227",""," ","key"," ","16.666632124352198","500","250","instPzPre","50","0","","","","50","50"
"","psychophysics","38","270703","0.0-38.0","5e4b550cbc830a0625f5ceff","64de82e482ce6f16d25c714b","","","","","3113",""," ","key"," ","16.66659459459463","500","250","instPz0","50","2","","","","50","50"
"","psychophysics","39","282877","0.0-39.0","5e4b550cbc830a0625f5ceff","64de82e482ce6f16d25c714b","","","","","12173",""," ","key"," ","16.669287671232897","500","250","instPz1","47","2","","","","25","50"
"","psychophysics","40","288654","0.0-40.0","5e4b550cbc830a0625f5ceff","64de82e482ce6f16d25c714b","","","","","5776",""," ","key"," ","16.666666666666668","500","250","instPz2","33","2","","","","20","35"
"","psychophysics","41","295746","0.0-41.0","5e4b550cbc830a0625f5ceff","64de82e482ce6f16d25c714b","","","","","7087",""," ","key"," ","16.666682352941237","500","250","instPz3","57","2","","","","30","100"
"","psychophysics","42","309588","0.0-42.0","5e4b550cbc830a0625f5ceff","64de82e482ce6f16d25c714b","","","","","13841",""," ","key"," ","16.668998793727354","500","250","instPz4","69","2","","","","30","100"
"","psychophysics","43","311574","0.0-43.0","5e4b550cbc830a0625f5ceff","64de82e482ce6f16d25c714b","","","","","1985",""," ","key"," ","16.666722689075357","500","250","inst","","","","","","",""
"","psychophysics","44","313965","0.0-44.0","5e4b550cbc830a0625f5ceff","64de82e482ce6f16d25c714b","","","","","2390",""," ","key"," ","16.666760563380233","500","250","pz","30","2","0","","","30","47"
"","psychophysics","45","321350","0.0-45.0","5e4b550cbc830a0625f5ceff","64de82e482ce6f16d25c714b","","","","","7382",""," ","key"," ","16.666651583710482","500","250","pz","43","2","0","","","58","57"
"","psychophysics","46","327849","0.0-46.0","5e4b550cbc830a0625f5ceff","64de82e482ce6f16d25c714b","","","","","6499",""," ","key"," ","16.66663239074552","500","250","pz","23","2","0","","","39","27"
"","psychophysics","47","332228","0.0-47.0","5e4b550cbc830a0625f5ceff","64de82e482ce6f16d25c714b","","","","","4377",""," ","key"," ","16.666641221373947","500","250","pz","19","2","0","","","43","27"
"","psychophysics","48","336035","0.0-48.0","5e4b550cbc830a0625f5ceff","64de82e482ce6f16d25c714b","","","","","3806",""," ","key"," ","16.666696035242147","500","250","pz","25","2","0","","","41","37"
"","psychophysics","49","340751","0.0-49.0","5e4b550cbc830a0625f5ceff","64de82e482ce6f16d25c714b","","","","","4714",""," ","key"," ","16.666666666666668","500","250","pz","38","2","0","","","49","55"
"","psychophysics","50","344428","0.0-50.0","5e4b550cbc830a0625f5ceff","64de82e482ce6f16d25c714b","","","","","3676",""," ","key"," ","16.67545454545444","500","250","pz","37","2","0","","","23","51"
"","psychophysics","51","349373","0.0-51.0","5e4b550cbc830a0625f5ceff","64de82e482ce6f16d25c714b","","","","","4942",""," ","key"," ","16.666644067796522","500","250","pz","34","2","0","","","53","47"
"","psychophysics","52","353429","0.0-52.0","5e4b550cbc830a0625f5ceff","64de82e482ce6f16d25c714b","","","","","4054",""," ","key"," ","16.666666666666668","500","250","pz","34","2","0","","","23","43"
"","psychophysics","53","357732","0.0-53.0","5e4b550cbc830a0625f5ceff","64de82e482ce6f16d25c714b","","","","","4300",""," ","key"," ","16.666692607003764","500","250","pz","37","2","0","","","54","47"
"","psychophysics","54","363485","0.0-54.0","5e4b550cbc830a0625f5ceff","64de82e482ce6f16d25c714b","","","","","5752",""," ","key"," ","16.666686046511533","500","250","pz","21","2","0","","","44","24"
"","psychophysics","55","368843","0.0-55.0","5e4b550cbc830a0625f5ceff","64de82e482ce6f16d25c714b","","","","","5356",""," ","key"," ","16.6666874999999","500","250","pz","27","2","0","","","58","41"
"","psychophysics","56","373097","0.0-56.0","5e4b550cbc830a0625f5ceff","64de82e482ce6f16d25c714b","","","","","4251",""," ","key"," ","16.666666666666668","500","250","pz","37","2","0","","","60","58"
"","psychophysics","57","376901","0.0-57.0","5e4b550cbc830a0625f5ceff","64de82e482ce6f16d25c714b","","","","","3803",""," ","key"," ","16.666696035242403","500","250","pz","31","2","0","","","44","39"
"","psychophysics","58","380349","0.0-58.0","5e4b550cbc830a0625f5ceff","64de82e482ce6f16d25c714b","","","","","3448",""," ","key"," ","16.676019417475775","500","250","pz","24","2","0","","","33","30"
"","psychophysics","59","381365","0.0-59.0","5e4b550cbc830a0625f5ceff","64de82e482ce6f16d25c714b","","","","","1015",""," ","key"," ","16.666666666666668","500","250","inst","","","","","","",""
"","psychophysics","60","390399","0.0-60.0","5e4b550cbc830a0625f5ceff","64de82e482ce6f16d25c714b","","","","","9033",""," ","key"," ","16.666654343807718","500","250","instPog0","340","2","","0","0","370","340"
"","psychophysics","61","401652","0.0-61.0","5e4b550cbc830a0625f5ceff","64de82e482ce6f16d25c714b","","","","","11251",""," ","key"," ","16.666676557863454","500","250","instPog1","348","2","","0","0","370","340"
"","psychophysics","62","406540","0.0-62.0","5e4b550cbc830a0625f5ceff","64de82e482ce6f16d25c714b","","","","","4887",""," ","key"," ","16.6667123287671","500","250","instPog2","340","2","","0","0","340","340"
"","psychophysics","63","407433","0.0-63.0","5e4b550cbc830a0625f5ceff","64de82e482ce6f16d25c714b","","","","","893",""," ","key"," ","16.666792452830673","500","250","inst","","","","","","",""
"","psychophysics","64","411639","0.0-64.0","5e4b550cbc830a0625f5ceff","64de82e482ce6f16d25c714b","","","","","4205",""," ","key"," ","16.666693227091734","500","250","pog","351","2","0","0","0","359","362"
"","psychophysics","65","416774","0.0-65.0","5e4b550cbc830a0625f5ceff","64de82e482ce6f16d25c714b","","","","","5134",""," ","key"," ","16.672833876221492","500","250","pog","350","2","0","0","0","322","377"
"","psychophysics","66","420255","0.0-66.0","5e4b550cbc830a0625f5ceff","64de82e482ce6f16d25c714b","","","","","3480",""," ","key"," ","16.666634615384492","500","250","pog","326","2","0","0","0","310","346"
"","psychophysics","67","427443","0.0-67.0","5e4b550cbc830a0625f5ceff","64de82e482ce6f16d25c714b","","","","","7187",""," ","key"," ","16.666651162790775","500","250","pog","293","2","0","0","0","351","305"
"","psychophysics","68","431303","0.0-68.0","5e4b550cbc830a0625f5ceff","64de82e482ce6f16d25c714b","","","","","3860",""," ","key"," ","16.666666666666668","500","250","pog","316","2","0","0","0","290","330"
"","psychophysics","69","436755","0.0-69.0","5e4b550cbc830a0625f5ceff","64de82e482ce6f16d25c714b","","","","","5451",""," ","key"," ","16.66662576687119","500","250","pog","301","2","0","0","0","291","311"
"","psychophysics","70","443409","0.0-70.0","5e4b550cbc830a0625f5ceff","64de82e482ce6f16d25c714b","","","","","6653",""," ","key"," ","16.666633165829165","500","250","pog","304","2","0","0","0","336","316"
"","psychophysics","71","447530","0.0-71.0","5e4b550cbc830a0625f5ceff","64de82e482ce6f16d25c714b","","","","","4119",""," ","key"," ","16.666666666666668","500","250","pog","325","2","0","0","0","387","337"
"","psychophysics","72","452683","0.0-72.0","5e4b550cbc830a0625f5ceff","64de82e482ce6f16d25c714b","","","","","5152",""," ","key"," ","16.672880258899625","500","250","pog","304","2","0","0","0","322","325"
"","psychophysics","73","458546","0.0-73.0","5e4b550cbc830a0625f5ceff","64de82e482ce6f16d25c714b","","","","","5861",""," ","key"," ","16.666685714285787","500","250","pog","323","2","0","0","0","343","341"
"","psychophysics","74","463332","0.0-74.0","5e4b550cbc830a0625f5ceff","64de82e482ce6f16d25c714b","","","","","4785",""," ","key"," ","16.666689895470473","500","250","pog","309","2","0","0","0","339","327"
"","psychophysics","75","468666","0.0-75.0","5e4b550cbc830a0625f5ceff","64de82e482ce6f16d25c714b","","","","","5332",""," ","key"," ","16.66670846394982","500","250","pog","340","2","0","0","0","310","353"
"","psychophysics","76","473022","0.0-76.0","5e4b550cbc830a0625f5ceff","64de82e482ce6f16d25c714b","","","","","4355",""," ","key"," ","16.666692307692184","500","250","pog","341","2","0","0","0","365","348"
"","psychophysics","77","480528","0.0-77.0","5e4b550cbc830a0625f5ceff","64de82e482ce6f16d25c714b","","","","","7505",""," ","key"," ","16.666681514476544","500","250","pog","347","2","0","0","0","307","361"
"","psychophysics","78","484742","0.0-78.0","5e4b550cbc830a0625f5ceff","64de82e482ce6f16d25c714b","","","","","4213",""," ","key"," ","16.67436507936509","500","250","pog","315","2","0","0","0","291","331"
"","psychophysics","79","485503","0.0-79.0","5e4b550cbc830a0625f5ceff","64de82e482ce6f16d25c714b","","","","","756",""," ","key"," ","16.666666666666668","500","250","inst","","","","","","",""
"","psychophysics","80","488492","0.0-80.0","5e4b550cbc830a0625f5ceff","64de82e482ce6f16d25c714b","","","","","2989",""," ","key"," ","16.66674157303367","500","250","instBr0","0","","","0","0","0","300"
"","psychophysics","81","493654","0.0-81.0","5e4b550cbc830a0625f5ceff","64de82e482ce6f16d25c714b","","","","","5160",""," ","key"," ","16.666666666666668","500","250","instBr1","4","","","0","0","-40","300"
"","psychophysics","82","499525","0.0-82.0","5e4b550cbc830a0625f5ceff","64de82e482ce6f16d25c714b","","","","","5870",""," ","key"," ","16.666666666666668","500","250","instBr3","16","2","","0","0","40","300"
"","psychophysics","83","500272","0.0-83.0","5e4b550cbc830a0625f5ceff","64de82e482ce6f16d25c714b","","","","","745",""," ","key"," ","16.66681818181744","500","250","inst","","","","","","",""
"","psychophysics","84","503334","0.0-84.0","5e4b550cbc830a0625f5ceff","64de82e482ce6f16d25c714b","","","","","3061",""," ","key"," ","16.666666666666668","500","250","br","19","2","0","-9","14","30","230"
"","psychophysics","85","507089","0.0-85.0","5e4b550cbc830a0625f5ceff","64de82e482ce6f16d25c714b","","","","","3753",""," ","key"," ","16.666696428571544","500","250","br","18","2","0","23","-19","4","271"
"","psychophysics","86","511847","0.0-86.0","5e4b550cbc830a0625f5ceff","64de82e482ce6f16d25c714b","","","","","4757",""," ","key"," ","16.666690140845162","500","250","br","19","2","0","-23","-25","-29","275"
"","psychophysics","87","514902","0.0-87.0","5e4b550cbc830a0625f5ceff","64de82e482ce6f16d25c714b","","","","","3054",""," ","key"," ","16.666666666666668","500","250","br","19","2","0","12","-30","-5","253"
"","psychophysics","88","516471","0.0-88.0","5e4b550cbc830a0625f5ceff","64de82e482ce6f16d25c714b","","","","","1568",""," ","key"," ","16.666666666666668","500","250","br","25","2","0","1","-29","27","229"
"","psychophysics","89","520762","0.0-89.0","5e4b550cbc830a0625f5ceff","64de82e482ce6f16d25c714b","","","","","4289",""," ","key"," ","16.67421874999991","500","250","br","18","2","0","27","26","-24","298"
"","psychophysics","90","524828","0.0-90.0","5e4b550cbc830a0625f5ceff","64de82e482ce6f16d25c714b","","","","","4065",""," ","key"," ","16.666666666666426","500","250","br","15","2","0","-27","19","-29","292"
"","psychophysics","91","527644","0.0-91.0","5e4b550cbc830a0625f5ceff","64de82e482ce6f16d25c714b","","","","","2816",""," ","key"," ","16.666666666666668","500","250","br","19","2","0","-28","-10","-14","289"
"","psychophysics","92","530670","0.0-92.0","5e4b550cbc830a0625f5ceff","64de82e482ce6f16d25c714b","","","","","3026",""," ","key"," ","16.66662983425368","500","250","br","22","2","0","-22","14","-6","266"
"","psychophysics","93","532979","0.0-93.0","5e4b550cbc830a0625f5ceff","64de82e482ce6f16d25c714b","","","","","2307",""," ","key"," ","16.66656934306532","500","250","br","26","2","0","-10","15","19","266"
"","psychophysics","94","536182","0.0-94.0","5e4b550cbc830a0625f5ceff","64de82e482ce6f16d25c714b","","","","","3201",""," ","key"," ","16.666596858638474","500","250","br","21","2","0","3","-1","-4","287"
"","psychophysics","95","539793","0.0-95.0","5e4b550cbc830a0625f5ceff","64de82e482ce6f16d25c714b","","","","","3611",""," ","key"," ","16.666666666666668","500","250","br","22","2","0","-7","24","-13","200"
"","psychophysics","96","542274","0.0-96.0","5e4b550cbc830a0625f5ceff","64de82e482ce6f16d25c714b","","","","","2479",""," ","key"," ","16.666621621621054","500","250","br","23","2","0","19","30","1","226"
"","psychophysics","97","549251","0.0-97.0","5e4b550cbc830a0625f5ceff","64de82e482ce6f16d25c714b","","","","","6973",""," ","key"," ","16.666666666666668","500","250","br","23","2","0","5","21","12","254"
"","psychophysics","98","552847","0.0-98.0","5e4b550cbc830a0625f5ceff","64de82e482ce6f16d25c714b","","","","","3593",""," ","key"," ","16.666697674418455","500","250","br","22","2","0","18","25","-19","264"
"","psychophysics","99","553546","0.0-99.0","5e4b550cbc830a0625f5ceff","64de82e482ce6f16d25c714b","","","","","699",""," ","key"," ","16.666829268291888","500","250","inst","","","","","","",""
"","psychophysics","100","557707","0.0-100.0","5e4b550cbc830a0625f5ceff","64de82e482ce6f16d25c714b","","","","","4159",""," ","key"," ","16.67445783132508","500","250","instEB0","40","2","","0","0","40","40"
"","psychophysics","101","561039","0.0-101.0","5e4b550cbc830a0625f5ceff","64de82e482ce6f16d25c714b","","","","","3331",""," ","key"," ","16.666633165828724","500","250","instEB1","44","2","","0","0","30","40"
"","psychophysics","102","566131","0.0-102.0","5e4b550cbc830a0625f5ceff","64de82e482ce6f16d25c714b","","","","","5091",""," ","key"," ","16.666710526315956","500","250","instEB2","34","2","","0","0","40","30"
"","psychophysics","103","576981","0.0-103.0","5e4b550cbc830a0625f5ceff","64de82e482ce6f16d25c714b","","","","","10848",""," ","key"," ","16.692357473035567","500","250","instEB3","33","2","","0","0","45","27"
"","psychophysics","104","584338","0.0-104.0","5e4b550cbc830a0625f5ceff","64de82e482ce6f16d25c714b","","","","","7357",""," ","key"," ","16.666666666666668","500","250","instEB4","44","2","","0","0","30","40"
"","psychophysics","105","584984","0.0-105.0","5e4b550cbc830a0625f5ceff","64de82e482ce6f16d25c714b","","","","","644",""," ","key"," ","16.66702702702841","500","250","inst","","","","","","",""
"","psychophysics","106","590115","0.0-106.0","5e4b550cbc830a0625f5ceff","64de82e482ce6f16d25c714b","","","","","5131",""," ","key"," ","16.67198697068419","500","250","eb","41","2","","0","0","49","33"
"","psychophysics","107","592741","0.0-107.0","5e4b550cbc830a0625f5ceff","64de82e482ce6f16d25c714b","","","","","2624",""," ","key"," ","16.666624203821122","500","250","eb","29","2","","0","0","32","24"
"","psychophysics","108","596645","0.0-108.0","5e4b550cbc830a0625f5ceff","64de82e482ce6f16d25c714b","","","","","3904",""," ","key"," ","16.66669527896982","500","250","eb","53","2","","0","0","28","49"
"","psychophysics","109","598922","0.0-109.0","5e4b550cbc830a0625f5ceff","64de82e482ce6f16d25c714b","","","","","2274",""," ","key"," ","16.666666666666668","500","250","eb","36","2","","0","0","47","31"
"","psychophysics","110","602900","0.0-110.0","5e4b550cbc830a0625f5ceff","64de82e482ce6f16d25c714b","","","","","3977",""," ","key"," ","16.66663865546183","500","250","eb","56","2","","0","0","25","51"
"","psychophysics","111","608206","0.0-111.0","5e4b550cbc830a0625f5ceff","64de82e482ce6f16d25c714b","","","","","5305",""," ","key"," ","16.666666666666668","500","250","eb","58","2","","0","0","26","51"
"","psychophysics","112","614690","0.0-112.0","5e4b550cbc830a0625f5ceff","64de82e482ce6f16d25c714b","","","","","6482",""," ","key"," ","16.666649484535867","500","250","eb","36","2","","0","0","30","30"
"","psychophysics","113","620099","0.0-113.0","5e4b550cbc830a0625f5ceff","64de82e482ce6f16d25c714b","","","","","5408",""," ","key"," ","16.666687306501448","500","250","eb","38","2","","0","0","48","33"
"","psychophysics","114","624225","0.0-114.0","5e4b550cbc830a0625f5ceff","64de82e482ce6f16d25c714b","","","","","4125",""," ","key"," ","16.67449392712541","500","250","eb","48","2","","0","0","45","51"
"","psychophysics","115","630360","0.0-115.0","5e4b550cbc830a0625f5ceff","64de82e482ce6f16d25c714b","","","","","6132",""," ","key"," ","16.666648501362488","500","250","eb","55","2","","0","0","27","46"
"","psychophysics","116","632946","0.0-116.0","5e4b550cbc830a0625f5ceff","64de82e482ce6f16d25c714b","","","","","2586",""," ","key"," ","16.666623376623587","500","250","eb","43","2","","0","0","35","36"
"","psychophysics","117","636100","0.0-117.0","5e4b550cbc830a0625f5ceff","64de82e482ce6f16d25c714b","","","","","3154",""," ","key"," ","16.666702127659402","500","250","eb","37","2","","0","0","49","34"
"","psychophysics","118","638837","0.0-118.0","5e4b550cbc830a0625f5ceff","64de82e482ce6f16d25c714b","","","","","2736",""," ","key"," ","16.666748466257268","500","250","eb","28","2","","0","0","35","25"
"","psychophysics","119","641713","0.0-119.0","5e4b550cbc830a0625f5ceff","64de82e482ce6f16d25c714b","","","","","2874",""," ","key"," ","16.666627906976935","500","250","eb","62","2","","0","0","47","53"
"","psychophysics","120","645100","0.0-120.0","5e4b550cbc830a0625f5ceff","64de82e482ce6f16d25c714b","","","","","3385",""," ","key"," ","16.666633663366497","500","250","eb","40","2","","0","0","38","32"
"","psychophysics","121","646199","0.0-121.0","5e4b550cbc830a0625f5ceff","64de82e482ce6f16d25c714b","","","","","1099",""," ","key"," ","16.66676923076873","500","250","inst","","","","","","",""
"","psychophysics","122","651901","0.0-122.0","5e4b550cbc830a0625f5ceff","64de82e482ce6f16d25c714b","","","","","5701",""," ","key"," ","16.666686217008703","500","250","instEB1","30","1","","0","0","40","30"
"","psychophysics","123","655136","0.0-123.0","5e4b550cbc830a0625f5ceff","64de82e482ce6f16d25c714b","","","","","3235",""," ","key"," ","16.6666321243525","500","250","instEB2","41","1","","0","0","30","40"
"","psychophysics","124","659237","0.0-124.0","5e4b550cbc830a0625f5ceff","64de82e482ce6f16d25c714b","","","","","4097",""," ","key"," ","16.674530612244936","500","250","instEB3","41","1","","0","0","27","45"
"","psychophysics","125","664430","0.0-125.0","5e4b550cbc830a0625f5ceff","64de82e482ce6f16d25c714b","","","","","5192",""," ","key"," ","16.666688102893787","500","250","instEB4","25","1","","0","0","40","30"
"","psychophysics","126","665279","0.0-126.0","5e4b550cbc830a0625f5ceff","64de82e482ce6f16d25c714b","","","","","847",""," ","key"," ","16.66679999999935","500","250","inst","","","","","","",""
"","psychophysics","127","670738","0.0-127.0","5e4b550cbc830a0625f5ceff","64de82e482ce6f16d25c714b","","","","","5458",""," ","key"," ","16.66668711656432","500","250","eb","35","1","","0","0","42","39"
"","psychophysics","128","673348","0.0-128.0","5e4b550cbc830a0625f5ceff","64de82e482ce6f16d25c714b","","","","","2608",""," ","key"," ","16.666666666666668","500","250","eb","27","1","","0","0","28","30"
"","psychophysics","129","677978","0.0-129.0","5e4b550cbc830a0625f5ceff","64de82e482ce6f16d25c714b","","","","","4629",""," ","key"," ","16.666642599278095","500","250","eb","31","1","","0","0","51","35"
"","psychophysics","130","681167","0.0-130.0","5e4b550cbc830a0625f5ceff","64de82e482ce6f16d25c714b","","","","","3189",""," ","key"," ","16.66673684210492","500","250","eb","26","1","","0","0","37","30"
"","psychophysics","131","684440","0.0-131.0","5e4b550cbc830a0625f5ceff","64de82e482ce6f16d25c714b","","","","","3271",""," ","key"," ","16.666666666666668","500","250","eb","26","1","","0","0","42","29"
"","psychophysics","132","685817","0.0-132.0","5e4b550cbc830a0625f5ceff","64de82e482ce6f16d25c714b","","","","","1377",""," ","key"," ","16.666829268291888","500","250","eb","32","1","","0","0","33","39"
"","psychophysics","133","688057","0.0-133.0","5e4b550cbc830a0625f5ceff","64de82e482ce6f16d25c714b","","","","","2239",""," ","key"," ","16.66661654135363","500","250","eb","42","1","","0","0","38","50"
"","psychophysics","134","691987","0.0-134.0","5e4b550cbc830a0625f5ceff","64de82e482ce6f16d25c714b","","","","","3929",""," ","key"," ","16.666638297872478","500","250","eb","27","1","","0","0","35","30"
"","psychophysics","135","694938","0.0-135.0","5e4b550cbc830a0625f5ceff","64de82e482ce6f16d25c714b","","","","","2950",""," ","key"," ","16.677840909090513","500","250","eb","34","1","","0","0","42","39"
"","psychophysics","136","698544","0.0-136.0","5e4b550cbc830a0625f5ceff","64de82e482ce6f16d25c714b","","","","","3604",""," ","key"," ","16.66660465116255","500","250","eb","23","1","","0","0","27","25"
"","psychophysics","137","701802","0.0-137.0","5e4b550cbc830a0625f5ceff","64de82e482ce6f16d25c714b","","","","","3256",""," ","key"," ","16.666666666666668","500","250","eb","47","1","","0","0","53","50"
"","psychophysics","138","707389","0.0-138.0","5e4b550cbc830a0625f5ceff","64de82e482ce6f16d25c714b","","","","","5586",""," ","key"," ","16.666646706586924","500","250","eb","34","1","","0","0","53","37"
"","psychophysics","139","711691","0.0-139.0","5e4b550cbc830a0625f5ceff","64de82e482ce6f16d25c714b","","","","","4301",""," ","key"," ","16.666614785992017","500","250","eb","38","1","","0","0","52","42"
"","psychophysics","140","713284","0.0-140.0","5e4b550cbc830a0625f5ceff","64de82e482ce6f16d25c714b","","","","","1590",""," ","key"," ","16.666526315788936","500","250","eb","39","1","","0","0","36","47"
"","psychophysics","141","714748","0.0-141.0","5e4b550cbc830a0625f5ceff","64de82e482ce6f16d25c714b","","","","","1460",""," ","key"," ","16.666666666666668","500","250","eb","48","1","","0","0","46","52"
"","psychophysics","142","715531","0.0-142.0","5e4b550cbc830a0625f5ceff","64de82e482ce6f16d25c714b","","","","","782",""," ","key"," ","16.666521739131145","500","250","inst","","","","","","",""
"","psychophysics","143","720769","0.0-143.0","5e4b550cbc830a0625f5ceff","64de82e482ce6f16d25c714b","","","","","5237",""," ","key"," ","16.666645367411874","500","250","instPz1","50","1","","","","25","50"
"","psychophysics","144","723579","0.0-144.0","5e4b550cbc830a0625f5ceff","64de82e482ce6f16d25c714b","","","","","2809",""," ","key"," ","16.666666666666668","500","250","instPz2","22","1","","","","35","20"
"","psychophysics","145","732104","0.0-145.0","5e4b550cbc830a0625f5ceff","64de82e482ce6f16d25c714b","","","","","8524",""," ","key"," ","16.670509803921494","500","250","instPz3","62","1","","","","100","30"
"","psychophysics","146","736882","0.0-146.0","5e4b550cbc830a0625f5ceff","64de82e482ce6f16d25c714b","","","","","4778",""," ","key"," ","16.666643356643064","500","250","instPz4","59","1","","","","100","30"
"","psychophysics","147","737511","0.0-147.0","5e4b550cbc830a0625f5ceff","64de82e482ce6f16d25c714b","","","","","627",""," ","key"," ","16.666666666666668","500","250","inst","","","","","","",""
"","psychophysics","148","742047","0.0-148.0","5e4b550cbc830a0625f5ceff","64de82e482ce6f16d25c714b","","","","","4533",""," ","key"," ","16.666642066420355","500","250","pz","79","1","1","","","30","44"
"","psychophysics","149","745924","0.0-149.0","5e4b550cbc830a0625f5ceff","64de82e482ce6f16d25c714b","","","","","3875",""," ","key"," ","16.66663793103462","500","250","pz","83","1","1","","","38","56"
"","psychophysics","150","747918","0.0-150.0","5e4b550cbc830a0625f5ceff","64de82e482ce6f16d25c714b","","","","","1993",""," ","key"," ","16.666722689076334","500","250","pz","35","1","1","","","25","20"
"","psychophysics","151","751741","0.0-151.0","5e4b550cbc830a0625f5ceff","64de82e482ce6f16d25c714b","","","","","3821",""," ","key"," ","16.666666666666668","500","250","pz","39","1","1","","","59","21"
"","psychophysics","152","754052","0.0-152.0","5e4b550cbc830a0625f5ceff","64de82e482ce6f16d25c714b","","","","","2311",""," ","key"," ","16.666666666666668","500","250","pz","36","1","1","","","42","21"
"","psychophysics","153","755653","0.0-153.0","5e4b550cbc830a0625f5ceff","64de82e482ce6f16d25c714b","","","","","1600",""," ","key"," ","16.66673684210492","500","250","pz","59","1","1","","","59","38"
"","psychophysics","154","757743","0.0-154.0","5e4b550cbc830a0625f5ceff","64de82e482ce6f16d25c714b","","","","","2090",""," ","key"," ","16.66661290322513","500","250","pz","45","1","1","","","45","26"
"","psychophysics","155","759587","0.0-155.0","5e4b550cbc830a0625f5ceff","64de82e482ce6f16d25c714b","","","","","1843",""," ","key"," ","16.666545454544988","500","250","pz","52","1","1","","","47","28"
"","psychophysics","156","762026","0.0-156.0","5e4b550cbc830a0625f5ceff","64de82e482ce6f16d25c714b","","","","","2438",""," ","key"," ","16.666620689655396","500","250","pz","41","1","1","","","57","20"
"","psychophysics","157","766209","0.0-157.0","5e4b550cbc830a0625f5ceff","64de82e482ce6f16d25c714b","","","","","4181",""," ","key"," ","16.67447999999998","500","250","pz","81","1","1","","","47","45"
"","psychophysics","158","770699","0.0-158.0","5e4b550cbc830a0625f5ceff","64de82e482ce6f16d25c714b","","","","","4489",""," ","key"," ","16.666617100371557","500","250","pz","86","1","1","","","37","59"
"","psychophysics","159","775270","0.0-159.0","5e4b550cbc830a0625f5ceff","64de82e482ce6f16d25c714b","","","","","4570",""," ","key"," ","16.666666666666668","500","250","pz","83","1","1","","","20","53"
"","psychophysics","160","778440","0.0-160.0","5e4b550cbc830a0625f5ceff","64de82e482ce6f16d25c714b","","","","","3169",""," ","key"," ","16.666666666666668","500","250","pz","41","1","1","","","53","27"
"","psychophysics","161","780657","0.0-161.0","5e4b550cbc830a0625f5ceff","64de82e482ce6f16d25c714b","","","","","2216",""," ","key"," ","16.666666666666668","500","250","pz","45","1","1","","","60","29"
"","psychophysics","162","783441","0.0-162.0","5e4b550cbc830a0625f5ceff","64de82e482ce6f16d25c714b","","","","","2783",""," ","key"," ","16.666626506024294","500","250","pz","69","1","1","","","39","47"
"","psychophysics","163","784086","0.0-163.0","5e4b550cbc830a0625f5ceff","64de82e482ce6f16d25c714b","","","","","644",""," ","key"," ","16.666842105265363","500","250","inst","","","","","","",""
"","psychophysics","164","788736","0.0-164.0","5e4b550cbc830a0625f5ceff","64de82e482ce6f16d25c714b","","","","","4649",""," ","key"," ","16.666690647482316","500","250","instZol1","-1.942890293094024e-16","","","0","0","-1.3",""
"","psychophysics","165","793856","0.0-165.0","5e4b550cbc830a0625f5ceff","64de82e482ce6f16d25c714b","","","","","5119",""," ","key"," ","16.666666666666668","500","250","instZol2","-0.6999999999999993","2","","0","0","2",""
"","psychophysics","166","794441","0.0-166.0","5e4b550cbc830a0625f5ceff","64de82e482ce6f16d25c714b","","","","","584",""," ","key"," ","16.66647058823625","500","250","inst","","","","","","",""
"","psychophysics","167","798178","0.0-167.0","5e4b550cbc830a0625f5ceff","64de82e482ce6f16d25c714b","","","","","3736",""," ","key"," ","16.66672645739933","500","250","zol","-0.7599999999999998","2","1","-4","-20","0.26",""
"","psychophysics","168","801928","0.0-168.0","5e4b550cbc830a0625f5ceff","64de82e482ce6f16d25c714b","","","","","3747",""," ","key"," ","16.67517857142853","500","250","zol","-1.0799999999999998","2","1","24","-10","-0.22",""
"","psychophysics","169","806534","0.0-169.0","5e4b550cbc830a0625f5ceff","64de82e482ce6f16d25c714b","","","","","4604",""," ","key"," ","16.666666666666668","500","250","zol","-0.8899999999999999","2","1","19","-25","-0.01",""
"","psychophysics","170","809804","0.0-170.0","5e4b550cbc830a0625f5ceff","64de82e482ce6f16d25c714b","","","","","3267",""," ","key"," ","16.666666666666668","500","250","zol","-0.8699999999999999","2","1","-7","-20","-0.73",""
"","psychophysics","171","814853","0.0-171.0","5e4b550cbc830a0625f5ceff","64de82e482ce6f16d25c714b","","","","","5048",""," ","key"," ","16.66662251655612","500","250","zol","-0.9699999999999999","2","1","17","8","0.37",""
"","psychophysics","172","818970","0.0-172.0","5e4b550cbc830a0625f5ceff","64de82e482ce6f16d25c714b","","","","","4116",""," ","key"," ","16.666666666666668","500","250","zol","-0.45999999999999985","2","1","-18","-11","-0.44",""
"","psychophysics","173","821282","0.0-173.0","5e4b550cbc830a0625f5ceff","64de82e482ce6f16d25c714b","","","","","2309",""," ","key"," ","16.666715328466914","500","250","zol","-1.08","2","1","12","26","0.68",""
"","psychophysics","174","824943","0.0-174.0","5e4b550cbc830a0625f5ceff","64de82e482ce6f16d25c714b","","","","","3660",""," ","key"," ","16.666666666666668","500","250","zol","-0.6400000000000001","2","1","15","-6","-0.16",""
"","psychophysics","175","826775","0.0-175.0","5e4b550cbc830a0625f5ceff","64de82e482ce6f16d25c714b","","","","","1831",""," ","key"," ","16.666605504587455","500","250","zol","-0.7599999999999999","2","1","30","-10","0.16",""
"","psychophysics","176","828926","0.0-176.0","5e4b550cbc830a0625f5ceff","64de82e482ce6f16d25c714b","","","","","2150",""," ","key"," ","16.666718749999745","500","250","zol","-0.7999999999999999","2","1","-20","-19","-0.5",""
"","psychophysics","177","830697","0.0-177.0","5e4b550cbc830a0625f5ceff","64de82e482ce6f16d25c714b","","","","","1770",""," ","key"," ","16.666666666666668","500","250","zol","-1.11","2","1","-28","-22","0.61",""
"","psychophysics","178","832869","0.0-178.0","5e4b550cbc830a0625f5ceff","64de82e482ce6f16d25c714b","","","","","2171",""," ","key"," ","16.666615384615636","500","250","zol","-0.6599999999999999","2","1","-19","-30","-0.64",""
"","psychophysics","179","837302","0.0-179.0","5e4b550cbc830a0625f5ceff","64de82e482ce6f16d25c714b","","","","","4431",""," ","key"," ","16.67381132075449","500","250","zol","-0.7699999999999999","2","1","13","27","0.47",""
"","psychophysics","180","841767","0.0-180.0","5e4b550cbc830a0625f5ceff","64de82e482ce6f16d25c714b","","","","","4462",""," ","key"," ","16.666691729323187","500","250","zol","-0.7999999999999999","2","1","15","-15","-0.5",""
"","psychophysics","181","848257","0.0-181.0","5e4b550cbc830a0625f5ceff","64de82e482ce6f16d25c714b","","","","","6490",""," ","key"," ","16.666683804627166","500","250","zol","-0.7499999999999999","2","1","2","-19","0.35",""
"","psychophysics","182","849018","0.0-182.0","5e4b550cbc830a0625f5ceff","64de82e482ce6f16d25c714b","","","","","758",""," ","key"," ","16.66681818181744","500","250","inst","","","","","","",""
"","psychophysics","183","852062","0.0-183.0","5e4b550cbc830a0625f5ceff","64de82e482ce6f16d25c714b","","","","","3042",""," ","key"," ","16.66670329670312","500","250","instPog0","160","1","","0","0","190","160"
"","psychophysics","184","855262","0.0-184.0","5e4b550cbc830a0625f5ceff","64de82e482ce6f16d25c714b","","","","","3200",""," ","key"," ","16.66670157068046","500","250","instPog1","160","1","","0","0","190","160"
"","psychophysics","185","859111","0.0-185.0","5e4b550cbc830a0625f5ceff","64de82e482ce6f16d25c714b","","","","","3848",""," ","key"," ","16.66669565217377","500","250","instPog2","170","1","","0","0","160","160"
"","psychophysics","186","859709","0.0-186.0","5e4b550cbc830a0625f5ceff","64de82e482ce6f16d25c714b","","","","","596",""," ","key"," ","16.666857142856212","500","250","inst","","","","","","",""
"","psychophysics","187","862467","0.0-187.0","5e4b550cbc830a0625f5ceff","64de82e482ce6f16d25c714b","","","","","2755",""," ","key"," ","16.666707317072973","500","250","pog","184","1","1","0","0","218","161"
"","psychophysics","188","865235","0.0-188.0","5e4b550cbc830a0625f5ceff","64de82e482ce6f16d25c714b","","","","","2767",""," ","key"," ","16.666666666666668","500","250","pog","215","1","1","0","0","179","192"
"","psychophysics","189","866647","0.0-189.0","5e4b550cbc830a0625f5ceff","64de82e482ce6f16d25c714b","","","","","1409",""," ","key"," ","16.666666666666668","500","250","pog","207","1","1","0","0","211","185"
"","psychophysics","190","869351","0.0-190.0","5e4b550cbc830a0625f5ceff","64de82e482ce6f16d25c714b","","","","","2704",""," ","key"," ","16.666708074533958","500","250","pog","172","1","1","0","0","138","157"
"","psychophysics","191","872600","0.0-191.0","5e4b550cbc830a0625f5ceff","64de82e482ce6f16d25c714b","","","","","3245",""," ","key"," ","16.67659793814438","500","250","pog","156","1","1","0","0","104","137"
"","psychophysics","192","875409","0.0-192.0","5e4b550cbc830a0625f5ceff","64de82e482ce6f16d25c714b","","","","","2808",""," ","key"," ","16.666666666666668","500","250","pog","158","1","1","0","0","108","137"
"","psychophysics","193","878675","0.0-193.0","5e4b550cbc830a0625f5ceff","64de82e482ce6f16d25c714b","","","","","3265",""," ","key"," ","16.666666666666668","500","250","pog","206","1","1","0","0","160","180"
"","psychophysics","194","883510","0.0-194.0","5e4b550cbc830a0625f5ceff","64de82e482ce6f16d25c714b","","","","","4833",""," ","key"," ","16.666712802768345","500","250","pog","174","1","1","0","0","120","166"
"","psychophysics","195","886643","0.0-195.0","5e4b550cbc830a0625f5ceff","64de82e482ce6f16d25c714b","","","","","3133",""," ","key"," ","16.666631016042956","500","250","pog","171","1","1","0","0","149","156"
"","psychophysics","196","892224","0.0-196.0","5e4b550cbc830a0625f5ceff","64de82e482ce6f16d25c714b","","","","","5580",""," ","key"," ","16.666646706586576","500","250","pog","153","1","1","0","0","203","135"
"","psychophysics","197","894166","0.0-197.0","5e4b550cbc830a0625f5ceff","64de82e482ce6f16d25c714b","","","","","1941",""," ","key"," ","16.6667826086961","500","250","pog","182","1","1","0","0","188","158"
"","psychophysics","198","895564","0.0-198.0","5e4b550cbc830a0625f5ceff","64de82e482ce6f16d25c714b","","","","","1397",""," ","key"," ","16.666746987952816","500","250","pog","203","1","1","0","0","201","184"
"","psychophysics","199","899249","0.0-199.0","5e4b550cbc830a0625f5ceff","64de82e482ce6f16d25c714b","","","","","3684",""," ","key"," ","16.666727272727506","500","250","pog","155","1","1","0","0","191","133"
"","psychophysics","200","901482","0.0-200.0","5e4b550cbc830a0625f5ceff","64de82e482ce6f16d25c714b","","","","","2231",""," ","key"," ","16.666616541352752","500","250","pog","195","1","1","0","0","171","168"
"","psychophysics","201","906055","0.0-201.0","5e4b550cbc830a0625f5ceff","64de82e482ce6f16d25c714b","","","","","4572",""," ","key"," ","16.666666666666668","500","250","pog","157","1","1","0","0","115","134"
"","psychophysics","202","906703","0.0-202.0","5e4b550cbc830a0625f5ceff","64de82e482ce6f16d25c714b","","","","","646",""," ","key"," ","16.6668421052623","500","250","inst","","","","","","",""
"","psychophysics","203","911533","0.0-203.0","5e4b550cbc830a0625f5ceff","64de82e482ce6f16d25c714b","","","","","4828",""," ","key"," ","16.673287197231687","500","250","instBr3","-19","1","","0","0","40","300"
"","psychophysics","204","912139","0.0-204.0","5e4b550cbc830a0625f5ceff","64de82e482ce6f16d25c714b","","","","","606",""," ","key"," ","16.666666666666668","500","250","inst","","","","","","",""
"","psychophysics","205","915699","0.0-205.0","5e4b550cbc830a0625f5ceff","64de82e482ce6f16d25c714b","","","","","3558",""," ","key"," ","16.666698113207392","500","250","br","-20","1","1","18","5","24","221"
"","psychophysics","206","918310","0.0-206.0","5e4b550cbc830a0625f5ceff","64de82e482ce6f16d25c714b","","","","","2609",""," ","key"," ","16.666666666666668","500","250","br","-17","1","1","-11","23","-21","261"
"","psychophysics","207","921244","0.0-207.0","5e4b550cbc830a0625f5ceff","64de82e482ce6f16d25c714b","","","","","2934",""," ","key"," ","16.666742857142484","500","250","br","-19","1","1","0","-11","14","272"
"","psychophysics","208","924863","0.0-208.0","5e4b550cbc830a0625f5ceff","64de82e482ce6f16d25c714b","","","","","3617",""," ","key"," ","16.666666666666668","500","250","br","-14","1","1","25","-11","26","241"
"","psychophysics","209","927870","0.0-209.0","5e4b550cbc830a0625f5ceff","64de82e482ce6f16d25c714b","","","","","3007",""," ","key"," ","16.666592178770664","500","250","br","-13","1","1","29","-6","17","283"
"","psychophysics","210","930756","0.0-210.0","5e4b550cbc830a0625f5ceff","64de82e482ce6f16d25c714b","","","","","2884",""," ","key"," ","16.666627906976256","500","250","br","-11","1","1","29","-22","7","229"
"","psychophysics","211","933559","0.0-211.0","5e4b550cbc830a0625f5ceff","64de82e482ce6f16d25c714b","","","","","2800",""," ","key"," ","16.666666666666668","500","250","br","-14","1","1","27","-16","19","270"
"","psychophysics","212","936938","0.0-212.0","5e4b550cbc830a0625f5ceff","64de82e482ce6f16d25c714b","","","","","3378",""," ","key"," ","16.666666666666668","500","250","br","-18","1","1","9","-20","-21","287"
"","psychophysics","213","943118","0.0-213.0","5e4b550cbc830a0625f5ceff","64de82e482ce6f16d25c714b","","","","","6179",""," ","key"," ","16.67183783783804","500","250","br","-23","1","1","22","-1","22","201"
"","psychophysics","214","945560","0.0-214.0","5e4b550cbc830a0625f5ceff","64de82e482ce6f16d25c714b","","","","","2438",""," ","key"," ","16.6665753424662","500","250","br","-15","1","1","-16","-14","-10","215"
"","psychophysics","215","948976","0.0-215.0","5e4b550cbc830a0625f5ceff","64de82e482ce6f16d25c714b","","","","","3413",""," ","key"," ","16.666666666666668","500","250","br","-19","1","1","9","-10","21","231"
"","psychophysics","216","952927","0.0-216.0","5e4b550cbc830a0625f5ceff","64de82e482ce6f16d25c714b","","","","","3950",""," ","key"," ","16.666694915254098","500","250","br","-17","1","1","-21","25","14","245"
"","psychophysics","217","954594","0.0-217.0","5e4b550cbc830a0625f5ceff","64de82e482ce6f16d25c714b","","","","","1666",""," ","key"," ","16.666666666666668","500","250","br","-20","1","1","3","-24","-21","233"
"","psychophysics","218","960533","0.0-218.0","5e4b550cbc830a0625f5ceff","64de82e482ce6f16d25c714b","","","","","5937",""," ","key"," ","16.66670422535193","500","250","br","-19","1","1","-25","28","18","235"
"","psychophysics","219","962501","0.0-219.0","5e4b550cbc830a0625f5ceff","64de82e482ce6f16d25c714b","","","","","1967",""," ","key"," ","16.666666666666668","500","250","br","-17","1","1","0","9","-7","231"
