"success","trial_type","trial_index","time_elapsed","internal_node_id","pid","sid","timeout","failed_images","failed_audio","failed_video","rt","stimulus","response","response_type","key_press","avg_frame_time","center_x","center_y","task","resp","start","parA","version","block","jitterX","jitterY"
"true","fullscreen","0","3300","0.0-0.0","5ed0f56775d2930009f54d97","64de83a0f6901cee0255f9ad","","","","","","","","","","","","","","","","","","","",""
"true","preload","1","3371","0.0-1.0","5ed0f56775d2930009f54d97","64de83a0f6901cee0255f9ad","false","[]","[]","[]","","","","","","","","","","","","","","","",""
"","html-button-response","2","34909","0.0-2.0","5ed0f56775d2930009f54d97","64de83a0f6901cee0255f9ad","","","","","31533","Please Make Sure Your Audio Is On.","0","","","","","","","","","","","","",""
"","psychophysics","3","38875","0.0-3.0","5ed0f56775d2930009f54d97","64de83a0f6901cee0255f9ad","","","","","3914",""," ","key"," ","16.796144067796607","720","250","","","","","","","",""
"","psychophysics","4","42934","0.0-4.0","5ed0f56775d2930009f54d97","64de83a0f6901cee0255f9ad","","","","","4056",""," ","key"," ","16.72382231404956","500","250","inst","","","","","","",""
"","psychophysics","5","48014","0.0-5.0","5ed0f56775d2930009f54d97","64de83a0f6901cee0255f9ad","","","","","5078",""," ","key"," ","16.656240924092412","500","250","sample0","","","","","","",""
"","psychophysics","6","50254","0.0-6.0","5ed0f56775d2930009f54d97","64de83a0f6901cee0255f9ad","","","","","2235",""," ","key"," ","16.654999999999976","500","250","sample1","","","","","","",""
"","psychophysics","7","58092","0.0-7.0","5ed0f56775d2930009f54d97","64de83a0f6901cee0255f9ad","","","","","7829",""," ","key"," ","16.655800000000006","500","250","sample2","114","","","","","",""
"","psychophysics","8","61733","0.0-8.0","5ed0f56775d2930009f54d97","64de83a0f6901cee0255f9ad","","","","","3639",""," ","key"," ","16.65500000000001","500","250","sample3","86","","","","","",""
"","psychophysics","9","70319","0.0-9.0","5ed0f56775d2930009f54d97","64de83a0f6901cee0255f9ad","","","","","8578",""," ","key"," ","16.655730097087368","500","250","sample4","102","","","","","",""
"","psychophysics","10","74378","0.0-10.0","5ed0f56775d2930009f54d97","64de83a0f6901cee0255f9ad","","","","","4056",""," ","key"," ","16.654999999999973","500","250","sample5","","","","","","",""
"","psychophysics","11","77230","0.0-11.0","5ed0f56775d2930009f54d97","64de83a0f6901cee0255f9ad","","","","","2850",""," ","key"," ","16.65721764705882","500","250","sample6","458","","","","","",""
"","psychophysics","12","82397","0.0-12.0","5ed0f56775d2930009f54d97","64de83a0f6901cee0255f9ad","","","","","5164",""," ","key"," ","16.655000000000012","500","250","inst","","","","","","",""
"","psychophysics","13","87843","0.0-13.0","5ed0f56775d2930009f54d97","64de83a0f6901cee0255f9ad","","","","","5446",""," ","key"," ","16.65615337423314","500","250","inst","","","","","","",""
"","psychophysics","14","90019","0.0-14.0","5ed0f56775d2930009f54d97","64de83a0f6901cee0255f9ad","","","","","2174",""," ","key"," ","16.654999999999955","500","250","inst","","","","","","",""
"","psychophysics","15","96607","0.0-15.0","5ed0f56775d2930009f54d97","64de83a0f6901cee0255f9ad","","","","","6587",""," ","key"," ","16.65595431472084","500","250","inst","","","","","","",""
"","psychophysics","16","98006","0.0-16.0","5ed0f56775d2930009f54d97","64de83a0f6901cee0255f9ad","","","","","1397",""," ","key"," ","16.654999999999887","500","250","inst","","","","","","",""
"","psychophysics","17","102031","0.0-17.0","5ed0f56775d2930009f54d97","64de83a0f6901cee0255f9ad","","","","","4023",""," ","key"," ","16.655000000000044","500","250","instPzPre","50","50","50","0","","",""
"","psychophysics","18","104065","0.0-18.0","5ed0f56775d2930009f54d97","64de83a0f6901cee0255f9ad","","","","","2032",""," ","key"," ","16.65499999999992","500","250","instPz0","50","50","50","2","","",""
"","psychophysics","19","119300","0.0-19.0","5ed0f56775d2930009f54d97","64de83a0f6901cee0255f9ad","","","","","15233",""," ","key"," ","16.655823851203497","500","250","instPz1","40","25","50","2","","",""
"","psychophysics","20","124100","0.0-20.0","5ed0f56775d2930009f54d97","64de83a0f6901cee0255f9ad","","","","","4797",""," ","key"," ","16.655","500","250","instPz2","31","20","35","2","","",""
"","psychophysics","21","135313","0.0-21.0","5ed0f56775d2930009f54d97","64de83a0f6901cee0255f9ad","","","","","11210",""," ","key"," ","16.656119047619065","500","250","instPz3","30","30","100","2","","",""
"","psychophysics","22","144422","0.0-22.0","5ed0f56775d2930009f54d97","64de83a0f6901cee0255f9ad","","","","","9105",""," ","key"," ","16.68555963302753","500","250","instPz4","65","30","100","2","","",""
"","psychophysics","23","151468","0.0-23.0","5ed0f56775d2930009f54d97","64de83a0f6901cee0255f9ad","","","","","7045",""," ","key"," ","16.655890995260645","500","250","inst","","","","","","",""
"","psychophysics","24","155254","0.0-24.0","5ed0f56775d2930009f54d97","64de83a0f6901cee0255f9ad","","","","","3779",""," ","key"," ","16.656660792951566","500","250","pz","26","38","29","2","0","",""
"","psychophysics","25","161741","0.0-25.0","5ed0f56775d2930009f54d97","64de83a0f6901cee0255f9ad","","","","","6485",""," ","key"," ","16.654999999999962","500","250","pz","29","58","45","2","0","",""
"","psychophysics","26","166529","0.0-26.0","5ed0f56775d2930009f54d97","64de83a0f6901cee0255f9ad","","","","","4785",""," ","key"," ","16.65631010452963","500","250","pz","18","20","27","2","0","",""
"","psychophysics","27","169100","0.0-27.0","5ed0f56775d2930009f54d97","64de83a0f6901cee0255f9ad","","","","","2566",""," ","key"," ","16.654999999999976","500","250","pz","22","24","28","2","0","",""
"","psychophysics","28","174647","0.0-28.0","5ed0f56775d2930009f54d97","64de83a0f6901cee0255f9ad","","","","","5545",""," ","key"," ","16.65500000000006","500","250","pz","42","26","60","2","0","",""
"","psychophysics","29","180061","0.0-29.0","5ed0f56775d2930009f54d97","64de83a0f6901cee0255f9ad","","","","","5412",""," ","key"," ","16.75961490683227","500","250","pz","30","48","42","2","0","",""
"","psychophysics","30","183179","0.0-30.0","5ed0f56775d2930009f54d97","64de83a0f6901cee0255f9ad","","","","","3115",""," ","key"," ","16.65499999999993","500","250","pz","31","24","54","2","0","",""
"","psychophysics","31","186152","0.0-31.0","5ed0f56775d2930009f54d97","64de83a0f6901cee0255f9ad","","","","","2971",""," ","key"," ","16.657112359550645","500","250","pz","35","43","40","2","0","",""
"","psychophysics","32","192572","0.0-32.0","5ed0f56775d2930009f54d97","64de83a0f6901cee0255f9ad","","","","","6417",""," ","key"," ","16.654999999999973","500","250","pz","23","60","38","2","0","",""
"","psychophysics","33","197853","0.0-33.0","5ed0f56775d2930009f54d97","64de83a0f6901cee0255f9ad","","","","","5279",""," ","key"," ","16.65619303797474","500","250","pz","16","50","23","2","0","",""
"","psychophysics","34","202028","0.0-34.0","5ed0f56775d2930009f54d97","64de83a0f6901cee0255f9ad","","","","","4173",""," ","key"," ","16.655","500","250","pz","19","44","28","2","0","",""
"","psychophysics","35","207329","0.0-35.0","5ed0f56775d2930009f54d97","64de83a0f6901cee0255f9ad","","","","","5299",""," ","key"," ","16.656186119873812","500","250","pz","20","59","28","2","0","",""
"","psychophysics","36","210945","0.0-36.0","5ed0f56775d2930009f54d97","64de83a0f6901cee0255f9ad","","","","","3613",""," ","key"," ","16.655000000000047","500","250","pz","35","50","59","2","0","",""
"","psychophysics","37","214020","0.0-37.0","5ed0f56775d2930009f54d97","64de83a0f6901cee0255f9ad","","","","","3071",""," ","key"," ","16.654999999999944","500","250","pz","21","30","28","2","0","",""
"","psychophysics","38","216861","0.0-38.0","5ed0f56775d2930009f54d97","64de83a0f6901cee0255f9ad","","","","","2837",""," ","key"," ","16.657211764705853","500","250","pz","26","47","38","2","0","",""
"","psychophysics","39","229657","0.0-39.0","5ed0f56775d2930009f54d97","64de83a0f6901cee0255f9ad","","","","","12794",""," ","key"," ","16.65549022164276","500","250","inst","","","","","","",""
"","psychophysics","40","231704","0.0-40.0","5ed0f56775d2930009f54d97","64de83a0f6901cee0255f9ad","","","","","2044",""," ","key"," ","16.65500000000003","500","250","instBr0","0","0","300","","","0","0"
"","psychophysics","41","239020","0.0-41.0","5ed0f56775d2930009f54d97","64de83a0f6901cee0255f9ad","","","","","7314",""," ","key"," ","16.65586073059359","500","250","instBr1","2","-40","300","","","0","0"
"","psychophysics","42","250481","0.0-42.0","5ed0f56775d2930009f54d97","64de83a0f6901cee0255f9ad","","","","","11459",""," ","key"," ","16.655547307132423","500","250","instBr3","-14","40","300","1","","0","0"
"","psychophysics","43","251196","0.0-43.0","5ed0f56775d2930009f54d97","64de83a0f6901cee0255f9ad","","","","","712",""," ","key"," ","16.65500000000022","500","250","inst","","","","","","",""
"","psychophysics","44","253305","0.0-44.0","5ed0f56775d2930009f54d97","64de83a0f6901cee0255f9ad","","","","","2106",""," ","key"," ","16.65499999999999","500","250","br","-21","-19","289","1","0","-8","-17"
"","psychophysics","45","257129","0.0-45.0","5ed0f56775d2930009f54d97","64de83a0f6901cee0255f9ad","","","","","3822",""," ","key"," ","16.65664912280708","500","250","br","-12","15","245","1","0","26","-27"
"","psychophysics","46","261412","0.0-46.0","5ed0f56775d2930009f54d97","64de83a0f6901cee0255f9ad","","","","","4271",""," ","key"," ","16.65499999999997","500","250","br","-16","0","212","1","0","-19","23"
"","psychophysics","47","265083","0.0-47.0","5ed0f56775d2930009f54d97","64de83a0f6901cee0255f9ad","","","","","3668",""," ","key"," ","16.655000000000033","500","250","br","-9","12","279","1","0","4","19"
"","psychophysics","48","268157","0.0-48.0","5ed0f56775d2930009f54d97","64de83a0f6901cee0255f9ad","","","","","3071",""," ","key"," ","16.657043478260913","500","250","br","-22","-30","267","1","0","9","30"
"","psychophysics","49","270400","0.0-49.0","5ed0f56775d2930009f54d97","64de83a0f6901cee0255f9ad","","","","","2240",""," ","key"," ","16.65499999999993","500","250","br","-16","-7","231","1","0","2","19"
"","psychophysics","50","272993","0.0-50.0","5ed0f56775d2930009f54d97","64de83a0f6901cee0255f9ad","","","","","2591",""," ","key"," ","16.65500000000015","500","250","br","-16","-10","227","1","0","-30","30"
"","psychophysics","51","275199","0.0-51.0","5ed0f56775d2930009f54d97","64de83a0f6901cee0255f9ad","","","","","2205",""," ","key"," ","16.654999999999948","500","250","br","-11","4","224","1","0","7","-4"
"","psychophysics","52","278770","0.0-52.0","5ed0f56775d2930009f54d97","64de83a0f6901cee0255f9ad","","","","","3565",""," ","key"," ","16.654999999999923","500","250","br","-11","20","223","1","0","-22","-19"
"","psychophysics","53","280450","0.0-53.0","5ed0f56775d2930009f54d97","64de83a0f6901cee0255f9ad","","","","","1678",""," ","key"," ","16.655","500","250","br","-24","-15","273","1","0","3","-8"
"","psychophysics","54","283913","0.0-54.0","5ed0f56775d2930009f54d97","64de83a0f6901cee0255f9ad","","","","","3460",""," ","key"," ","16.6550000000001","500","250","br","-14","15","281","1","0","-17","17"
"","psychophysics","55","286372","0.0-55.0","5ed0f56775d2930009f54d97","64de83a0f6901cee0255f9ad","","","","","2455",""," ","key"," ","16.657575342465712","500","250","br","-19","-3","232","1","0","-25","-26"
"","psychophysics","56","291839","0.0-56.0","5ed0f56775d2930009f54d97","64de83a0f6901cee0255f9ad","","","","","5465",""," ","key"," ","16.6549999999999","500","250","br","-10","27","205","1","0","-27","-8"
"","psychophysics","57","297830","0.0-57.0","5ed0f56775d2930009f54d97","64de83a0f6901cee0255f9ad","","","","","5988",""," ","key"," ","16.656050279329552","500","250","br","-22","2","293","1","0","-4","17"
"","psychophysics","58","303600","0.0-58.0","5ed0f56775d2930009f54d97","64de83a0f6901cee0255f9ad","","","","","5767",""," ","key"," ","16.655000000000012","500","250","br","-23","6","277","1","0","-18","-25"
"","psychophysics","59","304801","0.0-59.0","5ed0f56775d2930009f54d97","64de83a0f6901cee0255f9ad","","","","","1199",""," ","key"," ","16.655000000000065","500","250","inst","","","","","","",""
"","psychophysics","60","310344","0.0-60.0","5ed0f56775d2930009f54d97","64de83a0f6901cee0255f9ad","","","","","5541",""," ","key"," ","16.65613253012034","500","250","instEB0","40","40","40","2","","0","0"
"","psychophysics","61","315609","0.0-61.0","5ed0f56775d2930009f54d97","64de83a0f6901cee0255f9ad","","","","","5264",""," ","key"," ","16.656196825396794","500","250","instEB1","41","30","40","2","","0","0"
"","psychophysics","62","321023","0.0-62.0","5ed0f56775d2930009f54d97","64de83a0f6901cee0255f9ad","","","","","5412",""," ","key"," ","16.654999999999912","500","250","instEB2","35","40","30","2","","0","0"
"","psychophysics","63","328435","0.0-63.0","5ed0f56775d2930009f54d97","64de83a0f6901cee0255f9ad","","","","","7409",""," ","key"," ","16.65584684684684","500","250","instEB3","32","45","27","2","","0","0"
"","psychophysics","64","333953","0.0-64.0","5ed0f56775d2930009f54d97","64de83a0f6901cee0255f9ad","","","","","5516",""," ","key"," ","16.655000000000072","500","250","instEB4","49","30","40","2","","0","0"
"","psychophysics","65","338649","0.0-65.0","5ed0f56775d2930009f54d97","64de83a0f6901cee0255f9ad","","","","","4694",""," ","key"," ","16.65633807829196","500","250","inst","","","","","","",""
"","psychophysics","66","341738","0.0-66.0","5ed0f56775d2930009f54d97","64de83a0f6901cee0255f9ad","","","","","3087",""," ","key"," ","16.654999999999937","500","250","eb","46","29","34","2","","0","0"
"","psychophysics","67","344854","0.0-67.0","5ed0f56775d2930009f54d97","64de83a0f6901cee0255f9ad","","","","","3114",""," ","key"," ","16.655000000000086","500","250","eb","42","36","33","2","","0","0"
"","psychophysics","68","347968","0.0-68.0","5ed0f56775d2930009f54d97","64de83a0f6901cee0255f9ad","","","","","3111",""," ","key"," ","16.657021505376374","500","250","eb","54","52","50","2","","0","0"
"","psychophysics","69","350754","0.0-69.0","5ed0f56775d2930009f54d97","64de83a0f6901cee0255f9ad","","","","","2783",""," ","key"," ","16.65500000000024","500","250","eb","41","52","26","2","","0","0"
"","psychophysics","70","354332","0.0-70.0","5ed0f56775d2930009f54d97","64de83a0f6901cee0255f9ad","","","","","3576",""," ","key"," ","16.655000000000197","500","250","eb","37","53","24","2","","0","0"
"","psychophysics","71","358646","0.0-71.0","5ed0f56775d2930009f54d97","64de83a0f6901cee0255f9ad","","","","","4311",""," ","key"," ","16.656461240310183","500","250","eb","56","33","49","2","","0","0"
"","psychophysics","72","362581","0.0-72.0","5ed0f56775d2930009f54d97","64de83a0f6901cee0255f9ad","","","","","3932",""," ","key"," ","16.65499999999995","500","250","eb","40","52","28","2","","0","0"
"","psychophysics","73","365833","0.0-73.0","5ed0f56775d2930009f54d97","64de83a0f6901cee0255f9ad","","","","","3249",""," ","key"," ","16.656938144329878","500","250","eb","50","44","39","2","","0","0"
"","psychophysics","74","371651","0.0-74.0","5ed0f56775d2930009f54d97","64de83a0f6901cee0255f9ad","","","","","5812",""," ","key"," ","16.655000000000086","500","250","eb","35","27","31","2","","0","0"
"","psychophysics","75","373763","0.0-75.0","5ed0f56775d2930009f54d97","64de83a0f6901cee0255f9ad","","","","","2109",""," ","key"," ","16.655","500","250","eb","35","40","30","2","","0","0"
"","psychophysics","76","378104","0.0-76.0","5ed0f56775d2930009f54d97","64de83a0f6901cee0255f9ad","","","","","4334",""," ","key"," ","16.65644615384607","500","250","eb","59","40","52","2","","0","0"
"","psychophysics","77","382144","0.0-77.0","5ed0f56775d2930009f54d97","64de83a0f6901cee0255f9ad","","","","","4038",""," ","key"," ","16.724107883817467","500","250","eb","58","45","46","2","","0","0"
"","psychophysics","78","383978","0.0-78.0","5ed0f56775d2930009f54d97","64de83a0f6901cee0255f9ad","","","","","1829",""," ","key"," ","16.65500000000017","500","250","eb","52","46","46","2","","0","0"
"","psychophysics","79","386158","0.0-79.0","5ed0f56775d2930009f54d97","64de83a0f6901cee0255f9ad","","","","","2177",""," ","key"," ","16.657892307692403","500","250","eb","43","44","33","2","","0","0"
"","psychophysics","80","389797","0.0-80.0","5ed0f56775d2930009f54d97","64de83a0f6901cee0255f9ad","","","","","3636",""," ","key"," ","16.655000000000044","500","250","eb","41","28","34","2","","0","0"
"","psychophysics","81","394392","0.0-81.0","5ed0f56775d2930009f54d97","64de83a0f6901cee0255f9ad","","","","","4594",""," ","key"," ","16.655","500","250","inst","","","","","","",""
"","psychophysics","82","401282","0.0-82.0","5ed0f56775d2930009f54d97","64de83a0f6901cee0255f9ad","","","","","6890",""," ","key"," ","16.655912832929765","500","250","instPog0","340","370","340","2","","0","0"
"","psychophysics","83","405348","0.0-83.0","5ed0f56775d2930009f54d97","64de83a0f6901cee0255f9ad","","","","","4064",""," ","key"," ","16.655000000000154","500","250","instPog1","370","370","340","2","","0","0"
"","psychophysics","84","413233","0.0-84.0","5ed0f56775d2930009f54d97","64de83a0f6901cee0255f9ad","","","","","7883",""," ","key"," ","16.65579661016954","500","250","instPog2","318","340","340","2","","0","0"
"","psychophysics","85","413792","0.0-85.0","5ed0f56775d2930009f54d97","64de83a0f6901cee0255f9ad","","","","","555",""," ","key"," ","16.654999999999717","500","250","inst","","","","","","",""
"","psychophysics","86","417059","0.0-86.0","5ed0f56775d2930009f54d97","64de83a0f6901cee0255f9ad","","","","","3265",""," ","key"," ","16.65692820512833","500","250","pog","327","331","357","2","0","0","0"
"","psychophysics","87","421569","0.0-87.0","5ed0f56775d2930009f54d97","64de83a0f6901cee0255f9ad","","","","","4501",""," ","key"," ","16.65500000000013","500","250","pog","332","302","366","2","0","0","0"
"","psychophysics","88","426525","0.0-88.0","5ed0f56775d2930009f54d97","64de83a0f6901cee0255f9ad","","","","","4953",""," ","key"," ","16.656265993266068","500","250","pog","305","367","333","2","0","0","0"
"","psychophysics","89","431945","0.0-89.0","5ed0f56775d2930009f54d97","64de83a0f6901cee0255f9ad","","","","","5418",""," ","key"," ","16.655000000000094","500","250","pog","313","371","341","2","0","0","0"
"","psychophysics","90","437609","0.0-90.0","5ed0f56775d2930009f54d97","64de83a0f6901cee0255f9ad","","","","","5662",""," ","key"," ","16.65611209439534","500","250","pog","332","306","357","2","0","0","0"
"","psychophysics","91","445611","0.0-91.0","5ed0f56775d2930009f54d97","64de83a0f6901cee0255f9ad","","","","","null","","null","key","null","16.655000000000047","500","250","pog","325","287","344","2","0","0","0"
"","psychophysics","92","451912","0.0-92.0","5ed0f56775d2930009f54d97","64de83a0f6901cee0255f9ad","","","","","6300",""," ","key"," ","16.655997347480227","500","250","pog","269","369","303","2","0","0","0"
"","psychophysics","93","456175","0.0-93.0","5ed0f56775d2930009f54d97","64de83a0f6901cee0255f9ad","","","","","4260",""," ","key"," ","16.65647450980397","500","250","pog","334","366","361","2","0","0","0"
"","psychophysics","94","461780","0.0-94.0","5ed0f56775d2930009f54d97","64de83a0f6901cee0255f9ad","","","","","5603",""," ","key"," ","16.654999999999966","500","250","pog","286","376","314","2","0","0","0"
"","psychophysics","95","465965","0.0-95.0","5ed0f56775d2930009f54d97","64de83a0f6901cee0255f9ad","","","","","4183",""," ","key"," ","16.656498007968196","500","250","pog","337","383","359","2","0","0","0"
"","psychophysics","96","467947","0.0-96.0","5ed0f56775d2930009f54d97","64de83a0f6901cee0255f9ad","","","","","1980",""," ","key"," ","16.655000000000317","500","250","pog","288","294","315","2","0","0","0"
"","psychophysics","97","472508","0.0-97.0","5ed0f56775d2930009f54d97","64de83a0f6901cee0255f9ad","","","","","4558",""," ","key"," ","16.65500000000001","500","250","pog","334","360","350","2","0","0","0"
"","psychophysics","98","478196","0.0-98.0","5ed0f56775d2930009f54d97","64de83a0f6901cee0255f9ad","","","","","5686",""," ","key"," ","16.656108823529383","500","250","pog","274","368","303","2","0","0","0"
"","psychophysics","99","484454","0.0-99.0","5ed0f56775d2930009f54d97","64de83a0f6901cee0255f9ad","","","","","6256",""," ","key"," ","16.655","500","250","pog","288","356","317","2","0","0","0"
"","psychophysics","100","489878","0.0-100.0","5ed0f56775d2930009f54d97","64de83a0f6901cee0255f9ad","","","","","5421",""," ","key"," ","16.656160493827223","500","250","pog","291","377","316","2","0","0","0"
"","psychophysics","101","623741","0.0-101.0","5ed0f56775d2930009f54d97","64de83a0f6901cee0255f9ad","","","","","133866",""," ","key"," ","16.657681184668995","500","250","inst","","","","","","",""
"","psychophysics","102","626483","0.0-102.0","5ed0f56775d2930009f54d97","64de83a0f6901cee0255f9ad","","","","","2740",""," ","key"," ","16.657306748466635","500","250","instZol0","0","0","","","","0","0"
"","psychophysics","103","636037","0.0-103.0","5ed0f56775d2930009f54d97","64de83a0f6901cee0255f9ad","","","","","9550",""," ","key"," ","16.6549999999999","500","250","instZol1","0.20000000000000004","-1.3","","","","0","0"
"","psychophysics","104","643493","0.0-104.0","5ed0f56775d2930009f54d97","64de83a0f6901cee0255f9ad","","","","","7453",""," ","key"," ","16.655843400447452","500","250","instZol2","-1.9","2","","2","","0","0"
"","psychophysics","105","644472","0.0-105.0","5ed0f56775d2930009f54d97","64de83a0f6901cee0255f9ad","","","","","977",""," ","key"," ","16.654999999999838","500","250","inst","","","","","","",""
"","psychophysics","106","648838","0.0-106.0","5ed0f56775d2930009f54d97","64de83a0f6901cee0255f9ad","","","","","4362",""," ","key"," ","16.65644061302684","500","250","zol","-0.8999999999999999","-0.1","","2","0","0","14"
"","psychophysics","107","651721","0.0-107.0","5ed0f56775d2930009f54d97","64de83a0f6901cee0255f9ad","","","","","2879",""," ","key"," ","16.65500000000019","500","250","zol","-1.04","-0.46","","2","0","7","-1"
"","psychophysics","108","654744","0.0-108.0","5ed0f56775d2930009f54d97","64de83a0f6901cee0255f9ad","","","","","3020",""," ","key"," ","16.654999999999482","500","250","zol","-1.4300000000000004","0.43","","2","0","-28","-8"
"","psychophysics","109","658098","0.0-109.0","5ed0f56775d2930009f54d97","64de83a0f6901cee0255f9ad","","","","","3350",""," ","key"," ","16.656870646766546","500","250","zol","-0.8199999999999998","-0.68","","2","0","15","-26"
"","psychophysics","110","660897","0.0-110.0","5ed0f56775d2930009f54d97","64de83a0f6901cee0255f9ad","","","","","2795",""," ","key"," ","16.655000000000054","500","250","zol","-1.2600000000000002","0.56","","2","0","-16","-17"
"","psychophysics","111","663248","0.0-111.0","5ed0f56775d2930009f54d97","64de83a0f6901cee0255f9ad","","","","","2347",""," ","key"," ","16.654999999999667","500","250","zol","-0.72","-0.38","","2","0","-1","-1"
"","psychophysics","112","667056","0.0-112.0","5ed0f56775d2930009f54d97","64de83a0f6901cee0255f9ad","","","","","3806",""," ","key"," ","16.65664912280708","500","250","zol","-1.5400000000000005","-0.16","","2","0","-19","20"
"","psychophysics","113","669488","0.0-113.0","5ed0f56775d2930009f54d97","64de83a0f6901cee0255f9ad","","","","","2426",""," ","key"," ","16.654999999999838","500","250","zol","-1.5400000000000005","0.14","","2","0","8","-23"
"","psychophysics","114","672488","0.0-114.0","5ed0f56775d2930009f54d97","64de83a0f6901cee0255f9ad","","","","","2997",""," ","key"," ","16.654999999999973","500","250","zol","-1.4700000000000002","-0.53","","2","0","4","-20"
"","psychophysics","115","674148","0.0-115.0","5ed0f56775d2930009f54d97","64de83a0f6901cee0255f9ad","","","","","1656",""," ","key"," ","16.65499999999943","500","250","zol","-1.3500000000000003","0.65","","2","0","29","11"
"","psychophysics","116","678034","0.0-116.0","5ed0f56775d2930009f54d97","64de83a0f6901cee0255f9ad","","","","","3881",""," ","key"," ","16.65661802575094","500","250","zol","-1.6400000000000003","-0.56","","2","0","-7","1"
"","psychophysics","117","680586","0.0-117.0","5ed0f56775d2930009f54d97","64de83a0f6901cee0255f9ad","","","","","2549",""," ","key"," ","16.654999999999603","500","250","zol","-1.4900000000000002","-0.31","","2","0","18","25"
"","psychophysics","118","682418","0.0-118.0","5ed0f56775d2930009f54d97","64de83a0f6901cee0255f9ad","","","","","1829",""," ","key"," ","16.65500000000017","500","250","zol","-1.6400000000000006","0.54","","2","0","6","4"
"","psychophysics","119","684165","0.0-119.0","5ed0f56775d2930009f54d97","64de83a0f6901cee0255f9ad","","","","","1743",""," ","key"," ","16.654999999999955","500","250","zol","-0.39","-0.61","","2","0","-27","17"
"","psychophysics","120","686844","0.0-120.0","5ed0f56775d2930009f54d97","64de83a0f6901cee0255f9ad","","","","","2676",""," ","key"," ","16.657350000000587","500","250","zol","-1.25","-0.75","","2","0","29","-18"
"","psychophysics","121","687478","0.0-121.0","5ed0f56775d2930009f54d97","64de83a0f6901cee0255f9ad","","","","","632",""," ","key"," ","16.65500000000277","500","250","inst","","","","","","",""
"","psychophysics","122","689582","0.0-122.0","5ed0f56775d2930009f54d97","64de83a0f6901cee0255f9ad","","","","","2102",""," ","key"," ","16.655","500","250","instPz1","25","25","50","1","","",""
"","psychophysics","123","695837","0.0-123.0","5ed0f56775d2930009f54d97","64de83a0f6901cee0255f9ad","","","","","6249",""," ","key"," ","16.655","500","250","instPz2","26","35","20","1","","",""
"","psychophysics","124","705237","0.0-124.0","5ed0f56775d2930009f54d97","64de83a0f6901cee0255f9ad","","","","","9397",""," ","key"," ","16.65566785079919","500","250","instPz3","50","100","30","1","","",""
"","psychophysics","125","712643","0.0-125.0","5ed0f56775d2930009f54d97","64de83a0f6901cee0255f9ad","","","","","7404",""," ","key"," ","16.65584684684684","500","250","instPz4","44","100","30","1","","",""
"","psychophysics","126","713465","0.0-126.0","5ed0f56775d2930009f54d97","64de83a0f6901cee0255f9ad","","","","","820",""," ","key"," ","16.654999999998836","500","250","inst","","","","","","",""
"","psychophysics","127","717314","0.0-127.0","5ed0f56775d2930009f54d97","64de83a0f6901cee0255f9ad","","","","","3846",""," ","key"," ","16.65663913043479","500","250","pz","66","40","36","1","1","",""
"","psychophysics","128","720877","0.0-128.0","5ed0f56775d2930009f54d97","64de83a0f6901cee0255f9ad","","","","","3558",""," ","key"," ","16.655000000000065","500","250","pz","41","50","30","1","1","",""
"","psychophysics","129","725319","0.0-129.0","5ed0f56775d2930009f54d97","64de83a0f6901cee0255f9ad","","","","","4431",""," ","key"," ","16.655000000000367","500","250","pz","71","40","43","1","1","",""
"","psychophysics","130","728285","0.0-130.0","5ed0f56775d2930009f54d97","64de83a0f6901cee0255f9ad","","","","","2964",""," ","key"," ","16.657124293785895","500","250","pz","65","46","40","1","1","",""
"","psychophysics","131","731916","0.0-131.0","5ed0f56775d2930009f54d97","64de83a0f6901cee0255f9ad","","","","","3629",""," ","key"," ","16.655000000000044","500","250","pz","61","49","44","1","1","",""
"","psychophysics","132","735192","0.0-132.0","5ed0f56775d2930009f54d97","64de83a0f6901cee0255f9ad","","","","","3271",""," ","key"," ","16.655000000000022","500","250","pz","51","35","37","1","1","",""
"","psychophysics","133","742913","0.0-133.0","5ed0f56775d2930009f54d97","64de83a0f6901cee0255f9ad","","","","","7719",""," ","key"," ","16.655813852813672","500","250","pz","72","36","55","1","1","",""
"","psychophysics","134","745765","0.0-134.0","5ed0f56775d2930009f54d97","64de83a0f6901cee0255f9ad","","","","","2849",""," ","key"," ","16.654999999999863","500","250","pz","44","38","34","1","1","",""
"","psychophysics","135","749459","0.0-135.0","5ed0f56775d2930009f54d97","64de83a0f6901cee0255f9ad","","","","","3684",""," ","key"," ","16.6567013574663","500","250","pz","28","54","23","1","1","",""
"","psychophysics","136","752851","0.0-136.0","5ed0f56775d2930009f54d97","64de83a0f6901cee0255f9ad","","","","","3387",""," ","key"," ","16.655000000000413","500","250","pz","37","59","28","1","1","",""
"","psychophysics","137","755725","0.0-137.0","5ed0f56775d2930009f54d97","64de83a0f6901cee0255f9ad","","","","","2864",""," ","key"," ","16.655000000000026","500","250","pz","67","48","56","1","1","",""
"","psychophysics","138","757574","0.0-138.0","5ed0f56775d2930009f54d97","64de83a0f6901cee0255f9ad","","","","","1845",""," ","key"," ","16.658396396396874","500","250","pz","51","50","32","1","1","",""
"","psychophysics","139","761566","0.0-139.0","5ed0f56775d2930009f54d97","64de83a0f6901cee0255f9ad","","","","","3990",""," ","key"," ","16.655000000000058","500","250","pz","87","59","56","1","1","",""
"","psychophysics","140","764731","0.0-140.0","5ed0f56775d2930009f54d97","64de83a0f6901cee0255f9ad","","","","","3161",""," ","key"," ","16.65500000000022","500","250","pz","60","47","39","1","1","",""
"","psychophysics","141","768362","0.0-141.0","5ed0f56775d2930009f54d97","64de83a0f6901cee0255f9ad","","","","","3626",""," ","key"," ","16.656732718893736","500","250","pz","53","40","42","1","1","",""
"","psychophysics","142","785196","0.0-142.0","5ed0f56775d2930009f54d97","64de83a0f6901cee0255f9ad","","","","","16833",""," ","key"," ","16.655372277227702","500","250","inst","","","","","","",""
"","psychophysics","143","788831","0.0-143.0","5ed0f56775d2930009f54d97","64de83a0f6901cee0255f9ad","","","","","3632",""," ","key"," ","16.656732718893736","500","250","instEB1","33","40","30","1","","0","0"
"","psychophysics","144","790625","0.0-144.0","5ed0f56775d2930009f54d97","64de83a0f6901cee0255f9ad","","","","","1788",""," ","key"," ","16.654999999999653","500","250","instEB2","35","30","40","1","","0","0"
"","psychophysics","145","792291","0.0-145.0","5ed0f56775d2930009f54d97","64de83a0f6901cee0255f9ad","","","","","1664",""," ","key"," ","16.654999999999717","500","250","instEB3","32","27","45","1","","0","0"
"","psychophysics","146","794902","0.0-146.0","5ed0f56775d2930009f54d97","64de83a0f6901cee0255f9ad","","","","","2609",""," ","key"," ","16.655000000000328","500","250","instEB4","28","40","30","1","","0","0"
"","psychophysics","147","795500","0.0-147.0","5ed0f56775d2930009f54d97","64de83a0f6901cee0255f9ad","","","","","595",""," ","key"," ","16.65500000000133","500","250","inst","","","","","","",""
"","psychophysics","148","799374","0.0-148.0","5ed0f56775d2930009f54d97","64de83a0f6901cee0255f9ad","","","","","3864",""," ","key"," ","16.656632034632164","500","250","eb","34","43","30","1","","0","0"
"","psychophysics","149","800812","0.0-149.0","5ed0f56775d2930009f54d97","64de83a0f6901cee0255f9ad","","","","","1436",""," ","key"," ","16.655000000000868","500","250","eb","37","42","31","1","","0","0"
"","psychophysics","150","803076","0.0-150.0","5ed0f56775d2930009f54d97","64de83a0f6901cee0255f9ad","","","","","2262",""," ","key"," ","16.655000000000346","500","250","eb","28","45","25","1","","0","0"
"","psychophysics","151","808266","0.0-151.0","5ed0f56775d2930009f54d97","64de83a0f6901cee0255f9ad","","","","","5187",""," ","key"," ","16.656212903225736","500","250","eb","55","35","54","1","","0","0"
"","psychophysics","152","810206","0.0-152.0","5ed0f56775d2930009f54d97","64de83a0f6901cee0255f9ad","","","","","1936",""," ","key"," ","16.654999999999838","500","250","eb","43","49","36","1","","0","0"
"","psychophysics","153","811873","0.0-153.0","5ed0f56775d2930009f54d97","64de83a0f6901cee0255f9ad","","","","","1664",""," ","key"," ","16.654999999999717","500","250","eb","40","44","53","1","","0","0"
"","psychophysics","154","814271","0.0-154.0","5ed0f56775d2930009f54d97","64de83a0f6901cee0255f9ad","","","","","2396",""," ","key"," ","16.654999999999447","500","250","eb","39","40","53","1","","0","0"
"","psychophysics","155","816755","0.0-155.0","5ed0f56775d2930009f54d97","64de83a0f6901cee0255f9ad","","","","","2481",""," ","key"," ","16.657540540540484","500","250","eb","49","42","53","1","","0","0"
"","psychophysics","156","819267","0.0-156.0","5ed0f56775d2930009f54d97","64de83a0f6901cee0255f9ad","","","","","2510",""," ","key"," ","16.655","500","250","eb","39","42","48","1","","0","0"
"","psychophysics","157","821697","0.0-157.0","5ed0f56775d2930009f54d97","64de83a0f6901cee0255f9ad","","","","","2426",""," ","key"," ","16.654999999999838","500","250","eb","34","24","46","1","","0","0"
"","psychophysics","158","824845","0.0-158.0","5ed0f56775d2930009f54d97","64de83a0f6901cee0255f9ad","","","","","3140",""," ","key"," ","16.654999999999454","500","250","eb","25","33","29","1","","0","0"
"","psychophysics","159","828827","0.0-159.0","5ed0f56775d2930009f54d97","64de83a0f6901cee0255f9ad","","","","","3980",""," ","key"," ","16.65657983193303","500","250","eb","31","44","33","1","","0","0"
"","psychophysics","160","832122","0.0-160.0","5ed0f56775d2930009f54d97","64de83a0f6901cee0255f9ad","","","","","3292",""," ","key"," ","16.655000000000165","500","250","eb","36","50","39","1","","0","0"
"","psychophysics","161","836691","0.0-161.0","5ed0f56775d2930009f54d97","64de83a0f6901cee0255f9ad","","","","","4567",""," ","key"," ","16.656380952381095","500","250","eb","38","54","40","1","","0","0"
"","psychophysics","162","839020","0.0-162.0","5ed0f56775d2930009f54d97","64de83a0f6901cee0255f9ad","","","","","2327",""," ","key"," ","16.655000000000303","500","250","eb","38","33","47","1","","0","0"
"","psychophysics","163","839867","0.0-163.0","5ed0f56775d2930009f54d97","64de83a0f6901cee0255f9ad","","","","","838",""," ","key"," ","16.655","500","250","inst","","","","","","",""
"","psychophysics","164","847064","0.0-164.0","5ed0f56775d2930009f54d97","64de83a0f6901cee0255f9ad","","","","","7195",""," ","key"," ","16.655872389791142","500","250","instBr3","25","40","300","2","","0","0"
"","psychophysics","165","847750","0.0-165.0","5ed0f56775d2930009f54d97","64de83a0f6901cee0255f9ad","","","","","685",""," ","key"," ","16.655000000001746","500","250","inst","","","","","","",""
"","psychophysics","166","850662","0.0-166.0","5ed0f56775d2930009f54d97","64de83a0f6901cee0255f9ad","","","","","2909",""," ","key"," ","16.654999999999838","500","250","br","19","27","220","2","1","15","-3"
"","psychophysics","167","853674","0.0-167.0","5ed0f56775d2930009f54d97","64de83a0f6901cee0255f9ad","","","","","3009",""," ","key"," ","16.654999999999482","500","250","br","19","7","284","2","1","1","22"
"","psychophysics","168","856574","0.0-168.0","5ed0f56775d2930009f54d97","64de83a0f6901cee0255f9ad","","","","","2898",""," ","key"," ","16.65500000000035","500","250","br","27","22","218","2","1","-21","-24"
"","psychophysics","169","861543","0.0-169.0","5ed0f56775d2930009f54d97","64de83a0f6901cee0255f9ad","","","","","4967",""," ","key"," ","16.656265993266263","500","250","br","13","-19","261","2","1","-6","-9"
"","psychophysics","170","865152","0.0-170.0","5ed0f56775d2930009f54d97","64de83a0f6901cee0255f9ad","","","","","3607",""," ","key"," ","16.655000000000452","500","250","br","12","27","291","2","1","-7","-14"
"","psychophysics","171","868155","0.0-171.0","5ed0f56775d2930009f54d97","64de83a0f6901cee0255f9ad","","","","","3000",""," ","key"," ","16.657100558659458","500","250","br","15","6","270","2","1","26","22"
"","psychophysics","172","870573","0.0-172.0","5ed0f56775d2930009f54d97","64de83a0f6901cee0255f9ad","","","","","2414",""," ","key"," ","16.654999999999646","500","250","br","29","24","206","2","1","-1","7"
"","psychophysics","173","872404","0.0-173.0","5ed0f56775d2930009f54d97","64de83a0f6901cee0255f9ad","","","","","1826",""," ","key"," ","16.65500000000017","500","250","br","27","15","257","2","1","13","-20"
"","psychophysics","174","873879","0.0-174.0","5ed0f56775d2930009f54d97","64de83a0f6901cee0255f9ad","","","","","1469",""," ","key"," ","16.654999999998836","500","250","br","21","26","228","2","1","-11","7"
"","psychophysics","175","877545","0.0-175.0","5ed0f56775d2930009f54d97","64de83a0f6901cee0255f9ad","","","","","3665",""," ","key"," ","16.656721461187413","500","250","br","16","-12","204","2","1","-22","-6"
"","psychophysics","176","882457","0.0-176.0","5ed0f56775d2930009f54d97","64de83a0f6901cee0255f9ad","","","","","4909",""," ","key"," ","16.654999999999827","500","250","br","20","-29","247","2","1","-29","26"
"","psychophysics","177","884895","0.0-177.0","5ed0f56775d2930009f54d97","64de83a0f6901cee0255f9ad","","","","","2436",""," ","key"," ","16.654999999999838","500","250","br","12","23","299","2","1","7","16"
"","psychophysics","178","888042","0.0-178.0","5ed0f56775d2930009f54d97","64de83a0f6901cee0255f9ad","","","","","3145",""," ","key"," ","16.65699999999971","500","250","br","11","-12","286","2","1","-24","3"
"","psychophysics","179","890779","0.0-179.0","5ed0f56775d2930009f54d97","64de83a0f6901cee0255f9ad","","","","","2733",""," ","key"," ","16.655000000000257","500","250","br","6","-11","276","2","1","8","-14"
"","psychophysics","180","895679","0.0-180.0","5ed0f56775d2930009f54d97","64de83a0f6901cee0255f9ad","","","","","4898",""," ","key"," ","16.655000000000125","500","250","br","15","-28","227","2","1","3","-6"
"","psychophysics","181","896338","0.0-181.0","5ed0f56775d2930009f54d97","64de83a0f6901cee0255f9ad","","","","","657",""," ","key"," ","16.655000000000367","500","250","inst","","","","","","",""
"","psychophysics","182","901207","0.0-182.0","5ed0f56775d2930009f54d97","64de83a0f6901cee0255f9ad","","","","","4859",""," ","key"," ","16.656287671232672","500","250","instPog0","160","190","160","1","","0","0"
"","psychophysics","183","907920","0.0-183.0","5ed0f56775d2930009f54d97","64de83a0f6901cee0255f9ad","","","","","6711",""," ","key"," ","16.65593532338305","500","250","instPog1","168","190","160","1","","0","0"
"","psychophysics","184","912688","0.0-184.0","5ed0f56775d2930009f54d97","64de83a0f6901cee0255f9ad","","","","","4767",""," ","key"," ","16.654999999999756","500","250","instPog2","174","160","160","1","","0","0"
"","psychophysics","185","913316","0.0-185.0","5ed0f56775d2930009f54d97","64de83a0f6901cee0255f9ad","","","","","626",""," ","key"," ","16.65499999999962","500","250","inst","","","","","","",""
"","psychophysics","186","915916","0.0-186.0","5ed0f56775d2930009f54d97","64de83a0f6901cee0255f9ad","","","","","2597",""," ","key"," ","16.65500000000015","500","250","pog","197","205","179","1","1","0","0"
"","psychophysics","187","920960","0.0-187.0","5ed0f56775d2930009f54d97","64de83a0f6901cee0255f9ad","","","","","5036",""," ","key"," ","16.656248344370976","500","250","pog","166","118","151","1","1","0","0"
"","psychophysics","188","923344","0.0-188.0","5ed0f56775d2930009f54d97","64de83a0f6901cee0255f9ad","","","","","2382",""," ","key"," ","16.655000000000065","500","250","pog","207","219","191","1","1","0","0"
"","psychophysics","189","928228","0.0-189.0","5ed0f56775d2930009f54d97","64de83a0f6901cee0255f9ad","","","","","4882",""," ","key"," ","16.656287671232672","500","250","pog","176","116","152","1","1","0","0"
"","psychophysics","190","935127","0.0-190.0","5ed0f56775d2930009f54d97","64de83a0f6901cee0255f9ad","","","","","6897",""," ","key"," ","16.655000000000033","500","250","pog","191","119","165","1","1","0","0"
"","psychophysics","191","938172","0.0-191.0","5ed0f56775d2930009f54d97","64de83a0f6901cee0255f9ad","","","","","3041",""," ","key"," ","16.65706593406535","500","250","pog","154","174","135","1","1","0","0"
"","psychophysics","192","943502","0.0-192.0","5ed0f56775d2930009f54d97","64de83a0f6901cee0255f9ad","","","","","5328",""," ","key"," ","16.655000000000204","500","250","pog","200","174","179","1","1","0","0"
"","psychophysics","193","950084","0.0-193.0","5ed0f56775d2930009f54d97","64de83a0f6901cee0255f9ad","","","","","6580",""," ","key"," ","16.655954314720802","500","250","pog","202","102","186","1","1","0","0"
"","psychophysics","194","952485","0.0-194.0","5ed0f56775d2930009f54d97","64de83a0f6901cee0255f9ad","","","","","2399",""," ","key"," ","16.655000000000452","500","250","pog","180","204","163","1","1","0","0"
"","psychophysics","195","954117","0.0-195.0","5ed0f56775d2930009f54d97","64de83a0f6901cee0255f9ad","","","","","1630",""," ","key"," ","16.655000000000335","500","250","pog","166","176","146","1","1","0","0"
"","psychophysics","196","956263","0.0-196.0","5ed0f56775d2930009f54d97","64de83a0f6901cee0255f9ad","","","","","2144",""," ","key"," ","16.654999999999525","500","250","pog","174","188","154","1","1","0","0"
"","psychophysics","197","962156","0.0-197.0","5ed0f56775d2930009f54d97","64de83a0f6901cee0255f9ad","","","","","5883",""," ","key"," ","16.65606798866873","500","250","pog","171","151","155","1","1","0","0"
"","psychophysics","198","967040","0.0-198.0","5ed0f56775d2930009f54d97","64de83a0f6901cee0255f9ad","","","","","4882",""," ","key"," ","16.6562832764508","500","250","pog","193","145","180","1","1","0","0"
"","psychophysics","199","969451","0.0-199.0","5ed0f56775d2930009f54d97","64de83a0f6901cee0255f9ad","","","","","2409",""," ","key"," ","16.65500000000026","500","250","pog","189","217","178","1","1","0","0"
"","psychophysics","200","975002","0.0-200.0","5ed0f56775d2930009f54d97","64de83a0f6901cee0255f9ad","","","","","5546",""," ","key"," ","16.654999999999973","500","250","pog","203","125","190","1","1","0","0"
"","psychophysics","201","975738","0.0-201.0","5ed0f56775d2930009f54d97","64de83a0f6901cee0255f9ad","","","","","734",""," ","key"," ","16.654999999998157","500","250","inst","","","","","","",""
"","psychophysics","202","981217","0.0-202.0","5ed0f56775d2930009f54d97","64de83a0f6901cee0255f9ad","","","","","5471",""," ","key"," ","16.65614634146346","500","250","instZol1","0.20000000000000004","-1.3","","","","0","0"
"","psychophysics","203","988167","0.0-203.0","5ed0f56775d2930009f54d97","64de83a0f6901cee0255f9ad","","","","","6947",""," ","key"," ","16.655903846153635","500","250","instZol2","0.20000000000000065","2","","1","","0","0"
"","psychophysics","204","988729","0.0-204.0","5ed0f56775d2930009f54d97","64de83a0f6901cee0255f9ad","","","","","561",""," ","key"," ","16.654999999999717","500","250","inst","","","","","","",""
"","psychophysics","205","992429","0.0-205.0","5ed0f56775d2930009f54d97","64de83a0f6901cee0255f9ad","","","","","3691",""," ","key"," ","16.655000000000022","500","250","zol","0.35","0.65","","1","1","-25","30"
"","psychophysics","206","996291","0.0-206.0","5ed0f56775d2930009f54d97","64de83a0f6901cee0255f9ad","","","","","3860",""," ","key"," ","16.654999999999717","500","250","zol","0.53","-0.03","","1","1","20","23"
"","psychophysics","207","999868","0.0-207.0","5ed0f56775d2930009f54d97","64de83a0f6901cee0255f9ad","","","","","3573",""," ","key"," ","16.656761682243086","500","250","zol","0.69","-0.59","","1","1","9","-17"
"","psychophysics","208","1002149","0.0-208.0","5ed0f56775d2930009f54d97","64de83a0f6901cee0255f9ad","","","","","2277",""," ","key"," ","16.654999999999692","500","250","zol","1.18","-0.18","","1","1","-8","16"
"","psychophysics","209","1006308","0.0-209.0","5ed0f56775d2930009f54d97","64de83a0f6901cee0255f9ad","","","","","4155",""," ","key"," ","16.654999999999774","500","250","zol","1.28","-0.58","","1","1","3","-14"
"","psychophysics","210","1008572","0.0-210.0","5ed0f56775d2930009f54d97","64de83a0f6901cee0255f9ad","","","","","2260",""," ","key"," ","16.65778518518502","500","250","zol","0.9799999999999999","-0.08","","1","1","1","-14"
"","psychophysics","211","1012829","0.0-211.0","5ed0f56775d2930009f54d97","64de83a0f6901cee0255f9ad","","","","","4252",""," ","key"," ","16.65500000000009","500","250","zol","1.4800000000000002","-0.28","","1","1","-6","-5"
"","psychophysics","212","1015493","0.0-212.0","5ed0f56775d2930009f54d97","64de83a0f6901cee0255f9ad","","","","","2660",""," ","key"," ","16.654999999999387","500","250","zol","0.7999999999999999","0.1","","1","1","3","-4"
"","psychophysics","213","1019290","0.0-213.0","5ed0f56775d2930009f54d97","64de83a0f6901cee0255f9ad","","","","","3794",""," ","key"," ","16.65665638766514","500","250","zol","0.7699999999999999","-0.57","","1","1","28","-15"
"","psychophysics","214","1024426","0.0-214.0","5ed0f56775d2930009f54d97","64de83a0f6901cee0255f9ad","","","","","5133",""," ","key"," ","16.65499999999988","500","250","zol","0.48","0.72","","1","1","-8","-20"
"","psychophysics","215","1026582","0.0-215.0","5ed0f56775d2930009f54d97","64de83a0f6901cee0255f9ad","","","","","2153",""," ","key"," ","16.654999999999966","500","250","zol","0.6","0.2","","1","1","-23","6"
"","psychophysics","216","1029135","0.0-216.0","5ed0f56775d2930009f54d97","64de83a0f6901cee0255f9ad","","","","","2551",""," ","key"," ","16.65747368421044","500","250","zol","0.7","-0.7","","1","1","-15","-14"
"","psychophysics","217","1031337","0.0-217.0","5ed0f56775d2930009f54d97","64de83a0f6901cee0255f9ad","","","","","2198",""," ","key"," ","16.654999999999504","500","250","zol","1.3","-0.2","","1","1","7","-23"
"","psychophysics","218","1033374","0.0-218.0","5ed0f56775d2930009f54d97","64de83a0f6901cee0255f9ad","","","","","2033",""," ","key"," ","16.65500000000004","500","250","zol","1.5600000000000005","-0.46","","1","1","-26","0"
"","psychophysics","219","1035550","0.0-219.0","5ed0f56775d2930009f54d97","64de83a0f6901cee0255f9ad","","","","","2169",""," ","key"," ","16.65500000000018","500","250","zol","1.16","0.04","","1","1","-28","20"
