"success","trial_type","trial_index","time_elapsed","internal_node_id","pid","sid","timeout","failed_images","failed_audio","failed_video","rt","stimulus","response","response_type","key_press","avg_frame_time","center_x","center_y","task","resp","version","block","start","jitterX","jitterY","parA"
"true","fullscreen","0","3503","0.0-0.0","5a0f7d84ff266c0001d209cc","64de8197b1ec5cc01b3faa1b","","","","","","","","","","","","","","","","","","","",""
"true","preload","1","3608","0.0-1.0","5a0f7d84ff266c0001d209cc","64de8197b1ec5cc01b3faa1b","false","[]","[]","[]","","","","","","","","","","","","","","","",""
"","html-button-response","2","5461","0.0-2.0","5a0f7d84ff266c0001d209cc","64de8197b1ec5cc01b3faa1b","","","","","1852","Please Make Sure Your Audio Is On.","0","","","","","","","","","","","","",""
"","psychophysics","3","16997","0.0-3.0","5a0f7d84ff266c0001d209cc","64de8197b1ec5cc01b3faa1b","","","","","11523",""," ","key"," ","16.720762318840578","720","250","","","","","","","",""
"","psychophysics","4","19791","0.0-4.0","5a0f7d84ff266c0001d209cc","64de8197b1ec5cc01b3faa1b","","","","","2791",""," ","key"," ","16.720000000000002","500","250","inst","","","","","","",""
"","psychophysics","5","35396","0.0-5.0","5a0f7d84ff266c0001d209cc","64de8197b1ec5cc01b3faa1b","","","","","15603",""," ","key"," ","16.721033226152194","500","250","sample0","","","","","","",""
"","psychophysics","6","39230","0.0-6.0","5a0f7d84ff266c0001d209cc","64de8197b1ec5cc01b3faa1b","","","","","3832",""," ","key"," ","17.24959276018101","500","250","sample1","","","","","","",""
"","psychophysics","7","51563","0.0-7.0","5a0f7d84ff266c0001d209cc","64de8197b1ec5cc01b3faa1b","","","","","12331",""," ","key"," ","16.72077883310719","500","250","sample2","104","","","","","",""
"","psychophysics","8","57507","0.0-8.0","5a0f7d84ff266c0001d209cc","64de8197b1ec5cc01b3faa1b","","","","","5942",""," ","key"," ","16.721079096045205","500","250","sample3","90","","","","","",""
"","psychophysics","9","67932","0.0-9.0","5a0f7d84ff266c0001d209cc","64de8197b1ec5cc01b3faa1b","","","","","10422",""," ","key"," ","16.720958266452648","500","250","sample4","100","","","","","",""
"","psychophysics","10","73365","0.0-10.0","5a0f7d84ff266c0001d209cc","64de8197b1ec5cc01b3faa1b","","","","","5431",""," ","key"," ","16.721274691358023","500","250","sample5","","","","","","",""
"","psychophysics","11","84212","0.0-11.0","5a0f7d84ff266c0001d209cc","64de8197b1ec5cc01b3faa1b","","","","","10845",""," ","key"," ","16.720837712519316","500","250","sample6","500","","","","","",""
"","psychophysics","12","88394","0.0-12.0","5a0f7d84ff266c0001d209cc","64de8197b1ec5cc01b3faa1b","","","","","4180",""," ","key"," ","16.719999999999995","500","250","inst","","","","","","",""
"","psychophysics","13","92953","0.0-13.0","5a0f7d84ff266c0001d209cc","64de8197b1ec5cc01b3faa1b","","","","","4557",""," ","key"," ","16.721639705882325","500","250","inst","","","","","","",""
"","psychophysics","14","96957","0.0-14.0","5a0f7d84ff266c0001d209cc","64de8197b1ec5cc01b3faa1b","","","","","4002",""," ","key"," ","16.720000000000002","500","250","inst","","","","","","",""
"","psychophysics","15","99820","0.0-15.0","5a0f7d84ff266c0001d209cc","64de8197b1ec5cc01b3faa1b","","","","","2860",""," ","key"," ","16.72000000000006","500","250","inst","","","","","","",""
"","psychophysics","16","103508","0.0-16.0","5a0f7d84ff266c0001d209cc","64de8197b1ec5cc01b3faa1b","","","","","3686",""," ","key"," ","16.722543378995404","500","250","inst","","","","","","",""
"","psychophysics","17","107795","0.0-17.0","5a0f7d84ff266c0001d209cc","64de8197b1ec5cc01b3faa1b","","","","","4284",""," ","key"," ","16.71999999999997","500","250","instEB0","40","2","","40","0","0","40"
"","psychophysics","18","116562","0.0-18.0","5a0f7d84ff266c0001d209cc","64de8197b1ec5cc01b3faa1b","","","","","8764",""," ","key"," ","16.720749521988537","500","250","instEB1","40","2","","30","0","0","40"
"","psychophysics","19","125930","0.0-19.0","5a0f7d84ff266c0001d209cc","64de8197b1ec5cc01b3faa1b","","","","","9366",""," ","key"," ","16.72105008944543","500","250","instEB2","33","2","","40","0","0","30"
"","psychophysics","20","136866","0.0-20.0","5a0f7d84ff266c0001d209cc","64de8197b1ec5cc01b3faa1b","","","","","10935",""," ","key"," ","16.720601837672305","500","250","instEB3","29","2","","45","0","0","27"
"","psychophysics","21","150730","0.0-21.0","5a0f7d84ff266c0001d209cc","64de8197b1ec5cc01b3faa1b","","","","","13858",""," ","key"," ","16.720711700844358","500","250","instEB4","44","2","","30","0","0","40"
"","psychophysics","22","153436","0.0-22.0","5a0f7d84ff266c0001d209cc","64de8197b1ec5cc01b3faa1b","","","","","2703",""," ","key"," ","16.722468750000008","500","250","inst","","","","","","",""
"","psychophysics","23","160988","0.0-23.0","5a0f7d84ff266c0001d209cc","64de8197b1ec5cc01b3faa1b","","","","","7547",""," ","key"," ","16.720000000000002","500","250","eb","46","2","","44","0","0","41"
"","psychophysics","24","168994","0.0-24.0","5a0f7d84ff266c0001d209cc","64de8197b1ec5cc01b3faa1b","","","","","null","","null","key","null","16.721094142259453","500","250","eb","34","2","","51","0","0","34"
"","psychophysics","25","174154","0.0-25.0","5a0f7d84ff266c0001d209cc","64de8197b1ec5cc01b3faa1b","","","","","5158",""," ","key"," ","16.721530944625343","500","250","eb","45","2","","30","0","0","45"
"","psychophysics","26","179649","0.0-26.0","5a0f7d84ff266c0001d209cc","64de8197b1ec5cc01b3faa1b","","","","","5490",""," ","key"," ","16.72000000000001","500","250","eb","46","2","","53","0","0","43"
"","psychophysics","27","186026","0.0-27.0","5a0f7d84ff266c0001d209cc","64de8197b1ec5cc01b3faa1b","","","","","6374",""," ","key"," ","16.721486842105286","500","250","eb","44","2","","53","0","0","38"
"","psychophysics","28","189746","0.0-28.0","5a0f7d84ff266c0001d209cc","64de8197b1ec5cc01b3faa1b","","","","","3715",""," ","key"," ","16.719999999999985","500","250","eb","46","2","","46","0","0","42"
"","psychophysics","29","193168","0.0-29.0","5a0f7d84ff266c0001d209cc","64de8197b1ec5cc01b3faa1b","","","","","3420",""," ","key"," ","16.722078431372566","500","250","eb","53","2","","53","0","0","50"
"","psychophysics","30","198879","0.0-30.0","5a0f7d84ff266c0001d209cc","64de8197b1ec5cc01b3faa1b","","","","","5708",""," ","key"," ","16.719999999999967","500","250","eb","34","2","","34","0","0","33"
"","psychophysics","31","204407","0.0-31.0","5a0f7d84ff266c0001d209cc","64de8197b1ec5cc01b3faa1b","","","","","5526",""," ","key"," ","16.721478787878755","500","250","eb","27","2","","33","0","0","26"
"","psychophysics","32","211711","0.0-32.0","5a0f7d84ff266c0001d209cc","64de8197b1ec5cc01b3faa1b","","","","","7301",""," ","key"," ","16.72000000000003","500","250","eb","57","2","","33","0","0","52"
"","psychophysics","33","218142","0.0-33.0","5a0f7d84ff266c0001d209cc","64de8197b1ec5cc01b3faa1b","","","","","6427",""," ","key"," ","16.721297650130506","500","250","eb","35","2","","49","0","0","31"
"","psychophysics","34","222615","0.0-34.0","5a0f7d84ff266c0001d209cc","64de8197b1ec5cc01b3faa1b","","","","","4471",""," ","key"," ","16.720000000000073","500","250","eb","44","2","","40","0","0","42"
"","psychophysics","35","228671","0.0-35.0","5a0f7d84ff266c0001d209cc","64de8197b1ec5cc01b3faa1b","","","","","6053",""," ","key"," ","16.72152908587252","500","250","eb","41","2","","53","0","0","34"
"","psychophysics","36","234887","0.0-36.0","5a0f7d84ff266c0001d209cc","64de8197b1ec5cc01b3faa1b","","","","","6213",""," ","key"," ","16.72113477088948","500","250","eb","47","2","","26","0","0","45"
"","psychophysics","37","242150","0.0-37.0","5a0f7d84ff266c0001d209cc","64de8197b1ec5cc01b3faa1b","","","","","7260",""," ","key"," ","16.72000000000002","500","250","eb","54","2","","35","0","0","50"
"","psychophysics","38","246895","0.0-38.0","5a0f7d84ff266c0001d209cc","64de8197b1ec5cc01b3faa1b","","","","","4744",""," ","key"," ","16.72161130742055","500","250","inst","","","","","","",""
"","psychophysics","39","258627","0.0-39.0","5a0f7d84ff266c0001d209cc","64de8197b1ec5cc01b3faa1b","","","","","11730",""," ","key"," ","16.72075035663336","500","250","instPog0","340","2","","370","0","0","340"
"","psychophysics","40","272494","0.0-40.0","5a0f7d84ff266c0001d209cc","64de8197b1ec5cc01b3faa1b","","","","","13865",""," ","key"," ","16.720549516908235","500","250","instPog1","352","2","","370","0","0","340"
"","psychophysics","41","281402","0.0-41.0","5a0f7d84ff266c0001d209cc","64de8197b1ec5cc01b3faa1b","","","","","8905",""," ","key"," ","16.72112593984967","500","250","instPog2","330","2","","340","0","0","340"
"","psychophysics","42","283267","0.0-42.0","5a0f7d84ff266c0001d209cc","64de8197b1ec5cc01b3faa1b","","","","","1863",""," ","key"," ","16.720000000000105","500","250","inst","","","","","","",""
"","psychophysics","43","288017","0.0-43.0","5a0f7d84ff266c0001d209cc","64de8197b1ec5cc01b3faa1b","","","","","4748",""," ","key"," ","16.72138869257968","500","250","pog","351","2","0","331","0","0","359"
"","psychophysics","44","293833","0.0-44.0","5a0f7d84ff266c0001d209cc","64de8197b1ec5cc01b3faa1b","","","","","5813",""," ","key"," ","16.721452449567675","500","250","pog","336","2","0","318","0","0","349"
"","psychophysics","45","299537","0.0-45.0","5a0f7d84ff266c0001d209cc","64de8197b1ec5cc01b3faa1b","","","","","5702",""," ","key"," ","16.719999999999967","500","250","pog","324","2","0","366","0","0","337"
"","psychophysics","46","306283","0.0-46.0","5a0f7d84ff266c0001d209cc","64de8197b1ec5cc01b3faa1b","","","","","6743",""," ","key"," ","16.721404466501156","500","250","pog","368","2","0","312","0","0","375"
"","psychophysics","47","313825","0.0-47.0","5a0f7d84ff266c0001d209cc","64de8197b1ec5cc01b3faa1b","","","","","7540",""," ","key"," ","16.721077777777747","500","250","pog","338","2","0","280","0","0","350"
"","psychophysics","48","321801","0.0-48.0","5a0f7d84ff266c0001d209cc","64de8197b1ec5cc01b3faa1b","","","","","7974",""," ","key"," ","16.720000000000063","500","250","pog","292","2","0","398","0","0","303"
"","psychophysics","49","326736","0.0-49.0","5a0f7d84ff266c0001d209cc","64de8197b1ec5cc01b3faa1b","","","","","4933",""," ","key"," ","16.721425170068184","500","250","pog","338","2","0","386","0","0","351"
"","psychophysics","50","332336","0.0-50.0","5a0f7d84ff266c0001d209cc","64de8197b1ec5cc01b3faa1b","","","","","5597",""," ","key"," ","16.719999999999946","500","250","pog","291","2","0","325","0","0","310"
"","psychophysics","51","338184","0.0-51.0","5a0f7d84ff266c0001d209cc","64de8197b1ec5cc01b3faa1b","","","","","5845",""," ","key"," ","16.721392550143275","500","250","pog","292","2","0","360","0","0","311"
"","psychophysics","52","344047","0.0-52.0","5a0f7d84ff266c0001d209cc","64de8197b1ec5cc01b3faa1b","","","","","5861",""," ","key"," ","16.721636103151933","500","250","pog","297","2","0","363","0","0","303"
"","psychophysics","53","349905","0.0-53.0","5a0f7d84ff266c0001d209cc","64de8197b1ec5cc01b3faa1b","","","","","5856",""," ","key"," ","16.72","500","250","pog","349","2","0","287","0","0","362"
"","psychophysics","54","355231","0.0-54.0","5a0f7d84ff266c0001d209cc","64de8197b1ec5cc01b3faa1b","","","","","5323",""," ","key"," ","16.721533123028284","500","250","pog","280","2","0","308","0","0","301"
"","psychophysics","55","361193","0.0-55.0","5a0f7d84ff266c0001d209cc","64de8197b1ec5cc01b3faa1b","","","","","5960",""," ","key"," ","16.72000000000002","500","250","pog","337","2","0","299","0","0","351"
"","psychophysics","56","367111","0.0-56.0","5a0f7d84ff266c0001d209cc","64de8197b1ec5cc01b3faa1b","","","","","5915",""," ","key"," ","16.721201133144564","500","250","pog","336","2","0","356","0","0","343"
"","psychophysics","57","374535","0.0-57.0","5a0f7d84ff266c0001d209cc","64de8197b1ec5cc01b3faa1b","","","","","7421",""," ","key"," ","16.721076749435742","500","250","pog","293","2","0","389","0","0","305"
"","psychophysics","58","376913","0.0-58.0","5a0f7d84ff266c0001d209cc","64de8197b1ec5cc01b3faa1b","","","","","2376",""," ","key"," ","16.720000000000134","500","250","inst","","","","","","",""
"","psychophysics","59","378775","0.0-59.0","5a0f7d84ff266c0001d209cc","64de8197b1ec5cc01b3faa1b","","","","","1859",""," ","key"," ","16.720000000000105","500","250","instPzPre","50","0","","50","","","50"
"","psychophysics","60","382764","0.0-60.0","5a0f7d84ff266c0001d209cc","64de8197b1ec5cc01b3faa1b","","","","","3987",""," ","key"," ","16.720000000000187","500","250","instPz0","50","2","","50","","","50"
"","psychophysics","61","395356","0.0-61.0","5a0f7d84ff266c0001d209cc","64de8197b1ec5cc01b3faa1b","","","","","12590",""," ","key"," ","16.721405585106424","500","250","instPz1","47","2","","25","","","50"
"","psychophysics","62","403940","0.0-62.0","5a0f7d84ff266c0001d209cc","64de8197b1ec5cc01b3faa1b","","","","","8582",""," ","key"," ","16.72094921874998","500","250","instPz2","31","2","","20","","","35"
"","psychophysics","63","419499","0.0-63.0","5a0f7d84ff266c0001d209cc","64de8197b1ec5cc01b3faa1b","","","","","15556",""," ","key"," ","16.720452688172053","500","250","instPz3","30","2","","30","","","100"
"","psychophysics","64","432007","0.0-64.0","5a0f7d84ff266c0001d209cc","64de8197b1ec5cc01b3faa1b","","","","","12506",""," ","key"," ","16.72073627844714","500","250","instPz4","81","2","","30","","","100"
"","psychophysics","65","434081","0.0-65.0","5a0f7d84ff266c0001d209cc","64de8197b1ec5cc01b3faa1b","","","","","2072",""," ","key"," ","16.724056910569175","500","250","inst","","","","","","",""
"","psychophysics","66","440999","0.0-66.0","5a0f7d84ff266c0001d209cc","64de8197b1ec5cc01b3faa1b","","","","","6915",""," ","key"," ","16.719999999999967","500","250","pz","45","2","0","24","","","55"
"","psychophysics","67","446935","0.0-67.0","5a0f7d84ff266c0001d209cc","64de8197b1ec5cc01b3faa1b","","","","","5933",""," ","key"," ","16.721378531073494","500","250","pz","22","2","0","47","","","28"
"","psychophysics","68","451543","0.0-68.0","5a0f7d84ff266c0001d209cc","64de8197b1ec5cc01b3faa1b","","","","","4605",""," ","key"," ","16.71999999999989","500","250","pz","40","2","0","31","","","49"
"","psychophysics","69","457416","0.0-69.0","5a0f7d84ff266c0001d209cc","64de8197b1ec5cc01b3faa1b","","","","","5870",""," ","key"," ","16.721131054130968","500","250","pz","38","2","0","21","","","49"
"","psychophysics","70","463607","0.0-70.0","5a0f7d84ff266c0001d209cc","64de8197b1ec5cc01b3faa1b","","","","","6188",""," ","key"," ","16.71999999999998","500","250","pz","37","2","0","53","","","44"
"","psychophysics","71","470822","0.0-71.0","5a0f7d84ff266c0001d209cc","64de8197b1ec5cc01b3faa1b","","","","","7213",""," ","key"," ","16.721372093023263","500","250","pz","28","2","0","39","","","35"
"","psychophysics","72","474886","0.0-72.0","5a0f7d84ff266c0001d209cc","64de8197b1ec5cc01b3faa1b","","","","","4060",""," ","key"," ","16.79112448132765","500","250","pz","47","2","0","58","","","53"
"","psychophysics","73","482455","0.0-73.0","5a0f7d84ff266c0001d209cc","64de8197b1ec5cc01b3faa1b","","","","","7566",""," ","key"," ","16.720000000000006","500","250","pz","19","2","0","53","","","22"
"","psychophysics","74","485510","0.0-74.0","5a0f7d84ff266c0001d209cc","64de8197b1ec5cc01b3faa1b","","","","","3053",""," ","key"," ","16.723054945055054","500","250","pz","35","2","0","43","","","39"
"","psychophysics","75","489534","0.0-75.0","5a0f7d84ff266c0001d209cc","64de8197b1ec5cc01b3faa1b","","","","","4022",""," ","key"," ","16.720000000000194","500","250","pz","36","2","0","37","","","39"
"","psychophysics","76","494710","0.0-76.0","5a0f7d84ff266c0001d209cc","64de8197b1ec5cc01b3faa1b","","","","","5173",""," ","key"," ","16.721266233766308","500","250","pz","16","2","0","43","","","20"
"","psychophysics","77","496935","0.0-77.0","5a0f7d84ff266c0001d209cc","64de8197b1ec5cc01b3faa1b","","","","","2223",""," ","key"," ","16.719999999999843","500","250","pz","26","2","0","26","","","35"
"","psychophysics","78","502758","0.0-78.0","5a0f7d84ff266c0001d209cc","64de8197b1ec5cc01b3faa1b","","","","","5820",""," ","key"," ","16.719999999999906","500","250","pz","22","2","0","50","","","24"
"","psychophysics","79","508815","0.0-79.0","5a0f7d84ff266c0001d209cc","64de8197b1ec5cc01b3faa1b","","","","","6053",""," ","key"," ","16.721632596685","500","250","pz","42","2","0","26","","","52"
"","psychophysics","80","515766","0.0-80.0","5a0f7d84ff266c0001d209cc","64de8197b1ec5cc01b3faa1b","","","","","6948",""," ","key"," ","16.721190821255977","500","250","pz","19","2","0","57","","","21"
"","psychophysics","81","517167","0.0-81.0","5a0f7d84ff266c0001d209cc","64de8197b1ec5cc01b3faa1b","","","","","1399",""," ","key"," ","16.720000000000113","500","250","inst","","","","","","",""
"","psychophysics","82","520197","0.0-82.0","5a0f7d84ff266c0001d209cc","64de8197b1ec5cc01b3faa1b","","","","","3028",""," ","key"," ","16.720000000000194","500","250","instZol0","0","","","0","0","0",""
"","psychophysics","83","544068","0.0-83.0","5a0f7d84ff266c0001d209cc","64de8197b1ec5cc01b3faa1b","","","","","23871",""," ","key"," ","16.720631394533957","500","250","instZol1","0.20000000000000004","","","-1.3","0","0",""
"","psychophysics","84","556237","0.0-84.0","5a0f7d84ff266c0001d209cc","64de8197b1ec5cc01b3faa1b","","","","","12166",""," ","key"," ","16.721456671251655","500","250","instZol2","-0.8999999999999992","2","","2","0","0",""
"","psychophysics","85","557303","0.0-85.0","5a0f7d84ff266c0001d209cc","64de8197b1ec5cc01b3faa1b","","","","","1064",""," ","key"," ","16.720000000000226","500","250","inst","","","","","","",""
"","psychophysics","86","565313","0.0-86.0","5a0f7d84ff266c0001d209cc","64de8197b1ec5cc01b3faa1b","","","","","null","","null","key","null","16.721014644351502","500","250","zol","-0.7100000000000001","2","0","0.41","-14","9",""
"","psychophysics","87","565660","0.0-87.0","5a0f7d84ff266c0001d209cc","64de8197b1ec5cc01b3faa1b","","","","","341",""," ","key"," ","16.720000000001164","500","250","zol","0","2","0","0","-18","9",""
"","psychophysics","88","570325","0.0-88.0","5a0f7d84ff266c0001d209cc","64de8197b1ec5cc01b3faa1b","","","","","4662",""," ","key"," ","16.719999999999697","500","250","zol","-1.05","2","0","-0.35","-23","19",""
"","psychophysics","89","576838","0.0-89.0","5a0f7d84ff266c0001d209cc","64de8197b1ec5cc01b3faa1b","","","","","6510",""," ","key"," ","16.72105912596423","500","250","zol","-1.0699999999999998","2","0","0.07","-16","-25",""
"","psychophysics","90","580308","0.0-90.0","5a0f7d84ff266c0001d209cc","64de8197b1ec5cc01b3faa1b","","","","","3466",""," ","key"," ","16.71999999999975","500","250","zol","-1.29","2","0","0.29","-25","17",""
"","psychophysics","91","583980","0.0-91.0","5a0f7d84ff266c0001d209cc","64de8197b1ec5cc01b3faa1b","","","","","3667",""," ","key"," ","16.719999999999704","500","250","zol","-1.11","2","0","0.21","-1","-26",""
"","psychophysics","92","591992","0.0-92.0","5a0f7d84ff266c0001d209cc","64de8197b1ec5cc01b3faa1b","","","","","null","","null","key","null","16.721150627615227","500","250","zol","-1.5200000000000005","2","0","-0.28","5","7",""
"","psychophysics","93","596540","0.0-93.0","5a0f7d84ff266c0001d209cc","64de8197b1ec5cc01b3faa1b","","","","","4545",""," ","key"," ","16.721896678966647","500","250","zol","-1.4400000000000004","2","0","-0.06","23","17",""
"","psychophysics","94","600548","0.0-94.0","5a0f7d84ff266c0001d209cc","64de8197b1ec5cc01b3faa1b","","","","","4005",""," ","key"," ","16.719999999999825","500","250","zol","-1.3100000000000003","2","0","0.31","7","-14",""
"","psychophysics","95","604855","0.0-95.0","5a0f7d84ff266c0001d209cc","64de8197b1ec5cc01b3faa1b","","","","","4303",""," ","key"," ","16.7218945312502","500","250","zol","-0.64","2","0","0.64","-19","-6",""
"","psychophysics","96","609242","0.0-96.0","5a0f7d84ff266c0001d209cc","64de8197b1ec5cc01b3faa1b","","","","","4383",""," ","key"," ","16.720000000000052","500","250","zol","-0.49","2","0","0.49","16","11",""
"","psychophysics","97","612762","0.0-97.0","5a0f7d84ff266c0001d209cc","64de8197b1ec5cc01b3faa1b","","","","","3516",""," ","key"," ","16.71999999999991","500","250","zol","-0.7699999999999999","2","0","-0.03","-14","22",""
"","psychophysics","98","616698","0.0-98.0","5a0f7d84ff266c0001d209cc","64de8197b1ec5cc01b3faa1b","","","","","3932",""," ","key"," ","16.72165106382974","500","250","zol","-0.9199999999999999","2","0","0.52","27","11",""
"","psychophysics","99","620114","0.0-99.0","5a0f7d84ff266c0001d209cc","64de8197b1ec5cc01b3faa1b","","","","","3412",""," ","key"," ","16.720000000000162","500","250","zol","-0.7","2","0","-0.6","22","-9",""
"","psychophysics","100","624714","0.0-100.0","5a0f7d84ff266c0001d209cc","64de8197b1ec5cc01b3faa1b","","","","","4597",""," ","key"," ","16.7221569343063","500","250","zol","-0.9599999999999999","2","0","-0.64","-15","-10",""
"","psychophysics","101","626245","0.0-101.0","5a0f7d84ff266c0001d209cc","64de8197b1ec5cc01b3faa1b","","","","","1529",""," ","key"," ","16.720000000000205","500","250","inst","","","","","","",""
"","psychophysics","102","626377","0.0-102.0","5a0f7d84ff266c0001d209cc","64de8197b1ec5cc01b3faa1b","","","","","130",""," ","key"," ","16.71999999998869","500","250","instBr0","0","","","0","0","0","300"
"","psychophysics","103","639252","0.0-103.0","5a0f7d84ff266c0001d209cc","64de8197b1ec5cc01b3faa1b","","","","","12872",""," ","key"," ","16.720643693107842","500","250","instBr1","-1","","","-40","0","0","300"
"","psychophysics","104","646835","0.0-104.0","5a0f7d84ff266c0001d209cc","64de8197b1ec5cc01b3faa1b","","","","","7581",""," ","key"," ","16.721075221238888","500","250","instBr3","18","2","","40","0","0","300"
"","psychophysics","105","648052","0.0-105.0","5a0f7d84ff266c0001d209cc","64de8197b1ec5cc01b3faa1b","","","","","1215",""," ","key"," ","16.719999999999548","500","250","inst","","","","","","",""
"","psychophysics","106","652451","0.0-106.0","5a0f7d84ff266c0001d209cc","64de8197b1ec5cc01b3faa1b","","","","","4396",""," ","key"," ","16.720000000000052","500","250","br","20","2","0","-1","27","9","276"
"","psychophysics","107","657106","0.0-107.0","5a0f7d84ff266c0001d209cc","64de8197b1ec5cc01b3faa1b","","","","","4652",""," ","key"," ","16.72147292418772","500","250","br","13","2","0","19","-6","26","209"
"","psychophysics","108","662250","0.0-108.0","5a0f7d84ff266c0001d209cc","64de8197b1ec5cc01b3faa1b","","","","","5141",""," ","key"," ","16.72000000000012","500","250","br","17","2","0","-19","2","4","260"
"","psychophysics","109","667218","0.0-109.0","5a0f7d84ff266c0001d209cc","64de8197b1ec5cc01b3faa1b","","","","","4965",""," ","key"," ","16.721929054054026","500","250","br","20","2","0","-18","-15","0","254"
"","psychophysics","110","671146","0.0-110.0","5a0f7d84ff266c0001d209cc","64de8197b1ec5cc01b3faa1b","","","","","3925",""," ","key"," ","16.71999999999992","500","250","br","16","2","0","25","-5","-7","245"
"","psychophysics","111","675250","0.0-111.0","5a0f7d84ff266c0001d209cc","64de8197b1ec5cc01b3faa1b","","","","","4102",""," ","key"," ","16.722000000000058","500","250","br","19","2","0","-6","6","15","201"
"","psychophysics","112","678825","0.0-112.0","5a0f7d84ff266c0001d209cc","64de8197b1ec5cc01b3faa1b","","","","","3572",""," ","key"," ","16.719999999999516","500","250","br","17","2","0","22","-14","8","287"
"","psychophysics","113","683489","0.0-113.0","5a0f7d84ff266c0001d209cc","64de8197b1ec5cc01b3faa1b","","","","","4662",""," ","key"," ","16.719999999999697","500","250","br","21","2","0","-4","-23","-3","255"
"","psychophysics","114","685723","0.0-114.0","5a0f7d84ff266c0001d209cc","64de8197b1ec5cc01b3faa1b","","","","","2232",""," ","key"," ","16.723684210526315","500","250","br","17","2","0","17","-28","-28","247"
"","psychophysics","115","688930","0.0-115.0","5a0f7d84ff266c0001d209cc","64de8197b1ec5cc01b3faa1b","","","","","3204",""," ","key"," ","16.7200000000001","500","250","br","14","2","0","2","-21","-24","211"
"","psychophysics","116","693793","0.0-116.0","5a0f7d84ff266c0001d209cc","64de8197b1ec5cc01b3faa1b","","","","","4860",""," ","key"," ","16.720000000000162","500","250","br","16","2","0","-18","11","-26","255"
"","psychophysics","117","697569","0.0-117.0","5a0f7d84ff266c0001d209cc","64de8197b1ec5cc01b3faa1b","","","","","3772",""," ","key"," ","16.721906249999716","500","250","br","17","2","0","-3","23","20","226"
"","psychophysics","118","699986","0.0-118.0","5a0f7d84ff266c0001d209cc","64de8197b1ec5cc01b3faa1b","","","","","2415",""," ","key"," ","16.719999999999548","500","250","br","18","2","0","18","5","2","270"
"","psychophysics","119","703481","0.0-119.0","5a0f7d84ff266c0001d209cc","64de8197b1ec5cc01b3faa1b","","","","","3492",""," ","key"," ","16.720000000000045","500","250","br","19","2","0","25","10","30","206"
"","psychophysics","120","708017","0.0-120.0","5a0f7d84ff266c0001d209cc","64de8197b1ec5cc01b3faa1b","","","","","4534",""," ","key"," ","16.722048148148072","500","250","br","17","2","0","-3","28","-12","287"
"","psychophysics","121","710098","0.0-121.0","5a0f7d84ff266c0001d209cc","64de8197b1ec5cc01b3faa1b","","","","","2079",""," ","key"," ","16.720000000000226","500","250","inst","","","","","","",""
"","psychophysics","122","721298","0.0-122.0","5a0f7d84ff266c0001d209cc","64de8197b1ec5cc01b3faa1b","","","","","11198",""," ","key"," ","16.72073841554559","500","250","instPz1","50","1","","25","","","50"
"","psychophysics","123","726576","0.0-123.0","5a0f7d84ff266c0001d209cc","64de8197b1ec5cc01b3faa1b","","","","","5275",""," ","key"," ","16.72154777070061","500","250","instPz2","22","1","","35","","","20"
"","psychophysics","124","734856","0.0-124.0","5a0f7d84ff266c0001d209cc","64de8197b1ec5cc01b3faa1b","","","","","8277",""," ","key"," ","16.720813765182058","500","250","instPz3","40","1","","100","","","30"
"","psychophysics","125","743993","0.0-125.0","5a0f7d84ff266c0001d209cc","64de8197b1ec5cc01b3faa1b","","","","","9133",""," ","key"," ","16.71999999999999","500","250","instPz4","37","1","","100","","","30"
"","psychophysics","126","744905","0.0-126.0","5a0f7d84ff266c0001d209cc","64de8197b1ec5cc01b3faa1b","","","","","909",""," ","key"," ","16.729169811319807","500","250","inst","","","","","","",""
"","psychophysics","127","748280","0.0-127.0","5a0f7d84ff266c0001d209cc","64de8197b1ec5cc01b3faa1b","","","","","3371",""," ","key"," ","16.72000000000044","500","250","pz","32","1","1","39","","","23"
"","psychophysics","128","756283","0.0-128.0","5a0f7d84ff266c0001d209cc","64de8197b1ec5cc01b3faa1b","","","","","null","","null","key","null","17.26411904761889","500","250","pz","60","1","1","36","","","51"
"","psychophysics","129","760991","0.0-129.0","5a0f7d84ff266c0001d209cc","64de8197b1ec5cc01b3faa1b","","","","","4706",""," ","key"," ","33.439999999999834","500","250","pz","37","1","1","59","","","27"
"","psychophysics","130","766199","0.0-130.0","5a0f7d84ff266c0001d209cc","64de8197b1ec5cc01b3faa1b","","","","","5205",""," ","key"," ","33.44316774193543","500","250","pz","38","1","1","53","","","29"
"","psychophysics","131","771111","0.0-131.0","5a0f7d84ff266c0001d209cc","64de8197b1ec5cc01b3faa1b","","","","","4909",""," ","key"," ","33.439999999999934","500","250","pz","55","1","1","34","","","41"
"","psychophysics","132","775831","0.0-132.0","5a0f7d84ff266c0001d209cc","64de8197b1ec5cc01b3faa1b","","","","","4717",""," ","key"," ","33.44297857142852","500","250","pz","37","1","1","57","","","26"
"","psychophysics","133","779135","0.0-133.0","5a0f7d84ff266c0001d209cc","64de8197b1ec5cc01b3faa1b","","","","","3301",""," ","key"," ","33.439999999999955","500","250","pz","42","1","1","44","","","36"
"","psychophysics","134","784903","0.0-134.0","5a0f7d84ff266c0001d209cc","64de8197b1ec5cc01b3faa1b","","","","","5765",""," ","key"," ","33.43999999999995","500","250","pz","70","1","1","24","","","54"
"","psychophysics","135","787554","0.0-135.0","5a0f7d84ff266c0001d209cc","64de8197b1ec5cc01b3faa1b","","","","","2647",""," ","key"," ","33.44719230769298","500","250","pz","37","1","1","37","","","29"
"","psychophysics","136","789342","0.0-136.0","5a0f7d84ff266c0001d209cc","64de8197b1ec5cc01b3faa1b","","","","","1785",""," ","key"," ","33.44000000000123","500","250","pz","57","1","1","57","","","48"
"","psychophysics","137","791193","0.0-137.0","5a0f7d84ff266c0001d209cc","64de8197b1ec5cc01b3faa1b","","","","","1848",""," ","key"," ","33.440000000000175","500","250","pz","54","1","1","54","","","52"
"","psychophysics","138","795511","0.0-138.0","5a0f7d84ff266c0001d209cc","64de8197b1ec5cc01b3faa1b","","","","","4315",""," ","key"," ","33.44382812499953","500","250","pz","56","1","1","41","","","52"
"","psychophysics","139","799086","0.0-139.0","5a0f7d84ff266c0001d209cc","64de8197b1ec5cc01b3faa1b","","","","","3573",""," ","key"," ","33.44000000000013","500","250","pz","31","1","1","23","","","26"
"","psychophysics","140","803479","0.0-140.0","5a0f7d84ff266c0001d209cc","64de8197b1ec5cc01b3faa1b","","","","","4389",""," ","key"," ","33.43999999999964","500","250","pz","67","1","1","37","","","50"
"","psychophysics","141","808006","0.0-141.0","5a0f7d84ff266c0001d209cc","64de8197b1ec5cc01b3faa1b","","","","","4523",""," ","key"," ","33.44362962962973","500","250","pz","66","1","1","39","","","48"
"","psychophysics","142","809288","0.0-142.0","5a0f7d84ff266c0001d209cc","64de8197b1ec5cc01b3faa1b","","","","","1280",""," ","key"," ","33.44000000000076","500","250","inst","","","","","","",""
"","psychophysics","143","817918","0.0-143.0","5a0f7d84ff266c0001d209cc","64de8197b1ec5cc01b3faa1b","","","","","8628",""," ","key"," ","33.44149416342427","500","250","instZol1","2.7755575615628914e-17","","","-1.3","0","0",""
"","psychophysics","144","825870","0.0-144.0","5a0f7d84ff266c0001d209cc","64de8197b1ec5cc01b3faa1b","","","","","7950",""," ","key"," ","33.442067510548604","500","250","instZol2","1.400000000000001","1","","2","0","0",""
"","psychophysics","145","826655","0.0-145.0","5a0f7d84ff266c0001d209cc","64de8197b1ec5cc01b3faa1b","","","","","783",""," ","key"," ","33.4399999999998","500","250","inst","","","","","","",""
"","psychophysics","146","830550","0.0-146.0","5a0f7d84ff266c0001d209cc","64de8197b1ec5cc01b3faa1b","","","","","3892",""," ","key"," ","33.4399999999998","500","250","zol","1.5100000000000005","1","1","-0.41","-5","-2",""
"","psychophysics","147","835230","0.0-147.0","5a0f7d84ff266c0001d209cc","64de8197b1ec5cc01b3faa1b","","","","","4677",""," ","key"," ","33.44354676259028","500","250","zol","1.9100000000000008","1","1","-0.01","-6","-24",""
"","psychophysics","148","839311","0.0-148.0","5a0f7d84ff266c0001d209cc","64de8197b1ec5cc01b3faa1b","","","","","4076",""," ","key"," ","33.43999999999992","500","250","zol","1.6900000000000004","1","1","-0.39","21","-22",""
"","psychophysics","149","844181","0.0-149.0","5a0f7d84ff266c0001d209cc","64de8197b1ec5cc01b3faa1b","","","","","4866",""," ","key"," ","33.43999999999952","500","250","zol","1.2300000000000002","1","1","-0.03","-3","-28",""
"","psychophysics","150","847789","0.0-150.0","5a0f7d84ff266c0001d209cc","64de8197b1ec5cc01b3faa1b","","","","","3605",""," ","key"," ","33.44548598130856","500","250","zol","1.2","1","1","0.5","3","7",""
"","psychophysics","151","851501","0.0-151.0","5a0f7d84ff266c0001d209cc","64de8197b1ec5cc01b3faa1b","","","","","3709",""," ","key"," ","33.44000000000021","500","250","zol","0.9999999999999999","1","1","0.6","16","25",""
"","psychophysics","152","855893","0.0-152.0","5a0f7d84ff266c0001d209cc","64de8197b1ec5cc01b3faa1b","","","","","4389",""," ","key"," ","33.443246153845955","500","250","zol","1.27","1","1","0.03","16","12",""
"","psychophysics","153","858837","0.0-153.0","5a0f7d84ff266c0001d209cc","64de8197b1ec5cc01b3faa1b","","","","","2940",""," ","key"," ","33.440000000000325","500","250","zol","0.79","1","1","0.41","-9","-23",""
"","psychophysics","154","863293","0.0-154.0","5a0f7d84ff266c0001d209cc","64de8197b1ec5cc01b3faa1b","","","","","4452",""," ","key"," ","33.440000000000566","500","250","zol","1.5500000000000005","1","1","-0.45","6","-6",""
"","psychophysics","155","866789","0.0-155.0","5a0f7d84ff266c0001d209cc","64de8197b1ec5cc01b3faa1b","","","","","3493",""," ","key"," ","33.44544230769232","500","250","zol","0.7599999999999999","1","1","0.54","-3","27",""
"","psychophysics","156","869031","0.0-156.0","5a0f7d84ff266c0001d209cc","64de8197b1ec5cc01b3faa1b","","","","","2239",""," ","key"," ","33.439999999998804","500","250","zol","0.65","1","1","-0.65","-17","-13",""
"","psychophysics","157","872797","0.0-157.0","5a0f7d84ff266c0001d209cc","64de8197b1ec5cc01b3faa1b","","","","","3764",""," ","key"," ","33.439999999999706","500","250","zol","0.6699999999999999","1","1","0.73","4","-14",""
"","psychophysics","158","876389","0.0-158.0","5a0f7d84ff266c0001d209cc","64de8197b1ec5cc01b3faa1b","","","","","3588",""," ","key"," ","33.44401869158887","500","250","zol","0.8599999999999999","1","1","0.64","-1","13",""
"","psychophysics","159","879716","0.0-159.0","5a0f7d84ff266c0001d209cc","64de8197b1ec5cc01b3faa1b","","","","","3324",""," ","key"," ","33.439999999999955","500","250","zol","1.1400000000000001","1","1","-0.14","-21","-2",""
"","psychophysics","160","882317","0.0-160.0","5a0f7d84ff266c0001d209cc","64de8197b1ec5cc01b3faa1b","","","","","2598",""," ","key"," ","33.44000000000006","500","250","zol","1.2200000000000002","1","1","-0.62","22","0",""
"","psychophysics","161","883848","0.0-161.0","5a0f7d84ff266c0001d209cc","64de8197b1ec5cc01b3faa1b","","","","","1529",""," ","key"," ","33.440000000001035","500","250","inst","","","","","","",""
"","psychophysics","162","890660","0.0-162.0","5a0f7d84ff266c0001d209cc","64de8197b1ec5cc01b3faa1b","","","","","6810",""," ","key"," ","33.442605911330276","500","250","instEB1","32","1","","40","0","0","30"
"","psychophysics","163","895035","0.0-163.0","5a0f7d84ff266c0001d209cc","64de8197b1ec5cc01b3faa1b","","","","","4374",""," ","key"," ","33.44000000000007","500","250","instEB2","37","1","","30","0","0","40"
"","psychophysics","164","901043","0.0-164.0","5a0f7d84ff266c0001d209cc","64de8197b1ec5cc01b3faa1b","","","","","6006",""," ","key"," ","33.4426424581006","500","250","instEB3","37","1","","27","0","0","45"
"","psychophysics","165","906844","0.0-165.0","5a0f7d84ff266c0001d209cc","64de8197b1ec5cc01b3faa1b","","","","","5798",""," ","key"," ","33.44242196531786","500","250","instEB4","27","1","","40","0","0","30"
"","psychophysics","166","907701","0.0-166.0","5a0f7d84ff266c0001d209cc","64de8197b1ec5cc01b3faa1b","","","","","856",""," ","key"," ","33.439999999997475","500","250","inst","","","","","","",""
"","psychophysics","167","912771","0.0-167.0","5a0f7d84ff266c0001d209cc","64de8197b1ec5cc01b3faa1b","","","","","5067",""," ","key"," ","33.43999999999963","500","250","eb","45","1","","52","0","0","43"
"","psychophysics","168","917123","0.0-168.0","5a0f7d84ff266c0001d209cc","64de8197b1ec5cc01b3faa1b","","","","","4351",""," ","key"," ","33.44460465116228","500","250","eb","31","1","","39","0","0","34"
"","psychophysics","169","920443","0.0-169.0","5a0f7d84ff266c0001d209cc","64de8197b1ec5cc01b3faa1b","","","","","3318",""," ","key"," ","33.439999999999955","500","250","eb","34","1","","48","0","0","39"
"","psychophysics","170","923651","0.0-170.0","5a0f7d84ff266c0001d209cc","64de8197b1ec5cc01b3faa1b","","","","","3206",""," ","key"," ","33.44000000000049","500","250","eb","38","1","","33","0","0","41"
"","psychophysics","171","927283","0.0-171.0","5a0f7d84ff266c0001d209cc","64de8197b1ec5cc01b3faa1b","","","","","3630",""," ","key"," ","33.444472222222466","500","250","eb","44","1","","34","0","0","45"
"","psychophysics","172","930499","0.0-172.0","5a0f7d84ff266c0001d209cc","64de8197b1ec5cc01b3faa1b","","","","","3214",""," ","key"," ","33.44000000000049","500","250","eb","39","1","","49","0","0","43"
"","psychophysics","173","934027","0.0-173.0","5a0f7d84ff266c0001d209cc","64de8197b1ec5cc01b3faa1b","","","","","3525",""," ","key"," ","33.43999999999897","500","250","eb","27","1","","40","0","0","30"
"","psychophysics","174","938219","0.0-174.0","5a0f7d84ff266c0001d209cc","64de8197b1ec5cc01b3faa1b","","","","","4190",""," ","key"," ","33.44384800000023","500","250","eb","30","1","","52","0","0","30"
"","psychophysics","175","942714","0.0-175.0","5a0f7d84ff266c0001d209cc","64de8197b1ec5cc01b3faa1b","","","","","4493",""," ","key"," ","33.44000000000014","500","250","eb","25","1","","39","0","0","27"
"","psychophysics","176","947338","0.0-176.0","5a0f7d84ff266c0001d209cc","64de8197b1ec5cc01b3faa1b","","","","","4622",""," ","key"," ","33.442941605839984","500","250","eb","50","1","","42","0","0","54"
"","psychophysics","177","951203","0.0-177.0","5a0f7d84ff266c0001d209cc","64de8197b1ec5cc01b3faa1b","","","","","3863",""," ","key"," ","33.44000000000081","500","250","eb","48","1","","51","0","0","50"
"","psychophysics","178","955226","0.0-178.0","5a0f7d84ff266c0001d209cc","64de8197b1ec5cc01b3faa1b","","","","","4020",""," ","key"," ","33.439999999999884","500","250","eb","29","1","","42","0","0","28"
"","psychophysics","179","960387","0.0-179.0","5a0f7d84ff266c0001d209cc","64de8197b1ec5cc01b3faa1b","","","","","5159",""," ","key"," ","33.44317532467502","500","250","eb","51","1","","24","0","0","54"
"","psychophysics","180","964826","0.0-180.0","5a0f7d84ff266c0001d209cc","64de8197b1ec5cc01b3faa1b","","","","","4437",""," ","key"," ","33.440000000000104","500","250","eb","24","1","","40","0","0","27"
"","psychophysics","181","967804","0.0-181.0","5a0f7d84ff266c0001d209cc","64de8197b1ec5cc01b3faa1b","","","","","2975",""," ","key"," ","34.62707058823503","500","250","eb","26","1","","26","0","0","25"
"","psychophysics","182","969050","0.0-182.0","5a0f7d84ff266c0001d209cc","64de8197b1ec5cc01b3faa1b","","","","","1244",""," ","key"," ","33.43999999999761","500","250","inst","","","","","","",""
"","psychophysics","183","976290","0.0-183.0","5a0f7d84ff266c0001d209cc","64de8197b1ec5cc01b3faa1b","","","","","7239",""," ","key"," ","33.44204186046507","500","250","instPog0","162","1","","190","0","0","160"
"","psychophysics","184","983946","0.0-184.0","5a0f7d84ff266c0001d209cc","64de8197b1ec5cc01b3faa1b","","","","","7655",""," ","key"," ","33.44000000000029","500","250","instPog1","176","1","","190","0","0","160"
"","psychophysics","185","988769","0.0-185.0","5a0f7d84ff266c0001d209cc","64de8197b1ec5cc01b3faa1b","","","","","4822",""," ","key"," ","33.44389510489561","500","250","instPog2","186","1","","160","0","0","160"
"","psychophysics","186","989675","0.0-186.0","5a0f7d84ff266c0001d209cc","64de8197b1ec5cc01b3faa1b","","","","","904",""," ","key"," ","33.44000000000233","500","250","inst","","","","","","",""
"","psychophysics","187","996242","0.0-187.0","5a0f7d84ff266c0001d209cc","64de8197b1ec5cc01b3faa1b","","","","","6565",""," ","key"," ","33.44208163265329","500","250","pog","219","1","1","109","0","0","200"
"","psychophysics","188","1000267","0.0-188.0","5a0f7d84ff266c0001d209cc","64de8197b1ec5cc01b3faa1b","","","","","4023",""," ","key"," ","33.439999999999884","500","250","pog","198","1","1","158","0","0","175"
"","psychophysics","189","1005577","0.0-189.0","5a0f7d84ff266c0001d209cc","64de8197b1ec5cc01b3faa1b","","","","","5308",""," ","key"," ","33.44000000000012","500","250","pog","173","1","1","219","0","0","158"
"","psychophysics","190","1010105","0.0-190.0","5a0f7d84ff266c0001d209cc","64de8197b1ec5cc01b3faa1b","","","","","4526",""," ","key"," ","33.4441492537318","500","250","pog","198","1","1","140","0","0","183"
"","psychophysics","191","1014065","0.0-191.0","5a0f7d84ff266c0001d209cc","64de8197b1ec5cc01b3faa1b","","","","","3957",""," ","key"," ","33.44000000000035","500","250","pog","185","1","1","217","0","0","161"
"","psychophysics","192","1018272","0.0-192.0","5a0f7d84ff266c0001d209cc","64de8197b1ec5cc01b3faa1b","","","","","4206",""," ","key"," ","33.444","500","250","pog","134","1","1","110","0","0","121"
"","psychophysics","193","1024192","0.0-193.0","5a0f7d84ff266c0001d209cc","64de8197b1ec5cc01b3faa1b","","","","","5918",""," ","key"," ","33.439999999999685","500","250","pog","186","1","1","128","0","0","159"
"","psychophysics","194","1027563","0.0-194.0","5a0f7d84ff266c0001d209cc","64de8197b1ec5cc01b3faa1b","","","","","3369",""," ","key"," ","33.444969696968776","500","250","pog","139","1","1","139","0","0","125"
"","psychophysics","195","1028984","0.0-195.0","5a0f7d84ff266c0001d209cc","64de8197b1ec5cc01b3faa1b","","","","","1420",""," ","key"," ","33.43999999999956","500","250","pog","217","1","1","217","0","0","198"
"","psychophysics","196","1031219","0.0-196.0","5a0f7d84ff266c0001d209cc","64de8197b1ec5cc01b3faa1b","","","","","2233",""," ","key"," ","33.440000000000566","500","250","pog","166","1","1","166","0","0","150"
"","psychophysics","197","1036745","0.0-197.0","5a0f7d84ff266c0001d209cc","64de8197b1ec5cc01b3faa1b","","","","","5524",""," ","key"," ","33.44234756097516","500","250","pog","197","1","1","121","0","0","178"
"","psychophysics","198","1040168","0.0-198.0","5a0f7d84ff266c0001d209cc","64de8197b1ec5cc01b3faa1b","","","","","3421",""," ","key"," ","33.43999999999944","500","250","pog","198","1","1","168","0","0","176"
"","psychophysics","199","1045305","0.0-199.0","5a0f7d84ff266c0001d209cc","64de8197b1ec5cc01b3faa1b","","","","","5135",""," ","key"," ","33.439999999999664","500","250","pog","183","1","1","111","0","0","157"
"","psychophysics","200","1049271","0.0-200.0","5a0f7d84ff266c0001d209cc","64de8197b1ec5cc01b3faa1b","","","","","3965",""," ","key"," ","33.4449067796616","500","250","pog","157","1","1","197","0","0","134"
"","psychophysics","201","1052815","0.0-201.0","5a0f7d84ff266c0001d209cc","64de8197b1ec5cc01b3faa1b","","","","","3542",""," ","key"," ","33.43999999999956","500","250","pog","164","1","1","160","0","0","144"
"","psychophysics","202","1054953","0.0-202.0","5a0f7d84ff266c0001d209cc","64de8197b1ec5cc01b3faa1b","","","","","2137",""," ","key"," ","33.43999999999956","500","250","inst","","","","","","",""
"","psychophysics","203","1062520","0.0-203.0","5a0f7d84ff266c0001d209cc","64de8197b1ec5cc01b3faa1b","","","","","7565",""," ","key"," ","33.44224444444395","500","250","instBr3","-10","1","","40","0","0","300"
"","psychophysics","204","1063881","0.0-204.0","5a0f7d84ff266c0001d209cc","64de8197b1ec5cc01b3faa1b","","","","","1360",""," ","key"," ","33.44000000000382","500","250","inst","","","","","","",""
"","psychophysics","205","1068727","0.0-205.0","5a0f7d84ff266c0001d209cc","64de8197b1ec5cc01b3faa1b","","","","","4842",""," ","key"," ","33.44291666666686","500","250","br","-11","1","1","18","28","14","259"
"","psychophysics","206","1073224","0.0-206.0","5a0f7d84ff266c0001d209cc","64de8197b1ec5cc01b3faa1b","","","","","4495",""," ","key"," ","33.43999999999972","500","250","br","-14","1","1","15","-5","-12","270"
"","psychophysics","207","1076895","0.0-207.0","5a0f7d84ff266c0001d209cc","64de8197b1ec5cc01b3faa1b","","","","","3669",""," ","key"," ","33.44417431192695","500","250","br","-10","1","1","4","29","-27","200"
"","psychophysics","208","1079082","0.0-208.0","5a0f7d84ff266c0001d209cc","64de8197b1ec5cc01b3faa1b","","","","","2186",""," ","key"," ","33.44000000000233","500","250","br","-22","1","1","-22","30","-9","269"
"","psychophysics","209","1083079","0.0-209.0","5a0f7d84ff266c0001d209cc","64de8197b1ec5cc01b3faa1b","","","","","3995",""," ","key"," ","33.44000000000086","500","250","br","-17","1","1","8","4","9","284"
"","psychophysics","210","1086175","0.0-210.0","5a0f7d84ff266c0001d209cc","64de8197b1ec5cc01b3faa1b","","","","","3093",""," ","key"," ","33.44576923076862","500","250","br","-13","1","1","-2","1","-8","258"
"","psychophysics","211","1087656","0.0-211.0","5a0f7d84ff266c0001d209cc","64de8197b1ec5cc01b3faa1b","","","","","1479",""," ","key"," ","33.440000000003685","500","250","br","-21","1","1","-21","-1","16","221"
"","psychophysics","212","1090910","0.0-212.0","5a0f7d84ff266c0001d209cc","64de8197b1ec5cc01b3faa1b","","","","","3250",""," ","key"," ","33.43999999999933","500","250","br","-15","1","1","-9","14","-21","282"
"","psychophysics","213","1093838","0.0-213.0","5a0f7d84ff266c0001d209cc","64de8197b1ec5cc01b3faa1b","","","","","2926",""," ","key"," ","33.44000000000097","500","250","br","-14","1","1","-2","17","-16","253"
"","psychophysics","214","1097694","0.0-214.0","5a0f7d84ff266c0001d209cc","64de8197b1ec5cc01b3faa1b","","","","","3854",""," ","key"," ","33.44486956521869","500","250","br","-17","1","1","5","8","-26","264"
"","psychophysics","215","1100726","0.0-215.0","5a0f7d84ff266c0001d209cc","64de8197b1ec5cc01b3faa1b","","","","","3030",""," ","key"," ","33.43999999999906","500","250","br","-18","1","1","-3","-10","20","227"
"","psychophysics","216","1103511","0.0-216.0","5a0f7d84ff266c0001d209cc","64de8197b1ec5cc01b3faa1b","","","","","2782",""," ","key"," ","33.43999999999742","500","250","br","-18","1","1","-6","0","9","247"
"","psychophysics","217","1108214","0.0-217.0","5a0f7d84ff266c0001d209cc","64de8197b1ec5cc01b3faa1b","","","","","4701",""," ","key"," ","33.44296402877646","500","250","br","-12","1","1","16","-27","-16","273"
"","psychophysics","218","1111414","0.0-218.0","5a0f7d84ff266c0001d209cc","64de8197b1ec5cc01b3faa1b","","","","","3198",""," ","key"," ","33.44000000000049","500","250","br","-16","1","1","-10","0","-9","269"
"","psychophysics","219","1115151","0.0-219.0","5a0f7d84ff266c0001d209cc","64de8197b1ec5cc01b3faa1b","","","","","3734",""," ","key"," ","33.44000000000076","500","250","br","-17","1","1","-27","-5","20","212"
