"success","trial_type","trial_index","time_elapsed","internal_node_id","pid","sid","timeout","failed_images","failed_audio","failed_video","rt","stimulus","response","response_type","key_press","avg_frame_time","center_x","center_y","task","resp","start","parA","version","block","jitterX","jitterY"
"true","fullscreen","0","3205","0.0-0.0","63d7e0cbacf1e02164fc2e9a","64e50e36546c0051f3d6eb01","","","","","","","","","","","","","","","","","","","",""
"true","preload","1","3305","0.0-1.0","63d7e0cbacf1e02164fc2e9a","64e50e36546c0051f3d6eb01","false","[]","[]","[]","","","","","","","","","","","","","","","",""
"","html-button-response","2","4884","0.0-2.0","63d7e0cbacf1e02164fc2e9a","64e50e36546c0051f3d6eb01","","","","","1573","Please Make Sure Your Audio Is On.","0","","","","","","","","","","","","",""
"","psychophysics","3","11036","0.0-3.0","63d7e0cbacf1e02164fc2e9a","64e50e36546c0051f3d6eb01","","","","","6112",""," ","key"," ","16.73592391304348","683","250","","","","","","","",""
"","psychophysics","4","17490","0.0-4.0","63d7e0cbacf1e02164fc2e9a","64e50e36546c0051f3d6eb01","","","","","6449",""," ","key"," ","16.688450777202068","500","250","inst","","","","","","",""
"","psychophysics","5","21769","0.0-5.0","63d7e0cbacf1e02164fc2e9a","64e50e36546c0051f3d6eb01","","","","","4274",""," ","key"," ","16.645999999999987","500","250","sample0","","","","","","",""
"","psychophysics","6","25447","0.0-6.0","63d7e0cbacf1e02164fc2e9a","64e50e36546c0051f3d6eb01","","","","","3674",""," ","key"," ","16.721214611872146","500","250","sample1","","","","","","",""
"","psychophysics","7","54841","0.0-7.0","63d7e0cbacf1e02164fc2e9a","64e50e36546c0051f3d6eb01","","","","","29387",""," ","key"," ","16.645545042492916","500","250","sample2","100","","","","","",""
"","psychophysics","8","67497","0.0-8.0","63d7e0cbacf1e02164fc2e9a","64e50e36546c0051f3d6eb01","","","","","12648",""," ","key"," ","16.64532674571806","500","250","sample3","100","","","","","",""
"","psychophysics","9","81226","0.0-9.0","63d7e0cbacf1e02164fc2e9a","64e50e36546c0051f3d6eb01","","","","","13717",""," ","key"," ","16.645503640776703","500","250","sample4","102","","","","","",""
"","psychophysics","10","85552","0.0-10.0","63d7e0cbacf1e02164fc2e9a","64e50e36546c0051f3d6eb01","","","","","4318",""," ","key"," ","16.644787644787645","500","250","sample5","","","","","","",""
"","psychophysics","11","94237","0.0-11.0","63d7e0cbacf1e02164fc2e9a","64e50e36546c0051f3d6eb01","","","","","8680",""," ","key"," ","16.64571730769231","500","250","sample6","502","","","","","",""
"","psychophysics","12","99186","0.0-12.0","63d7e0cbacf1e02164fc2e9a","64e50e36546c0051f3d6eb01","","","","","4937",""," ","key"," ","16.645774410774404","500","250","inst","","","","","","",""
"","psychophysics","13","105211","0.0-13.0","63d7e0cbacf1e02164fc2e9a","64e50e36546c0051f3d6eb01","","","","","6019",""," ","key"," ","16.645282548476455","500","250","inst","","","","","","",""
"","psychophysics","14","107340","0.0-14.0","63d7e0cbacf1e02164fc2e9a","64e50e36546c0051f3d6eb01","","","","","2126",""," ","key"," ","16.646141732283446","500","250","inst","","","","","","",""
"","psychophysics","15","111302","0.0-15.0","63d7e0cbacf1e02164fc2e9a","64e50e36546c0051f3d6eb01","","","","","3956",""," ","key"," ","16.64547881355932","500","250","inst","","","","","","",""
"","psychophysics","16","112779","0.0-16.0","63d7e0cbacf1e02164fc2e9a","64e50e36546c0051f3d6eb01","","","","","1469",""," ","key"," ","16.64584090909094","500","250","inst","","","","","","",""
"","psychophysics","17","115779","0.0-17.0","63d7e0cbacf1e02164fc2e9a","64e50e36546c0051f3d6eb01","","","","","2982",""," ","key"," ","16.646394444444418","500","250","instPzPre","50","50","50","0","","",""
"","psychophysics","18","119048","0.0-18.0","63d7e0cbacf1e02164fc2e9a","64e50e36546c0051f3d6eb01","","","","","3263",""," ","key"," ","16.646692307692287","500","250","instPz0","50","50","50","2","","",""
"","psychophysics","19","128271","0.0-19.0","63d7e0cbacf1e02164fc2e9a","64e50e36546c0051f3d6eb01","","","","","9206",""," ","key"," ","16.645437613019883","500","250","instPz1","46","25","50","2","","",""
"","psychophysics","20","135905","0.0-20.0","63d7e0cbacf1e02164fc2e9a","64e50e36546c0051f3d6eb01","","","","","7622",""," ","key"," ","16.645541484716148","500","250","instPz2","34","20","35","2","","",""
"","psychophysics","21","149504","0.0-21.0","63d7e0cbacf1e02164fc2e9a","64e50e36546c0051f3d6eb01","","","","","13580",""," ","key"," ","16.706913899139014","500","250","instPz3","30","30","100","2","","",""
"","psychophysics","22","159679","0.0-22.0","63d7e0cbacf1e02164fc2e9a","64e50e36546c0051f3d6eb01","","","","","10167",""," ","key"," ","16.645604918032767","500","250","instPz4","62","30","100","2","","",""
"","psychophysics","23","162443","0.0-23.0","63d7e0cbacf1e02164fc2e9a","64e50e36546c0051f3d6eb01","","","","","2759",""," ","key"," ","16.645945454545313","500","250","inst","","","","","","",""
"","psychophysics","24","168645","0.0-24.0","63d7e0cbacf1e02164fc2e9a","64e50e36546c0051f3d6eb01","","","","","6188",""," ","key"," ","16.645247311827976","500","250","pz","15","43","22","2","0","",""
"","psychophysics","25","170904","0.0-25.0","63d7e0cbacf1e02164fc2e9a","64e50e36546c0051f3d6eb01","","","","","2253",""," ","key"," ","16.645328358209078","500","250","pz","34","35","59","2","0","",""
"","psychophysics","26","175835","0.0-26.0","63d7e0cbacf1e02164fc2e9a","64e50e36546c0051f3d6eb01","","","","","4921",""," ","key"," ","16.645709459459376","500","250","pz","24","56","40","2","0","",""
"","psychophysics","27","178558","0.0-27.0","63d7e0cbacf1e02164fc2e9a","64e50e36546c0051f3d6eb01","","","","","2718",""," ","key"," ","16.645580246913596","500","250","pz","29","29","49","2","0","",""
"","psychophysics","28","185483","0.0-28.0","63d7e0cbacf1e02164fc2e9a","64e50e36546c0051f3d6eb01","","","","","6911",""," ","key"," ","16.645773493975938","500","250","pz","12","34","27","2","0","",""
"","psychophysics","29","188270","0.0-29.0","63d7e0cbacf1e02164fc2e9a","64e50e36546c0051f3d6eb01","","","","","2777",""," ","key"," ","16.645455089820345","500","250","pz","16","21","33","2","0","",""
"","psychophysics","30","192748","0.0-30.0","63d7e0cbacf1e02164fc2e9a","64e50e36546c0051f3d6eb01","","","","","4469",""," ","key"," ","16.645511194029755","500","250","pz","24","36","47","2","0","",""
"","psychophysics","31","199683","0.0-31.0","63d7e0cbacf1e02164fc2e9a","64e50e36546c0051f3d6eb01","","","","","6929",""," ","key"," ","16.64540963855422","500","250","pz","15","41","48","2","0","",""
"","psychophysics","32","205748","0.0-32.0","63d7e0cbacf1e02164fc2e9a","64e50e36546c0051f3d6eb01","","","","","6054",""," ","key"," ","16.645865384615387","500","250","pz","19","41","34","2","0","",""
"","psychophysics","33","207665","0.0-33.0","63d7e0cbacf1e02164fc2e9a","64e50e36546c0051f3d6eb01","","","","","1909",""," ","key"," ","16.64787719298252","500","250","pz","23","24","47","2","0","",""
"","psychophysics","34","211378","0.0-34.0","63d7e0cbacf1e02164fc2e9a","64e50e36546c0051f3d6eb01","","","","","3708",""," ","key"," ","16.64610810810818","500","250","pz","19","31","33","2","0","",""
"","psychophysics","35","215834","0.0-35.0","63d7e0cbacf1e02164fc2e9a","64e50e36546c0051f3d6eb01","","","","","4451",""," ","key"," ","16.64515355805241","500","250","pz","14","32","20","2","0","",""
"","psychophysics","36","219858","0.0-36.0","63d7e0cbacf1e02164fc2e9a","64e50e36546c0051f3d6eb01","","","","","4017",""," ","key"," ","16.645674999999997","500","250","pz","21","39","46","2","0","",""
"","psychophysics","37","227604","0.0-37.0","63d7e0cbacf1e02164fc2e9a","64e50e36546c0051f3d6eb01","","","","","7732",""," ","key"," ","16.645858064516116","500","250","pz","19","55","34","2","0","",""
"","psychophysics","38","234947","0.0-38.0","63d7e0cbacf1e02164fc2e9a","64e50e36546c0051f3d6eb01","","","","","7336",""," ","key"," ","16.645581818181846","500","250","pz","21","35","34","2","0","",""
"","psychophysics","39","237159","0.0-39.0","63d7e0cbacf1e02164fc2e9a","64e50e36546c0051f3d6eb01","","","","","2206",""," ","key"," ","16.64726515151503","500","250","inst","","","","","","",""
"","psychophysics","40","238982","0.0-40.0","63d7e0cbacf1e02164fc2e9a","64e50e36546c0051f3d6eb01","","","","","1819",""," ","key"," ","16.644879629629603","500","250","instZol0","0","0","","","","0","0"
"","psychophysics","41","251596","0.0-41.0","63d7e0cbacf1e02164fc2e9a","64e50e36546c0051f3d6eb01","","","","","12601",""," ","key"," ","16.645627476882417","500","250","instZol1","0.09999999999999981","-1.3","","","","0","0"
"","psychophysics","42","276912","0.0-42.0","63d7e0cbacf1e02164fc2e9a","64e50e36546c0051f3d6eb01","","","","","25303",""," ","key"," ","16.64541513157894","500","250","instZol2","-1.3999999999999995","2","","2","","0","0"
"","psychophysics","43","279227","0.0-43.0","63d7e0cbacf1e02164fc2e9a","64e50e36546c0051f3d6eb01","","","","","2310",""," ","key"," ","16.647260869565113","500","250","inst","","","","","","",""
"","psychophysics","44","284637","0.0-44.0","63d7e0cbacf1e02164fc2e9a","64e50e36546c0051f3d6eb01","","","","","5392",""," ","key"," ","16.645712962962996","500","250","zol","-1.4400000000000004","0.14","","2","0","25","24"
"","psychophysics","45","290558","0.0-45.0","63d7e0cbacf1e02164fc2e9a","64e50e36546c0051f3d6eb01","","","","","5902",""," ","key"," ","16.644890140845035","500","250","zol","-1.5300000000000005","-0.57","","2","0","-21","-25"
"","psychophysics","46","298573","0.0-46.0","63d7e0cbacf1e02164fc2e9a","64e50e36546c0051f3d6eb01","","","","","null","","null","key","null","16.645527083333338","500","250","zol","-1.21","0.11","","2","0","-25","-22"
"","psychophysics","47","298946","0.0-47.0","63d7e0cbacf1e02164fc2e9a","64e50e36546c0051f3d6eb01","","","","","353",""," ","key"," ","16.64559090908998","500","250","zol","0.69","-0.69","","2","0","-18","-27"
"","psychophysics","48","306955","0.0-48.0","63d7e0cbacf1e02164fc2e9a","64e50e36546c0051f3d6eb01","","","","","null","","null","key","null","16.64572916666669","500","250","zol","-1.3600000000000003","-0.44","","2","0","4","-24"
"","psychophysics","49","313121","0.0-49.0","63d7e0cbacf1e02164fc2e9a","64e50e36546c0051f3d6eb01","","","","","6155",""," ","key"," ","16.645512195122","500","250","zol","-1.32","-0.68","","2","0","3","-3"
"","psychophysics","50","317865","0.0-50.0","63d7e0cbacf1e02164fc2e9a","64e50e36546c0051f3d6eb01","","","","","4725",""," ","key"," ","16.64560211267614","500","250","zol","-2.040000000000001","0.44","","2","0","18","-9"
"","psychophysics","51","325875","0.0-51.0","63d7e0cbacf1e02164fc2e9a","64e50e36546c0051f3d6eb01","","","","","null","","null","key","null","16.645527083333338","500","250","zol","-0.7299999999999999","0.13","","2","0","-3","-14"
"","psychophysics","52","330547","0.0-52.0","63d7e0cbacf1e02164fc2e9a","64e50e36546c0051f3d6eb01","","","","","4649",""," ","key"," ","16.645460714285687","500","250","zol","-1.9000000000000006","-0.2","","2","0","11","14"
"","psychophysics","53","338559","0.0-53.0","63d7e0cbacf1e02164fc2e9a","64e50e36546c0051f3d6eb01","","","","","null","","null","key","null","16.645454166666603","500","250","zol","-0.9699999999999999","-0.73","","2","0","-15","3"
"","psychophysics","54","346381","0.0-54.0","63d7e0cbacf1e02164fc2e9a","64e50e36546c0051f3d6eb01","","","","","7800",""," ","key"," ","16.645364605543662","500","250","zol","-1.35","-0.15","","2","0","-14","25"
"","psychophysics","55","353783","0.0-55.0","63d7e0cbacf1e02164fc2e9a","64e50e36546c0051f3d6eb01","","","","","7391",""," ","key"," ","16.645479729729715","500","250","zol","-1.17","0.37","","2","0","-18","25"
"","psychophysics","56","361795","0.0-56.0","63d7e0cbacf1e02164fc2e9a","64e50e36546c0051f3d6eb01","","","","","null","","null","key","null","16.645531249999962","500","250","zol","-0.8699999999999999","0.07","","2","0","-23","-9"
"","psychophysics","57","365984","0.0-57.0","63d7e0cbacf1e02164fc2e9a","64e50e36546c0051f3d6eb01","","","","","4157",""," ","key"," ","16.64560159362539","500","250","zol","-0.75","-0.45","","2","0","-25","29"
"","psychophysics","58","374001","0.0-58.0","63d7e0cbacf1e02164fc2e9a","64e50e36546c0051f3d6eb01","","","","","null","","null","key","null","16.64552806652809","500","250","zol","-1.0099999999999998","0.41","","2","0","-22","6"
"","psychophysics","59","375948","0.0-59.0","63d7e0cbacf1e02164fc2e9a","64e50e36546c0051f3d6eb01","","","","","1943",""," ","key"," ","16.645517241379352","500","250","inst","","","","","","",""
"","psychophysics","60","379051","0.0-60.0","63d7e0cbacf1e02164fc2e9a","64e50e36546c0051f3d6eb01","","","","","3098",""," ","key"," ","16.645529729729784","500","250","instBr0","0","0","300","","","0","0"
"","psychophysics","61","387943","0.0-61.0","63d7e0cbacf1e02164fc2e9a","64e50e36546c0051f3d6eb01","","","","","8888",""," ","key"," ","16.645568480300167","500","250","instBr1","3","-40","300","","","0","0"
"","psychophysics","62","398611","0.0-62.0","63d7e0cbacf1e02164fc2e9a","64e50e36546c0051f3d6eb01","","","","","10660",""," ","key"," ","16.645531250000023","500","250","instBr3","20","40","300","2","","0","0"
"","psychophysics","63","400036","0.0-63.0","63d7e0cbacf1e02164fc2e9a","64e50e36546c0051f3d6eb01","","","","","1422",""," ","key"," ","16.645529411764652","500","250","inst","","","","","","",""
"","psychophysics","64","404871","0.0-64.0","63d7e0cbacf1e02164fc2e9a","64e50e36546c0051f3d6eb01","","","","","4829",""," ","key"," ","16.64549134948084","500","250","br","22","-8","240","2","0","-5","-14"
"","psychophysics","65","407532","0.0-65.0","63d7e0cbacf1e02164fc2e9a","64e50e36546c0051f3d6eb01","","","","","2652",""," ","key"," ","16.645534591195055","500","250","br","14","14","259","2","0","25","10"
"","psychophysics","66","412449","0.0-66.0","63d7e0cbacf1e02164fc2e9a","64e50e36546c0051f3d6eb01","","","","","4912",""," ","key"," ","16.64552040816345","500","250","br","17","-19","225","2","0","15","-23"
"","psychophysics","67","415914","0.0-67.0","63d7e0cbacf1e02164fc2e9a","64e50e36546c0051f3d6eb01","","","","","3457",""," ","key"," ","16.6455240384614","500","250","br","15","-4","236","2","0","19","17"
"","psychophysics","68","423931","0.0-68.0","63d7e0cbacf1e02164fc2e9a","64e50e36546c0051f3d6eb01","","","","","null","","null","key","null","16.645527083333338","500","250","br","22","-6","267","2","0","-19","27"
"","psychophysics","69","431144","0.0-69.0","63d7e0cbacf1e02164fc2e9a","64e50e36546c0051f3d6eb01","","","","","7206",""," ","key"," ","16.64554503464205","500","250","br","18","11","262","2","0","13","-11"
"","psychophysics","70","434406","0.0-70.0","63d7e0cbacf1e02164fc2e9a","64e50e36546c0051f3d6eb01","","","","","3254",""," ","key"," ","16.645538461538486","500","250","br","21","1","255","2","0","18","-27"
"","psychophysics","71","438397","0.0-71.0","63d7e0cbacf1e02164fc2e9a","64e50e36546c0051f3d6eb01","","","","","3983",""," ","key"," ","16.6455294117647","500","250","br","13","-27","212","2","0","-30","-8"
"","psychophysics","72","442069","0.0-72.0","63d7e0cbacf1e02164fc2e9a","64e50e36546c0051f3d6eb01","","","","","3660",""," ","key"," ","16.64543636363656","500","250","br","16","-22","231","2","0","-26","13"
"","psychophysics","73","446076","0.0-73.0","63d7e0cbacf1e02164fc2e9a","64e50e36546c0051f3d6eb01","","","","","4000",""," ","key"," ","16.64594583333334","500","250","br","12","-24","264","2","0","-11","23"
"","psychophysics","74","450467","0.0-74.0","63d7e0cbacf1e02164fc2e9a","64e50e36546c0051f3d6eb01","","","","","4384",""," ","key"," ","16.645572519084023","500","250","br","20","-29","228","2","0","25","-21"
"","psychophysics","75","455109","0.0-75.0","63d7e0cbacf1e02164fc2e9a","64e50e36546c0051f3d6eb01","","","","","4630",""," ","key"," ","16.645769784172575","500","250","br","19","-30","292","2","0","16","18"
"","psychophysics","76","458627","0.0-76.0","63d7e0cbacf1e02164fc2e9a","64e50e36546c0051f3d6eb01","","","","","3509",""," ","key"," ","16.645037914691958","500","250","br","16","-12","271","2","0","-26","13"
"","psychophysics","77","463973","0.0-77.0","63d7e0cbacf1e02164fc2e9a","64e50e36546c0051f3d6eb01","","","","","5337",""," ","key"," ","16.645981250000112","500","250","br","20","3","275","2","0","15","19"
"","psychophysics","78","468065","0.0-78.0","63d7e0cbacf1e02164fc2e9a","64e50e36546c0051f3d6eb01","","","","","4087",""," ","key"," ","16.645493877551054","500","250","br","14","24","275","2","0","-26","-15"
"","psychophysics","79","469399","0.0-79.0","63d7e0cbacf1e02164fc2e9a","64e50e36546c0051f3d6eb01","","","","","1330",""," ","key"," ","16.64697468354399","500","250","inst","","","","","","",""
"","psychophysics","80","475430","0.0-80.0","63d7e0cbacf1e02164fc2e9a","64e50e36546c0051f3d6eb01","","","","","6024",""," ","key"," ","16.645437673130267","500","250","instPog0","340","370","340","2","","0","0"
"","psychophysics","81","486908","0.0-81.0","63d7e0cbacf1e02164fc2e9a","64e50e36546c0051f3d6eb01","","","","","11473",""," ","key"," ","16.64541509433961","500","250","instPog1","328","370","340","2","","0","0"
"","psychophysics","82","495369","0.0-82.0","63d7e0cbacf1e02164fc2e9a","64e50e36546c0051f3d6eb01","","","","","8454",""," ","key"," ","16.645540433925145","500","250","instPog2","322","340","340","2","","0","0"
"","psychophysics","83","496524","0.0-83.0","63d7e0cbacf1e02164fc2e9a","64e50e36546c0051f3d6eb01","","","","","1150",""," ","key"," ","16.644470588235624","500","250","inst","","","","","","",""
"","psychophysics","84","499420","0.0-84.0","63d7e0cbacf1e02164fc2e9a","64e50e36546c0051f3d6eb01","","","","","2887",""," ","key"," ","16.64521387283222","500","250","pog","354","398","377","2","0","0","0"
"","psychophysics","85","502405","0.0-85.0","63d7e0cbacf1e02164fc2e9a","64e50e36546c0051f3d6eb01","","","","","2977",""," ","key"," ","16.64555307262572","500","250","pog","349","393","363","2","0","0","0"
"","psychophysics","86","503922","0.0-86.0","63d7e0cbacf1e02164fc2e9a","64e50e36546c0051f3d6eb01","","","","","1511",""," ","key"," ","16.646011111111147","500","250","pog","322","322","350","2","0","0","0"
"","psychophysics","87","508935","0.0-87.0","63d7e0cbacf1e02164fc2e9a","64e50e36546c0051f3d6eb01","","","","","5009",""," ","key"," ","16.645586666666592","500","250","pog","337","397","357","2","0","0","0"
"","psychophysics","88","513824","0.0-88.0","63d7e0cbacf1e02164fc2e9a","64e50e36546c0051f3d6eb01","","","","","4882",""," ","key"," ","16.645508532423275","500","250","pog","296","346","315","2","0","0","0"
"","psychophysics","89","519221","0.0-89.0","63d7e0cbacf1e02164fc2e9a","64e50e36546c0051f3d6eb01","","","","","5389",""," ","key"," ","16.645439628483015","500","250","pog","295","303","311","2","0","0","0"
"","psychophysics","90","520453","0.0-90.0","63d7e0cbacf1e02164fc2e9a","64e50e36546c0051f3d6eb01","","","","","1227",""," ","key"," ","16.642465753424975","500","250","pog","325","325","346","2","0","0","0"
"","psychophysics","91","526474","0.0-91.0","63d7e0cbacf1e02164fc2e9a","64e50e36546c0051f3d6eb01","","","","","6015",""," ","key"," ","16.6451855955679","500","250","pog","306","372","326","2","0","0","0"
"","psychophysics","92","529727","0.0-92.0","63d7e0cbacf1e02164fc2e9a","64e50e36546c0051f3d6eb01","","","","","3246",""," ","key"," ","16.645134020618347","500","250","pog","358","384","371","2","0","0","0"
"","psychophysics","93","534595","0.0-93.0","63d7e0cbacf1e02164fc2e9a","64e50e36546c0051f3d6eb01","","","","","4863",""," ","key"," ","16.64560824742259","500","250","pog","340","306","362","2","0","0","0"
"","psychophysics","94","538575","0.0-94.0","63d7e0cbacf1e02164fc2e9a","64e50e36546c0051f3d6eb01","","","","","3969",""," ","key"," ","16.645799163179998","500","250","pog","315","377","333","2","0","0","0"
"","psychophysics","95","544214","0.0-95.0","63d7e0cbacf1e02164fc2e9a","64e50e36546c0051f3d6eb01","","","","","5632",""," ","key"," ","16.64537685459966","500","250","pog","325","283","345","2","0","0","0"
"","psychophysics","96","545611","0.0-96.0","63d7e0cbacf1e02164fc2e9a","64e50e36546c0051f3d6eb01","","","","","1389",""," ","key"," ","16.64603614457883","500","250","pog","292","292","303","2","0","0","0"
"","psychophysics","97","553123","0.0-97.0","63d7e0cbacf1e02164fc2e9a","64e50e36546c0051f3d6eb01","","","","","7502",""," ","key"," ","16.64552328159631","500","250","pog","291","343","314","2","0","0","0"
"","psychophysics","98","559912","0.0-98.0","63d7e0cbacf1e02164fc2e9a","64e50e36546c0051f3d6eb01","","","","","6784",""," ","key"," ","16.64545566502447","500","250","pog","352","378","368","2","0","0","0"
"","psychophysics","99","560937","0.0-99.0","63d7e0cbacf1e02164fc2e9a","64e50e36546c0051f3d6eb01","","","","","1016",""," ","key"," ","16.64652459016337","500","250","inst","","","","","","",""
"","psychophysics","100","564362","0.0-100.0","63d7e0cbacf1e02164fc2e9a","64e50e36546c0051f3d6eb01","","","","","3408",""," ","key"," ","16.645956097560845","500","250","instEB0","40","40","40","2","","0","0"
"","psychophysics","101","569660","0.0-101.0","63d7e0cbacf1e02164fc2e9a","64e50e36546c0051f3d6eb01","","","","","5293",""," ","key"," ","16.645208201892615","500","250","instEB1","41","30","40","2","","0","0"
"","psychophysics","102","574159","0.0-102.0","63d7e0cbacf1e02164fc2e9a","64e50e36546c0051f3d6eb01","","","","","4476",""," ","key"," ","16.6456877323418","500","250","instEB2","32","40","30","2","","0","0"
"","psychophysics","103","581626","0.0-103.0","63d7e0cbacf1e02164fc2e9a","64e50e36546c0051f3d6eb01","","","","","7449",""," ","key"," ","16.64541741071454","500","250","instEB3","34","45","27","2","","0","0"
"","psychophysics","104","585937","0.0-104.0","63d7e0cbacf1e02164fc2e9a","64e50e36546c0051f3d6eb01","","","","","4292",""," ","key"," ","16.64549224806206","500","250","instEB4","46","30","40","2","","0","0"
"","psychophysics","105","586816","0.0-105.0","63d7e0cbacf1e02164fc2e9a","64e50e36546c0051f3d6eb01","","","","","874",""," ","key"," ","16.64571153846247","500","250","inst","","","","","","",""
"","psychophysics","106","591196","0.0-106.0","63d7e0cbacf1e02164fc2e9a","64e50e36546c0051f3d6eb01","","","","","4370",""," ","key"," ","16.645244274809176","500","250","eb","38","33","27","2","","0","0"
"","psychophysics","107","596290","0.0-107.0","63d7e0cbacf1e02164fc2e9a","64e50e36546c0051f3d6eb01","","","","","5076",""," ","key"," ","16.645422950819455","500","250","eb","61","27","54","2","","0","0"
"","psychophysics","108","599677","0.0-108.0","63d7e0cbacf1e02164fc2e9a","64e50e36546c0051f3d6eb01","","","","","3370",""," ","key"," ","16.645509900989722","500","250","eb","57","35","48","2","","0","0"
"","psychophysics","109","601690","0.0-109.0","63d7e0cbacf1e02164fc2e9a","64e50e36546c0051f3d6eb01","","","","","1995",""," ","key"," ","16.644733333333473","500","250","eb","36","32","31","2","","0","0"
"","psychophysics","110","607759","0.0-110.0","63d7e0cbacf1e02164fc2e9a","64e50e36546c0051f3d6eb01","","","","","6052",""," ","key"," ","16.645502747252717","500","250","eb","32","49","26","2","","0","0"
"","psychophysics","111","611225","0.0-111.0","63d7e0cbacf1e02164fc2e9a","64e50e36546c0051f3d6eb01","","","","","3457",""," ","key"," ","16.645753623188277","500","250","eb","33","44","28","2","","0","0"
"","psychophysics","112","613235","0.0-112.0","63d7e0cbacf1e02164fc2e9a","64e50e36546c0051f3d6eb01","","","","","1991",""," ","key"," ","16.646625000000736","500","250","eb","33","29","29","2","","0","0"
"","psychophysics","113","618137","0.0-113.0","63d7e0cbacf1e02164fc2e9a","64e50e36546c0051f3d6eb01","","","","","4884",""," ","key"," ","16.645518771331016","500","250","eb","39","54","28","2","","0","0"
"","psychophysics","114","620846","0.0-114.0","63d7e0cbacf1e02164fc2e9a","64e50e36546c0051f3d6eb01","","","","","2691",""," ","key"," ","16.645481481481298","500","250","eb","41","36","37","2","","0","0"
"","psychophysics","115","623790","0.0-115.0","63d7e0cbacf1e02164fc2e9a","64e50e36546c0051f3d6eb01","","","","","2931",""," ","key"," ","16.645556818181912","500","250","eb","30","28","25","2","","0","0"
"","psychophysics","116","630251","0.0-116.0","63d7e0cbacf1e02164fc2e9a","64e50e36546c0051f3d6eb01","","","","","6441",""," ","key"," ","16.6453333333335","500","250","eb","61","34","51","2","","0","0"
"","psychophysics","117","635456","0.0-117.0","63d7e0cbacf1e02164fc2e9a","64e50e36546c0051f3d6eb01","","","","","5186",""," ","key"," ","16.645814102563936","500","250","eb","48","36","39","2","","0","0"
"","psychophysics","118","638845","0.0-118.0","63d7e0cbacf1e02164fc2e9a","64e50e36546c0051f3d6eb01","","","","","3369",""," ","key"," ","16.64595544554459","500","250","eb","36","51","28","2","","0","0"
"","psychophysics","119","640119","0.0-119.0","63d7e0cbacf1e02164fc2e9a","64e50e36546c0051f3d6eb01","","","","","1258",""," ","key"," ","16.6426447368423","500","250","eb","34","34","25","2","","0","0"
"","psychophysics","120","642182","0.0-120.0","63d7e0cbacf1e02164fc2e9a","64e50e36546c0051f3d6eb01","","","","","2045",""," ","key"," ","16.645739837399137","500","250","eb","51","51","47","2","","0","0"
"","psychophysics","121","643081","0.0-121.0","63d7e0cbacf1e02164fc2e9a","64e50e36546c0051f3d6eb01","","","","","863",""," ","key"," ","16.647094339622132","500","250","inst","","","","","","",""
"","psychophysics","122","650827","0.0-122.0","63d7e0cbacf1e02164fc2e9a","64e50e36546c0051f3d6eb01","","","","","7739",""," ","key"," ","16.645321120689662","500","250","instBr3","-6","40","300","1","","0","0"
"","psychophysics","123","651617","0.0-123.0","63d7e0cbacf1e02164fc2e9a","64e50e36546c0051f3d6eb01","","","","","783",""," ","key"," ","16.643872340425276","500","250","inst","","","","","","",""
"","psychophysics","124","652855","0.0-124.0","63d7e0cbacf1e02164fc2e9a","64e50e36546c0051f3d6eb01","","","","","1232",""," ","key"," ","16.648438356164522","500","250","br","-12","-12","264","1","1","-16","-12"
"","psychophysics","125","655988","0.0-125.0","63d7e0cbacf1e02164fc2e9a","64e50e36546c0051f3d6eb01","","","","","3120",""," ","key"," ","16.646427807486543","500","250","br","-7","16","246","1","1","13","-7"
"","psychophysics","126","662841","0.0-126.0","63d7e0cbacf1e02164fc2e9a","64e50e36546c0051f3d6eb01","","","","","6841",""," ","key"," ","16.645924574209474","500","250","br","-4","-16","223","1","1","-16","-20"
"","psychophysics","127","666688","0.0-127.0","63d7e0cbacf1e02164fc2e9a","64e50e36546c0051f3d6eb01","","","","","3833",""," ","key"," ","16.644847826086714","500","250","br","-13","-5","252","1","1","27","20"
"","psychophysics","128","670342","0.0-128.0","63d7e0cbacf1e02164fc2e9a","64e50e36546c0051f3d6eb01","","","","","3642",""," ","key"," ","16.645986301369952","500","250","br","-14","4","257","1","1","-23","-12"
"","psychophysics","129","674053","0.0-129.0","63d7e0cbacf1e02164fc2e9a","64e50e36546c0051f3d6eb01","","","","","3703",""," ","key"," ","16.645315315315358","500","250","br","-11","12","266","1","1","-22","-6"
"","psychophysics","130","677311","0.0-130.0","63d7e0cbacf1e02164fc2e9a","64e50e36546c0051f3d6eb01","","","","","3253",""," ","key"," ","16.64554123711333","500","250","br","-13","-30","282","1","1","-24","15"
"","psychophysics","131","678721","0.0-131.0","63d7e0cbacf1e02164fc2e9a","64e50e36546c0051f3d6eb01","","","","","1401",""," ","key"," ","16.64545238095369","500","250","br","-14","-14","227","1","1","14","20"
"","psychophysics","132","684668","0.0-132.0","63d7e0cbacf1e02164fc2e9a","64e50e36546c0051f3d6eb01","","","","","5922",""," ","key"," ","16.64524719101119","500","250","br","-21","9","278","1","1","5","24"
"","psychophysics","133","687729","0.0-133.0","63d7e0cbacf1e02164fc2e9a","64e50e36546c0051f3d6eb01","","","","","3049",""," ","key"," ","16.64479234972727","500","250","br","-12","6","214","1","1","-19","6"
"","psychophysics","134","690731","0.0-134.0","63d7e0cbacf1e02164fc2e9a","64e50e36546c0051f3d6eb01","","","","","2993",""," ","key"," ","16.646466666666353","500","250","br","-19","1","258","1","1","-21","9"
"","psychophysics","135","692254","0.0-135.0","63d7e0cbacf1e02164fc2e9a","64e50e36546c0051f3d6eb01","","","","","1517",""," ","key"," ","16.6460111111105","500","250","br","-15","-15","226","1","1","-27","-6"
"","psychophysics","136","693540","0.0-136.0","63d7e0cbacf1e02164fc2e9a","64e50e36546c0051f3d6eb01","","","","","1256",""," ","key"," ","16.645223684210674","500","250","br","-18","-18","243","1","1","9","19"
"","psychophysics","137","697032","0.0-137.0","63d7e0cbacf1e02164fc2e9a","64e50e36546c0051f3d6eb01","","","","","3484",""," ","key"," ","16.645071770334685","500","250","br","-20","-9","255","1","1","-6","14"
"","psychophysics","138","701587","0.0-138.0","63d7e0cbacf1e02164fc2e9a","64e50e36546c0051f3d6eb01","","","","","4543",""," ","key"," ","16.645347985348174","500","250","br","-14","22","277","1","1","-3","9"
"","psychophysics","139","702470","0.0-139.0","63d7e0cbacf1e02164fc2e9a","64e50e36546c0051f3d6eb01","","","","","879",""," ","key"," ","16.64469230769184","500","250","inst","","","","","","",""
"","psychophysics","140","708568","0.0-140.0","63d7e0cbacf1e02164fc2e9a","64e50e36546c0051f3d6eb01","","","","","6094",""," ","key"," ","16.64554794520548","500","250","instEB1","30","40","30","1","","0","0"
"","psychophysics","141","710347","0.0-141.0","63d7e0cbacf1e02164fc2e9a","64e50e36546c0051f3d6eb01","","","","","1758",""," ","key"," ","16.645311320754086","500","250","instEB2","30","30","40","1","","0","0"
"","psychophysics","142","714591","0.0-142.0","63d7e0cbacf1e02164fc2e9a","64e50e36546c0051f3d6eb01","","","","","4226",""," ","key"," ","16.645263779527546","500","250","instEB3","36","27","45","1","","0","0"
"","psychophysics","143","718405","0.0-143.0","63d7e0cbacf1e02164fc2e9a","64e50e36546c0051f3d6eb01","","","","","3771",""," ","key"," ","16.718792951542223","500","250","instEB4","28","40","30","1","","0","0"
"","psychophysics","144","720613","0.0-144.0","63d7e0cbacf1e02164fc2e9a","64e50e36546c0051f3d6eb01","","","","","2198",""," ","key"," ","16.64656818181781","500","250","inst","","","","","","",""
"","psychophysics","145","724884","0.0-145.0","63d7e0cbacf1e02164fc2e9a","64e50e36546c0051f3d6eb01","","","","","4262",""," ","key"," ","16.645164705882323","500","250","eb","32","45","38","1","","0","0"
"","psychophysics","146","727757","0.0-146.0","63d7e0cbacf1e02164fc2e9a","64e50e36546c0051f3d6eb01","","","","","2854",""," ","key"," ","16.64513953488393","500","250","eb","42","40","53","1","","0","0"
"","psychophysics","147","730385","0.0-147.0","63d7e0cbacf1e02164fc2e9a","64e50e36546c0051f3d6eb01","","","","","2620",""," ","key"," ","16.646184713375803","500","250","eb","45","42","54","1","","0","0"
"","psychophysics","148","734335","0.0-148.0","63d7e0cbacf1e02164fc2e9a","64e50e36546c0051f3d6eb01","","","","","3941",""," ","key"," ","16.64588135593202","500","250","eb","27","38","32","1","","0","0"
"","psychophysics","149","735663","0.0-149.0","63d7e0cbacf1e02164fc2e9a","64e50e36546c0051f3d6eb01","","","","","1310",""," ","key"," ","16.644493670886547","500","250","eb","37","37","50","1","","0","0"
"","psychophysics","150","739708","0.0-150.0","63d7e0cbacf1e02164fc2e9a","64e50e36546c0051f3d6eb01","","","","","4038",""," ","key"," ","16.645611570247983","500","250","eb","36","54","45","1","","0","0"
"","psychophysics","151","743444","0.0-151.0","63d7e0cbacf1e02164fc2e9a","64e50e36546c0051f3d6eb01","","","","","3718",""," ","key"," ","16.645197309416847","500","250","eb","24","25","27","1","","0","0"
"","psychophysics","152","747038","0.0-152.0","63d7e0cbacf1e02164fc2e9a","64e50e36546c0051f3d6eb01","","","","","3540",""," ","key"," ","16.802605633803168","500","250","eb","24","46","24","1","","0","0"
"","psychophysics","153","750178","0.0-153.0","63d7e0cbacf1e02164fc2e9a","64e50e36546c0051f3d6eb01","","","","","3123",""," ","key"," ","16.64617021276586","500","250","eb","26","37","31","1","","0","0"
"","psychophysics","154","752141","0.0-154.0","63d7e0cbacf1e02164fc2e9a","64e50e36546c0051f3d6eb01","","","","","1955",""," ","key"," ","16.646230769231238","500","250","eb","30","39","34","1","","0","0"
"","psychophysics","155","753473","0.0-155.0","63d7e0cbacf1e02164fc2e9a","64e50e36546c0051f3d6eb01","","","","","1324",""," ","key"," ","16.64562025316549","500","250","eb","26","26","32","1","","0","0"
"","psychophysics","156","756341","0.0-156.0","63d7e0cbacf1e02164fc2e9a","64e50e36546c0051f3d6eb01","","","","","2860",""," ","key"," ","16.645040935671982","500","250","eb","34","52","38","1","","0","0"
"","psychophysics","157","761686","0.0-157.0","63d7e0cbacf1e02164fc2e9a","64e50e36546c0051f3d6eb01","","","","","5327",""," ","key"," ","16.645721875000163","500","250","eb","37","46","43","1","","0","0"
"","psychophysics","158","764199","0.0-158.0","63d7e0cbacf1e02164fc2e9a","64e50e36546c0051f3d6eb01","","","","","2495",""," ","key"," ","16.646106666666455","500","250","eb","39","28","52","1","","0","0"
"","psychophysics","159","765446","0.0-159.0","63d7e0cbacf1e02164fc2e9a","64e50e36546c0051f3d6eb01","","","","","1228",""," ","key"," ","16.64567567567448","500","250","eb","32","32","42","1","","0","0"
"","psychophysics","160","766297","0.0-160.0","63d7e0cbacf1e02164fc2e9a","64e50e36546c0051f3d6eb01","","","","","840",""," ","key"," ","16.64803999999771","500","250","inst","","","","","","",""
"","psychophysics","161","770615","0.0-161.0","63d7e0cbacf1e02164fc2e9a","64e50e36546c0051f3d6eb01","","","","","4307",""," ","key"," ","16.64541312741317","500","250","instPog0","160","190","160","1","","0","0"
"","psychophysics","162","778363","0.0-162.0","63d7e0cbacf1e02164fc2e9a","64e50e36546c0051f3d6eb01","","","","","7744",""," ","key"," ","16.64557327586201","500","250","instPog1","176","190","160","1","","0","0"
"","psychophysics","163","782485","0.0-163.0","63d7e0cbacf1e02164fc2e9a","64e50e36546c0051f3d6eb01","","","","","4111",""," ","key"," ","16.646574898785534","500","250","instPog2","186","160","160","1","","0","0"
"","psychophysics","164","785246","0.0-164.0","63d7e0cbacf1e02164fc2e9a","64e50e36546c0051f3d6eb01","","","","","2756",""," ","key"," ","16.645296969696542","500","250","inst","","","","","","",""
"","psychophysics","165","790849","0.0-165.0","63d7e0cbacf1e02164fc2e9a","64e50e36546c0051f3d6eb01","","","","","5596",""," ","key"," ","16.645501492537015","500","250","pog","208","184","185","1","1","0","0"
"","psychophysics","166","791952","0.0-166.0","63d7e0cbacf1e02164fc2e9a","64e50e36546c0051f3d6eb01","","","","","1094",""," ","key"," ","16.64292307692365","500","250","pog","142","142","120","1","1","0","0"
"","psychophysics","167","796938","0.0-167.0","63d7e0cbacf1e02164fc2e9a","64e50e36546c0051f3d6eb01","","","","","4975",""," ","key"," ","16.645531772575527","500","250","pog","216","196","195","1","1","0","0"
"","psychophysics","168","802629","0.0-168.0","63d7e0cbacf1e02164fc2e9a","64e50e36546c0051f3d6eb01","","","","","5687",""," ","key"," ","16.645475073313666","500","250","pog","215","159","195","1","1","0","0"
"","psychophysics","169","810637","0.0-169.0","63d7e0cbacf1e02164fc2e9a","64e50e36546c0051f3d6eb01","","","","","null","","null","key","null","16.64595833333345","500","250","pog","188","122","168","1","1","0","0"
"","psychophysics","170","812532","0.0-170.0","63d7e0cbacf1e02164fc2e9a","64e50e36546c0051f3d6eb01","","","","","1890",""," ","key"," ","16.646141592920056","500","250","pog","176","176","149","1","1","0","0"
"","psychophysics","171","819435","0.0-171.0","63d7e0cbacf1e02164fc2e9a","64e50e36546c0051f3d6eb01","","","","","6898",""," ","key"," ","16.646019323671613","500","250","pog","208","186","190","1","1","0","0"
"","psychophysics","172","824879","0.0-172.0","63d7e0cbacf1e02164fc2e9a","64e50e36546c0051f3d6eb01","","","","","5438",""," ","key"," ","16.645567484662806","500","250","pog","161","151","146","1","1","0","0"
"","psychophysics","173","832161","0.0-173.0","63d7e0cbacf1e02164fc2e9a","64e50e36546c0051f3d6eb01","","","","","7277",""," ","key"," ","16.645316513761486","500","250","pog","164","128","147","1","1","0","0"
"","psychophysics","174","836813","0.0-174.0","63d7e0cbacf1e02164fc2e9a","64e50e36546c0051f3d6eb01","","","","","4643",""," ","key"," ","16.64575627240132","500","250","pog","155","123","140","1","1","0","0"
"","psychophysics","175","844820","0.0-175.0","63d7e0cbacf1e02164fc2e9a","64e50e36546c0051f3d6eb01","","","","","null","","null","key","null","16.645441666666738","500","250","pog","168","212","155","1","1","0","0"
"","psychophysics","176","848334","0.0-176.0","63d7e0cbacf1e02164fc2e9a","64e50e36546c0051f3d6eb01","","","","","3508",""," ","key"," ","16.64650952380949","500","250","pog","193","213","173","1","1","0","0"
"","psychophysics","177","853297","0.0-177.0","63d7e0cbacf1e02164fc2e9a","64e50e36546c0051f3d6eb01","","","","","4933",""," ","key"," ","16.645225589225532","500","250","pog","173","105","157","1","1","0","0"
"","psychophysics","178","858423","0.0-178.0","63d7e0cbacf1e02164fc2e9a","64e50e36546c0051f3d6eb01","","","","","5122",""," ","key"," ","16.64507166123782","500","250","pog","163","163","145","1","1","0","0"
"","psychophysics","179","862400","0.0-179.0","63d7e0cbacf1e02164fc2e9a","64e50e36546c0051f3d6eb01","","","","","3973",""," ","key"," ","16.64653781512625","500","250","pog","146","184","125","1","1","0","0"
"","psychophysics","180","863413","0.0-180.0","63d7e0cbacf1e02164fc2e9a","64e50e36546c0051f3d6eb01","","","","","1008",""," ","key"," ","16.649683333333815","500","250","inst","","","","","","",""
"","psychophysics","181","873869","0.0-181.0","63d7e0cbacf1e02164fc2e9a","64e50e36546c0051f3d6eb01","","","","","10445",""," ","key"," ","16.645097288676276","500","250","instPz1","52","25","50","1","","",""
"","psychophysics","182","878303","0.0-182.0","63d7e0cbacf1e02164fc2e9a","64e50e36546c0051f3d6eb01","","","","","4426",""," ","key"," ","16.6457471698114","500","250","instPz2","24","35","20","1","","",""
"","psychophysics","183","897457","0.0-183.0","63d7e0cbacf1e02164fc2e9a","64e50e36546c0051f3d6eb01","","","","","19140",""," ","key"," ","16.645554782608727","500","250","instPz3","70","100","30","1","","",""
"","psychophysics","184","899562","0.0-184.0","63d7e0cbacf1e02164fc2e9a","64e50e36546c0051f3d6eb01","","","","","2098",""," ","key"," ","16.64497599999979","500","250","instPz4","100","100","30","1","","",""
"","psychophysics","185","900549","0.0-185.0","63d7e0cbacf1e02164fc2e9a","64e50e36546c0051f3d6eb01","","","","","978",""," ","key"," ","16.646864406780292","500","250","inst","","","","","","",""
"","psychophysics","186","903638","0.0-186.0","63d7e0cbacf1e02164fc2e9a","64e50e36546c0051f3d6eb01","","","","","3080",""," ","key"," ","16.646760869565618","500","250","pz","76","48","31","1","1","",""
"","psychophysics","187","908814","0.0-187.0","63d7e0cbacf1e02164fc2e9a","64e50e36546c0051f3d6eb01","","","","","5164",""," ","key"," ","16.645429032258015","500","250","pz","95","43","52","1","1","",""
"","psychophysics","188","911381","0.0-188.0","63d7e0cbacf1e02164fc2e9a","64e50e36546c0051f3d6eb01","","","","","2558",""," ","key"," ","16.645542483660392","500","250","pz","56","40","28","1","1","",""
"","psychophysics","189","913165","0.0-189.0","63d7e0cbacf1e02164fc2e9a","64e50e36546c0051f3d6eb01","","","","","1773",""," ","key"," ","16.647775700933813","500","250","pz","46","44","31","1","1","",""
"","psychophysics","190","918172","0.0-190.0","63d7e0cbacf1e02164fc2e9a","64e50e36546c0051f3d6eb01","","","","","5000",""," ","key"," ","16.644655518394575","500","250","pz","69","27","42","1","1","",""
"","psychophysics","191","919737","0.0-191.0","63d7e0cbacf1e02164fc2e9a","64e50e36546c0051f3d6eb01","","","","","1553",""," ","key"," ","16.643075268817014","500","250","pz","48","47","26","1","1","",""
"","psychophysics","192","924984","0.0-192.0","63d7e0cbacf1e02164fc2e9a","64e50e36546c0051f3d6eb01","","","","","5238",""," ","key"," ","16.646076190476084","500","250","pz","73","43","44","1","1","",""
"","psychophysics","193","926587","0.0-193.0","63d7e0cbacf1e02164fc2e9a","64e50e36546c0051f3d6eb01","","","","","1572",""," ","key"," ","16.6470315789473","500","250","pz","60","58","34","1","1","",""
"","psychophysics","194","928822","0.0-194.0","63d7e0cbacf1e02164fc2e9a","64e50e36546c0051f3d6eb01","","","","","2229",""," ","key"," ","16.645917293233133","500","250","pz","61","45","41","1","1","",""
"","psychophysics","195","930635","0.0-195.0","63d7e0cbacf1e02164fc2e9a","64e50e36546c0051f3d6eb01","","","","","1804",""," ","key"," ","16.645453703703996","500","250","pz","42","41","25","1","1","",""
"","psychophysics","196","936141","0.0-196.0","63d7e0cbacf1e02164fc2e9a","64e50e36546c0051f3d6eb01","","","","","5501",""," ","key"," ","16.64518787878791","500","250","pz","82","48","56","1","1","",""
"","psychophysics","197","941818","0.0-197.0","63d7e0cbacf1e02164fc2e9a","64e50e36546c0051f3d6eb01","","","","","5669",""," ","key"," ","16.645426470588085","500","250","pz","80","23","58","1","1","",""
"","psychophysics","198","947158","0.0-198.0","63d7e0cbacf1e02164fc2e9a","64e50e36546c0051f3d6eb01","","","","","5327",""," ","key"," ","16.64631562499999","500","250","pz","30","25","20","1","1","",""
"","psychophysics","199","952221","0.0-199.0","63d7e0cbacf1e02164fc2e9a","64e50e36546c0051f3d6eb01","","","","","5055",""," ","key"," ","16.645897689769154","500","250","pz","88","45","54","1","1","",""
"","psychophysics","200","957521","0.0-200.0","63d7e0cbacf1e02164fc2e9a","64e50e36546c0051f3d6eb01","","","","","5294",""," ","key"," ","16.645832807571136","500","250","pz","61","23","46","1","1","",""
"","psychophysics","201","959446","0.0-201.0","63d7e0cbacf1e02164fc2e9a","64e50e36546c0051f3d6eb01","","","","","1915",""," ","key"," ","16.64533043478251","500","250","inst","","","","","","",""
"","psychophysics","202","964501","0.0-202.0","63d7e0cbacf1e02164fc2e9a","64e50e36546c0051f3d6eb01","","","","","5051",""," ","key"," ","16.645897689769154","500","250","instZol1","0.10000000000000003","-1.3","","","","0","0"
"","psychophysics","203","972551","0.0-203.0","63d7e0cbacf1e02164fc2e9a","64e50e36546c0051f3d6eb01","","","","","8039",""," ","key"," ","16.645612033194894","500","250","instZol2","0.7000000000000006","2","","1","","0","0"
"","psychophysics","204","974982","0.0-204.0","63d7e0cbacf1e02164fc2e9a","64e50e36546c0051f3d6eb01","","","","","2422",""," ","key"," ","16.645462068965948","500","250","inst","","","","","","",""
"","psychophysics","205","982998","0.0-205.0","63d7e0cbacf1e02164fc2e9a","64e50e36546c0051f3d6eb01","","","","","null","","null","key","null","16.645484407484414","500","250","zol","2.0600000000000005","-0.16","","1","1","24","-25"
"","psychophysics","206","990502","0.0-206.0","63d7e0cbacf1e02164fc2e9a","64e50e36546c0051f3d6eb01","","","","","7491",""," ","key"," ","16.645766666666862","500","250","zol","1.3100000000000003","0.39","","1","1","-27","12"
"","psychophysics","207","994358","0.0-207.0","63d7e0cbacf1e02164fc2e9a","64e50e36546c0051f3d6eb01","","","","","3836",""," ","key"," ","16.645199999999782","500","250","zol","1.3400000000000003","0.16","","1","1","29","6"
"","psychophysics","208","999108","0.0-208.0","63d7e0cbacf1e02164fc2e9a","64e50e36546c0051f3d6eb01","","","","","4732",""," ","key"," ","16.645814035087824","500","250","zol","1.8300000000000007","0.57","","1","1","12","26"
"","psychophysics","209","1003908","0.0-209.0","63d7e0cbacf1e02164fc2e9a","64e50e36546c0051f3d6eb01","","","","","4781",""," ","key"," ","16.645425087107892","500","250","zol","1.3800000000000001","0.12","","1","1","-24","-8"
"","psychophysics","210","1008871","0.0-210.0","63d7e0cbacf1e02164fc2e9a","64e50e36546c0051f3d6eb01","","","","","4946",""," ","key"," ","16.64548148148143","500","250","zol","1.7500000000000004","-0.45","","1","1","25","-8"
"","psychophysics","211","1016883","0.0-211.0","63d7e0cbacf1e02164fc2e9a","64e50e36546c0051f3d6eb01","","","","","null","","null","key","null","16.645652083333214","500","250","zol","0.92","0.48","","1","1","-18","28"
"","psychophysics","212","1022486","0.0-212.0","63d7e0cbacf1e02164fc2e9a","64e50e36546c0051f3d6eb01","","","","","5584",""," ","key"," ","16.645383928571565","500","250","zol","1.3100000000000003","0.19","","1","1","25","-22"
"","psychophysics","213","1026863","0.0-213.0","63d7e0cbacf1e02164fc2e9a","64e50e36546c0051f3d6eb01","","","","","4360",""," ","key"," ","16.64527862595451","500","250","zol","1.6600000000000006","-0.46","","1","1","-16","-23"
"","psychophysics","214","1029696","0.0-214.0","63d7e0cbacf1e02164fc2e9a","64e50e36546c0051f3d6eb01","","","","","2815",""," ","key"," ","16.645372781064914","500","250","zol","1.6500000000000006","-0.65","","1","1","6","10"
"","psychophysics","215","1032501","0.0-215.0","63d7e0cbacf1e02164fc2e9a","64e50e36546c0051f3d6eb01","","","","","2792",""," ","key"," ","16.64625000000039","500","250","zol","2.020000000000001","-0.72","","1","1","-6","-30"
"","psychophysics","216","1035755","0.0-216.0","63d7e0cbacf1e02164fc2e9a","64e50e36546c0051f3d6eb01","","","","","3234",""," ","key"," ","16.645402061855588","500","250","zol","1.6900000000000004","-0.59","","1","1","-29","23"
"","psychophysics","217","1039540","0.0-217.0","63d7e0cbacf1e02164fc2e9a","64e50e36546c0051f3d6eb01","","","","","3767",""," ","key"," ","16.645762114537394","500","250","zol","1.35","0.65","","1","1","-12","-11"
"","psychophysics","218","1041913","0.0-218.0","63d7e0cbacf1e02164fc2e9a","64e50e36546c0051f3d6eb01","","","","","2355",""," ","key"," ","16.644985815602624","500","250","zol","1.9400000000000008","-0.74","","1","1","-23","-11"
"","psychophysics","219","1046798","0.0-219.0","63d7e0cbacf1e02164fc2e9a","64e50e36546c0051f3d6eb01","","","","","4872",""," ","key"," ","16.64501023890789","500","250","zol","1.3800000000000003","0.42","","1","1","-16","28"
