"success","trial_type","trial_index","time_elapsed","internal_node_id","pid","sid","timeout","failed_images","failed_audio","failed_video","rt","stimulus","response","response_type","key_press","avg_frame_time","center_x","center_y","task","resp","version","block","start","jitterX","jitterY","parA"
"true","fullscreen","0","5517","0.0-0.0","5e0e60798205265be682850e","64de8266f6d9227913c2528e","","","","","","","","","","","","","","","","","","","",""
"true","preload","1","5768","0.0-1.0","5e0e60798205265be682850e","64de8266f6d9227913c2528e","false","[]","[]","[]","","","","","","","","","","","","","","","",""
"","html-button-response","2","7716","0.0-2.0","5e0e60798205265be682850e","64de8266f6d9227913c2528e","","","","","1948","Please Make Sure Your Audio Is On.","0","","","","","","","","","","","","",""
"","psychophysics","3","13339","0.0-3.0","5e0e60798205265be682850e","64de8266f6d9227913c2528e","","","","","5620",""," ","key"," ","16.66657738095238","793.8016278668356","249.99999211839432","","","","","","","",""
"","psychophysics","4","17651","0.0-4.0","5e0e60798205265be682850e","64de8266f6d9227913c2528e","","","","","4311",""," ","key"," ","16.66650387596899","499.99998423678863","249.99999211839432","inst","","","","","","",""
"","psychophysics","5","22542","0.0-5.0","5e0e60798205265be682850e","64de8266f6d9227913c2528e","","","","","4889",""," ","key"," ","16.66642465753425","499.99998423678863","249.99999211839432","sample0","","","","","","",""
"","psychophysics","6","24513","0.0-6.0","5e0e60798205265be682850e","64de8266f6d9227913c2528e","","","","","1970",""," ","key"," ","16.666341880341875","499.99998423678863","249.99999211839432","sample1","","","","","","",""
"","psychophysics","7","43949","0.0-7.0","5e0e60798205265be682850e","64de8266f6d9227913c2528e","","","","","19435",""," ","key"," ","16.6665313304721","499.99998423678863","249.99999211839432","sample2","98","","","","","",""
"","psychophysics","8","49796","0.0-8.0","5e0e60798205265be682850e","64de8266f6d9227913c2528e","","","","","5845",""," ","key"," ","16.66667714285716","499.99998423678863","249.99999211839432","sample3","98","","","","","",""
"","psychophysics","9","61423","0.0-9.0","5e0e60798205265be682850e","64de8266f6d9227913c2528e","","","","","11625",""," ","key"," ","16.66643758967002","499.99998423678863","249.99999211839432","sample4","100","","","","","",""
"","psychophysics","10","66293","0.0-10.0","5e0e60798205265be682850e","64de8266f6d9227913c2528e","","","","","4869",""," ","key"," ","16.66658075601374","499.99998423678863","249.99999211839432","sample5","","","","","","",""
"","psychophysics","11","76943","0.0-11.0","5e0e60798205265be682850e","64de8266f6d9227913c2528e","","","","","10649",""," ","key"," ","16.666523510971786","499.99998423678863","249.99999211839432","sample6","500","","","","","",""
"","psychophysics","12","83834","0.0-12.0","5e0e60798205265be682850e","64de8266f6d9227913c2528e","","","","","6890",""," ","key"," ","16.66685714285717","499.99998423678863","249.99999211839432","inst","","","","","","",""
"","psychophysics","13","91359","0.0-13.0","5e0e60798205265be682850e","64de8266f6d9227913c2528e","","","","","7523",""," ","key"," ","16.666544444444426","499.99998423678863","249.99999211839432","inst","","","","","","",""
"","psychophysics","14","95619","0.0-14.0","5e0e60798205265be682850e","64de8266f6d9227913c2528e","","","","","4259",""," ","key"," ","16.66646666666664","499.99998423678863","249.99999211839432","inst","","","","","","",""
"","psychophysics","15","97622","0.0-15.0","5e0e60798205265be682850e","64de8266f6d9227913c2528e","","","","","2002",""," ","key"," ","16.666134453781545","499.99998423678863","249.99999211839432","inst","","","","","","",""
"","psychophysics","16","100151","0.0-16.0","5e0e60798205265be682850e","64de8266f6d9227913c2528e","","","","","2528",""," ","key"," ","16.66648344370858","499.99998423678863","249.99999211839432","inst","","","","","","",""
"","psychophysics","17","103507","0.0-17.0","5e0e60798205265be682850e","64de8266f6d9227913c2528e","","","","","3355",""," ","key"," ","16.666299999999975","499.99998423678863","249.99999211839432","instEB0","40","2","","40","0","0","40"
"","psychophysics","18","115420","0.0-18.0","5e0e60798205265be682850e","64de8266f6d9227913c2528e","","","","","11912",""," ","key"," ","16.66648039215686","499.99998423678863","249.99999211839432","instEB1","30","2","","30","0","0","40"
"","psychophysics","19","122031","0.0-19.0","5e0e60798205265be682850e","64de8266f6d9227913c2528e","","","","","6610",""," ","key"," ","16.666443037974673","499.99998423678863","249.99999211839432","instEB2","35","2","","40","0","0","30"
"","psychophysics","20","134746","0.0-20.0","5e0e60798205265be682850e","64de8266f6d9227913c2528e","","","","","12712",""," ","key"," ","16.666578740157465","499.99998423678863","249.99999211839432","instEB3","36","2","","45","0","0","27"
"","psychophysics","21","141595","0.0-21.0","5e0e60798205265be682850e","64de8266f6d9227913c2528e","","","","","6848",""," ","key"," ","16.666495121951236","499.99998423678863","249.99999211839432","instEB4","34","2","","30","0","0","40"
"","psychophysics","22","145700","0.0-22.0","5e0e60798205265be682850e","64de8266f6d9227913c2528e","","","","","4104",""," ","key"," ","16.66638211382123","499.99998423678863","249.99999211839432","inst","","","","","","",""
"","psychophysics","23","150395","0.0-23.0","5e0e60798205265be682850e","64de8266f6d9227913c2528e","","","","","4693",""," ","key"," ","16.66651428571422","499.99998423678863","249.99999211839432","eb","56","2","","48","0","0","48"
"","psychophysics","24","154617","0.0-24.0","5e0e60798205265be682850e","64de8266f6d9227913c2528e","","","","","4221",""," ","key"," ","16.666486166007843","499.99998423678863","249.99999211839432","eb","39","2","","38","0","0","32"
"","psychophysics","25","159233","0.0-25.0","5e0e60798205265be682850e","64de8266f6d9227913c2528e","","","","","4614",""," ","key"," ","16.66652536231888","499.99998423678863","249.99999211839432","eb","56","2","","51","0","0","51"
"","psychophysics","26","164049","0.0-26.0","5e0e60798205265be682850e","64de8266f6d9227913c2528e","","","","","4815",""," ","key"," ","16.666677083333322","499.99998423678863","249.99999211839432","eb","46","2","","49","0","0","36"
"","psychophysics","27","169189","0.0-27.0","5e0e60798205265be682850e","64de8266f6d9227913c2528e","","","","","5138",""," ","key"," ","16.666452768729627","499.99998423678863","249.99999211839432","eb","45","2","","24","0","0","38"
"","psychophysics","28","174125","0.0-28.0","5e0e60798205265be682850e","64de8266f6d9227913c2528e","","","","","4935",""," ","key"," ","16.666566101694873","499.99998423678863","249.99999211839432","eb","51","2","","34","0","0","46"
"","psychophysics","29","178756","0.0-29.0","5e0e60798205265be682850e","64de8266f6d9227913c2528e","","","","","4629",""," ","key"," ","16.666472924187666","499.99998423678863","249.99999211839432","eb","27","2","","45","0","0","24"
"","psychophysics","30","181983","0.0-30.0","5e0e60798205265be682850e","64de8266f6d9227913c2528e","","","","","3225",""," ","key"," ","16.666430051813393","499.99998423678863","249.99999211839432","eb","28","2","","26","0","0","25"
"","psychophysics","31","186922","0.0-31.0","5e0e60798205265be682850e","64de8266f6d9227913c2528e","","","","","4937",""," ","key"," ","16.66641694915262","499.99998423678863","249.99999211839432","eb","62","2","","41","0","0","54"
"","psychophysics","32","192027","0.0-32.0","5e0e60798205265be682850e","64de8266f6d9227913c2528e","","","","","5104",""," ","key"," ","16.666563934426218","499.99998423678863","249.99999211839432","eb","42","2","","35","0","0","34"
"","psychophysics","33","197881","0.0-33.0","5e0e60798205265be682850e","64de8266f6d9227913c2528e","","","","","5852",""," ","key"," ","16.666448571428525","499.99998423678863","249.99999211839432","eb","42","2","","27","0","0","40"
"","psychophysics","34","203100","0.0-34.0","5e0e60798205265be682850e","64de8266f6d9227913c2528e","","","","","5218",""," ","key"," ","16.66654952076679","499.99998423678863","249.99999211839432","eb","46","2","","53","0","0","38"
"","psychophysics","35","210480","0.0-35.0","5e0e60798205265be682850e","64de8266f6d9227913c2528e","","","","","7378",""," ","key"," ","16.666442176870778","499.99998423678863","249.99999211839432","eb","40","2","","24","0","0","36"
"","psychophysics","36","215378","0.0-36.0","5e0e60798205265be682850e","64de8266f6d9227913c2528e","","","","","4896",""," ","key"," ","16.666501706484652","499.99998423678863","249.99999211839432","eb","41","2","","50","0","0","33"
"","psychophysics","37","220523","0.0-37.0","5e0e60798205265be682850e","64de8266f6d9227913c2528e","","","","","5145",""," ","key"," ","16.66617207792202","499.99998423678863","249.99999211839432","eb","55","2","","44","0","0","48"
"","psychophysics","38","222435","0.0-38.0","5e0e60798205265be682850e","64de8266f6d9227913c2528e","","","","","1910",""," ","key"," ","16.666482456140283","499.99998423678863","249.99999211839432","inst","","","","","","",""
"","psychophysics","39","226229","0.0-39.0","5e0e60798205265be682850e","64de8266f6d9227913c2528e","","","","","3793",""," ","key"," ","16.6671504424778","499.99998423678863","249.99999211839432","instZol0","0","","","0","0","0",""
"","psychophysics","40","239996","0.0-40.0","5e0e60798205265be682850e","64de8266f6d9227913c2528e","","","","","13766",""," ","key"," ","16.66652606060605","499.99998423678863","249.99999211839432","instZol1","0.2999999999999998","","","-1.3","0","0",""
"","psychophysics","41","252362","0.0-41.0","5e0e60798205265be682850e","64de8266f6d9227913c2528e","","","","","12364",""," ","key"," ","16.666550607287476","499.99998423678863","249.99999211839432","instZol2","-1.0999999999999992","2","","2","0","0",""
"","psychophysics","42","254097","0.0-42.0","5e0e60798205265be682850e","64de8266f6d9227913c2528e","","","","","1735",""," ","key"," ","16.666087378640952","499.99998423678863","249.99999211839432","inst","","","","","","",""
"","psychophysics","43","262100","0.0-43.0","5e0e60798205265be682850e","64de8266f6d9227913c2528e","","","","","null","","null","key","null","16.666550000000036","499.99998423678863","249.99999211839432","zol","-0.9099999999999999","2","0","0.51","16","-18",""
"","psychophysics","44","268990","0.0-44.0","5e0e60798205265be682850e","64de8266f6d9227913c2528e","","","","","6889",""," ","key"," ","16.66642961165053","499.99998423678863","249.99999211839432","zol","-0.9699999999999999","2","0","-0.43","13","27",""
"","psychophysics","45","275895","0.0-45.0","5e0e60798205265be682850e","64de8266f6d9227913c2528e","","","","","6903",""," ","key"," ","16.666491525423726","499.99998423678863","249.99999211839432","zol","-1.27","2","0","0.07","22","-29",""
"","psychophysics","46","283072","0.0-46.0","5e0e60798205265be682850e","64de8266f6d9227913c2528e","","","","","7175",""," ","key"," ","16.66643953488376","499.99998423678863","249.99999211839432","zol","-0.7","2","0","-0.1","-13","-15",""
"","psychophysics","47","289128","0.0-47.0","5e0e60798205265be682850e","64de8266f6d9227913c2528e","","","","","6054",""," ","key"," ","16.66693646408851","499.99998423678863","249.99999211839432","zol","-1.03","2","0","0.63","-13","0",""
"","psychophysics","48","293837","0.0-48.0","5e0e60798205265be682850e","64de8266f6d9227913c2528e","","","","","4707",""," ","key"," ","16.666833333333408","499.99998423678863","249.99999211839432","zol","-1.2600000000000002","2","0","0.56","-17","25",""
"","psychophysics","49","301614","0.0-49.0","5e0e60798205265be682850e","64de8266f6d9227913c2528e","","","","","7774",""," ","key"," ","16.666410752688158","499.99998423678863","249.99999211839432","zol","-0.9799999999999999","2","0","-0.32","-8","5",""
"","psychophysics","50","309617","0.0-50.0","5e0e60798205265be682850e","64de8266f6d9227913c2528e","","","","","null","","null","key","null","16.66655624999997","499.99998423678863","249.99999211839432","zol","-0.8699999999999999","2","0","-0.73","7","-9",""
"","psychophysics","51","316517","0.0-51.0","5e0e60798205265be682850e","64de8266f6d9227913c2528e","","","","","6898",""," ","key"," ","16.666673123486706","499.99998423678863","249.99999211839432","zol","-1.0699999999999998","2","0","0.57","26","21",""
"","psychophysics","52","322336","0.0-52.0","5e0e60798205265be682850e","64de8266f6d9227913c2528e","","","","","5817",""," ","key"," ","16.666885057471266","499.99998423678863","249.99999211839432","zol","-0.8899999999999999","2","0","-0.01","-21","29",""
"","psychophysics","53","328337","0.0-53.0","5e0e60798205265be682850e","64de8266f6d9227913c2528e","","","","","5999",""," ","key"," ","16.666548746518018","499.99998423678863","249.99999211839432","zol","-0.9999999999999999","2","0","-0.7","-11","-22",""
"","psychophysics","54","335504","0.0-54.0","5e0e60798205265be682850e","64de8266f6d9227913c2528e","","","","","7165",""," ","key"," ","16.666599067599112","499.99998423678863","249.99999211839432","zol","-0.8499999999999999","2","0","-0.75","-15","-27",""
"","psychophysics","55","341896","0.0-55.0","5e0e60798205265be682850e","64de8266f6d9227913c2528e","","","","","6390",""," ","key"," ","16.666471204188493","499.99998423678863","249.99999211839432","zol","-0.8599999999999999","2","0","-0.74","4","19",""
"","psychophysics","56","345525","0.0-56.0","5e0e60798205265be682850e","64de8266f6d9227913c2528e","","","","","3627",""," ","key"," ","16.66650691244232","499.99998423678863","249.99999211839432","zol","-0.9299999999999999","2","0","-0.17","-19","24",""
"","psychophysics","57","351062","0.0-57.0","5e0e60798205265be682850e","64de8266f6d9227913c2528e","","","","","5535",""," ","key"," ","16.666471299093697","499.99998423678863","249.99999211839432","zol","-1.27","2","0","0.07","-8","11",""
"","psychophysics","58","352432","0.0-58.0","5e0e60798205265be682850e","64de8266f6d9227913c2528e","","","","","1370",""," ","key"," ","16.66647560975625","499.99998423678863","249.99999211839432","inst","","","","","","",""
"","psychophysics","59","354789","0.0-59.0","5e0e60798205265be682850e","64de8266f6d9227913c2528e","","","","","2354",""," ","key"," ","16.666428571428487","499.99998423678863","249.99999211839432","instBr0","0","","","0","0","0","300"
"","psychophysics","60","361927","0.0-60.0","5e0e60798205265be682850e","64de8266f6d9227913c2528e","","","","","7137",""," ","key"," ","16.66647540983598","499.99998423678863","249.99999211839432","instBr1","4","","","-40","0","0","300"
"","psychophysics","61","368474","0.0-61.0","5e0e60798205265be682850e","64de8266f6d9227913c2528e","","","","","6546",""," ","key"," ","16.666499999999953","499.99998423678863","249.99999211839432","instBr3","22","2","","40","0","0","300"
"","psychophysics","62","370693","0.0-62.0","5e0e60798205265be682850e","64de8266f6d9227913c2528e","","","","","2218",""," ","key"," ","16.666333333333377","499.99998423678863","249.99999211839432","inst","","","","","","",""
"","psychophysics","63","376156","0.0-63.0","5e0e60798205265be682850e","64de8266f6d9227913c2528e","","","","","5462",""," ","key"," ","16.666244648317935","499.99998423678863","249.99999211839432","br","26","2","0","28","-17","-9","230"
"","psychophysics","64","381694","0.0-64.0","5e0e60798205265be682850e","64de8266f6d9227913c2528e","","","","","5537",""," ","key"," ","16.666471299093697","499.99998423678863","249.99999211839432","br","30","2","0","-25","-30","29","264"
"","psychophysics","65","387547","0.0-65.0","5e0e60798205265be682850e","64de8266f6d9227913c2528e","","","","","5852",""," ","key"," ","16.666468571428474","499.99998423678863","249.99999211839432","br","33","2","0","-24","26","26","247"
"","psychophysics","66","391745","0.0-66.0","5e0e60798205265be682850e","64de8266f6d9227913c2528e","","","","","4196",""," ","key"," ","16.666645418326844","499.99998423678863","249.99999211839432","br","28","2","0","5","-18","-4","260"
"","psychophysics","67","396839","0.0-67.0","5e0e60798205265be682850e","64de8266f6d9227913c2528e","","","","","5092",""," ","key"," ","16.666508196721228","499.99998423678863","249.99999211839432","br","28","2","0","-3","9","28","237"
"","psychophysics","68","403421","0.0-68.0","5e0e60798205265be682850e","64de8266f6d9227913c2528e","","","","","6581",""," ","key"," ","16.666487309644573","499.99998423678863","249.99999211839432","br","36","2","0","-26","-22","-2","265"
"","psychophysics","69","406684","0.0-69.0","5e0e60798205265be682850e","64de8266f6d9227913c2528e","","","","","3262",""," ","key"," ","16.66629743589751","499.99998423678863","249.99999211839432","br","31","2","0","15","-19","24","247"
"","psychophysics","70","413157","0.0-70.0","5e0e60798205265be682850e","64de8266f6d9227913c2528e","","","","","6472",""," ","key"," ","16.666478036175626","499.99998423678863","249.99999211839432","br","35","2","0","-11","-24","29","283"
"","psychophysics","71","418520","0.0-71.0","5e0e60798205265be682850e","64de8266f6d9227913c2528e","","","","","5362",""," ","key"," ","16.666919003115282","499.99998423678863","249.99999211839432","br","30","2","0","-5","21","10","233"
"","psychophysics","72","424594","0.0-72.0","5e0e60798205265be682850e","64de8266f6d9227913c2528e","","","","","6072",""," ","key"," ","16.66653443526168","499.99998423678863","249.99999211839432","br","31","2","0","5","3","-8","212"
"","psychophysics","73","431460","0.0-73.0","5e0e60798205265be682850e","64de8266f6d9227913c2528e","","","","","6864",""," ","key"," ","16.666566909975604","499.99998423678863","249.99999211839432","br","31","2","0","-2","23","1","277"
"","psychophysics","74","437867","0.0-74.0","5e0e60798205265be682850e","64de8266f6d9227913c2528e","","","","","6405",""," ","key"," ","16.66677343750007","499.99998423678863","249.99999211839432","br","27","2","0","-16","25","18","234"
"","psychophysics","75","443421","0.0-75.0","5e0e60798205265be682850e","64de8266f6d9227913c2528e","","","","","5553",""," ","key"," ","16.666463855421696","499.99998423678863","249.99999211839432","br","30","2","0","-25","-9","7","207"
"","psychophysics","76","445605","0.0-76.0","5e0e60798205265be682850e","64de8266f6d9227913c2528e","","","","","2182",""," ","key"," ","16.66623846153827","499.99998423678863","249.99999211839432","br","28","2","0","25","-8","4","266"
"","psychophysics","77","448196","0.0-77.0","5e0e60798205265be682850e","64de8266f6d9227913c2528e","","","","","2590",""," ","key"," ","16.66611688311685","499.99998423678863","249.99999211839432","br","32","2","0","18","-6","17","204"
"","psychophysics","78","449171","0.0-78.0","5e0e60798205265be682850e","64de8266f6d9227913c2528e","","","","","974",""," ","key"," ","16.667103448275533","499.99998423678863","249.99999211839432","inst","","","","","","",""
"","psychophysics","79","459102","0.0-79.0","5e0e60798205265be682850e","64de8266f6d9227913c2528e","","","","","9930",""," ","key"," ","16.66645042016807","499.99998423678863","249.99999211839432","instPzPre","50","0","","50","","","50"
"","psychophysics","80","468778","0.0-80.0","5e0e60798205265be682850e","64de8266f6d9227913c2528e","","","","","9675",""," ","key"," ","16.66655785837647","499.99998423678863","249.99999211839432","instPz0","47","2","","50","","","50"
"","psychophysics","81","478597","0.0-81.0","5e0e60798205265be682850e","64de8266f6d9227913c2528e","","","","","9817",""," ","key"," ","16.666554421768723","499.99998423678863","249.99999211839432","instPz1","48","2","","25","","","50"
"","psychophysics","82","485219","0.0-82.0","5e0e60798205265be682850e","64de8266f6d9227913c2528e","","","","","6621",""," ","key"," ","16.66663476070524","499.99998423678863","249.99999211839432","instPz2","32","2","","20","","","35"
"","psychophysics","83","496367","0.0-83.0","5e0e60798205265be682850e","64de8266f6d9227913c2528e","","","","","11145",""," ","key"," ","16.691436281859104","499.99998423678863","249.99999211839432","instPz3","77","2","","30","","","100"
"","psychophysics","84","511068","0.0-84.0","5e0e60798205265be682850e","64de8266f6d9227913c2528e","","","","","14701",""," ","key"," ","16.666558456299672","499.99998423678863","249.99999211839432","instPz4","68","2","","30","","","100"
"","psychophysics","85","513309","0.0-85.0","5e0e60798205265be682850e","64de8266f6d9227913c2528e","","","","","2240",""," ","key"," ","16.66621052631557","499.99998423678863","249.99999211839432","inst","","","","","","",""
"","psychophysics","86","519062","0.0-86.0","5e0e60798205265be682850e","64de8266f6d9227913c2528e","","","","","5752",""," ","key"," ","16.66638372093016","499.99998423678863","249.99999211839432","pz","30","2","0","47","","","42"
"","psychophysics","87","524163","0.0-87.0","5e0e60798205265be682850e","64de8266f6d9227913c2528e","","","","","5099",""," ","key"," ","16.666632786885355","499.99998423678863","249.99999211839432","pz","36","2","0","29","","","49"
"","psychophysics","88","527877","0.0-88.0","5e0e60798205265be682850e","64de8266f6d9227913c2528e","","","","","3712",""," ","key"," ","16.66667567567558","499.99998423678863","249.99999211839432","pz","41","2","0","37","","","58"
"","psychophysics","89","532319","0.0-89.0","5e0e60798205265be682850e","64de8266f6d9227913c2528e","","","","","4440",""," ","key"," ","16.66678571428568","499.99998423678863","249.99999211839432","pz","47","2","0","50","","","60"
"","psychophysics","90","538388","0.0-90.0","5e0e60798205265be682850e","64de8266f6d9227913c2528e","","","","","6068",""," ","key"," ","16.666539944903654","499.99998423678863","249.99999211839432","pz","17","2","0","49","","","22"
"","psychophysics","91","543435","0.0-91.0","5e0e60798205265be682850e","64de8266f6d9227913c2528e","","","","","5045",""," ","key"," ","16.66699668874198","499.99998423678863","249.99999211839432","pz","23","2","0","54","","","27"
"","psychophysics","92","549498","0.0-92.0","5e0e60798205265be682850e","64de8266f6d9227913c2528e","","","","","6061",""," ","key"," ","16.666509641873517","499.99998423678863","249.99999211839432","pz","47","2","0","39","","","59"
"","psychophysics","93","553011","0.0-93.0","5e0e60798205265be682850e","64de8266f6d9227913c2528e","","","","","3512",""," ","key"," ","16.66634449760795","499.99998423678863","249.99999211839432","pz","47","2","0","54","","","52"
"","psychophysics","94","558483","0.0-94.0","5e0e60798205265be682850e","64de8266f6d9227913c2528e","","","","","5468",""," ","key"," ","16.66598475609747","499.99998423678863","249.99999211839432","pz","20","2","0","59","","","23"
"","psychophysics","95","562382","0.0-95.0","5e0e60798205265be682850e","64de8266f6d9227913c2528e","","","","","3898",""," ","key"," ","16.66652789699561","499.99998423678863","249.99999211839432","pz","29","2","0","44","","","36"
"","psychophysics","96","566708","0.0-96.0","5e0e60798205265be682850e","64de8266f6d9227913c2528e","","","","","4325",""," ","key"," ","16.666368217054526","499.99998423678863","249.99999211839432","pz","37","2","0","41","","","45"
"","psychophysics","97","572784","0.0-97.0","5e0e60798205265be682850e","64de8266f6d9227913c2528e","","","","","6074",""," ","key"," ","16.666469780219703","499.99998423678863","249.99999211839432","pz","35","2","0","25","","","47"
"","psychophysics","98","578894","0.0-98.0","5e0e60798205265be682850e","64de8266f6d9227913c2528e","","","","","6108",""," ","key"," ","16.666452054794533","499.99998423678863","249.99999211839432","pz","38","2","0","55","","","50"
"","psychophysics","99","582440","0.0-99.0","5e0e60798205265be682850e","64de8266f6d9227913c2528e","","","","","3544",""," ","key"," ","16.6664858490568","499.99998423678863","249.99999211839432","pz","40","2","0","35","","","53"
"","psychophysics","100","590076","0.0-100.0","5e0e60798205265be682850e","64de8266f6d9227913c2528e","","","","","7635",""," ","key"," ","16.6665273522976","499.99998423678863","249.99999211839432","pz","26","2","0","56","","","32"
"","psychophysics","101","591159","0.0-101.0","5e0e60798205265be682850e","64de8266f6d9227913c2528e","","","","","1082",""," ","key"," ","16.666031249998923","499.99998423678863","249.99999211839432","inst","","","","","","",""
"","psychophysics","102","602638","0.0-102.0","5e0e60798205265be682850e","64de8266f6d9227913c2528e","","","","","11478",""," ","key"," ","16.666876453488353","499.99998423678863","249.99999211839432","instPog0","160","1","","190","0","0","160"
"","psychophysics","103","613882","0.0-103.0","5e0e60798205265be682850e","64de8266f6d9227913c2528e","","","","","11243",""," ","key"," ","16.66651038575668","499.99998423678863","249.99999211839432","instPog1","168","1","","190","0","0","160"
"","psychophysics","104","620456","0.0-104.0","5e0e60798205265be682850e","64de8266f6d9227913c2528e","","","","","6573",""," ","key"," ","16.66646564885519","499.99998423678863","249.99999211839432","instPog2","178","1","","160","0","0","160"
"","psychophysics","105","621741","0.0-105.0","5e0e60798205265be682850e","64de8266f6d9227913c2528e","","","","","1285",""," ","key"," ","16.66655263157966","499.99998423678863","249.99999211839432","inst","","","","","","",""
"","psychophysics","106","627198","0.0-106.0","5e0e60798205265be682850e","64de8266f6d9227913c2528e","","","","","5455",""," ","key"," ","16.666495412844093","499.99998423678863","249.99999211839432","pog","178","1","0","198","0","0","157"
"","psychophysics","107","630233","0.0-107.0","5e0e60798205265be682850e","64de8266f6d9227913c2528e","","","","","3034",""," ","key"," ","16.66640331491684","499.99998423678863","249.99999211839432","pog","187","1","0","173","0","0","170"
"","psychophysics","108","634405","0.0-108.0","5e0e60798205265be682850e","64de8266f6d9227913c2528e","","","","","4170",""," ","key"," ","16.666405622490185","499.99998423678863","249.99999211839432","pog","199","1","0","155","0","0","182"
"","psychophysics","109","637648","0.0-109.0","5e0e60798205265be682850e","64de8266f6d9227913c2528e","","","","","3242",""," ","key"," ","16.666463917525743","499.99998423678863","249.99999211839432","pog","166","1","0","156","0","0","157"
"","psychophysics","110","641839","0.0-110.0","5e0e60798205265be682850e","64de8266f6d9227913c2528e","","","","","4190",""," ","key"," ","17.58056118143457","499.99998423678863","249.99999211839432","pog","201","1","0","161","0","0","187"
"","psychophysics","111","645081","0.0-111.0","5e0e60798205265be682850e","64de8266f6d9227913c2528e","","","","","3241",""," ","key"," ","16.666515463917545","499.99998423678863","249.99999211839432","pog","196","1","0","184","0","0","183"
"","psychophysics","112","650739","0.0-112.0","5e0e60798205265be682850e","64de8266f6d9227913c2528e","","","","","5657",""," ","key"," ","16.666497041419984","499.99998423678863","249.99999211839432","pog","162","1","0","204","0","0","147"
"","psychophysics","113","655013","0.0-113.0","5e0e60798205265be682850e","64de8266f6d9227913c2528e","","","","","4269",""," ","key"," ","16.666410156250095","499.99998423678863","249.99999211839432","pog","178","1","0","194","0","0","164"
"","psychophysics","114","658858","0.0-114.0","5e0e60798205265be682850e","64de8266f6d9227913c2528e","","","","","3845",""," ","key"," ","16.666751091703","499.99998423678863","249.99999211839432","pog","193","1","0","183","0","0","180"
"","psychophysics","115","665965","0.0-115.0","5e0e60798205265be682850e","64de8266f6d9227913c2528e","","","","","7106",""," ","key"," ","16.666431924882684","499.99998423678863","249.99999211839432","pog","163","1","0","129","0","0","150"
"","psychophysics","116","668696","0.0-116.0","5e0e60798205265be682850e","64de8266f6d9227913c2528e","","","","","2730",""," ","key"," ","16.66620858895744","499.99998423678863","249.99999211839432","pog","207","1","0","209","0","0","197"
"","psychophysics","117","676698","0.0-117.0","5e0e60798205265be682850e","64de8266f6d9227913c2528e","","","","","null","","null","key","null","16.666488517745346","499.99998423678863","249.99999211839432","pog","162","1","0","210","0","0","148"
"","psychophysics","118","682545","0.0-118.0","5e0e60798205265be682850e","64de8266f6d9227913c2528e","","","","","5846",""," ","key"," ","16.666916905444335","499.99998423678863","249.99999211839432","pog","138","1","0","198","0","0","126"
"","psychophysics","119","687975","0.0-119.0","5e0e60798205265be682850e","64de8266f6d9227913c2528e","","","","","5428",""," ","key"," ","16.666679999999918","499.99998423678863","249.99999211839432","pog","196","1","0","174","0","0","186"
"","psychophysics","120","693687","0.0-120.0","5e0e60798205265be682850e","64de8266f6d9227913c2528e","","","","","5712",""," ","key"," ","16.66643859649129","499.99998423678863","249.99999211839432","pog","210","1","0","114","0","0","198"
"","psychophysics","121","695115","0.0-121.0","5e0e60798205265be682850e","64de8266f6d9227913c2528e","","","","","1427",""," ","key"," ","16.666094117647255","499.99998423678863","249.99999211839432","inst","","","","","","",""
"","psychophysics","122","700612","0.0-122.0","5e0e60798205265be682850e","64de8266f6d9227913c2528e","","","","","5496",""," ","key"," ","16.666319148936296","499.99998423678863","249.99999211839432","instPog0","340","2","","370","0","0","340"
"","psychophysics","123","704609","0.0-123.0","5e0e60798205265be682850e","64de8266f6d9227913c2528e","","","","","3996",""," ","key"," ","16.66671008403372","499.99998423678863","249.99999211839432","instPog1","348","2","","370","0","0","340"
"","psychophysics","124","712543","0.0-124.0","5e0e60798205265be682850e","64de8266f6d9227913c2528e","","","","","7934",""," ","key"," ","16.667027368421028","499.99998423678863","249.99999211839432","instPog2","336","2","","340","0","0","340"
"","psychophysics","125","714527","0.0-125.0","5e0e60798205265be682850e","64de8266f6d9227913c2528e","","","","","1982",""," ","key"," ","16.667652542372352","499.99998423678863","249.99999211839432","inst","","","","","","",""
"","psychophysics","126","719061","0.0-126.0","5e0e60798205265be682850e","64de8266f6d9227913c2528e","","","","","4534",""," ","key"," ","16.666553505534836","499.99998423678863","249.99999211839432","pog","302","2","1","362","0","0","308"
"","psychophysics","127","723906","0.0-127.0","5e0e60798205265be682850e","64de8266f6d9227913c2528e","","","","","4843",""," ","key"," ","16.66677241379331","499.99998423678863","249.99999211839432","pog","373","2","1","347","0","0","373"
"","psychophysics","128","729672","0.0-128.0","5e0e60798205265be682850e","64de8266f6d9227913c2528e","","","","","5766",""," ","key"," ","16.666510144927525","499.99998423678863","249.99999211839432","pog","329","2","1","391","0","0","330"
"","psychophysics","129","733468","0.0-129.0","5e0e60798205265be682850e","64de8266f6d9227913c2528e","","","","","3794",""," ","key"," ","16.666396475770913","499.99998423678863","249.99999211839432","pog","364","2","1","348","0","0","367"
"","psychophysics","130","737572","0.0-130.0","5e0e60798205265be682850e","64de8266f6d9227913c2528e","","","","","4104",""," ","key"," ","16.666620408163443","499.99998423678863","249.99999211839432","pog","365","2","1","395","0","0","366"
"","psychophysics","131","742537","0.0-131.0","5e0e60798205265be682850e","64de8266f6d9227913c2528e","","","","","4964",""," ","key"," ","16.666441077440947","499.99998423678863","249.99999211839432","pog","372","2","1","358","0","0","374"
"","psychophysics","132","747919","0.0-132.0","5e0e60798205265be682850e","64de8266f6d9227913c2528e","","","","","5381",""," ","key"," ","16.66645962732912","499.99998423678863","249.99999211839432","pog","365","2","1","381","0","0","365"
"","psychophysics","133","753996","0.0-133.0","5e0e60798205265be682850e","64de8266f6d9227913c2528e","","","","","6076",""," ","key"," ","16.666494505494644","499.99998423678863","249.99999211839432","pog","340","2","1","340","0","0","342"
"","psychophysics","134","760784","0.0-134.0","5e0e60798205265be682850e","64de8266f6d9227913c2528e","","","","","6787",""," ","key"," ","16.666115763546724","499.99998423678863","249.99999211839432","pog","351","2","1","371","0","0","353"
"","psychophysics","135","766777","0.0-135.0","5e0e60798205265be682850e","64de8266f6d9227913c2528e","","","","","5991",""," ","key"," ","16.666891061452443","499.99998423678863","249.99999211839432","pog","355","2","1","351","0","0","358"
"","psychophysics","136","772499","0.0-136.0","5e0e60798205265be682850e","64de8266f6d9227913c2528e","","","","","5722",""," ","key"," ","16.66695918367345","499.99998423678863","249.99999211839432","pog","330","2","1","312","0","0","331"
"","psychophysics","137","778013","0.0-137.0","5e0e60798205265be682850e","64de8266f6d9227913c2528e","","","","","5513",""," ","key"," ","16.66644545454553","499.99998423678863","249.99999211839432","pog","348","2","1","360","0","0","350"
"","psychophysics","138","785574","0.0-138.0","5e0e60798205265be682850e","64de8266f6d9227913c2528e","","","","","7559",""," ","key"," ","16.666464601769842","499.99998423678863","249.99999211839432","pog","363","2","1","347","0","0","366"
"","psychophysics","139","791328","0.0-139.0","5e0e60798205265be682850e","64de8266f6d9227913c2528e","","","","","5753",""," ","key"," ","16.666546511627953","499.99998423678863","249.99999211839432","pog","326","2","1","298","0","0","331"
"","psychophysics","140","799329","0.0-140.0","5e0e60798205265be682850e","64de8266f6d9227913c2528e","","","","","null","","null","key","null","16.666564583333336","499.99998423678863","249.99999211839432","pog","359","2","1","295","0","0","364"
"","psychophysics","141","799439","0.0-141.0","5e0e60798205265be682850e","64de8266f6d9227913c2528e","","","","","109",""," ","key"," ","16.652799999993295","499.99998423678863","249.99999211839432","inst","","","","","","",""
"","psychophysics","142","805842","0.0-142.0","5e0e60798205265be682850e","64de8266f6d9227913c2528e","","","","","6402",""," ","key"," ","16.66654308094016","499.99998423678863","249.99999211839432","instEB1","29","1","","40","0","0","30"
"","psychophysics","143","811875","0.0-143.0","5e0e60798205265be682850e","64de8266f6d9227913c2528e","","","","","6031",""," ","key"," ","16.66648753462624","499.99998423678863","249.99999211839432","instEB2","39","1","","30","0","0","40"
"","psychophysics","144","816837","0.0-144.0","5e0e60798205265be682850e","64de8266f6d9227913c2528e","","","","","4961",""," ","key"," ","16.666548821548712","499.99998423678863","249.99999211839432","instEB3","38","1","","27","0","0","45"
"","psychophysics","145","824660","0.0-145.0","5e0e60798205265be682850e","64de8266f6d9227913c2528e","","","","","7822",""," ","key"," ","16.666549145299285","499.99998423678863","249.99999211839432","instEB4","27","1","","40","0","0","30"
"","psychophysics","146","825958","0.0-146.0","5e0e60798205265be682850e","64de8266f6d9227913c2528e","","","","","1297",""," ","key"," ","16.66631168831146","499.99998423678863","249.99999211839432","inst","","","","","","",""
"","psychophysics","147","828870","0.0-147.0","5e0e60798205265be682850e","64de8266f6d9227913c2528e","","","","","2910",""," ","key"," ","16.66640804597677","499.99998423678863","249.99999211839432","eb","28","1","","31","0","0","31"
"","psychophysics","148","832779","0.0-148.0","5e0e60798205265be682850e","64de8266f6d9227913c2528e","","","","","3908",""," ","key"," ","16.66641452991499","499.99998423678863","249.99999211839432","eb","29","1","","37","0","0","33"
"","psychophysics","149","837018","0.0-149.0","5e0e60798205265be682850e","64de8266f6d9227913c2528e","","","","","4237",""," ","key"," ","16.667237154150147","499.99998423678863","249.99999211839432","eb","26","1","","32","0","0","27"
"","psychophysics","150","839692","0.0-150.0","5e0e60798205265be682850e","64de8266f6d9227913c2528e","","","","","2672",""," ","key"," ","16.666194968553754","499.99998423678863","249.99999211839432","eb","24","1","","29","0","0","25"
"","psychophysics","151","843248","0.0-151.0","5e0e60798205265be682850e","64de8266f6d9227913c2528e","","","","","3555",""," ","key"," ","16.666507042253592","499.99998423678863","249.99999211839432","eb","29","1","","41","0","0","33"
"","psychophysics","152","845835","0.0-152.0","5e0e60798205265be682850e","64de8266f6d9227913c2528e","","","","","2585",""," ","key"," ","16.66644155844145","499.99998423678863","249.99999211839432","eb","30","1","","29","0","0","33"
"","psychophysics","153","853207","0.0-153.0","5e0e60798205265be682850e","64de8266f6d9227913c2528e","","","","","7372",""," ","key"," ","16.66653968253972","499.99998423678863","249.99999211839432","eb","29","1","","47","0","0","33"
"","psychophysics","154","859519","0.0-154.0","5e0e60798205265be682850e","64de8266f6d9227913c2528e","","","","","6310",""," ","key"," ","16.66689682539698","499.99998423678863","249.99999211839432","eb","32","1","","52","0","0","36"
"","psychophysics","155","862022","0.0-155.0","5e0e60798205265be682850e","64de8266f6d9227913c2528e","","","","","2502",""," ","key"," ","16.666328859060766","499.99998423678863","249.99999211839432","eb","27","1","","24","0","0","29"
"","psychophysics","156","866200","0.0-156.0","5e0e60798205265be682850e","64de8266f6d9227913c2528e","","","","","4176",""," ","key"," ","16.66637200000044","499.99998423678863","249.99999211839432","eb","33","1","","42","0","0","37"
"","psychophysics","157","871813","0.0-157.0","5e0e60798205265be682850e","64de8266f6d9227913c2528e","","","","","5611",""," ","key"," ","16.666324404761934","499.99998423678863","249.99999211839432","eb","27","1","","54","0","0","27"
"","psychophysics","158","875614","0.0-158.0","5e0e60798205265be682850e","64de8266f6d9227913c2528e","","","","","3800",""," ","key"," ","16.666418502202653","499.99998423678863","249.99999211839432","eb","37","1","","33","0","0","39"
"","psychophysics","159","881966","0.0-159.0","5e0e60798205265be682850e","64de8266f6d9227913c2528e","","","","","6351",""," ","key"," ","16.666481578947156","499.99998423678863","249.99999211839432","eb","41","1","","26","0","0","45"
"","psychophysics","160","885088","0.0-160.0","5e0e60798205265be682850e","64de8266f6d9227913c2528e","","","","","3121",""," ","key"," ","16.666333333333775","499.99998423678863","249.99999211839432","eb","51","1","","46","0","0","52"
"","psychophysics","161","890148","0.0-161.0","5e0e60798205265be682850e","64de8266f6d9227913c2528e","","","","","5058",""," ","key"," ","16.66643894389433","499.99998423678863","249.99999211839432","eb","33","1","","47","0","0","34"
"","psychophysics","162","890989","0.0-162.0","5e0e60798205265be682850e","64de8266f6d9227913c2528e","","","","","840",""," ","key"," ","16.666163265305972","499.99998423678863","249.99999211839432","inst","","","","","","",""
"","psychophysics","163","897354","0.0-163.0","5e0e60798205265be682850e","64de8266f6d9227913c2528e","","","","","6364",""," ","key"," ","16.66646981627309","499.99998423678863","249.99999211839432","instBr3","-19","1","","40","0","0","300"
"","psychophysics","164","898772","0.0-164.0","5e0e60798205265be682850e","64de8266f6d9227913c2528e","","","","","1417",""," ","key"," ","16.666523809523955","499.99998423678863","249.99999211839432","inst","","","","","","",""
"","psychophysics","165","903021","0.0-165.0","5e0e60798205265be682850e","64de8266f6d9227913c2528e","","","","","4247",""," ","key"," ","16.667129921259846","499.99998423678863","249.99999211839432","br","-13","1","1","-25","-12","7","292"
"","psychophysics","166","906213","0.0-166.0","5e0e60798205265be682850e","64de8266f6d9227913c2528e","","","","","3191",""," ","key"," ","16.666361256544626","499.99998423678863","249.99999211839432","br","-8","1","1","-2","7","4","241"
"","psychophysics","167","909998","0.0-167.0","5e0e60798205265be682850e","64de8266f6d9227913c2528e","","","","","3783",""," ","key"," ","16.66632300884972","499.99998423678863","249.99999211839432","br","-6","1","1","8","13","-16","201"
"","psychophysics","168","913913","0.0-168.0","5e0e60798205265be682850e","64de8266f6d9227913c2528e","","","","","3914",""," ","key"," ","16.666500000000045","499.99998423678863","249.99999211839432","br","-9","1","1","7","7","28","293"
"","psychophysics","169","917554","0.0-169.0","5e0e60798205265be682850e","64de8266f6d9227913c2528e","","","","","3640",""," ","key"," ","16.6663686635948","499.99998423678863","249.99999211839432","br","-7","1","1","-30","-19","-3","255"
"","psychophysics","170","922007","0.0-170.0","5e0e60798205265be682850e","64de8266f6d9227913c2528e","","","","","4452",""," ","key"," ","16.666345864661736","499.99998423678863","249.99999211839432","br","-12","1","1","-9","9","7","269"
"","psychophysics","171","927323","0.0-171.0","5e0e60798205265be682850e","64de8266f6d9227913c2528e","","","","","5315",""," ","key"," ","16.66649371069166","499.99998423678863","249.99999211839432","br","-6","1","1","30","-26","22","276"
"","psychophysics","172","932031","0.0-172.0","5e0e60798205265be682850e","64de8266f6d9227913c2528e","","","","","4707",""," ","key"," ","16.66638652482301","499.99998423678863","249.99999211839432","br","-13","1","1","8","4","15","214"
"","psychophysics","173","936642","0.0-173.0","5e0e60798205265be682850e","64de8266f6d9227913c2528e","","","","","4610",""," ","key"," ","16.666447272727435","499.99998423678863","249.99999211839432","br","-18","1","1","14","-19","-14","293"
"","psychophysics","174","939999","0.0-174.0","5e0e60798205265be682850e","64de8266f6d9227913c2528e","","","","","3355",""," ","key"," ","16.666611940298225","499.99998423678863","249.99999211839432","br","-15","1","1","-3","6","26","234"
"","psychophysics","175","945115","0.0-175.0","5e0e60798205265be682850e","64de8266f6d9227913c2528e","","","","","5114",""," ","key"," ","16.66633986928112","499.99998423678863","249.99999211839432","br","-8","1","1","21","5","24","203"
"","psychophysics","176","948825","0.0-176.0","5e0e60798205265be682850e","64de8266f6d9227913c2528e","","","","","3709",""," ","key"," ","16.666325791854817","499.99998423678863","249.99999211839432","br","-16","1","1","-29","28","-27","237"
"","psychophysics","177","953811","0.0-177.0","5e0e60798205265be682850e","64de8266f6d9227913c2528e","","","","","4984",""," ","key"," ","16.666511705685267","499.99998423678863","249.99999211839432","br","-15","1","1","29","3","18","237"
"","psychophysics","178","957854","0.0-178.0","5e0e60798205265be682850e","64de8266f6d9227913c2528e","","","","","4042",""," ","key"," ","16.66714522821531","499.99998423678863","249.99999211839432","br","-12","1","1","7","14","30","237"
"","psychophysics","179","960372","0.0-179.0","5e0e60798205265be682850e","64de8266f6d9227913c2528e","","","","","2516",""," ","key"," ","16.66748666666681","499.99998423678863","249.99999211839432","br","-17","1","1","-6","27","3","275"
"","psychophysics","180","961078","0.0-180.0","5e0e60798205265be682850e","64de8266f6d9227913c2528e","","","","","705",""," ","key"," ","16.666833333332935","499.99998423678863","249.99999211839432","inst","","","","","","",""
"","psychophysics","181","967597","0.0-181.0","5e0e60798205265be682850e","64de8266f6d9227913c2528e","","","","","6519",""," ","key"," ","16.665953846154018","499.99998423678863","249.99999211839432","instZol1","-0.09999999999999998","","","-1.3","0","0",""
"","psychophysics","182","983468","0.0-182.0","5e0e60798205265be682850e","64de8266f6d9227913c2528e","","","","","15869",""," ","key"," ","16.666509989484656","499.99998423678863","249.99999211839432","instZol2","1.300000000000001","1","","2","0","0",""
"","psychophysics","183","984152","0.0-183.0","5e0e60798205265be682850e","64de8266f6d9227913c2528e","","","","","683",""," ","key"," ","16.666675000000396","499.99998423678863","249.99999211839432","inst","","","","","","",""
"","psychophysics","184","992154","0.0-184.0","5e0e60798205265be682850e","64de8266f6d9227913c2528e","","","","","null","","null","key","null","16.666471816284147","499.99998423678863","249.99999211839432","zol","1.11","1","1","0.39","8","-20",""
"","psychophysics","185","996338","0.0-185.0","5e0e60798205265be682850e","64de8266f6d9227913c2528e","","","","","4182",""," ","key"," ","16.66634400000004","499.99998423678863","249.99999211839432","zol","1.3300000000000003","1","1","-0.33","-21","-9",""
"","psychophysics","186","1002046","0.0-186.0","5e0e60798205265be682850e","64de8266f6d9227913c2528e","","","","","5707",""," ","key"," ","16.66652923976602","499.99998423678863","249.99999211839432","zol","1.34","1","1","-0.24","-29","-17",""
"","psychophysics","187","1006068","0.0-187.0","5e0e60798205265be682850e","64de8266f6d9227913c2528e","","","","","4020",""," ","key"," ","16.666445833333515","499.99998423678863","249.99999211839432","zol","1.6300000000000006","1","1","-0.63","-7","-11",""
"","psychophysics","188","1010570","0.0-188.0","5e0e60798205265be682850e","64de8266f6d9227913c2528e","","","","","4499",""," ","key"," ","16.666565055762018","499.99998423678863","249.99999211839432","zol","1.5000000000000002","1","1","-0.1","10","-27",""
"","psychophysics","189","1015281","0.0-189.0","5e0e60798205265be682850e","64de8266f6d9227913c2528e","","","","","4709",""," ","key"," ","16.666492907801423","499.99998423678863","249.99999211839432","zol","1.3300000000000003","1","1","-0.03","3","-4",""
"","psychophysics","190","1019856","0.0-190.0","5e0e60798205265be682850e","64de8266f6d9227913c2528e","","","","","4573",""," ","key"," ","16.66568864468867","499.99998423678863","249.99999211839432","zol","1.18","1","1","0.22","27","-8",""
"","psychophysics","191","1024235","0.0-191.0","5e0e60798205265be682850e","64de8266f6d9227913c2528e","","","","","4378",""," ","key"," ","16.666488549618304","499.99998423678863","249.99999211839432","zol","1.0799999999999998","1","1","0.02","7","-8",""
"","psychophysics","192","1029586","0.0-192.0","5e0e60798205265be682850e","64de8266f6d9227913c2528e","","","","","5348",""," ","key"," ","16.666509375000167","499.99998423678863","249.99999211839432","zol","1.1300000000000001","1","1","0.17","-20","-11",""
"","psychophysics","193","1032710","0.0-193.0","5e0e60798205265be682850e","64de8266f6d9227913c2528e","","","","","3122",""," ","key"," ","16.667096256684353","499.99998423678863","249.99999211839432","zol","1.4400000000000004","1","1","-0.74","-26","-18",""
"","psychophysics","194","1038219","0.0-194.0","5e0e60798205265be682850e","64de8266f6d9227913c2528e","","","","","5507",""," ","key"," ","16.666468085106505","499.99998423678863","249.99999211839432","zol","1.5900000000000003","1","1","-0.69","14","29",""
"","psychophysics","195","1044374","0.0-195.0","5e0e60798205265be682850e","64de8266f6d9227913c2528e","","","","","6154",""," ","key"," ","16.66652717391306","499.99998423678863","249.99999211839432","zol","1.5200000000000005","1","1","-0.12","-15","-7",""
"","psychophysics","196","1050593","0.0-196.0","5e0e60798205265be682850e","64de8266f6d9227913c2528e","","","","","6217",""," ","key"," ","16.666747989275944","499.99998423678863","249.99999211839432","zol","1.2","1","1","0.7","15","-29",""
"","psychophysics","197","1055882","0.0-197.0","5e0e60798205265be682850e","64de8266f6d9227913c2528e","","","","","5284",""," ","key"," ","16.66656329113949","499.99998423678863","249.99999211839432","zol","1.4100000000000004","1","1","0.29","27","-20",""
"","psychophysics","198","1060975","0.0-198.0","5e0e60798205265be682850e","64de8266f6d9227913c2528e","","","","","5091",""," ","key"," ","16.66690131578913","499.99998423678863","249.99999211839432","zol","1.32","1","1","0.68","-30","-2",""
"","psychophysics","199","1062057","0.0-199.0","5e0e60798205265be682850e","64de8266f6d9227913c2528e","","","","","1081",""," ","key"," ","16.667328124996857","499.99998423678863","249.99999211839432","inst","","","","","","",""
"","psychophysics","200","1065106","0.0-200.0","5e0e60798205265be682850e","64de8266f6d9227913c2528e","","","","","3047",""," ","key"," ","16.667324175824064","499.99998423678863","249.99999211839432","instPz1","54","1","","25","","","50"
"","psychophysics","201","1068551","0.0-201.0","5e0e60798205265be682850e","64de8266f6d9227913c2528e","","","","","3444",""," ","key"," ","16.66640291262183","499.99998423678863","249.99999211839432","instPz2","22","1","","35","","","20"
"","psychophysics","202","1071215","0.0-202.0","5e0e60798205265be682850e","64de8266f6d9227913c2528e","","","","","2663",""," ","key"," ","16.666440251573288","499.99998423678863","249.99999211839432","instPz3","100","1","","100","","","30"
"","psychophysics","203","1079720","0.0-203.0","5e0e60798205265be682850e","64de8266f6d9227913c2528e","","","","","8504",""," ","key"," ","16.66653438113961","499.99998423678863","249.99999211839432","instPz4","43","1","","100","","","30"
"","psychophysics","204","1081250","0.0-204.0","5e0e60798205265be682850e","64de8266f6d9227913c2528e","","","","","1529",""," ","key"," ","16.665791208791845","499.99998423678863","249.99999211839432","inst","","","","","","",""
"","psychophysics","205","1084962","0.0-205.0","5e0e60798205265be682850e","64de8266f6d9227913c2528e","","","","","3710",""," ","key"," ","16.66657207207125","499.99998423678863","249.99999211839432","pz","58","1","1","50","","","40"
"","psychophysics","206","1087156","0.0-206.0","5e0e60798205265be682850e","64de8266f6d9227913c2528e","","","","","2193",""," ","key"," ","16.6666230769219","499.99998423678863","249.99999211839432","pz","44","1","1","48","","","31"
"","psychophysics","207","1091639","0.0-207.0","5e0e60798205265be682850e","64de8266f6d9227913c2528e","","","","","4482",""," ","key"," ","16.667085820895885","499.99998423678863","249.99999211839432","pz","31","1","1","41","","","22"
"","psychophysics","208","1097404","0.0-208.0","5e0e60798205265be682850e","64de8266f6d9227913c2528e","","","","","5764",""," ","key"," ","16.667011594202748","499.99998423678863","249.99999211839432","pz","53","1","1","56","","","40"
"","psychophysics","209","1103797","0.0-209.0","5e0e60798205265be682850e","64de8266f6d9227913c2528e","","","","","6392",""," ","key"," ","16.666436031331884","499.99998423678863","249.99999211839432","pz","36","1","1","36","","","30"
"","psychophysics","210","1106582","0.0-210.0","5e0e60798205265be682850e","64de8266f6d9227913c2528e","","","","","2784",""," ","key"," ","16.666385542167944","499.99998423678863","249.99999211839432","pz","41","1","1","40","","","34"
"","psychophysics","211","1111252","0.0-211.0","5e0e60798205265be682850e","64de8266f6d9227913c2528e","","","","","4669",""," ","key"," ","16.666551971325724","499.99998423678863","249.99999211839432","pz","51","1","1","56","","","39"
"","psychophysics","212","1114341","0.0-212.0","5e0e60798205265be682850e","64de8266f6d9227913c2528e","","","","","3088",""," ","key"," ","16.666342391304763","499.99998423678863","249.99999211839432","pz","51","1","1","42","","","51"
"","psychophysics","213","1119758","0.0-213.0","5e0e60798205265be682850e","64de8266f6d9227913c2528e","","","","","5415",""," ","key"," ","16.666512345678868","499.99998423678863","249.99999211839432","pz","28","1","1","50","","","25"
"","psychophysics","214","1122353","0.0-214.0","5e0e60798205265be682850e","64de8266f6d9227913c2528e","","","","","2594",""," ","key"," ","16.666883870968295","499.99998423678863","249.99999211839432","pz","56","1","1","53","","","45"
"","psychophysics","215","1126599","0.0-215.0","5e0e60798205265be682850e","64de8266f6d9227913c2528e","","","","","4244",""," ","key"," ","16.667499999999706","499.99998423678863","249.99999211839432","pz","67","1","1","53","","","59"
"","psychophysics","216","1129906","0.0-216.0","5e0e60798205265be682850e","64de8266f6d9227913c2528e","","","","","3306",""," ","key"," ","16.6662944162437","499.99998423678863","249.99999211839432","pz","59","1","1","46","","","55"
"","psychophysics","217","1131972","0.0-217.0","5e0e60798205265be682850e","64de8266f6d9227913c2528e","","","","","2063",""," ","key"," ","16.665756097561264","499.99998423678863","249.99999211839432","pz","56","1","1","52","","","47"
"","psychophysics","218","1134798","0.0-218.0","5e0e60798205265be682850e","64de8266f6d9227913c2528e","","","","","2825",""," ","key"," ","16.66632544378662","499.99998423678863","249.99999211839432","pz","30","1","1","22","","","26"
"","psychophysics","219","1136695","0.0-219.0","5e0e60798205265be682850e","64de8266f6d9227913c2528e","","","","","1896",""," ","key"," ","16.666415929202962","499.99998423678863","249.99999211839432","pz","32","1","1","36","","","25"
