"success","trial_type","trial_index","time_elapsed","internal_node_id","pid","sid","timeout","failed_images","failed_audio","failed_video","rt","stimulus","response","response_type","key_press","avg_frame_time","center_x","center_y","task","resp","version","block","start","jitterX","jitterY","parA"
"true","fullscreen","0","2299","0.0-0.0","57becf0ef93a2e0001ce7ce4","64de7c1e7248d561a0bfd9d6","","","","","","","","","","","","","","","","","","","",""
"true","preload","1","2394","0.0-1.0","57becf0ef93a2e0001ce7ce4","64de7c1e7248d561a0bfd9d6","false","[]","[]","[]","","","","","","","","","","","","","","","",""
"","html-button-response","2","3313","0.0-2.0","57becf0ef93a2e0001ce7ce4","64de7c1e7248d561a0bfd9d6","","","","","918","Please Make Sure Your Audio Is On.","0","","","","","","","","","","","","",""
"","psychophysics","3","34732","0.0-3.0","57becf0ef93a2e0001ce7ce4","64de7c1e7248d561a0bfd9d6","","","","","31400",""," ","key"," ","16.68684378320935","768","250","","","","","","","",""
"","psychophysics","4","36628","0.0-4.0","57becf0ef93a2e0001ce7ce4","64de7c1e7248d561a0bfd9d6","","","","","1894",""," ","key"," ","16.684424778761095","500","250","inst","","","","","","",""
"","psychophysics","5","39236","0.0-5.0","57becf0ef93a2e0001ce7ce4","64de7c1e7248d561a0bfd9d6","","","","","2606",""," ","key"," ","16.68477419354838","500","250","sample0","","","","","","",""
"","psychophysics","6","40132","0.0-6.0","57becf0ef93a2e0001ce7ce4","64de7c1e7248d561a0bfd9d6","","","","","894",""," ","key"," ","16.68528301886792","500","250","sample1","","","","","","",""
"","psychophysics","7","46965","0.0-7.0","57becf0ef93a2e0001ce7ce4","64de7c1e7248d561a0bfd9d6","","","","","6831",""," ","key"," ","16.684547677261623","500","250","sample2","100","","","","","",""
"","psychophysics","8","52221","0.0-8.0","57becf0ef93a2e0001ce7ce4","64de7c1e7248d561a0bfd9d6","","","","","5254",""," ","key"," ","16.684522292993638","500","250","sample3","100","","","","","",""
"","psychophysics","9","56501","0.0-9.0","57becf0ef93a2e0001ce7ce4","64de7c1e7248d561a0bfd9d6","","","","","4277",""," ","key"," ","16.684470588235268","500","250","sample4","100","","","","","",""
"","psychophysics","10","58613","0.0-10.0","57becf0ef93a2e0001ce7ce4","64de7c1e7248d561a0bfd9d6","","","","","2111",""," ","key"," ","16.68492063492066","500","250","sample5","","","","","","",""
"","psychophysics","11","65358","0.0-11.0","57becf0ef93a2e0001ce7ce4","64de7c1e7248d561a0bfd9d6","","","","","6743",""," ","key"," ","16.684367245657576","500","250","sample6","498","","","","","",""
"","psychophysics","12","68101","0.0-12.0","57becf0ef93a2e0001ce7ce4","64de7c1e7248d561a0bfd9d6","","","","","2743",""," ","key"," ","16.684417177914096","500","250","inst","","","","","","",""
"","psychophysics","13","70561","0.0-13.0","57becf0ef93a2e0001ce7ce4","64de7c1e7248d561a0bfd9d6","","","","","2454",""," ","key"," ","16.68435374149664","500","250","inst","","","","","","",""
"","psychophysics","14","72174","0.0-14.0","57becf0ef93a2e0001ce7ce4","64de7c1e7248d561a0bfd9d6","","","","","1612",""," ","key"," ","16.685000000000098","500","250","inst","","","","","","",""
"","psychophysics","15","73079","0.0-15.0","57becf0ef93a2e0001ce7ce4","64de7c1e7248d561a0bfd9d6","","","","","903",""," ","key"," ","16.684150943396126","500","250","inst","","","","","","",""
"","psychophysics","16","74622","0.0-16.0","57becf0ef93a2e0001ce7ce4","64de7c1e7248d561a0bfd9d6","","","","","1542",""," ","key"," ","16.684615384615256","500","250","inst","","","","","","",""
"","psychophysics","17","75790","0.0-17.0","57becf0ef93a2e0001ce7ce4","64de7c1e7248d561a0bfd9d6","","","","","1167",""," ","key"," ","16.68550724637664","500","250","instEB0","40","2","","40","0","0","40"
"","psychophysics","18","80294","0.0-18.0","57becf0ef93a2e0001ce7ce4","64de7c1e7248d561a0bfd9d6","","","","","4503",""," ","key"," ","16.684832713754652","500","250","instEB1","41","2","","30","0","0","40"
"","psychophysics","19","85239","0.0-19.0","57becf0ef93a2e0001ce7ce4","64de7c1e7248d561a0bfd9d6","","","","","4942",""," ","key"," ","16.684729729729757","500","250","instEB2","31","2","","40","0","0","30"
"","psychophysics","20","90831","0.0-20.0","57becf0ef93a2e0001ce7ce4","64de7c1e7248d561a0bfd9d6","","","","","5590",""," ","key"," ","16.684610778443123","500","250","instEB3","31","2","","45","0","0","27"
"","psychophysics","21","96496","0.0-21.0","57becf0ef93a2e0001ce7ce4","64de7c1e7248d561a0bfd9d6","","","","","5664",""," ","key"," ","16.684437869822474","500","250","instEB4","49","2","","30","0","0","40"
"","psychophysics","22","98207","0.0-22.0","57becf0ef93a2e0001ce7ce4","64de7c1e7248d561a0bfd9d6","","","","","1710",""," ","key"," ","16.685490196078415","500","250","inst","","","","","","",""
"","psychophysics","23","102144","0.0-23.0","57becf0ef93a2e0001ce7ce4","64de7c1e7248d561a0bfd9d6","","","","","3934",""," ","key"," ","16.684510638297876","500","250","eb","45","2","","30","0","0","39"
"","psychophysics","24","106881","0.0-24.0","57becf0ef93a2e0001ce7ce4","64de7c1e7248d561a0bfd9d6","","","","","4736",""," ","key"," ","16.68459363957594","500","250","eb","40","2","","48","0","0","35"
"","psychophysics","25","111721","0.0-25.0","57becf0ef93a2e0001ce7ce4","64de7c1e7248d561a0bfd9d6","","","","","4838",""," ","key"," ","16.68429065743943","500","250","eb","62","2","","38","0","0","54"
"","psychophysics","26","114634","0.0-26.0","57becf0ef93a2e0001ce7ce4","64de7c1e7248d561a0bfd9d6","","","","","2911",""," ","key"," ","16.68439306358378","500","250","eb","30","2","","49","0","0","30"
"","psychophysics","27","118344","0.0-27.0","57becf0ef93a2e0001ce7ce4","64de7c1e7248d561a0bfd9d6","","","","","3710",""," ","key"," ","16.684684684684683","500","250","eb","54","2","","47","0","0","46"
"","psychophysics","28","123650","0.0-28.0","57becf0ef93a2e0001ce7ce4","64de7c1e7248d561a0bfd9d6","","","","","5304",""," ","key"," ","16.684542586750787","500","250","eb","53","2","","42","0","0","41"
"","psychophysics","29","127121","0.0-29.0","57becf0ef93a2e0001ce7ce4","64de7c1e7248d561a0bfd9d6","","","","","3471",""," ","key"," ","16.684637681159426","500","250","eb","35","2","","34","0","0","32"
"","psychophysics","30","129946","0.0-30.0","57becf0ef93a2e0001ce7ce4","64de7c1e7248d561a0bfd9d6","","","","","2823",""," ","key"," ","16.68464285714297","500","250","eb","44","2","","48","0","0","36"
"","psychophysics","31","133410","0.0-31.0","57becf0ef93a2e0001ce7ce4","64de7c1e7248d561a0bfd9d6","","","","","3463",""," ","key"," ","16.68454106280185","500","250","eb","49","2","","53","0","0","42"
"","psychophysics","32","139163","0.0-32.0","57becf0ef93a2e0001ce7ce4","64de7c1e7248d561a0bfd9d6","","","","","5750",""," ","key"," ","16.684593023255815","500","250","eb","57","2","","34","0","0","50"
"","psychophysics","33","143467","0.0-33.0","57becf0ef93a2e0001ce7ce4","64de7c1e7248d561a0bfd9d6","","","","","4303",""," ","key"," ","16.684513618677094","500","250","eb","62","2","","37","0","0","51"
"","psychophysics","34","148131","0.0-34.0","57becf0ef93a2e0001ce7ce4","64de7c1e7248d561a0bfd9d6","","","","","4661",""," ","key"," ","16.684388489208562","500","250","eb","40","2","","40","0","0","36"
"","psychophysics","35","153363","0.0-35.0","57becf0ef93a2e0001ce7ce4","64de7c1e7248d561a0bfd9d6","","","","","5230",""," ","key"," ","16.68460063897763","500","250","eb","52","2","","26","0","0","43"
"","psychophysics","36","158396","0.0-36.0","57becf0ef93a2e0001ce7ce4","64de7c1e7248d561a0bfd9d6","","","","","5031",""," ","key"," ","16.684400000000025","500","250","eb","40","2","","36","0","0","37"
"","psychophysics","37","161652","0.0-37.0","57becf0ef93a2e0001ce7ce4","64de7c1e7248d561a0bfd9d6","","","","","3255",""," ","key"," ","16.68463917525762","500","250","eb","57","2","","28","0","0","52"
"","psychophysics","38","162900","0.0-38.0","57becf0ef93a2e0001ce7ce4","64de7c1e7248d561a0bfd9d6","","","","","1243",""," ","key"," ","16.68486486486477","500","250","inst","","","","","","",""
"","psychophysics","39","164460","0.0-39.0","57becf0ef93a2e0001ce7ce4","64de7c1e7248d561a0bfd9d6","","","","","1557",""," ","key"," ","16.68537634408592","500","250","instBr0","0","","","0","0","0","300"
"","psychophysics","40","167205","0.0-40.0","57becf0ef93a2e0001ce7ce4","64de7c1e7248d561a0bfd9d6","","","","","2744",""," ","key"," ","16.684417177914096","500","250","instBr1","-40","","","-40","0","0","300"
"","psychophysics","41","174557","0.0-41.0","57becf0ef93a2e0001ce7ce4","64de7c1e7248d561a0bfd9d6","","","","","7351",""," ","key"," ","16.68468181818184","500","250","instBr3","24","2","","40","0","0","300"
"","psychophysics","42","175277","0.0-42.0","57becf0ef93a2e0001ce7ce4","64de7c1e7248d561a0bfd9d6","","","","","719",""," ","key"," ","16.687142857142526","500","250","inst","","","","","","",""
"","psychophysics","43","179101","0.0-43.0","57becf0ef93a2e0001ce7ce4","64de7c1e7248d561a0bfd9d6","","","","","3823",""," ","key"," ","16.684561403508717","500","250","br","14","2","0","-20","-2","2","227"
"","psychophysics","44","183101","0.0-44.0","57becf0ef93a2e0001ce7ce4","64de7c1e7248d561a0bfd9d6","","","","","3998",""," ","key"," ","16.684435146443462","500","250","br","20","2","0","-27","28","25","288"
"","psychophysics","45","186581","0.0-45.0","57becf0ef93a2e0001ce7ce4","64de7c1e7248d561a0bfd9d6","","","","","3479",""," ","key"," ","16.684807692307704","500","250","br","16","2","0","-25","-14","17","259"
"","psychophysics","46","188846","0.0-46.0","57becf0ef93a2e0001ce7ce4","64de7c1e7248d561a0bfd9d6","","","","","2264",""," ","key"," ","16.684029850746295","500","250","br","22","2","0","22","29","-7","236"
"","psychophysics","47","192343","0.0-47.0","57becf0ef93a2e0001ce7ce4","64de7c1e7248d561a0bfd9d6","","","","","3495",""," ","key"," ","16.684593301435346","500","250","br","19","2","0","-24","-13","5","290"
"","psychophysics","48","194750","0.0-48.0","57becf0ef93a2e0001ce7ce4","64de7c1e7248d561a0bfd9d6","","","","","2405",""," ","key"," ","16.684755244755333","500","250","br","16","2","0","0","28","-19","266"
"","psychophysics","49","198120","0.0-49.0","57becf0ef93a2e0001ce7ce4","64de7c1e7248d561a0bfd9d6","","","","","3366",""," ","key"," ","16.68457711442789","500","250","br","16","2","0","-15","14","8","239"
"","psychophysics","50","202470","0.0-50.0","57becf0ef93a2e0001ce7ce4","64de7c1e7248d561a0bfd9d6","","","","","4349",""," ","key"," ","16.683769230769226","500","250","br","23","2","0","-27","-18","-12","294"
"","psychophysics","51","205520","0.0-51.0","57becf0ef93a2e0001ce7ce4","64de7c1e7248d561a0bfd9d6","","","","","3048",""," ","key"," ","16.685384615384564","500","250","br","19","2","0","-18","-9","19","252"
"","psychophysics","52","207991","0.0-52.0","57becf0ef93a2e0001ce7ce4","64de7c1e7248d561a0bfd9d6","","","","","2470",""," ","key"," ","16.684761904761928","500","250","br","20","2","0","10","-13","-5","245"
"","psychophysics","53","211104","0.0-53.0","57becf0ef93a2e0001ce7ce4","64de7c1e7248d561a0bfd9d6","","","","","3111",""," ","key"," ","16.680432432432458","500","250","br","17","2","0","-15","-30","16","211"
"","psychophysics","54","214072","0.0-54.0","57becf0ef93a2e0001ce7ce4","64de7c1e7248d561a0bfd9d6","","","","","2961",""," ","key"," ","16.671186440678063","500","250","br","18","2","0","23","18","20","299"
"","psychophysics","55","217400","0.0-55.0","57becf0ef93a2e0001ce7ce4","64de7c1e7248d561a0bfd9d6","","","","","3326",""," ","key"," ","16.699095477386912","500","250","br","21","2","0","29","-1","-14","293"
"","psychophysics","56","221168","0.0-56.0","57becf0ef93a2e0001ce7ce4","64de7c1e7248d561a0bfd9d6","","","","","3767",""," ","key"," ","16.684800000000074","500","250","br","15","2","0","-25","-2","-5","243"
"","psychophysics","57","223640","0.0-57.0","57becf0ef93a2e0001ce7ce4","64de7c1e7248d561a0bfd9d6","","","","","2469",""," ","key"," ","16.684489795918534","500","250","br","21","2","0","11","29","-2","245"
"","psychophysics","58","224392","0.0-58.0","57becf0ef93a2e0001ce7ce4","64de7c1e7248d561a0bfd9d6","","","","","752",""," ","key"," ","16.683636363636733","500","250","inst","","","","","","",""
"","psychophysics","59","225705","0.0-59.0","57becf0ef93a2e0001ce7ce4","64de7c1e7248d561a0bfd9d6","","","","","1311",""," ","key"," ","16.684358974359036","500","250","instZol0","0","","","0","0","0",""
"","psychophysics","60","231505","0.0-60.0","57becf0ef93a2e0001ce7ce4","64de7c1e7248d561a0bfd9d6","","","","","5798",""," ","key"," ","16.684566473988482","500","250","instZol1","0.20000000000000004","","","-1.3","0","0",""
"","psychophysics","61","241953","0.0-61.0","57becf0ef93a2e0001ce7ce4","64de7c1e7248d561a0bfd9d6","","","","","10447",""," ","key"," ","16.68457599999998","500","250","instZol2","-0.9999999999999992","2","","2","0","0",""
"","psychophysics","62","242794","0.0-62.0","57becf0ef93a2e0001ce7ce4","64de7c1e7248d561a0bfd9d6","","","","","835",""," ","key"," ","16.685599999999976","500","250","inst","","","","","","",""
"","psychophysics","63","245665","0.0-63.0","57becf0ef93a2e0001ce7ce4","64de7c1e7248d561a0bfd9d6","","","","","2871",""," ","key"," ","16.68456140350876","500","250","zol","-1.1400000000000001","2","0","0.14","-16","13",""
"","psychophysics","64","249906","0.0-64.0","57becf0ef93a2e0001ce7ce4","64de7c1e7248d561a0bfd9d6","","","","","4240",""," ","key"," ","16.684347826087013","500","250","zol","-1.15","2","0","-0.15","-13","5",""
"","psychophysics","65","256211","0.0-65.0","57becf0ef93a2e0001ce7ce4","64de7c1e7248d561a0bfd9d6","","","","","6302",""," ","key"," ","16.684509283819622","500","250","zol","-0.9599999999999999","2","0","-0.04","1","2",""
"","psychophysics","66","260276","0.0-66.0","57becf0ef93a2e0001ce7ce4","64de7c1e7248d561a0bfd9d6","","","","","4063",""," ","key"," ","16.68469135802471","500","250","zol","-1.5300000000000005","2","0","0.63","9","28",""
"","psychophysics","67","266707","0.0-67.0","57becf0ef93a2e0001ce7ce4","64de7c1e7248d561a0bfd9d6","","","","","6428",""," ","key"," ","16.68447916666666","500","250","zol","-0.7899999999999999","2","0","-0.21","3","20",""
"","psychophysics","68","274744","0.0-68.0","57becf0ef93a2e0001ce7ce4","64de7c1e7248d561a0bfd9d6","","","","","null","","null","key","null","16.684532224532123","500","250","zol","-0.5300000000000001","2","0","0.53","16","18",""
"","psychophysics","69","278116","0.0-69.0","57becf0ef93a2e0001ce7ce4","64de7c1e7248d561a0bfd9d6","","","","","3370",""," ","key"," ","16.767799999999987","500","250","zol","-0.15000000000000005","2","0","-0.35","9","13",""
"","psychophysics","70","283044","0.0-70.0","57becf0ef93a2e0001ce7ce4","64de7c1e7248d561a0bfd9d6","","","","","4927",""," ","key"," ","16.684557823129282","500","250","zol","-0.27","2","0","-0.63","15","1",""
"","psychophysics","71","286517","0.0-71.0","57becf0ef93a2e0001ce7ce4","64de7c1e7248d561a0bfd9d6","","","","","3470",""," ","key"," ","16.68483091787444","500","250","zol","-0.7799999999999999","2","0","0.18","-19","-23",""
"","psychophysics","72","292629","0.0-72.0","57becf0ef93a2e0001ce7ce4","64de7c1e7248d561a0bfd9d6","","","","","6111",""," ","key"," ","16.684426229508198","500","250","zol","-0.9699999999999999","2","0","-0.53","-9","24",""
"","psychophysics","73","299109","0.0-73.0","57becf0ef93a2e0001ce7ce4","64de7c1e7248d561a0bfd9d6","","","","","6479",""," ","key"," ","16.684599483204142","500","250","zol","-1.3","2","0","0","-11","28",""
"","psychophysics","74","304238","0.0-74.0","57becf0ef93a2e0001ce7ce4","64de7c1e7248d561a0bfd9d6","","","","","5127",""," ","key"," ","16.68457516339863","500","250","zol","-1.0999999999999999","2","0","-0.6","5","-28",""
"","psychophysics","75","307382","0.0-75.0","57becf0ef93a2e0001ce7ce4","64de7c1e7248d561a0bfd9d6","","","","","3139",""," ","key"," ","16.684468085106346","500","250","zol","-1.5300000000000005","2","0","0.43","-29","29",""
"","psychophysics","76","310558","0.0-76.0","57becf0ef93a2e0001ce7ce4","64de7c1e7248d561a0bfd9d6","","","","","3175",""," ","key"," ","16.68444444444468","500","250","zol","-1.4300000000000004","2","0","0.33","19","24",""
"","psychophysics","77","314591","0.0-77.0","57becf0ef93a2e0001ce7ce4","64de7c1e7248d561a0bfd9d6","","","","","4023",""," ","key"," ","16.684481327800675","500","250","zol","-1.4200000000000004","2","0","0.62","-9","24",""
"","psychophysics","78","315238","0.0-78.0","57becf0ef93a2e0001ce7ce4","64de7c1e7248d561a0bfd9d6","","","","","646",""," ","key"," ","16.684736842104222","500","250","inst","","","","","","",""
"","psychophysics","79","316287","0.0-79.0","57becf0ef93a2e0001ce7ce4","64de7c1e7248d561a0bfd9d6","","","","","1048",""," ","key"," ","16.684516129032296","500","250","instPzPre","50","0","","50","","","50"
"","psychophysics","80","317542","0.0-80.0","57becf0ef93a2e0001ce7ce4","64de7c1e7248d561a0bfd9d6","","","","","1253",""," ","key"," ","16.68486486486477","500","250","instPz0","51","1","","50","","","50"
"","psychophysics","81","323240","0.0-81.0","57becf0ef93a2e0001ce7ce4","64de7c1e7248d561a0bfd9d6","","","","","5696",""," ","key"," ","16.68452941176468","500","250","instPz1","51","1","","25","","","50"
"","psychophysics","82","326936","0.0-82.0","57becf0ef93a2e0001ce7ce4","64de7c1e7248d561a0bfd9d6","","","","","3695",""," ","key"," ","16.684434389140314","500","250","instPz2","20","1","","35","","","20"
"","psychophysics","83","336280","0.0-83.0","57becf0ef93a2e0001ce7ce4","64de7c1e7248d561a0bfd9d6","","","","","9343",""," ","key"," ","16.684508050089367","500","250","instPz3","32","1","","100","","","30"
"","psychophysics","84","341256","0.0-84.0","57becf0ef93a2e0001ce7ce4","64de7c1e7248d561a0bfd9d6","","","","","4974",""," ","key"," ","16.68464646464655","500","250","instPz4","34","1","","100","","","30"
"","psychophysics","85","342016","0.0-85.0","57becf0ef93a2e0001ce7ce4","64de7c1e7248d561a0bfd9d6","","","","","759",""," ","key"," ","16.68400000000062","500","250","inst","","","","","","",""
"","psychophysics","86","346457","0.0-86.0","57becf0ef93a2e0001ce7ce4","64de7c1e7248d561a0bfd9d6","","","","","4438",""," ","key"," ","16.684528301886882","500","250","pz","26","1","0","42","","","21"
"","psychophysics","87","351328","0.0-87.0","57becf0ef93a2e0001ce7ce4","64de7c1e7248d561a0bfd9d6","","","","","4870",""," ","key"," ","16.684398625429466","500","250","pz","49","1","0","23","","","45"
"","psychophysics","88","353426","0.0-88.0","57becf0ef93a2e0001ce7ce4","64de7c1e7248d561a0bfd9d6","","","","","2096",""," ","key"," ","16.684479999999983","500","250","pz","52","1","0","42","","","49"
"","psychophysics","89","356617","0.0-89.0","57becf0ef93a2e0001ce7ce4","64de7c1e7248d561a0bfd9d6","","","","","3188",""," ","key"," ","16.684526315789462","500","250","pz","35","1","0","45","","","31"
"","psychophysics","90","359658","0.0-90.0","57becf0ef93a2e0001ce7ce4","64de7c1e7248d561a0bfd9d6","","","","","3039",""," ","key"," ","16.68464088397781","500","250","pz","48","1","0","25","","","43"
"","psychophysics","91","364274","0.0-91.0","57becf0ef93a2e0001ce7ce4","64de7c1e7248d561a0bfd9d6","","","","","4615",""," ","key"," ","16.684637681159284","500","250","pz","36","1","0","54","","","32"
"","psychophysics","92","367498","0.0-92.0","57becf0ef93a2e0001ce7ce4","64de7c1e7248d561a0bfd9d6","","","","","3223",""," ","key"," ","16.684687499999807","500","250","pz","58","1","0","33","","","56"
"","psychophysics","93","369995","0.0-93.0","57becf0ef93a2e0001ce7ce4","64de7c1e7248d561a0bfd9d6","","","","","2495",""," ","key"," ","16.684563758389263","500","250","pz","25","1","0","31","","","23"
"","psychophysics","94","372099","0.0-94.0","57becf0ef93a2e0001ce7ce4","64de7c1e7248d561a0bfd9d6","","","","","2101",""," ","key"," ","16.68464000000013","500","250","pz","56","1","0","45","","","50"
"","psychophysics","95","375203","0.0-95.0","57becf0ef93a2e0001ce7ce4","64de7c1e7248d561a0bfd9d6","","","","","3102",""," ","key"," ","16.68475675675672","500","250","pz","62","1","0","28","","","53"
"","psychophysics","96","379298","0.0-96.0","57becf0ef93a2e0001ce7ce4","64de7c1e7248d561a0bfd9d6","","","","","4094",""," ","key"," ","16.68450819672139","500","250","pz","60","1","0","34","","","49"
"","psychophysics","97","382403","0.0-97.0","57becf0ef93a2e0001ce7ce4","64de7c1e7248d561a0bfd9d6","","","","","3102",""," ","key"," ","16.684864864864615","500","250","pz","50","1","0","53","","","46"
"","psychophysics","98","385315","0.0-98.0","57becf0ef93a2e0001ce7ce4","64de7c1e7248d561a0bfd9d6","","","","","2906",""," ","key"," ","16.684252873563207","500","250","pz","33","1","0","39","","","27"
"","psychophysics","99","387804","0.0-99.0","57becf0ef93a2e0001ce7ce4","64de7c1e7248d561a0bfd9d6","","","","","2486",""," ","key"," ","16.684594594594643","500","250","pz","37","1","0","43","","","27"
"","psychophysics","100","389884","0.0-100.0","57becf0ef93a2e0001ce7ce4","64de7c1e7248d561a0bfd9d6","","","","","2078",""," ","key"," ","16.684354838709563","500","250","pz","66","1","0","56","","","48"
"","psychophysics","101","414886","0.0-101.0","57becf0ef93a2e0001ce7ce4","64de7c1e7248d561a0bfd9d6","","","","","25000",""," ","key"," ","16.69568181818181","500","250","inst","","","","","","",""
"","psychophysics","102","420478","0.0-102.0","57becf0ef93a2e0001ce7ce4","64de7c1e7248d561a0bfd9d6","","","","","5591",""," ","key"," ","16.73489489489481","500","250","instPog0","340","2","","370","0","0","340"
"","psychophysics","103","424614","0.0-103.0","57becf0ef93a2e0001ce7ce4","64de7c1e7248d561a0bfd9d6","","","","","4130",""," ","key"," ","16.684534412955294","500","250","instPog1","348","2","","370","0","0","340"
"","psychophysics","104","429966","0.0-104.0","57becf0ef93a2e0001ce7ce4","64de7c1e7248d561a0bfd9d6","","","","","5352",""," ","key"," ","16.684687499999928","500","250","instPog2","318","2","","340","0","0","340"
"","psychophysics","105","430614","0.0-105.0","57becf0ef93a2e0001ce7ce4","64de7c1e7248d561a0bfd9d6","","","","","647",""," ","key"," ","16.685263157894184","500","250","inst","","","","","","",""
"","psychophysics","106","433272","0.0-106.0","57becf0ef93a2e0001ce7ce4","64de7c1e7248d561a0bfd9d6","","","","","2654",""," ","key"," ","16.68506329113918","500","250","pog","296","2","0","312","0","0","318"
"","psychophysics","107","436208","0.0-107.0","57becf0ef93a2e0001ce7ce4","64de7c1e7248d561a0bfd9d6","","","","","2933",""," ","key"," ","16.684685714285756","500","250","pog","335","2","0","327","0","0","358"
"","psychophysics","108","439552","0.0-108.0","57becf0ef93a2e0001ce7ce4","64de7c1e7248d561a0bfd9d6","","","","","3342",""," ","key"," ","16.681900000000024","500","250","pog","318","2","0","340","0","0","342"
"","psychophysics","109","442327","0.0-109.0","57becf0ef93a2e0001ce7ce4","64de7c1e7248d561a0bfd9d6","","","","","2773",""," ","key"," ","16.682060606060833","500","250","pog","302","2","0","350","0","0","335"
"","psychophysics","110","445384","0.0-110.0","57becf0ef93a2e0001ce7ce4","64de7c1e7248d561a0bfd9d6","","","","","3055",""," ","key"," ","16.68868131868114","500","250","pog","308","2","0","330","0","0","338"
"","psychophysics","111","449088","0.0-111.0","57becf0ef93a2e0001ce7ce4","64de7c1e7248d561a0bfd9d6","","","","","3702",""," ","key"," ","16.671583710407166","500","250","pog","325","2","0","385","0","0","358"
"","psychophysics","112","452624","0.0-112.0","57becf0ef93a2e0001ce7ce4","64de7c1e7248d561a0bfd9d6","","","","","3534",""," ","key"," ","16.701421800947866","500","250","pog","338","2","0","376","0","0","368"
"","psychophysics","113","457272","0.0-113.0","57becf0ef93a2e0001ce7ce4","64de7c1e7248d561a0bfd9d6","","","","","4648",""," ","key"," ","16.68489208633081","500","250","pog","272","2","0","370","0","0","302"
"","psychophysics","114","459241","0.0-114.0","57becf0ef93a2e0001ce7ce4","64de7c1e7248d561a0bfd9d6","","","","","1966",""," ","key"," ","16.684786324786284","500","250","pog","343","2","0","361","0","0","362"
"","psychophysics","115","463473","0.0-115.0","57becf0ef93a2e0001ce7ce4","64de7c1e7248d561a0bfd9d6","","","","","4230",""," ","key"," ","16.68452380952381","500","250","pog","286","2","0","364","0","0","302"
"","psychophysics","116","466297","0.0-116.0","57becf0ef93a2e0001ce7ce4","64de7c1e7248d561a0bfd9d6","","","","","2822",""," ","key"," ","16.684615384615455","500","250","pog","332","2","0","376","0","0","349"
"","psychophysics","117","468329","0.0-117.0","57becf0ef93a2e0001ce7ce4","64de7c1e7248d561a0bfd9d6","","","","","2030",""," ","key"," ","16.684333333333296","500","250","pog","308","2","0","308","0","0","324"
"","psychophysics","118","470457","0.0-118.0","57becf0ef93a2e0001ce7ce4","64de7c1e7248d561a0bfd9d6","","","","","2123",""," ","key"," ","16.684566929133876","500","250","pog","311","2","0","297","0","0","335"
"","psychophysics","119","473257","0.0-119.0","57becf0ef93a2e0001ce7ce4","64de7c1e7248d561a0bfd9d6","","","","","2800",""," ","key"," ","16.684790419161594","500","250","pog","336","2","0","304","0","0","360"
"","psychophysics","120","474722","0.0-120.0","57becf0ef93a2e0001ce7ce4","64de7c1e7248d561a0bfd9d6","","","","","1463",""," ","key"," ","16.68436781609171","500","250","pog","355","2","0","357","0","0","372"
"","psychophysics","121","475426","0.0-121.0","57becf0ef93a2e0001ce7ce4","64de7c1e7248d561a0bfd9d6","","","","","702",""," ","key"," ","16.68682926829206","500","250","inst","","","","","","",""
"","psychophysics","122","482602","0.0-122.0","57becf0ef93a2e0001ce7ce4","64de7c1e7248d561a0bfd9d6","","","","","7175",""," ","key"," ","16.68456876456875","500","250","instPz1","45","2","","25","","","50"
"","psychophysics","123","485035","0.0-123.0","57becf0ef93a2e0001ce7ce4","64de7c1e7248d561a0bfd9d6","","","","","2431",""," ","key"," ","16.684827586206815","500","250","instPz2","28","2","","20","","","35"
"","psychophysics","124","490258","0.0-124.0","57becf0ef93a2e0001ce7ce4","64de7c1e7248d561a0bfd9d6","","","","","5222",""," ","key"," ","16.684423076923196","500","250","instPz3","76","2","","30","","","100"
"","psychophysics","125","494244","0.0-125.0","57becf0ef93a2e0001ce7ce4","64de7c1e7248d561a0bfd9d6","","","","","3983",""," ","key"," ","16.68453781512598","500","250","instPz4","72","2","","30","","","100"
"","psychophysics","126","494883","0.0-126.0","57becf0ef93a2e0001ce7ce4","64de7c1e7248d561a0bfd9d6","","","","","637",""," ","key"," ","16.68594594594607","500","250","inst","","","","","","",""
"","psychophysics","127","497883","0.0-127.0","57becf0ef93a2e0001ce7ce4","64de7c1e7248d561a0bfd9d6","","","","","2999",""," ","key"," ","16.684692737430154","500","250","pz","28","2","1","40","","","29"
"","psychophysics","128","500803","0.0-128.0","57becf0ef93a2e0001ce7ce4","64de7c1e7248d561a0bfd9d6","","","","","2918",""," ","key"," ","16.6845977011494","500","250","pz","47","2","1","43","","","53"
"","psychophysics","129","503420","0.0-129.0","57becf0ef93a2e0001ce7ce4","64de7c1e7248d561a0bfd9d6","","","","","2615",""," ","key"," ","16.68461538461531","500","250","pz","48","2","1","40","","","54"
"","psychophysics","130","506492","0.0-130.0","57becf0ef93a2e0001ce7ce4","64de7c1e7248d561a0bfd9d6","","","","","3070",""," ","key"," ","16.684371584699402","500","250","pz","18","2","1","24","","","21"
"","psychophysics","131","509884","0.0-131.0","57becf0ef93a2e0001ce7ce4","64de7c1e7248d561a0bfd9d6","","","","","3390",""," ","key"," ","16.684455445544312","500","250","pz","33","2","1","55","","","36"
"","psychophysics","132","513165","0.0-132.0","57becf0ef93a2e0001ce7ce4","64de7c1e7248d561a0bfd9d6","","","","","3280",""," ","key"," ","16.68469387755108","500","250","pz","29","2","1","34","","","26"
"","psychophysics","133","515973","0.0-133.0","57becf0ef93a2e0001ce7ce4","64de7c1e7248d561a0bfd9d6","","","","","2805",""," ","key"," ","16.684191616766523","500","250","pz","45","2","1","36","","","57"
"","psychophysics","134","518388","0.0-134.0","57becf0ef93a2e0001ce7ce4","64de7c1e7248d561a0bfd9d6","","","","","2414",""," ","key"," ","16.684583333333446","500","250","pz","31","2","1","25","","","34"
"","psychophysics","135","521557","0.0-135.0","57becf0ef93a2e0001ce7ce4","64de7c1e7248d561a0bfd9d6","","","","","3167",""," ","key"," ","16.68455026455029","500","250","pz","44","2","1","27","","","49"
"","psychophysics","136","525165","0.0-136.0","57becf0ef93a2e0001ce7ce4","64de7c1e7248d561a0bfd9d6","","","","","3606",""," ","key"," ","16.68455813953485","500","250","pz","44","2","1","25","","","55"
"","psychophysics","137","528021","0.0-137.0","57becf0ef93a2e0001ce7ce4","64de7c1e7248d561a0bfd9d6","","","","","2856",""," ","key"," ","16.68470588235308","500","250","pz","32","2","1","24","","","36"
"","psychophysics","138","532382","0.0-138.0","57becf0ef93a2e0001ce7ce4","64de7c1e7248d561a0bfd9d6","","","","","4360",""," ","key"," ","16.68469230769238","500","250","pz","39","2","1","55","","","46"
"","psychophysics","139","535470","0.0-139.0","57becf0ef93a2e0001ce7ce4","64de7c1e7248d561a0bfd9d6","","","","","3083",""," ","key"," ","16.684432432432406","500","250","pz","33","2","1","51","","","32"
"","psychophysics","140","538294","0.0-140.0","57becf0ef93a2e0001ce7ce4","64de7c1e7248d561a0bfd9d6","","","","","2821",""," ","key"," ","16.684404761904652","500","250","pz","35","2","1","54","","","44"
"","psychophysics","141","541334","0.0-141.0","57becf0ef93a2e0001ce7ce4","64de7c1e7248d561a0bfd9d6","","","","","3039",""," ","key"," ","16.684640883978133","500","250","pz","42","2","1","42","","","47"
"","psychophysics","142","544587","0.0-142.0","57becf0ef93a2e0001ce7ce4","64de7c1e7248d561a0bfd9d6","","","","","3253",""," ","key"," ","21.018441558441346","500","250","inst","","","","","","",""
"","psychophysics","143","548768","0.0-143.0","57becf0ef93a2e0001ce7ce4","64de7c1e7248d561a0bfd9d6","","","","","4179",""," ","key"," ","16.68487999999989","500","250","instEB1","32","1","","40","0","0","30"
"","psychophysics","144","553025","0.0-144.0","57becf0ef93a2e0001ce7ce4","64de7c1e7248d561a0bfd9d6","","","","","4255",""," ","key"," ","16.684488188976324","500","250","instEB2","40","1","","30","0","0","40"
"","psychophysics","145","555895","0.0-145.0","57becf0ef93a2e0001ce7ce4","64de7c1e7248d561a0bfd9d6","","","","","2869",""," ","key"," ","16.6845614035091","500","250","instEB3","41","1","","27","0","0","45"
"","psychophysics","146","560360","0.0-146.0","57becf0ef93a2e0001ce7ce4","64de7c1e7248d561a0bfd9d6","","","","","4463",""," ","key"," ","16.68451127819533","500","250","instEB4","28","1","","40","0","0","30"
"","psychophysics","147","561112","0.0-147.0","57becf0ef93a2e0001ce7ce4","64de7c1e7248d561a0bfd9d6","","","","","751",""," ","key"," ","16.684545454545347","500","250","inst","","","","","","",""
"","psychophysics","148","564487","0.0-148.0","57becf0ef93a2e0001ce7ce4","64de7c1e7248d561a0bfd9d6","","","","","3370",""," ","key"," ","16.68435643564352","500","250","eb","45","1","","30","0","0","52"
"","psychophysics","149","566968","0.0-149.0","57becf0ef93a2e0001ce7ce4","64de7c1e7248d561a0bfd9d6","","","","","2480",""," ","key"," ","16.684489795918335","500","250","eb","41","1","","51","0","0","46"
"","psychophysics","150","571088","0.0-150.0","57becf0ef93a2e0001ce7ce4","64de7c1e7248d561a0bfd9d6","","","","","4115",""," ","key"," ","16.68455284552855","500","250","eb","34","1","","29","0","0","38"
"","psychophysics","151","573569","0.0-151.0","57becf0ef93a2e0001ce7ce4","64de7c1e7248d561a0bfd9d6","","","","","2479",""," ","key"," ","16.684324324324514","500","250","eb","25","1","","27","0","0","28"
"","psychophysics","152","575641","0.0-152.0","57becf0ef93a2e0001ce7ce4","64de7c1e7248d561a0bfd9d6","","","","","2071",""," ","key"," ","16.684552845528078","500","250","eb","26","1","","25","0","0","31"
"","psychophysics","153","578866","0.0-153.0","57becf0ef93a2e0001ce7ce4","64de7c1e7248d561a0bfd9d6","","","","","3223",""," ","key"," ","16.684559585492202","500","250","eb","36","1","","33","0","0","42"
"","psychophysics","154","581801","0.0-154.0","57becf0ef93a2e0001ce7ce4","64de7c1e7248d561a0bfd9d6","","","","","2934",""," ","key"," ","16.6845977011494","500","250","eb","40","1","","29","0","0","46"
"","psychophysics","155","585843","0.0-155.0","57becf0ef93a2e0001ce7ce4","64de7c1e7248d561a0bfd9d6","","","","","4038",""," ","key"," ","16.68454545454559","500","250","eb","47","1","","28","0","0","52"
"","psychophysics","156","590273","0.0-156.0","57becf0ef93a2e0001ce7ce4","64de7c1e7248d561a0bfd9d6","","","","","4429",""," ","key"," ","16.684318181818306","500","250","eb","28","1","","43","0","0","31"
"","psychophysics","157","594115","0.0-157.0","57becf0ef93a2e0001ce7ce4","64de7c1e7248d561a0bfd9d6","","","","","3840",""," ","key"," ","16.684716157204935","500","250","eb","39","1","","45","0","0","45"
"","psychophysics","158","595882","0.0-158.0","57becf0ef93a2e0001ce7ce4","64de7c1e7248d561a0bfd9d6","","","","","1763",""," ","key"," ","16.684190476190167","500","250","eb","34","1","","28","0","0","37"
"","psychophysics","159","600219","0.0-159.0","57becf0ef93a2e0001ce7ce4","64de7c1e7248d561a0bfd9d6","","","","","4335",""," ","key"," ","16.68447876447887","500","250","eb","23","1","","38","0","0","26"
"","psychophysics","160","603746","0.0-160.0","57becf0ef93a2e0001ce7ce4","64de7c1e7248d561a0bfd9d6","","","","","3527",""," ","key"," ","16.684739336492804","500","250","eb","34","1","","36","0","0","41"
"","psychophysics","161","608723","0.0-161.0","57becf0ef93a2e0001ce7ce4","64de7c1e7248d561a0bfd9d6","","","","","4975",""," ","key"," ","16.684444444444537","500","250","eb","35","1","","51","0","0","40"
"","psychophysics","162","612251","0.0-162.0","57becf0ef93a2e0001ce7ce4","64de7c1e7248d561a0bfd9d6","","","","","3526",""," ","key"," ","16.684549763033463","500","250","eb","22","1","","32","0","0","24"
"","psychophysics","163","612931","0.0-163.0","57becf0ef93a2e0001ce7ce4","64de7c1e7248d561a0bfd9d6","","","","","677",""," ","key"," ","16.68461538461419","500","250","inst","","","","","","",""
"","psychophysics","164","616788","0.0-164.0","57becf0ef93a2e0001ce7ce4","64de7c1e7248d561a0bfd9d6","","","","","3855",""," ","key"," ","16.68504347826111","500","250","instZol1","0.30000000000000004","","","-1.3","0","0",""
"","psychophysics","165","624804","0.0-165.0","57becf0ef93a2e0001ce7ce4","64de7c1e7248d561a0bfd9d6","","","","","8009",""," ","key"," ","16.68445833333341","500","250","instZol2","1.2000000000000008","1","","2","0","0",""
"","psychophysics","166","625571","0.0-166.0","57becf0ef93a2e0001ce7ce4","64de7c1e7248d561a0bfd9d6","","","","","767",""," ","key"," ","16.683111111110904","500","250","inst","","","","","","",""
"","psychophysics","167","629220","0.0-167.0","57becf0ef93a2e0001ce7ce4","64de7c1e7248d561a0bfd9d6","","","","","3647",""," ","key"," ","16.68477064220143","500","250","zol","1.2400000000000002","1","1","-0.14","-14","4",""
"","psychophysics","168","633957","0.0-168.0","57becf0ef93a2e0001ce7ce4","64de7c1e7248d561a0bfd9d6","","","","","4734",""," ","key"," ","16.684326241134684","500","250","zol","1.3100000000000003","1","1","0.19","10","-27",""
"","psychophysics","169","639468","0.0-169.0","57becf0ef93a2e0001ce7ce4","64de7c1e7248d561a0bfd9d6","","","","","5507",""," ","key"," ","16.684484848484864","500","250","zol","1.3","1","1","0.5","2","17",""
"","psychophysics","170","645373","0.0-170.0","57becf0ef93a2e0001ce7ce4","64de7c1e7248d561a0bfd9d6","","","","","5902",""," ","key"," ","16.68458923512757","500","250","zol","1.2100000000000002","1","1","-0.51","-18","-16",""
"","psychophysics","171","652525","0.0-171.0","57becf0ef93a2e0001ce7ce4","64de7c1e7248d561a0bfd9d6","","","","","7151",""," ","key"," ","16.68454332552704","500","250","zol","0.81","1","1","0.19","7","-27",""
"","psychophysics","172","658054","0.0-172.0","57becf0ef93a2e0001ce7ce4","64de7c1e7248d561a0bfd9d6","","","","","5523",""," ","key"," ","16.684531722054604","500","250","zol","0.6499999999999999","1","1","-0.05","14","-21",""
"","psychophysics","173","663134","0.0-173.0","57becf0ef93a2e0001ce7ce4","64de7c1e7248d561a0bfd9d6","","","","","5078",""," ","key"," ","16.68455445544568","500","250","zol","0.81","1","1","0.09","9","-18",""
"","psychophysics","174","666544","0.0-174.0","57becf0ef93a2e0001ce7ce4","64de7c1e7248d561a0bfd9d6","","","","","3407",""," ","key"," ","16.684901960784178","500","250","zol","0.9799999999999999","1","1","0.12","-9","21",""
"","psychophysics","175","673512","0.0-175.0","57becf0ef93a2e0001ce7ce4","64de7c1e7248d561a0bfd9d6","","","","","6964",""," ","key"," ","16.684375000000166","500","250","zol","0.3400000000000002","1","1","-0.74","-10","-22",""
"","psychophysics","176","681175","0.0-176.0","57becf0ef93a2e0001ce7ce4","64de7c1e7248d561a0bfd9d6","","","","","7662",""," ","key"," ","16.684531590414096","500","250","zol","0.6799999999999999","1","1","-0.58","-3","23",""
"","psychophysics","177","684729","0.0-177.0","57becf0ef93a2e0001ce7ce4","64de7c1e7248d561a0bfd9d6","","","","","3551",""," ","key"," ","16.683207547170205","500","250","zol","1.1400000000000001","1","1","-0.54","-11","30",""
"","psychophysics","178","692513","0.0-178.0","57becf0ef93a2e0001ce7ce4","64de7c1e7248d561a0bfd9d6","","","","","7781",""," ","key"," ","16.685075268817325","500","250","zol","0.21000000000000005","1","1","0.39","-9","-21",""
"","psychophysics","179","696073","0.0-179.0","57becf0ef93a2e0001ce7ce4","64de7c1e7248d561a0bfd9d6","","","","","3558",""," ","key"," ","16.684528301886772","500","250","zol","1.1500000000000001","1","1","-0.55","1","16",""
"","psychophysics","180","698849","0.0-180.0","57becf0ef93a2e0001ce7ce4","64de7c1e7248d561a0bfd9d6","","","","","2772",""," ","key"," ","16.684457831325272","500","250","zol","0.47","1","1","0.43","-18","-15",""
"","psychophysics","181","702465","0.0-181.0","57becf0ef93a2e0001ce7ce4","64de7c1e7248d561a0bfd9d6","","","","","3615",""," ","key"," ","16.684259259259473","500","250","zol","1.0499999999999998","1","1","0.65","-26","2",""
"","psychophysics","182","703241","0.0-182.0","57becf0ef93a2e0001ce7ce4","64de7c1e7248d561a0bfd9d6","","","","","775",""," ","key"," ","16.685777777777467","500","250","inst","","","","","","",""
"","psychophysics","183","709274","0.0-183.0","57becf0ef93a2e0001ce7ce4","64de7c1e7248d561a0bfd9d6","","","","","6032",""," ","key"," ","16.684598337950177","500","250","instBr3","-12","1","","40","0","0","300"
"","psychophysics","184","709907","0.0-184.0","57becf0ef93a2e0001ce7ce4","64de7c1e7248d561a0bfd9d6","","","","","631",""," ","key"," ","16.684864864863982","500","250","inst","","","","","","",""
"","psychophysics","185","712522","0.0-185.0","57becf0ef93a2e0001ce7ce4","64de7c1e7248d561a0bfd9d6","","","","","2613",""," ","key"," ","16.68438709677392","500","250","br","-13","1","1","-16","9","-10","213"
"","psychophysics","186","715962","0.0-186.0","57becf0ef93a2e0001ce7ce4","64de7c1e7248d561a0bfd9d6","","","","","3439",""," ","key"," ","16.684660194174374","500","250","br","-13","1","1","10","-13","-16","293"
"","psychophysics","187","720994","0.0-187.0","57becf0ef93a2e0001ce7ce4","64de7c1e7248d561a0bfd9d6","","","","","5030",""," ","key"," ","16.684533333333288","500","250","br","-14","1","1","25","-14","-4","201"
"","psychophysics","188","722619","0.0-188.0","57becf0ef93a2e0001ce7ce4","64de7c1e7248d561a0bfd9d6","","","","","1624",""," ","key"," ","16.684536082474466","500","250","br","-10","1","1","-8","-28","15","223"
"","psychophysics","189","727555","0.0-189.0","57becf0ef93a2e0001ce7ce4","64de7c1e7248d561a0bfd9d6","","","","","4933",""," ","key"," ","16.684489795918335","500","250","br","-17","1","1","4","-6","-29","297"
"","psychophysics","190","731915","0.0-190.0","57becf0ef93a2e0001ce7ce4","64de7c1e7248d561a0bfd9d6","","","","","4359",""," ","key"," ","16.684597701149176","500","250","br","-16","1","1","-21","14","-13","277"
"","psychophysics","191","735123","0.0-191.0","57becf0ef93a2e0001ce7ce4","64de7c1e7248d561a0bfd9d6","","","","","3207",""," ","key"," ","16.684397905759017","500","250","br","-12","1","1","-26","20","29","254"
"","psychophysics","192","738756","0.0-192.0","57becf0ef93a2e0001ce7ce4","64de7c1e7248d561a0bfd9d6","","","","","3631",""," ","key"," ","16.68442396313319","500","250","br","-14","1","1","22","4","-23","221"
"","psychophysics","193","741340","0.0-193.0","57becf0ef93a2e0001ce7ce4","64de7c1e7248d561a0bfd9d6","","","","","2581",""," ","key"," ","16.684545454545727","500","250","br","-18","1","1","0","-18","28","299"
"","psychophysics","194","745357","0.0-194.0","57becf0ef93a2e0001ce7ce4","64de7c1e7248d561a0bfd9d6","","","","","4014",""," ","key"," ","16.684435146443825","500","250","br","-16","1","1","23","-3","13","224"
"","psychophysics","195","747388","0.0-195.0","57becf0ef93a2e0001ce7ce4","64de7c1e7248d561a0bfd9d6","","","","","2030",""," ","key"," ","16.684628099173285","500","250","br","-14","1","1","-3","-19","-6","281"
"","psychophysics","196","749197","0.0-196.0","57becf0ef93a2e0001ce7ce4","64de7c1e7248d561a0bfd9d6","","","","","1808",""," ","key"," ","16.685000000000905","500","250","br","-18","1","1","-9","-28","28","205"
"","psychophysics","197","752734","0.0-197.0","57becf0ef93a2e0001ce7ce4","64de7c1e7248d561a0bfd9d6","","","","","3534",""," ","key"," ","16.684571428571473","500","250","br","-22","1","1","-8","6","19","294"
"","psychophysics","198","756692","0.0-198.0","57becf0ef93a2e0001ce7ce4","64de7c1e7248d561a0bfd9d6","","","","","3953",""," ","key"," ","16.684388185654303","500","250","br","-21","1","1","21","10","6","284"
"","psychophysics","199","758469","0.0-199.0","57becf0ef93a2e0001ce7ce4","64de7c1e7248d561a0bfd9d6","","","","","1775",""," ","key"," ","16.68438095238193","500","250","br","-20","1","1","-20","-7","-21","288"
"","psychophysics","200","759045","0.0-200.0","57becf0ef93a2e0001ce7ce4","64de7c1e7248d561a0bfd9d6","","","","","575",""," ","key"," ","16.684117647059097","500","250","inst","","","","","","",""
"","psychophysics","201","762494","0.0-201.0","57becf0ef93a2e0001ce7ce4","64de7c1e7248d561a0bfd9d6","","","","","3447",""," ","key"," ","16.6845853658535","500","250","instPog0","160","1","","190","0","0","160"
"","psychophysics","202","765078","0.0-202.0","57becf0ef93a2e0001ce7ce4","64de7c1e7248d561a0bfd9d6","","","","","2577",""," ","key"," ","16.684415584415735","500","250","instPog1","172","1","","190","0","0","160"
"","psychophysics","203","767718","0.0-203.0","57becf0ef93a2e0001ce7ce4","64de7c1e7248d561a0bfd9d6","","","","","2639",""," ","key"," ","16.68493670886132","500","250","instPog2","168","1","","160","0","0","160"
"","psychophysics","204","768205","0.0-204.0","57becf0ef93a2e0001ce7ce4","64de7c1e7248d561a0bfd9d6","","","","","485",""," ","key"," ","16.68499999999767","500","250","inst","","","","","","",""
"","psychophysics","205","770103","0.0-205.0","57becf0ef93a2e0001ce7ce4","64de7c1e7248d561a0bfd9d6","","","","","1896",""," ","key"," ","16.683928571428364","500","250","pog","172","1","1","206","0","0","154"
"","psychophysics","206","773093","0.0-206.0","57becf0ef93a2e0001ce7ce4","64de7c1e7248d561a0bfd9d6","","","","","2987",""," ","key"," ","16.68469273743048","500","250","pog","169","1","1","113","0","0","151"
"","psychophysics","207","776662","0.0-207.0","57becf0ef93a2e0001ce7ce4","64de7c1e7248d561a0bfd9d6","","","","","3568",""," ","key"," ","16.684600938966895","500","250","pog","218","1","1","178","0","0","200"
"","psychophysics","208","778343","0.0-208.0","57becf0ef93a2e0001ce7ce4","64de7c1e7248d561a0bfd9d6","","","","","1678",""," ","key"," ","16.68444444444336","500","250","pog","178","1","1","188","0","0","165"
"","psychophysics","209","780415","0.0-209.0","57becf0ef93a2e0001ce7ce4","64de7c1e7248d561a0bfd9d6","","","","","2072",""," ","key"," ","16.684354838709563","500","250","pog","158","1","1","122","0","0","150"
"","psychophysics","210","782159","0.0-210.0","57becf0ef93a2e0001ce7ce4","64de7c1e7248d561a0bfd9d6","","","","","1740",""," ","key"," ","16.68466019417494","500","250","pog","154","1","1","174","0","0","150"
"","psychophysics","211","785247","0.0-211.0","57becf0ef93a2e0001ce7ce4","64de7c1e7248d561a0bfd9d6","","","","","3086",""," ","key"," ","16.684673913043376","500","250","pog","213","1","1","105","0","0","195"
"","psychophysics","212","787768","0.0-212.0","57becf0ef93a2e0001ce7ce4","64de7c1e7248d561a0bfd9d6","","","","","2519",""," ","key"," ","16.684933333333273","500","250","pog","164","1","1","194","0","0","142"
"","psychophysics","213","790377","0.0-213.0","57becf0ef93a2e0001ce7ce4","64de7c1e7248d561a0bfd9d6","","","","","2607",""," ","key"," ","16.684615384614936","500","250","pog","152","1","1","176","0","0","134"
"","psychophysics","214","794023","0.0-214.0","57becf0ef93a2e0001ce7ce4","64de7c1e7248d561a0bfd9d6","","","","","3646",""," ","key"," ","16.6847004608293","500","250","pog","133","1","1","197","0","0","122"
"","psychophysics","215","797504","0.0-215.0","57becf0ef93a2e0001ce7ce4","64de7c1e7248d561a0bfd9d6","","","","","3480",""," ","key"," ","16.684903846154228","500","250","pog","198","1","1","176","0","0","188"
"","psychophysics","216","800143","0.0-216.0","57becf0ef93a2e0001ce7ce4","64de7c1e7248d561a0bfd9d6","","","","","2636",""," ","key"," ","16.68484076433133","500","250","pog","183","1","1","161","0","0","166"
"","psychophysics","217","802801","0.0-217.0","57becf0ef93a2e0001ce7ce4","64de7c1e7248d561a0bfd9d6","","","","","2654",""," ","key"," ","16.684683544303386","500","250","pog","151","1","1","141","0","0","131"
"","psychophysics","218","805033","0.0-218.0","57becf0ef93a2e0001ce7ce4","64de7c1e7248d561a0bfd9d6","","","","","2231",""," ","key"," ","16.684812030075747","500","250","pog","141","1","1","161","0","0","127"
"","psychophysics","219","807104","0.0-219.0","57becf0ef93a2e0001ce7ce4","64de7c1e7248d561a0bfd9d6","","","","","2070",""," ","key"," ","16.684715447154243","500","250","pog","172","1","1","146","0","0","151"
