"success","trial_type","trial_index","time_elapsed","internal_node_id","pid","sid","timeout","failed_images","failed_audio","failed_video","rt","stimulus","response","response_type","key_press","avg_frame_time","center_x","center_y","task","resp","version","block","jitterX","jitterY","start","parA"
"true","fullscreen","0","49868","0.0-0.0","63d45eb3b02798ba45f00225","64e50f452cdd0eb1e16f2c7a","","","","","","","","","","","","","","","","","","","",""
"true","preload","1","50461","0.0-1.0","63d45eb3b02798ba45f00225","64e50f452cdd0eb1e16f2c7a","false","[]","[]","[]","","","","","","","","","","","","","","","",""
"","html-button-response","2","51771","0.0-2.0","63d45eb3b02798ba45f00225","64e50f452cdd0eb1e16f2c7a","","","","","1307","Please Make Sure Your Audio Is On.","0","","","","","","","","","","","","",""
"","psychophysics","3","55269","0.0-3.0","63d45eb3b02798ba45f00225","64e50f452cdd0eb1e16f2c7a","","","","","3488",""," ","key"," ","16.747483253588527","768","250","","","","","","","",""
"","psychophysics","4","59532","0.0-4.0","63d45eb3b02798ba45f00225","64e50f452cdd0eb1e16f2c7a","","","","","4248",""," ","key"," ","16.667454901960788","500","250","inst","","","","","","",""
"","psychophysics","5","62307","0.0-5.0","63d45eb3b02798ba45f00225","64e50f452cdd0eb1e16f2c7a","","","","","2771",""," ","key"," ","16.669620481927705","500","250","sample0","","","","","","",""
"","psychophysics","6","64121","0.0-6.0","63d45eb3b02798ba45f00225","64e50f452cdd0eb1e16f2c7a","","","","","1811",""," ","key"," ","16.668560747663484","500","250","sample1","","","","","","",""
"","psychophysics","7","77102","0.0-7.0","63d45eb3b02798ba45f00225","64e50f452cdd0eb1e16f2c7a","","","","","12973",""," ","key"," ","16.66773264781491","500","250","sample2","100","","","","","",""
"","psychophysics","8","82053","0.0-8.0","63d45eb3b02798ba45f00225","64e50f452cdd0eb1e16f2c7a","","","","","4934",""," ","key"," ","16.667249999999978","500","250","sample3","100","","","","","",""
"","psychophysics","9","90864","0.0-9.0","63d45eb3b02798ba45f00225","64e50f452cdd0eb1e16f2c7a","","","","","8805",""," ","key"," ","16.66799431818182","500","250","sample4","100","","","","","",""
"","psychophysics","10","95988","0.0-10.0","63d45eb3b02798ba45f00225","64e50f452cdd0eb1e16f2c7a","","","","","5120",""," ","key"," ","16.66719934640523","500","250","sample5","","","","","","",""
"","psychophysics","11","101093","0.0-11.0","63d45eb3b02798ba45f00225","64e50f452cdd0eb1e16f2c7a","","","","","5099",""," ","key"," ","16.668232026143812","500","250","sample6","500","","","","","",""
"","psychophysics","12","106221","0.0-12.0","63d45eb3b02798ba45f00225","64e50f452cdd0eb1e16f2c7a","","","","","5125",""," ","key"," ","16.667166666666684","500","250","inst","","","","","","",""
"","psychophysics","13","109228","0.0-13.0","63d45eb3b02798ba45f00225","64e50f452cdd0eb1e16f2c7a","","","","","3000",""," ","key"," ","16.667761111111112","500","250","inst","","","","","","",""
"","psychophysics","14","111702","0.0-14.0","63d45eb3b02798ba45f00225","64e50f452cdd0eb1e16f2c7a","","","","","2471",""," ","key"," ","16.669367346938756","500","250","inst","","","","","","",""
"","psychophysics","15","114094","0.0-15.0","63d45eb3b02798ba45f00225","64e50f452cdd0eb1e16f2c7a","","","","","2389",""," ","key"," ","16.670944055944105","500","250","inst","","","","","","",""
"","psychophysics","16","115254","0.0-16.0","63d45eb3b02798ba45f00225","64e50f452cdd0eb1e16f2c7a","","","","","1158",""," ","key"," ","16.66776470588229","500","250","inst","","","","","","",""
"","psychophysics","17","119076","0.0-17.0","63d45eb3b02798ba45f00225","64e50f452cdd0eb1e16f2c7a","","","","","3815",""," ","key"," ","16.66734497816594","500","250","instBr0","0","","","0","0","0","300"
"","psychophysics","18","124477","0.0-18.0","63d45eb3b02798ba45f00225","64e50f452cdd0eb1e16f2c7a","","","","","5397",""," ","key"," ","16.668207430340576","500","250","instBr1","-1","","","0","0","-40","300"
"","psychophysics","19","131785","0.0-19.0","63d45eb3b02798ba45f00225","64e50f452cdd0eb1e16f2c7a","","","","","7305",""," ","key"," ","16.66733409610984","500","250","instBr3","23","2","","0","0","40","300"
"","psychophysics","20","133345","0.0-20.0","63d45eb3b02798ba45f00225","64e50f452cdd0eb1e16f2c7a","","","","","1557",""," ","key"," ","16.66760215053763","500","250","inst","","","","","","",""
"","psychophysics","21","136889","0.0-21.0","63d45eb3b02798ba45f00225","64e50f452cdd0eb1e16f2c7a","","","","","3540",""," ","key"," ","16.667374407582898","500","250","br","18","2","0","19","-1","9","226"
"","psychophysics","22","143764","0.0-22.0","63d45eb3b02798ba45f00225","64e50f452cdd0eb1e16f2c7a","","","","","6868",""," ","key"," ","16.668169902912602","500","250","br","19","2","0","10","-25","16","210"
"","psychophysics","23","148137","0.0-23.0","63d45eb3b02798ba45f00225","64e50f452cdd0eb1e16f2c7a","","","","","4369",""," ","key"," ","16.668340996168602","500","250","br","18","2","0","-13","-25","-2","239"
"","psychophysics","24","152004","0.0-24.0","63d45eb3b02798ba45f00225","64e50f452cdd0eb1e16f2c7a","","","","","3863",""," ","key"," ","16.668549783549775","500","250","br","20","2","0","-3","-5","25","215"
"","psychophysics","25","159845","0.0-25.0","63d45eb3b02798ba45f00225","64e50f452cdd0eb1e16f2c7a","","","","","7835",""," ","key"," ","16.667702127659528","500","250","br","24","2","0","20","17","-6","292"
"","psychophysics","26","165477","0.0-26.0","63d45eb3b02798ba45f00225","64e50f452cdd0eb1e16f2c7a","","","","","5629",""," ","key"," ","16.668367952522228","500","250","br","23","2","0","2","27","30","208"
"","psychophysics","27","168754","0.0-27.0","63d45eb3b02798ba45f00225","64e50f452cdd0eb1e16f2c7a","","","","","3273",""," ","key"," ","16.669574358974263","500","250","br","23","2","0","3","-18","12","252"
"","psychophysics","28","172767","0.0-28.0","63d45eb3b02798ba45f00225","64e50f452cdd0eb1e16f2c7a","","","","","4012",""," ","key"," ","16.66653749999993","500","250","br","24","2","0","11","-7","17","282"
"","psychophysics","29","175924","0.0-29.0","63d45eb3b02798ba45f00225","64e50f452cdd0eb1e16f2c7a","","","","","3153",""," ","key"," ","16.669248677248586","500","250","br","18","2","0","7","20","2","296"
"","psychophysics","30","180558","0.0-30.0","63d45eb3b02798ba45f00225","64e50f452cdd0eb1e16f2c7a","","","","","4631",""," ","key"," ","16.6687075812275","500","250","br","20","2","0","-27","-20","10","205"
"","psychophysics","31","185963","0.0-31.0","63d45eb3b02798ba45f00225","64e50f452cdd0eb1e16f2c7a","","","","","5401",""," ","key"," ","16.667594427244588","500","250","br","23","2","0","3","-16","19","206"
"","psychophysics","32","192276","0.0-32.0","63d45eb3b02798ba45f00225","64e50f452cdd0eb1e16f2c7a","","","","","6309",""," ","key"," ","16.66711640211636","500","250","br","23","2","0","-14","-26","9","282"
"","psychophysics","33","198143","0.0-33.0","63d45eb3b02798ba45f00225","64e50f452cdd0eb1e16f2c7a","","","","","5863",""," ","key"," ","16.66768376068373","500","250","br","19","2","0","29","18","-19","236"
"","psychophysics","34","201803","0.0-34.0","63d45eb3b02798ba45f00225","64e50f452cdd0eb1e16f2c7a","","","","","3656",""," ","key"," ","16.668091743119266","500","250","br","18","2","0","9","-24","-5","253"
"","psychophysics","35","205558","0.0-35.0","63d45eb3b02798ba45f00225","64e50f452cdd0eb1e16f2c7a","","","","","3749",""," ","key"," ","16.66735555555555","500","250","br","22","2","0","-17","24","27","225"
"","psychophysics","36","209088","0.0-36.0","63d45eb3b02798ba45f00225","64e50f452cdd0eb1e16f2c7a","","","","","3527",""," ","key"," ","16.668604761904792","500","250","inst","","","","","","",""
"","psychophysics","37","213095","0.0-37.0","63d45eb3b02798ba45f00225","64e50f452cdd0eb1e16f2c7a","","","","","4002",""," ","key"," ","16.66861666666676","500","250","instEB0","40","1","","0","0","40","40"
"","psychophysics","38","218162","0.0-38.0","63d45eb3b02798ba45f00225","64e50f452cdd0eb1e16f2c7a","","","","","5064",""," ","key"," ","16.667917491749225","500","250","instEB1","40","1","","0","0","40","30"
"","psychophysics","39","226720","0.0-39.0","63d45eb3b02798ba45f00225","64e50f452cdd0eb1e16f2c7a","","","","","8553",""," ","key"," ","16.667523437499995","500","250","instEB2","38","1","","0","0","30","40"
"","psychophysics","40","235817","0.0-40.0","63d45eb3b02798ba45f00225","64e50f452cdd0eb1e16f2c7a","","","","","9087",""," ","key"," ","16.668464220183477","500","250","instEB3","41","1","","0","0","27","45"
"","psychophysics","41","238817","0.0-41.0","63d45eb3b02798ba45f00225","64e50f452cdd0eb1e16f2c7a","","","","","2995",""," ","key"," ","16.66751955307265","500","250","instEB4","27","1","","0","0","40","30"
"","psychophysics","42","240036","0.0-42.0","63d45eb3b02798ba45f00225","64e50f452cdd0eb1e16f2c7a","","","","","1217",""," ","key"," ","16.66593055555576","500","250","inst","","","","","","",""
"","psychophysics","43","245867","0.0-43.0","63d45eb3b02798ba45f00225","64e50f452cdd0eb1e16f2c7a","","","","","5826",""," ","key"," ","16.66861318051573","500","250","eb","44","1","","0","0","28","52"
"","psychophysics","44","252947","0.0-44.0","63d45eb3b02798ba45f00225","64e50f452cdd0eb1e16f2c7a","","","","","7075",""," ","key"," ","16.66668396226415","500","250","eb","42","1","","0","0","46","46"
"","psychophysics","45","258881","0.0-45.0","63d45eb3b02798ba45f00225","64e50f452cdd0eb1e16f2c7a","","","","","5929",""," ","key"," ","16.66825070422541","500","250","eb","49","1","","0","0","30","53"
"","psychophysics","46","263155","0.0-46.0","63d45eb3b02798ba45f00225","64e50f452cdd0eb1e16f2c7a","","","","","4270",""," ","key"," ","16.6683764705883","500","250","eb","40","1","","0","0","28","42"
"","psychophysics","47","269010","0.0-47.0","63d45eb3b02798ba45f00225","64e50f452cdd0eb1e16f2c7a","","","","","5850",""," ","key"," ","16.667345714285705","500","250","eb","43","1","","0","0","54","48"
"","psychophysics","48","274700","0.0-48.0","63d45eb3b02798ba45f00225","64e50f452cdd0eb1e16f2c7a","","","","","5683",""," ","key"," ","16.6673695014662","500","250","eb","30","1","","0","0","46","33"
"","psychophysics","49","281096","0.0-49.0","63d45eb3b02798ba45f00225","64e50f452cdd0eb1e16f2c7a","","","","","6392",""," ","key"," ","16.66806020942414","500","250","eb","27","1","","0","0","25","28"
"","psychophysics","50","289111","0.0-50.0","63d45eb3b02798ba45f00225","64e50f452cdd0eb1e16f2c7a","","","","","null","","null","key","null","16.666629166666585","500","250","eb","38","1","","0","0","38","41"
"","psychophysics","51","289232","0.0-51.0","63d45eb3b02798ba45f00225","64e50f452cdd0eb1e16f2c7a","","","","","117",""," ","key"," ","16.668714285720075","500","250","eb","27","1","","0","0","27","45"
"","psychophysics","52","293951","0.0-52.0","63d45eb3b02798ba45f00225","64e50f452cdd0eb1e16f2c7a","","","","","4715",""," ","key"," ","16.668287234042534","500","250","eb","21","1","","0","0","26","24"
"","psychophysics","53","300819","0.0-53.0","63d45eb3b02798ba45f00225","64e50f452cdd0eb1e16f2c7a","","","","","6863",""," ","key"," ","16.66800729927002","500","250","eb","40","1","","0","0","25","44"
"","psychophysics","54","305818","0.0-54.0","63d45eb3b02798ba45f00225","64e50f452cdd0eb1e16f2c7a","","","","","4995",""," ","key"," ","16.667812709030027","500","250","eb","39","1","","0","0","34","42"
"","psychophysics","55","309386","0.0-55.0","63d45eb3b02798ba45f00225","64e50f452cdd0eb1e16f2c7a","","","","","3564",""," ","key"," ","16.66848356807506","500","250","eb","42","1","","0","0","33","47"
"","psychophysics","56","314334","0.0-56.0","63d45eb3b02798ba45f00225","64e50f452cdd0eb1e16f2c7a","","","","","4944",""," ","key"," ","16.667516891891964","500","250","eb","28","1","","0","0","30","32"
"","psychophysics","57","317132","0.0-57.0","63d45eb3b02798ba45f00225","64e50f452cdd0eb1e16f2c7a","","","","","2793",""," ","key"," ","16.66593373493966","500","250","eb","41","1","","0","0","32","48"
"","psychophysics","58","318144","0.0-58.0","63d45eb3b02798ba45f00225","64e50f452cdd0eb1e16f2c7a","","","","","1006",""," ","key"," ","16.66965000000006","500","250","inst","","","","","","",""
"","psychophysics","59","323129","0.0-59.0","63d45eb3b02798ba45f00225","64e50f452cdd0eb1e16f2c7a","","","","","4982",""," ","key"," ","16.668771812080518","500","250","instZol0","0","","","0","0","0",""
"","psychophysics","60","329489","0.0-60.0","63d45eb3b02798ba45f00225","64e50f452cdd0eb1e16f2c7a","","","","","6355",""," ","key"," ","16.66803937007886","500","250","instZol1","2.7755575615628914e-17","","","0","0","-1.3",""
"","psychophysics","61","345169","0.0-61.0","63d45eb3b02798ba45f00225","64e50f452cdd0eb1e16f2c7a","","","","","15675",""," ","key"," ","16.667319148936137","500","250","instZol2","-4.4","2","","0","0","2",""
"","psychophysics","62","346068","0.0-62.0","63d45eb3b02798ba45f00225","64e50f452cdd0eb1e16f2c7a","","","","","896",""," ","key"," ","16.66707547169886","500","250","inst","","","","","","",""
"","psychophysics","63","350987","0.0-63.0","63d45eb3b02798ba45f00225","64e50f452cdd0eb1e16f2c7a","","","","","4914",""," ","key"," ","16.668210884353833","500","250","zol","-2.250000000000001","2","0","-10","5","0.65",""
"","psychophysics","64","356763","0.0-64.0","63d45eb3b02798ba45f00225","64e50f452cdd0eb1e16f2c7a","","","","","5771",""," ","key"," ","16.668121739130374","500","250","zol","-1.4400000000000004","2","0","-13","20","0.14",""
"","psychophysics","65","362294","0.0-65.0","63d45eb3b02798ba45f00225","64e50f452cdd0eb1e16f2c7a","","","","","5525",""," ","key"," ","16.668317220543774","500","250","zol","-1.4800000000000002","2","0","21","29","0.28",""
"","psychophysics","66","365632","0.0-66.0","63d45eb3b02798ba45f00225","64e50f452cdd0eb1e16f2c7a","","","","","3329",""," ","key"," ","16.667954773869397","500","250","zol","-1.3400000000000003","2","0","25","5","0.14",""
"","psychophysics","67","368382","0.0-67.0","63d45eb3b02798ba45f00225","64e50f452cdd0eb1e16f2c7a","","","","","2743",""," ","key"," ","16.666743902439144","500","250","zol","-1.3500000000000003","2","0","-16","20","0.55",""
"","psychophysics","68","373554","0.0-68.0","63d45eb3b02798ba45f00225","64e50f452cdd0eb1e16f2c7a","","","","","5165",""," ","key"," ","16.667574193548493","500","250","zol","-2.210000000000001","2","0","-23","12","-0.19",""
"","psychophysics","69","381568","0.0-69.0","63d45eb3b02798ba45f00225","64e50f452cdd0eb1e16f2c7a","","","","","null","","null","key","null","16.667288100208754","500","250","zol","-1.8300000000000005","2","0","15","4","0.43",""
"","psychophysics","70","389578","0.0-70.0","63d45eb3b02798ba45f00225","64e50f452cdd0eb1e16f2c7a","","","","","null","","null","key","null","16.666431249999974","500","250","zol","-3.750000000000002","2","0","-27","-17","0.45",""
"","psychophysics","71","394724","0.0-71.0","63d45eb3b02798ba45f00225","64e50f452cdd0eb1e16f2c7a","","","","","5137",""," ","key"," ","16.668590909090838","500","250","zol","-0.9099999999999999","2","0","-29","-7","-0.49",""
"","psychophysics","72","397609","0.0-72.0","63d45eb3b02798ba45f00225","64e50f452cdd0eb1e16f2c7a","","","","","2879",""," ","key"," ","16.667325581395513","500","250","zol","-1.4600000000000002","2","0","1","-13","-0.74",""
"","psychophysics","73","399543","0.0-73.0","63d45eb3b02798ba45f00225","64e50f452cdd0eb1e16f2c7a","","","","","1929",""," ","key"," ","16.667295652173927","500","250","zol","-1.2400000000000002","2","0","-3","22","-0.46",""
"","psychophysics","74","401491","0.0-74.0","63d45eb3b02798ba45f00225","64e50f452cdd0eb1e16f2c7a","","","","","1943",""," ","key"," ","16.66969827586205","500","250","zol","-1.3800000000000001","2","0","23","-24","-0.02",""
"","psychophysics","75","403624","0.0-75.0","63d45eb3b02798ba45f00225","64e50f452cdd0eb1e16f2c7a","","","","","2129",""," ","key"," ","16.670763779527373","500","250","zol","-1.7100000000000006","2","0","-9","9","0.71",""
"","psychophysics","76","405447","0.0-76.0","63d45eb3b02798ba45f00225","64e50f452cdd0eb1e16f2c7a","","","","","1818",""," ","key"," ","16.669879629629712","500","250","zol","-1.3100000000000003","2","0","22","-10","-0.29",""
"","psychophysics","77","410443","0.0-77.0","63d45eb3b02798ba45f00225","64e50f452cdd0eb1e16f2c7a","","","","","4989",""," ","key"," ","16.668270903010114","500","250","zol","-2.400000000000001","2","0","-23","10","0.3",""
"","psychophysics","78","411439","0.0-78.0","63d45eb3b02798ba45f00225","64e50f452cdd0eb1e16f2c7a","","","","","994",""," ","key"," ","16.67208474576256","500","250","inst","","","","","","",""
"","psychophysics","79","417496","0.0-79.0","63d45eb3b02798ba45f00225","64e50f452cdd0eb1e16f2c7a","","","","","6041",""," ","key"," ","16.667488950276386","500","250","instPog0","370","2","","0","0","370","340"
"","psychophysics","80","428076","0.0-80.0","63d45eb3b02798ba45f00225","64e50f452cdd0eb1e16f2c7a","","","","","10576",""," ","key"," ","16.667608832807517","500","250","instPog1","350","2","","0","0","370","340"
"","psychophysics","81","431855","0.0-81.0","63d45eb3b02798ba45f00225","64e50f452cdd0eb1e16f2c7a","","","","","3777",""," ","key"," ","16.667663716814385","500","250","instPog2","336","2","","0","0","340","340"
"","psychophysics","82","432812","0.0-82.0","63d45eb3b02798ba45f00225","64e50f452cdd0eb1e16f2c7a","","","","","954",""," ","key"," ","16.67110714285705","500","250","inst","","","","","","",""
"","psychophysics","83","435983","0.0-83.0","63d45eb3b02798ba45f00225","64e50f452cdd0eb1e16f2c7a","","","","","3167",""," ","key"," ","16.668814814814905","500","250","pog","361","2","0","0","0","367","374"
"","psychophysics","84","438973","0.0-84.0","63d45eb3b02798ba45f00225","64e50f452cdd0eb1e16f2c7a","","","","","2985",""," ","key"," ","16.66763128491617","500","250","pog","338","2","0","0","0","354","334"
"","psychophysics","85","443020","0.0-85.0","63d45eb3b02798ba45f00225","64e50f452cdd0eb1e16f2c7a","","","","","4043",""," ","key"," ","16.66769709543584","500","250","pog","300","2","0","0","0","336","303"
"","psychophysics","86","449490","0.0-86.0","63d45eb3b02798ba45f00225","64e50f452cdd0eb1e16f2c7a","","","","","6465",""," ","key"," ","16.66798195876295","500","250","pog","367","2","0","0","0","327","380"
"","psychophysics","87","453900","0.0-87.0","63d45eb3b02798ba45f00225","64e50f452cdd0eb1e16f2c7a","","","","","4406",""," ","key"," ","16.668787072243358","500","250","pog","328","2","0","0","0","390","341"
"","psychophysics","88","457454","0.0-88.0","63d45eb3b02798ba45f00225","64e50f452cdd0eb1e16f2c7a","","","","","3548",""," ","key"," ","16.668646226414943","500","250","pog","281","2","0","0","0","315","304"
"","psychophysics","89","459385","0.0-89.0","63d45eb3b02798ba45f00225","64e50f452cdd0eb1e16f2c7a","","","","","1926",""," ","key"," ","16.671443478260493","500","250","pog","325","2","0","0","0","325","332"
"","psychophysics","90","466932","0.0-90.0","63d45eb3b02798ba45f00225","64e50f452cdd0eb1e16f2c7a","","","","","7533",""," ","key"," ","16.66743805309741","500","250","pog","316","2","0","0","0","396","320"
"","psychophysics","91","468943","0.0-91.0","63d45eb3b02798ba45f00225","64e50f452cdd0eb1e16f2c7a","","","","","2007",""," ","key"," ","16.66966666666655","500","250","pog","336","2","0","0","0","344","337"
"","psychophysics","92","471483","0.0-92.0","63d45eb3b02798ba45f00225","64e50f452cdd0eb1e16f2c7a","","","","","2545",""," ","key"," ","16.668921052631433","500","250","pog","345","2","0","0","0","385","327"
"","psychophysics","93","473253","0.0-93.0","63d45eb3b02798ba45f00225","64e50f452cdd0eb1e16f2c7a","","","","","1767",""," ","key"," ","16.670161904762168","500","250","pog","335","2","0","0","0","335","313"
"","psychophysics","94","477156","0.0-94.0","63d45eb3b02798ba45f00225","64e50f452cdd0eb1e16f2c7a","","","","","3899",""," ","key"," ","16.667523605150198","500","250","pog","294","2","0","0","0","384","300"
"","psychophysics","95","478038","0.0-95.0","63d45eb3b02798ba45f00225","64e50f452cdd0eb1e16f2c7a","","","","","879",""," ","key"," ","16.672923076923606","500","250","pog","327","2","0","0","0","327","320"
"","psychophysics","96","484563","0.0-96.0","63d45eb3b02798ba45f00225","64e50f452cdd0eb1e16f2c7a","","","","","6522",""," ","key"," ","16.66681794871797","500","250","pog","324","2","0","0","0","280","345"
"","psychophysics","97","490175","0.0-97.0","63d45eb3b02798ba45f00225","64e50f452cdd0eb1e16f2c7a","","","","","5606",""," ","key"," ","16.668199404761772","500","250","pog","303","2","0","0","0","377","313"
"","psychophysics","98","495231","0.0-98.0","63d45eb3b02798ba45f00225","64e50f452cdd0eb1e16f2c7a","","","","","5053",""," ","key"," ","16.668099337748355","500","250","inst","","","","","","",""
"","psychophysics","99","498069","0.0-99.0","63d45eb3b02798ba45f00225","64e50f452cdd0eb1e16f2c7a","","","","","2833",""," ","key"," ","16.6680235294115","500","250","instPzPre","50","0","","","","50","50"
"","psychophysics","100","500737","0.0-100.0","63d45eb3b02798ba45f00225","64e50f452cdd0eb1e16f2c7a","","","","","2665",""," ","key"," ","16.670006289307917","500","250","instPz0","50","1","","","","50","50"
"","psychophysics","101","507868","0.0-101.0","63d45eb3b02798ba45f00225","64e50f452cdd0eb1e16f2c7a","","","","","7127",""," ","key"," ","16.66746370023415","500","250","instPz1","56","1","","","","25","50"
"","psychophysics","102","510224","0.0-102.0","63d45eb3b02798ba45f00225","64e50f452cdd0eb1e16f2c7a","","","","","2353",""," ","key"," ","16.668792857142815","500","250","instPz2","25","1","","","","35","20"
"","psychophysics","103","517994","0.0-103.0","63d45eb3b02798ba45f00225","64e50f452cdd0eb1e16f2c7a","","","","","7766",""," ","key"," ","16.668010752688172","500","250","instPz3","100","1","","","","100","30"
"","psychophysics","104","525201","0.0-104.0","63d45eb3b02798ba45f00225","64e50f452cdd0eb1e16f2c7a","","","","","7201",""," ","key"," ","16.668076388888746","500","250","instPz4","92","1","","","","100","30"
"","psychophysics","105","525894","0.0-105.0","63d45eb3b02798ba45f00225","64e50f452cdd0eb1e16f2c7a","","","","","690",""," ","key"," ","16.667300000000978","500","250","inst","","","","","","",""
"","psychophysics","106","532445","0.0-106.0","63d45eb3b02798ba45f00225","64e50f452cdd0eb1e16f2c7a","","","","","6539",""," ","key"," ","16.66789030612236","500","250","pz","77","1","0","","","52","58"
"","psychophysics","107","535693","0.0-107.0","63d45eb3b02798ba45f00225","64e50f452cdd0eb1e16f2c7a","","","","","3243",""," ","key"," ","16.66607731958784","500","250","pz","60","1","0","","","28","44"
"","psychophysics","108","540046","0.0-108.0","63d45eb3b02798ba45f00225","64e50f452cdd0eb1e16f2c7a","","","","","4350",""," ","key"," ","16.667265384615614","500","250","pz","78","1","0","","","56","54"
"","psychophysics","109","547493","0.0-109.0","63d45eb3b02798ba45f00225","64e50f452cdd0eb1e16f2c7a","","","","","7443",""," ","key"," ","16.66747757847522","500","250","pz","112","1","0","","","49","58"
"","psychophysics","110","553461","0.0-110.0","63d45eb3b02798ba45f00225","64e50f452cdd0eb1e16f2c7a","","","","","5964",""," ","key"," ","16.667714285714478","500","250","pz","121","1","0","","","42","60"
"","psychophysics","111","555144","0.0-111.0","63d45eb3b02798ba45f00225","64e50f452cdd0eb1e16f2c7a","","","","","1679",""," ","key"," ","16.66951000000001","500","250","pz","45","1","0","","","45","24"
"","psychophysics","112","561305","0.0-112.0","63d45eb3b02798ba45f00225","64e50f452cdd0eb1e16f2c7a","","","","","6157",""," ","key"," ","16.66779076086981","500","250","pz","90","1","0","","","37","44"
"","psychophysics","113","564709","0.0-113.0","63d45eb3b02798ba45f00225","64e50f452cdd0eb1e16f2c7a","","","","","3397",""," ","key"," ","16.668837438423527","500","250","pz","66","1","0","","","58","33"
"","psychophysics","114","569255","0.0-114.0","63d45eb3b02798ba45f00225","64e50f452cdd0eb1e16f2c7a","","","","","4541",""," ","key"," ","16.66829411764689","500","250","pz","103","1","0","","","53","55"
"","psychophysics","115","572092","0.0-115.0","63d45eb3b02798ba45f00225","64e50f452cdd0eb1e16f2c7a","","","","","2821",""," ","key"," ","16.668988165680524","500","250","pz","73","1","0","","","43","33"
"","psychophysics","116","573945","0.0-116.0","63d45eb3b02798ba45f00225","64e50f452cdd0eb1e16f2c7a","","","","","1848",""," ","key"," ","16.670054054054482","500","250","pz","56","1","0","","","56","28"
"","psychophysics","117","579880","0.0-117.0","63d45eb3b02798ba45f00225","64e50f452cdd0eb1e16f2c7a","","","","","5931",""," ","key"," ","16.66803661971845","500","250","pz","119","1","0","","","29","59"
"","psychophysics","118","582570","0.0-118.0","63d45eb3b02798ba45f00225","64e50f452cdd0eb1e16f2c7a","","","","","2686",""," ","key"," ","16.668118750000577","500","250","pz","49","1","0","","","38","25"
"","psychophysics","119","586845","0.0-119.0","63d45eb3b02798ba45f00225","64e50f452cdd0eb1e16f2c7a","","","","","4270",""," ","key"," ","16.667386718750095","500","250","pz","88","1","0","","","57","41"
"","psychophysics","120","588709","0.0-120.0","63d45eb3b02798ba45f00225","64e50f452cdd0eb1e16f2c7a","","","","","1860",""," ","key"," ","16.66966363636417","500","250","pz","48","1","0","","","41","23"
"","psychophysics","121","591396","0.0-121.0","63d45eb3b02798ba45f00225","64e50f452cdd0eb1e16f2c7a","","","","","2680",""," ","key"," ","16.667279503105775","500","250","inst","","","","","","",""
"","psychophysics","122","597269","0.0-122.0","63d45eb3b02798ba45f00225","64e50f452cdd0eb1e16f2c7a","","","","","5870",""," ","key"," ","16.667689458689615","500","250","instZol1","2.7755575615628914e-17","","","0","0","-1.3",""
"","psychophysics","123","604382","0.0-123.0","63d45eb3b02798ba45f00225","64e50f452cdd0eb1e16f2c7a","","","","","7108",""," ","key"," ","16.667359154929677","500","250","instZol2","2.3000000000000016","1","","0","0","2",""
"","psychophysics","124","605146","0.0-124.0","63d45eb3b02798ba45f00225","64e50f452cdd0eb1e16f2c7a","","","","","761",""," ","key"," ","16.660977777779205","500","250","inst","","","","","","",""
"","psychophysics","125","609276","0.0-125.0","63d45eb3b02798ba45f00225","64e50f452cdd0eb1e16f2c7a","","","","","4125",""," ","key"," ","16.66830894308935","500","250","zol","1.2400000000000002","1","1","2","19","-0.64",""
"","psychophysics","126","611997","0.0-126.0","63d45eb3b02798ba45f00225","64e50f452cdd0eb1e16f2c7a","","","","","2713",""," ","key"," ","16.669282208588918","500","250","zol","2.0800000000000005","1","1","13","18","0.12",""
"","psychophysics","127","614649","0.0-127.0","63d45eb3b02798ba45f00225","64e50f452cdd0eb1e16f2c7a","","","","","2647",""," ","key"," ","16.664841772152165","500","250","zol","2.0500000000000007","1","1","11","23","-0.65",""
"","psychophysics","128","617339","0.0-128.0","63d45eb3b02798ba45f00225","64e50f452cdd0eb1e16f2c7a","","","","","2685",""," ","key"," ","16.668843750000086","500","250","zol","1.17","1","1","-22","24","0.53",""
"","psychophysics","129","619904","0.0-129.0","63d45eb3b02798ba45f00225","64e50f452cdd0eb1e16f2c7a","","","","","2561",""," ","key"," ","16.668973856209167","500","250","zol","1.7700000000000005","1","1","20","-30","-0.57",""
"","psychophysics","130","622791","0.0-130.0","63d45eb3b02798ba45f00225","64e50f452cdd0eb1e16f2c7a","","","","","2882",""," ","key"," ","16.669220930232726","500","250","zol","1.26","1","1","-27","-30","-0.26",""
"","psychophysics","131","626990","0.0-131.0","63d45eb3b02798ba45f00225","64e50f452cdd0eb1e16f2c7a","","","","","4192",""," ","key"," ","16.66852589641453","500","250","zol","1.9300000000000008","1","1","20","23","-0.13",""
"","psychophysics","132","629501","0.0-132.0","63d45eb3b02798ba45f00225","64e50f452cdd0eb1e16f2c7a","","","","","2504",""," ","key"," ","16.667626666666475","500","250","zol","1.16","1","1","6","-24","0.64",""
"","psychophysics","133","632216","0.0-133.0","63d45eb3b02798ba45f00225","64e50f452cdd0eb1e16f2c7a","","","","","2709",""," ","key"," ","16.667234567900902","500","250","zol","1.5400000000000005","1","1","-17","-29","0.16",""
"","psychophysics","134","634064","0.0-134.0","63d45eb3b02798ba45f00225","64e50f452cdd0eb1e16f2c7a","","","","","1844",""," ","key"," ","16.668490909090774","500","250","zol","0.9199999999999999","1","1","-10","18","0.58",""
"","psychophysics","135","637201","0.0-135.0","63d45eb3b02798ba45f00225","64e50f452cdd0eb1e16f2c7a","","","","","3132",""," ","key"," ","16.66715508021407","500","250","zol","0.8499999999999999","1","1","-27","3","-0.35",""
"","psychophysics","136","640204","0.0-136.0","63d45eb3b02798ba45f00225","64e50f452cdd0eb1e16f2c7a","","","","","2998",""," ","key"," ","16.667251396648503","500","250","zol","0.9799999999999999","1","1","-12","20","0.02",""
"","psychophysics","137","642090","0.0-137.0","63d45eb3b02798ba45f00225","64e50f452cdd0eb1e16f2c7a","","","","","1881",""," ","key"," ","16.6702142857144","500","250","zol","1.3800000000000001","1","1","-23","-15","-0.58",""
"","psychophysics","138","648454","0.0-138.0","63d45eb3b02798ba45f00225","64e50f452cdd0eb1e16f2c7a","","","","","6359",""," ","key"," ","16.668412073490913","500","250","zol","0.6199999999999998","1","1","26","29","0.68",""
"","psychophysics","139","650593","0.0-139.0","63d45eb3b02798ba45f00225","64e50f452cdd0eb1e16f2c7a","","","","","2133",""," ","key"," ","16.669866141732086","500","250","zol","1.18","1","1","-28","14","0.32",""
"","psychophysics","140","655338","0.0-140.0","63d45eb3b02798ba45f00225","64e50f452cdd0eb1e16f2c7a","","","","","4739",""," ","key"," ","16.66828521126783","500","250","inst","","","","","","",""
"","psychophysics","141","661407","0.0-141.0","63d45eb3b02798ba45f00225","64e50f452cdd0eb1e16f2c7a","","","","","6065",""," ","key"," ","16.667415977961426","500","250","instPog0","160","1","","0","0","190","160"
"","psychophysics","142","666418","0.0-142.0","63d45eb3b02798ba45f00225","64e50f452cdd0eb1e16f2c7a","","","","","5009",""," ","key"," ","16.66804333333353","500","250","instPog1","172","1","","0","0","190","160"
"","psychophysics","143","670143","0.0-143.0","63d45eb3b02798ba45f00225","64e50f452cdd0eb1e16f2c7a","","","","","3722",""," ","key"," ","16.66570720720726","500","250","instPog2","170","1","","0","0","160","160"
"","psychophysics","144","670778","0.0-144.0","63d45eb3b02798ba45f00225","64e50f452cdd0eb1e16f2c7a","","","","","629",""," ","key"," ","16.669378378378177","500","250","inst","","","","","","",""
"","psychophysics","145","673100","0.0-145.0","63d45eb3b02798ba45f00225","64e50f452cdd0eb1e16f2c7a","","","","","2316",""," ","key"," ","16.668906474820165","500","250","pog","137","1","1","0","0","135","120"
"","psychophysics","146","675434","0.0-146.0","63d45eb3b02798ba45f00225","64e50f452cdd0eb1e16f2c7a","","","","","2331",""," ","key"," ","16.667841726618402","500","250","pog","173","1","1","0","0","161","166"
"","psychophysics","147","678473","0.0-147.0","63d45eb3b02798ba45f00225","64e50f452cdd0eb1e16f2c7a","","","","","3036",""," ","key"," ","16.668955801105003","500","250","pog","182","1","1","0","0","150","165"
"","psychophysics","148","680948","0.0-148.0","63d45eb3b02798ba45f00225","64e50f452cdd0eb1e16f2c7a","","","","","2472",""," ","key"," ","16.66577027027017","500","250","pog","155","1","1","0","0","161","131"
"","psychophysics","149","683889","0.0-149.0","63d45eb3b02798ba45f00225","64e50f452cdd0eb1e16f2c7a","","","","","2936",""," ","key"," ","16.66790285714237","500","250","pog","168","1","1","0","0","142","148"
"","psychophysics","150","687065","0.0-150.0","63d45eb3b02798ba45f00225","64e50f452cdd0eb1e16f2c7a","","","","","3173",""," ","key"," ","16.668289473684087","500","250","pog","181","1","1","0","0","209","157"
"","psychophysics","151","689350","0.0-151.0","63d45eb3b02798ba45f00225","64e50f452cdd0eb1e16f2c7a","","","","","2281",""," ","key"," ","16.66924264705877","500","250","pog","140","1","1","0","0","130","124"
"","psychophysics","152","692513","0.0-152.0","63d45eb3b02798ba45f00225","64e50f452cdd0eb1e16f2c7a","","","","","3159",""," ","key"," ","16.667138297872448","500","250","pog","193","1","1","0","0","167","179"
"","psychophysics","153","696005","0.0-153.0","63d45eb3b02798ba45f00225","64e50f452cdd0eb1e16f2c7a","","","","","3487",""," ","key"," ","16.668722488038448","500","250","pog","213","1","1","0","0","117","187"
"","psychophysics","154","698342","0.0-154.0","63d45eb3b02798ba45f00225","64e50f452cdd0eb1e16f2c7a","","","","","2334",""," ","key"," ","16.669172661870604","500","250","pog","162","1","1","0","0","122","134"
"","psychophysics","155","700450","0.0-155.0","63d45eb3b02798ba45f00225","64e50f452cdd0eb1e16f2c7a","","","","","2104",""," ","key"," ","16.6671428571433","500","250","pog","161","1","1","0","0","189","129"
"","psychophysics","156","702959","0.0-156.0","63d45eb3b02798ba45f00225","64e50f452cdd0eb1e16f2c7a","","","","","2506",""," ","key"," ","16.66942953020131","500","250","pog","178","1","1","0","0","102","143"
"","psychophysics","157","705870","0.0-157.0","63d45eb3b02798ba45f00225","64e50f452cdd0eb1e16f2c7a","","","","","2906",""," ","key"," ","16.66876436781604","500","250","pog","214","1","1","0","0","150","184"
"","psychophysics","158","708374","0.0-158.0","63d45eb3b02798ba45f00225","64e50f452cdd0eb1e16f2c7a","","","","","2501",""," ","key"," ","16.66568456375862","500","250","pog","197","1","1","0","0","219","167"
"","psychophysics","159","711388","0.0-159.0","63d45eb3b02798ba45f00225","64e50f452cdd0eb1e16f2c7a","","","","","3012",""," ","key"," ","16.666166666666847","500","250","pog","197","1","1","0","0","125","159"
"","psychophysics","160","712066","0.0-160.0","63d45eb3b02798ba45f00225","64e50f452cdd0eb1e16f2c7a","","","","","675",""," ","key"," ","16.670925000001443","500","250","inst","","","","","","",""
"","psychophysics","161","720580","0.0-161.0","63d45eb3b02798ba45f00225","64e50f452cdd0eb1e16f2c7a","","","","","8510",""," ","key"," ","16.66743025540288","500","250","instBr3","-11","1","","0","0","40","300"
"","psychophysics","162","721373","0.0-162.0","63d45eb3b02798ba45f00225","64e50f452cdd0eb1e16f2c7a","","","","","788",""," ","key"," ","16.667212765958617","500","250","inst","","","","","","",""
"","psychophysics","163","724391","0.0-163.0","63d45eb3b02798ba45f00225","64e50f452cdd0eb1e16f2c7a","","","","","3015",""," ","key"," ","16.669605555555446","500","250","br","-14","1","1","22","4","20","249"
"","psychophysics","164","728456","0.0-164.0","63d45eb3b02798ba45f00225","64e50f452cdd0eb1e16f2c7a","","","","","4062",""," ","key"," ","16.66850617283921","500","250","br","-12","1","1","-4","-21","3","247"
"","psychophysics","165","731116","0.0-165.0","63d45eb3b02798ba45f00225","64e50f452cdd0eb1e16f2c7a","","","","","2656",""," ","key"," ","16.667685534591264","500","250","br","-12","1","1","19","22","24","240"
"","psychophysics","166","733908","0.0-166.0","63d45eb3b02798ba45f00225","64e50f452cdd0eb1e16f2c7a","","","","","2788",""," ","key"," ","16.66893373493944","500","250","br","-13","1","1","11","-1","20","259"
"","psychophysics","167","736191","0.0-167.0","63d45eb3b02798ba45f00225","64e50f452cdd0eb1e16f2c7a","","","","","2279",""," ","key"," ","16.667419117646848","500","250","br","-16","1","1","-14","5","10","261"
"","psychophysics","168","740064","0.0-168.0","63d45eb3b02798ba45f00225","64e50f452cdd0eb1e16f2c7a","","","","","3868",""," ","key"," ","16.668757575757606","500","250","br","-18","1","1","22","-30","7","274"
"","psychophysics","169","742658","0.0-169.0","63d45eb3b02798ba45f00225","64e50f452cdd0eb1e16f2c7a","","","","","2588",""," ","key"," ","16.669141935484273","500","250","br","-17","1","1","-28","-14","17","298"
"","psychophysics","170","746719","0.0-170.0","63d45eb3b02798ba45f00225","64e50f452cdd0eb1e16f2c7a","","","","","4057",""," ","key"," ","16.668539094650512","500","250","br","-8","1","1","-25","0","23","214"
"","psychophysics","171","749232","0.0-171.0","63d45eb3b02798ba45f00225","64e50f452cdd0eb1e16f2c7a","","","","","2510",""," ","key"," ","16.66675167785248","500","250","br","-15","1","1","28","14","6","284"
"","psychophysics","172","752741","0.0-172.0","63d45eb3b02798ba45f00225","64e50f452cdd0eb1e16f2c7a","","","","","3503",""," ","key"," ","16.66813333333315","500","250","br","-16","1","1","1","16","-16","249"
"","psychophysics","173","757100","0.0-173.0","63d45eb3b02798ba45f00225","64e50f452cdd0eb1e16f2c7a","","","","","4356",""," ","key"," ","16.66839999999994","500","250","br","-9","1","1","8","-29","10","267"
"","psychophysics","174","763785","0.0-174.0","63d45eb3b02798ba45f00225","64e50f452cdd0eb1e16f2c7a","","","","","6680",""," ","key"," ","16.6673965087283","500","250","br","-13","1","1","-23","-19","-26","210"
"","psychophysics","175","767215","0.0-175.0","63d45eb3b02798ba45f00225","64e50f452cdd0eb1e16f2c7a","","","","","3425",""," ","key"," ","16.66853921568619","500","250","br","-17","1","1","-23","13","-7","258"
"","psychophysics","176","770384","0.0-176.0","63d45eb3b02798ba45f00225","64e50f452cdd0eb1e16f2c7a","","","","","3162",""," ","key"," ","16.666322751322433","500","250","br","-12","1","1","28","1","0","232"
"","psychophysics","177","771769","0.0-177.0","63d45eb3b02798ba45f00225","64e50f452cdd0eb1e16f2c7a","","","","","1379",""," ","key"," ","16.66750602409698","500","250","br","-18","1","1","13","29","-17","221"
"","psychophysics","178","825690","0.0-178.0","63d45eb3b02798ba45f00225","64e50f452cdd0eb1e16f2c7a","","","","","53917",""," ","key"," ","16.667301484230077","500","250","inst","","","","","","",""
"","psychophysics","179","832443","0.0-179.0","63d45eb3b02798ba45f00225","64e50f452cdd0eb1e16f2c7a","","","","","6749",""," ","key"," ","16.668024752475205","500","250","instPz1","47","2","","","","25","50"
"","psychophysics","180","834876","0.0-180.0","63d45eb3b02798ba45f00225","64e50f452cdd0eb1e16f2c7a","","","","","2430",""," ","key"," ","16.66909655172394","500","250","instPz2","38","2","","","","20","35"
"","psychophysics","181","836435","0.0-181.0","63d45eb3b02798ba45f00225","64e50f452cdd0eb1e16f2c7a","","","","","1554",""," ","key"," ","16.672923913043316","500","250","instPz3","30","2","","","","30","100"
"","psychophysics","182","842240","0.0-182.0","63d45eb3b02798ba45f00225","64e50f452cdd0eb1e16f2c7a","","","","","5797",""," ","key"," ","16.66659482758614","500","250","instPz4","44","2","","","","30","100"
"","psychophysics","183","842930","0.0-183.0","63d45eb3b02798ba45f00225","64e50f452cdd0eb1e16f2c7a","","","","","687",""," ","key"," ","16.675","500","250","inst","","","","","","",""
"","psychophysics","184","849061","0.0-184.0","63d45eb3b02798ba45f00225","64e50f452cdd0eb1e16f2c7a","","","","","6127",""," ","key"," ","16.668125340599588","500","250","pz","30","2","1","","","60","47"
"","psychophysics","185","853167","0.0-185.0","63d45eb3b02798ba45f00225","64e50f452cdd0eb1e16f2c7a","","","","","4102",""," ","key"," ","16.66848163265326","500","250","pz","20","2","1","","","40","29"
"","psychophysics","186","857319","0.0-186.0","63d45eb3b02798ba45f00225","64e50f452cdd0eb1e16f2c7a","","","","","4146",""," ","key"," ","16.668153225806176","500","250","pz","25","2","1","","","40","42"
"","psychophysics","187","859352","0.0-187.0","63d45eb3b02798ba45f00225","64e50f452cdd0eb1e16f2c7a","","","","","2026",""," ","key"," ","16.669636363636947","500","250","pz","30","2","1","","","30","53"
"","psychophysics","188","862194","0.0-188.0","63d45eb3b02798ba45f00225","64e50f452cdd0eb1e16f2c7a","","","","","2836",""," ","key"," ","16.664776470588166","500","250","pz","27","2","1","","","20","45"
"","psychophysics","189","867976","0.0-189.0","63d45eb3b02798ba45f00225","64e50f452cdd0eb1e16f2c7a","","","","","5778",""," ","key"," ","16.66665895953788","500","250","pz","24","2","1","","","56","37"
"","psychophysics","190","871748","0.0-190.0","63d45eb3b02798ba45f00225","64e50f452cdd0eb1e16f2c7a","","","","","3768",""," ","key"," ","16.6671466666667","500","250","pz","30","2","1","","","35","43"
"","psychophysics","191","876103","0.0-191.0","63d45eb3b02798ba45f00225","64e50f452cdd0eb1e16f2c7a","","","","","4351",""," ","key"," ","16.667430769230346","500","250","pz","35","2","1","","","46","54"
"","psychophysics","192","880377","0.0-192.0","63d45eb3b02798ba45f00225","64e50f452cdd0eb1e16f2c7a","","","","","4268",""," ","key"," ","16.66839062500003","500","250","pz","33","2","1","","","45","48"
"","psychophysics","193","886265","0.0-193.0","63d45eb3b02798ba45f00225","64e50f452cdd0eb1e16f2c7a","","","","","5884",""," ","key"," ","16.66738636363615","500","250","pz","29","2","1","","","51","51"
"","psychophysics","194","891416","0.0-194.0","63d45eb3b02798ba45f00225","64e50f452cdd0eb1e16f2c7a","","","","","5148",""," ","key"," ","16.668500000000144","500","250","pz","30","2","1","","","60","48"
"","psychophysics","195","895708","0.0-195.0","63d45eb3b02798ba45f00225","64e50f452cdd0eb1e16f2c7a","","","","","4288",""," ","key"," ","16.666463035019294","500","250","pz","26","2","1","","","50","40"
"","psychophysics","196","899546","0.0-196.0","63d45eb3b02798ba45f00225","64e50f452cdd0eb1e16f2c7a","","","","","3834",""," ","key"," ","16.66719213973804","500","250","pz","17","2","1","","","30","22"
"","psychophysics","197","904160","0.0-197.0","63d45eb3b02798ba45f00225","64e50f452cdd0eb1e16f2c7a","","","","","4609",""," ","key"," ","16.668557971014483","500","250","pz","21","2","1","","","25","34"
"","psychophysics","198","912148","0.0-198.0","63d45eb3b02798ba45f00225","64e50f452cdd0eb1e16f2c7a","","","","","7984",""," ","key"," ","16.6679037656902","500","250","pz","31","2","1","","","50","47"
"","psychophysics","199","913238","0.0-199.0","63d45eb3b02798ba45f00225","64e50f452cdd0eb1e16f2c7a","","","","","1088",""," ","key"," ","16.671125000000757","500","250","inst","","","","","","",""
"","psychophysics","200","919700","0.0-200.0","63d45eb3b02798ba45f00225","64e50f452cdd0eb1e16f2c7a","","","","","6456",""," ","key"," ","16.667710594315494","500","250","instEB1","40","2","","0","0","30","40"
"","psychophysics","201","925519","0.0-201.0","63d45eb3b02798ba45f00225","64e50f452cdd0eb1e16f2c7a","","","","","5815",""," ","key"," ","16.667479885057627","500","250","instEB2","36","2","","0","0","40","30"
"","psychophysics","202","931877","0.0-202.0","63d45eb3b02798ba45f00225","64e50f452cdd0eb1e16f2c7a","","","","","6354",""," ","key"," ","16.66751968503925","500","250","instEB3","34","2","","0","0","45","27"
"","psychophysics","203","939361","0.0-203.0","63d45eb3b02798ba45f00225","64e50f452cdd0eb1e16f2c7a","","","","","7481",""," ","key"," ","16.66793303571441","500","250","instEB4","47","2","","0","0","30","40"
"","psychophysics","204","940158","0.0-204.0","63d45eb3b02798ba45f00225","64e50f452cdd0eb1e16f2c7a","","","","","793",""," ","key"," ","16.672934782607786","500","250","inst","","","","","","",""
"","psychophysics","205","945122","0.0-205.0","63d45eb3b02798ba45f00225","64e50f452cdd0eb1e16f2c7a","","","","","4957",""," ","key"," ","16.667380471380667","500","250","eb","64","2","","0","0","34","54"
"","psychophysics","206","950712","0.0-206.0","63d45eb3b02798ba45f00225","64e50f452cdd0eb1e16f2c7a","","","","","5585",""," ","key"," ","16.669274626865832","500","250","eb","45","2","","0","0","39","35"
"","psychophysics","207","955326","0.0-207.0","63d45eb3b02798ba45f00225","64e50f452cdd0eb1e16f2c7a","","","","","4609",""," ","key"," ","16.66841666666627","500","250","eb","57","2","","0","0","47","52"
"","psychophysics","208","958387","0.0-208.0","63d45eb3b02798ba45f00225","64e50f452cdd0eb1e16f2c7a","","","","","3056",""," ","key"," ","16.66888461538506","500","250","eb","35","2","","0","0","29","27"
"","psychophysics","209","962642","0.0-209.0","63d45eb3b02798ba45f00225","64e50f452cdd0eb1e16f2c7a","","","","","4249",""," ","key"," ","16.6674588235296","500","250","eb","30","2","","0","0","24","25"
"","psychophysics","210","966830","0.0-210.0","63d45eb3b02798ba45f00225","64e50f452cdd0eb1e16f2c7a","","","","","4183",""," ","key"," ","16.667391999999992","500","250","eb","52","2","","0","0","46","50"
"","psychophysics","211","971116","0.0-211.0","63d45eb3b02798ba45f00225","64e50f452cdd0eb1e16f2c7a","","","","","4282",""," ","key"," ","16.668531249999887","500","250","eb","46","2","","0","0","50","42"
"","psychophysics","212","978819","0.0-212.0","63d45eb3b02798ba45f00225","64e50f452cdd0eb1e16f2c7a","","","","","7698",""," ","key"," ","16.667355748373","500","250","eb","27","2","","0","0","32","24"
"","psychophysics","213","983814","0.0-213.0","63d45eb3b02798ba45f00225","64e50f452cdd0eb1e16f2c7a","","","","","4990",""," ","key"," ","16.667394648829358","500","250","eb","58","2","","0","0","35","54"
"","psychophysics","214","989186","0.0-214.0","63d45eb3b02798ba45f00225","64e50f452cdd0eb1e16f2c7a","","","","","5368",""," ","key"," ","16.668112149532462","500","250","eb","43","2","","0","0","30","36"
"","psychophysics","215","993585","0.0-215.0","63d45eb3b02798ba45f00225","64e50f452cdd0eb1e16f2c7a","","","","","4386",""," ","key"," ","16.65555893536126","500","250","eb","59","2","","0","0","32","54"
"","psychophysics","216","998023","0.0-216.0","63d45eb3b02798ba45f00225","64e50f452cdd0eb1e16f2c7a","","","","","4434",""," ","key"," ","16.667849056603703","500","250","eb","55","2","","0","0","25","49"
"","psychophysics","217","1001738","0.0-217.0","63d45eb3b02798ba45f00225","64e50f452cdd0eb1e16f2c7a","","","","","3709",""," ","key"," ","16.668666666666745","500","250","eb","29","2","","0","0","52","25"
"","psychophysics","218","1006607","0.0-218.0","63d45eb3b02798ba45f00225","64e50f452cdd0eb1e16f2c7a","","","","","4861",""," ","key"," ","16.667237113401953","500","250","eb","53","2","","0","0","38","44"
"","psychophysics","219","1008950","0.0-219.0","63d45eb3b02798ba45f00225","64e50f452cdd0eb1e16f2c7a","","","","","2337",""," ","key"," ","16.667285714285182","500","250","eb","49","2","","0","0","48","47"
