"success","trial_type","trial_index","time_elapsed","internal_node_id","pid","sid","timeout","failed_images","failed_audio","failed_video","rt","stimulus","response","response_type","key_press","avg_frame_time","center_x","center_y","task","resp","version","block","jitterX","jitterY","start","parA"
"true","fullscreen","0","2783","0.0-0.0","636558deffacf6b4af41ae6b","64de7d2b7d27b3d7e2e9e234","","","","","","","","","","","","","","","","","","","",""
"true","preload","1","3636","0.0-1.0","636558deffacf6b4af41ae6b","64de7d2b7d27b3d7e2e9e234","false","[]","[]","[]","","","","","","","","","","","","","","","",""
"","html-button-response","2","13348","0.0-2.0","636558deffacf6b4af41ae6b","64de7d2b7d27b3d7e2e9e234","","","","","9709","Please Make Sure Your Audio Is On.","0","","","","","","","","","","","","",""
"","psychophysics","3","45242","0.0-3.0","636558deffacf6b4af41ae6b","64de7d2b7d27b3d7e2e9e234","","","","","31845",""," ","key"," ","19.98940564263323","840","250","","","","","","","",""
"","psychophysics","4","47366","0.0-4.0","636558deffacf6b4af41ae6b","64de7d2b7d27b3d7e2e9e234","","","","","2041",""," ","key"," ","17.492413223140513","500","250","inst","","","","","","",""
"","psychophysics","5","49996","0.0-5.0","636558deffacf6b4af41ae6b","64de7d2b7d27b3d7e2e9e234","","","","","2627",""," ","key"," ","16.665999999999986","500","250","sample0","","","","","","",""
"","psychophysics","6","52373","0.0-6.0","636558deffacf6b4af41ae6b","64de7d2b7d27b3d7e2e9e234","","","","","2375",""," ","key"," ","16.666","500","250","sample1","","","","","","",""
"","psychophysics","7","61961","0.0-7.0","636558deffacf6b4af41ae6b","64de7d2b7d27b3d7e2e9e234","","","","","9573",""," ","key"," ","16.666","500","250","sample2","100","","","","","",""
"","psychophysics","8","65726","0.0-8.0","636558deffacf6b4af41ae6b","64de7d2b7d27b3d7e2e9e234","","","","","3762",""," ","key"," ","16.742736607142856","500","250","sample3","98","","","","","",""
"","psychophysics","9","77860","0.0-9.0","636558deffacf6b4af41ae6b","64de7d2b7d27b3d7e2e9e234","","","","","12132",""," ","key"," ","16.688955922865016","500","250","sample4","100","","","","","",""
"","psychophysics","10","81566","0.0-10.0","636558deffacf6b4af41ae6b","64de7d2b7d27b3d7e2e9e234","","","","","3703",""," ","key"," ","16.666000000000007","500","250","sample5","","","","","","",""
"","psychophysics","11","87046","0.0-11.0","636558deffacf6b4af41ae6b","64de7d2b7d27b3d7e2e9e234","","","","","5479",""," ","key"," ","16.667597560975636","500","250","sample6","500","","","","","",""
"","psychophysics","12","91039","0.0-12.0","636558deffacf6b4af41ae6b","64de7d2b7d27b3d7e2e9e234","","","","","3991",""," ","key"," ","16.665999999999997","500","250","inst","","","","","","",""
"","psychophysics","13","96239","0.0-13.0","636558deffacf6b4af41ae6b","64de7d2b7d27b3d7e2e9e234","","","","","5197",""," ","key"," ","16.66600000000001","500","250","inst","","","","","","",""
"","psychophysics","14","101697","0.0-14.0","636558deffacf6b4af41ae6b","64de7d2b7d27b3d7e2e9e234","","","","","5457",""," ","key"," ","16.665999999999983","500","250","inst","","","","","","",""
"","psychophysics","15","103011","0.0-15.0","636558deffacf6b4af41ae6b","64de7d2b7d27b3d7e2e9e234","","","","","1312",""," ","key"," ","16.672717948718063","500","250","inst","","","","","","",""
"","psychophysics","16","105676","0.0-16.0","636558deffacf6b4af41ae6b","64de7d2b7d27b3d7e2e9e234","","","","","2664",""," ","key"," ","16.666","500","250","inst","","","","","","",""
"","psychophysics","17","109860","0.0-17.0","636558deffacf6b4af41ae6b","64de7d2b7d27b3d7e2e9e234","","","","","4182",""," ","key"," ","16.666","500","250","instZol0","0","","","0","0","0",""
"","psychophysics","18","124246","0.0-18.0","636558deffacf6b4af41ae6b","64de7d2b7d27b3d7e2e9e234","","","","","14383",""," ","key"," ","16.66660672853829","500","250","instZol1","2.7755575615628914e-17","","","0","0","-1.3",""
"","psychophysics","19","140328","0.0-19.0","636558deffacf6b4af41ae6b","64de7d2b7d27b3d7e2e9e234","","","","","16078",""," ","key"," ","16.666000000000004","500","250","instZol2","0.6000000000000008","1","","0","0","2",""
"","psychophysics","20","142846","0.0-20.0","636558deffacf6b4af41ae6b","64de7d2b7d27b3d7e2e9e234","","","","","2515",""," ","key"," ","16.669493333333328","500","250","inst","","","","","","",""
"","psychophysics","21","149597","0.0-21.0","636558deffacf6b4af41ae6b","64de7d2b7d27b3d7e2e9e234","","","","","6743",""," ","key"," ","16.666000000000032","500","250","zol","0.7899999999999999","1","0","4","28","-0.19",""
"","psychophysics","22","156609","0.0-22.0","636558deffacf6b4af41ae6b","64de7d2b7d27b3d7e2e9e234","","","","","7009",""," ","key"," ","16.666000000000004","500","250","zol","0.09999999999999998","1","0","-27","-9","0.6",""
"","psychophysics","23","163019","0.0-23.0","636558deffacf6b4af41ae6b","64de7d2b7d27b3d7e2e9e234","","","","","6407",""," ","key"," ","16.66736814621406","500","250","zol","0.59","1","0","-20","-29","-0.49",""
"","psychophysics","24","171023","0.0-24.0","636558deffacf6b4af41ae6b","64de7d2b7d27b3d7e2e9e234","","","","","null","","null","key","null","16.666000000000047","500","250","zol","0.81","1","0","14","1","-0.71",""
"","psychophysics","25","171231","0.0-25.0","636558deffacf6b4af41ae6b","64de7d2b7d27b3d7e2e9e234","","","","","205",""," ","key"," ","16.666000000000086","500","250","zol","0.01","1","0","3","-27","-0.01",""
"","psychophysics","26","179242","0.0-26.0","636558deffacf6b4af41ae6b","64de7d2b7d27b3d7e2e9e234","","","","","null","","null","key","null","16.66599999999999","500","250","zol","0.5299999999999999","1","0","-27","-15","0.67",""
"","psychophysics","27","185461","0.0-27.0","636558deffacf6b4af41ae6b","64de7d2b7d27b3d7e2e9e234","","","","","6212",""," ","key"," ","16.667402144772094","500","250","zol","0.62","1","0","28","27","0.18",""
"","psychophysics","28","190564","0.0-28.0","636558deffacf6b4af41ae6b","64de7d2b7d27b3d7e2e9e234","","","","","5101",""," ","key"," ","16.666000000000015","500","250","zol","0.71","1","0","-17","-26","0.09",""
"","psychophysics","29","198572","0.0-29.0","636558deffacf6b4af41ae6b","64de7d2b7d27b3d7e2e9e234","","","","","null","","null","key","null","16.66600000000005","500","250","zol","0.8899999999999999","1","0","6","-22","-0.59",""
"","psychophysics","30","206186","0.0-30.0","636558deffacf6b4af41ae6b","64de7d2b7d27b3d7e2e9e234","","","","","7609",""," ","key"," ","16.70378021978022","500","250","zol","0.5","1","0","4","8","0.7",""
"","psychophysics","31","211827","0.0-31.0","636558deffacf6b4af41ae6b","64de7d2b7d27b3d7e2e9e234","","","","","5638",""," ","key"," ","16.665999999999936","500","250","zol","0.7799999999999999","1","0","-24","-12","0.02",""
"","psychophysics","32","215775","0.0-32.0","636558deffacf6b4af41ae6b","64de7d2b7d27b3d7e2e9e234","","","","","3945",""," ","key"," ","16.66600000000003","500","250","zol","0.7499999999999999","1","0","-30","23","0.05",""
"","psychophysics","33","219328","0.0-33.0","636558deffacf6b4af41ae6b","64de7d2b7d27b3d7e2e9e234","","","","","3549",""," ","key"," ","16.666000000000047","500","250","zol","0.51","1","0","15","29","0.49",""
"","psychophysics","34","227333","0.0-34.0","636558deffacf6b4af41ae6b","64de7d2b7d27b3d7e2e9e234","","","","","null","","null","key","null","16.66709394572025","500","250","zol","1.03","1","0","18","-9","-0.03",""
"","psychophysics","35","235342","0.0-35.0","636558deffacf6b4af41ae6b","64de7d2b7d27b3d7e2e9e234","","","","","null","","null","key","null","16.66599999999999","500","250","zol","0.92","1","0","-23","-9","-0.42",""
"","psychophysics","36","236500","0.0-36.0","636558deffacf6b4af41ae6b","64de7d2b7d27b3d7e2e9e234","","","","","1156",""," ","key"," ","16.66599999999997","500","250","inst","","","","","","",""
"","psychophysics","37","238635","0.0-37.0","636558deffacf6b4af41ae6b","64de7d2b7d27b3d7e2e9e234","","","","","2130",""," ","key"," ","16.66599999999996","500","250","instEB0","40","1","","0","0","40","40"
"","psychophysics","38","245466","0.0-38.0","636558deffacf6b4af41ae6b","64de7d2b7d27b3d7e2e9e234","","","","","6830",""," ","key"," ","16.667281173594144","500","250","instEB1","32","1","","0","0","40","30"
"","psychophysics","39","250069","0.0-39.0","636558deffacf6b4af41ae6b","64de7d2b7d27b3d7e2e9e234","","","","","4601",""," ","key"," ","16.66599999999998","500","250","instEB2","36","1","","0","0","30","40"
"","psychophysics","40","256377","0.0-40.0","636558deffacf6b4af41ae6b","64de7d2b7d27b3d7e2e9e234","","","","","6305",""," ","key"," ","16.66599999999998","500","250","instEB3","36","1","","0","0","27","45"
"","psychophysics","41","261793","0.0-41.0","636558deffacf6b4af41ae6b","64de7d2b7d27b3d7e2e9e234","","","","","5414",""," ","key"," ","16.666000000000043","500","250","instEB4","32","1","","0","0","40","30"
"","psychophysics","42","262860","0.0-42.0","636558deffacf6b4af41ae6b","64de7d2b7d27b3d7e2e9e234","","","","","1066",""," ","key"," ","16.674301587302047","500","250","inst","","","","","","",""
"","psychophysics","43","268328","0.0-43.0","636558deffacf6b4af41ae6b","64de7d2b7d27b3d7e2e9e234","","","","","5466",""," ","key"," ","16.66599999999984","500","250","eb","44","1","","0","0","33","52"
"","psychophysics","44","276336","0.0-44.0","636558deffacf6b4af41ae6b","64de7d2b7d27b3d7e2e9e234","","","","","null","","null","key","null","16.66600000000005","500","250","eb","25","1","","0","0","51","25"
"","psychophysics","45","276384","0.0-45.0","636558deffacf6b4af41ae6b","64de7d2b7d27b3d7e2e9e234","","","","","45",""," ","key"," ","16.66599999999744","500","250","eb","40","1","","0","0","40","27"
"","psychophysics","46","282365","0.0-46.0","636558deffacf6b4af41ae6b","64de7d2b7d27b3d7e2e9e234","","","","","5978",""," ","key"," ","16.665999999999876","500","250","eb","25","1","","0","0","42","27"
"","psychophysics","47","284295","0.0-47.0","636558deffacf6b4af41ae6b","64de7d2b7d27b3d7e2e9e234","","","","","1927",""," ","key"," ","16.670556521739144","500","250","eb","40","1","","0","0","40","41"
"","psychophysics","48","286608","0.0-48.0","636558deffacf6b4af41ae6b","64de7d2b7d27b3d7e2e9e234","","","","","2311",""," ","key"," ","16.665999999999777","500","250","eb","46","1","","0","0","46","50"
"","psychophysics","49","290935","0.0-49.0","636558deffacf6b4af41ae6b","64de7d2b7d27b3d7e2e9e234","","","","","4322",""," ","key"," ","16.66600000000002","500","250","eb","43","1","","0","0","41","45"
"","psychophysics","50","294160","0.0-50.0","636558deffacf6b4af41ae6b","64de7d2b7d27b3d7e2e9e234","","","","","3223",""," ","key"," ","16.666000000000004","500","250","eb","33","1","","0","0","41","39"
"","psychophysics","51","297558","0.0-51.0","636558deffacf6b4af41ae6b","64de7d2b7d27b3d7e2e9e234","","","","","3395",""," ","key"," ","16.665999999999745","500","250","eb","25","1","","0","0","39","28"
"","psychophysics","52","301475","0.0-52.0","636558deffacf6b4af41ae6b","64de7d2b7d27b3d7e2e9e234","","","","","3912",""," ","key"," ","16.665999999999926","500","250","eb","24","1","","0","0","39","24"
"","psychophysics","53","304574","0.0-53.0","636558deffacf6b4af41ae6b","64de7d2b7d27b3d7e2e9e234","","","","","3094",""," ","key"," ","16.75942391304346","500","250","eb","35","1","","0","0","37","39"
"","psychophysics","54","307761","0.0-54.0","636558deffacf6b4af41ae6b","64de7d2b7d27b3d7e2e9e234","","","","","3177",""," ","key"," ","16.66600000000003","500","250","eb","44","1","","0","0","40","54"
"","psychophysics","55","311827","0.0-55.0","636558deffacf6b4af41ae6b","64de7d2b7d27b3d7e2e9e234","","","","","4064",""," ","key"," ","16.665999999999954","500","250","eb","37","1","","0","0","35","43"
"","psychophysics","56","317328","0.0-56.0","636558deffacf6b4af41ae6b","64de7d2b7d27b3d7e2e9e234","","","","","5498",""," ","key"," ","16.666000000000004","500","250","eb","28","1","","0","0","54","27"
"","psychophysics","57","320477","0.0-57.0","636558deffacf6b4af41ae6b","64de7d2b7d27b3d7e2e9e234","","","","","3147",""," ","key"," ","16.665999999999915","500","250","eb","34","1","","0","0","38","38"
"","psychophysics","58","321227","0.0-58.0","636558deffacf6b4af41ae6b","64de7d2b7d27b3d7e2e9e234","","","","","749",""," ","key"," ","16.666000000000086","500","250","inst","","","","","","",""
"","psychophysics","59","325386","0.0-59.0","636558deffacf6b4af41ae6b","64de7d2b7d27b3d7e2e9e234","","","","","4156",""," ","key"," ","16.66810887096794","500","250","instBr0","0","","","0","0","0","300"
"","psychophysics","60","334277","0.0-60.0","636558deffacf6b4af41ae6b","64de7d2b7d27b3d7e2e9e234","","","","","8889",""," ","key"," ","16.666000000000004","500","250","instBr1","1","","","0","0","-40","300"
"","psychophysics","61","342469","0.0-61.0","636558deffacf6b4af41ae6b","64de7d2b7d27b3d7e2e9e234","","","","","8190",""," ","key"," ","16.665999999999933","500","250","instBr3","22","2","","0","0","40","300"
"","psychophysics","62","343191","0.0-62.0","636558deffacf6b4af41ae6b","64de7d2b7d27b3d7e2e9e234","","","","","721",""," ","key"," ","16.678499999999378","500","250","inst","","","","","","",""
"","psychophysics","63","346148","0.0-63.0","636558deffacf6b4af41ae6b","64de7d2b7d27b3d7e2e9e234","","","","","2953",""," ","key"," ","16.665999999999904","500","250","br","15","2","0","-5","28","2","205"
"","psychophysics","64","351097","0.0-64.0","636558deffacf6b4af41ae6b","64de7d2b7d27b3d7e2e9e234","","","","","4947",""," ","key"," ","16.665999999999997","500","250","br","12","2","0","-1","-21","-14","285"
"","psychophysics","65","356735","0.0-65.0","636558deffacf6b4af41ae6b","64de7d2b7d27b3d7e2e9e234","","","","","5636",""," ","key"," ","16.665999999999944","500","250","br","21","2","0","-25","16","-12","290"
"","psychophysics","66","360631","0.0-66.0","636558deffacf6b4af41ae6b","64de7d2b7d27b3d7e2e9e234","","","","","3893",""," ","key"," ","16.66600000000006","500","250","br","19","2","0","23","20","-3","210"
"","psychophysics","67","365686","0.0-67.0","636558deffacf6b4af41ae6b","64de7d2b7d27b3d7e2e9e234","","","","","5053",""," ","key"," ","16.667731788079564","500","250","br","14","2","0","28","-16","-20","202"
"","psychophysics","68","370439","0.0-68.0","636558deffacf6b4af41ae6b","64de7d2b7d27b3d7e2e9e234","","","","","4751",""," ","key"," ","16.666000000000103","500","250","br","15","2","0","19","11","-25","206"
"","psychophysics","69","371691","0.0-69.0","636558deffacf6b4af41ae6b","64de7d2b7d27b3d7e2e9e234","","","","","1250",""," ","key"," ","16.666000000000587","500","250","br","18","2","0","17","0","16","271"
"","psychophysics","70","377229","0.0-70.0","636558deffacf6b4af41ae6b","64de7d2b7d27b3d7e2e9e234","","","","","5537",""," ","key"," ","16.666000000000068","500","250","br","22","2","0","-11","-17","-14","239"
"","psychophysics","71","379772","0.0-71.0","636558deffacf6b4af41ae6b","64de7d2b7d27b3d7e2e9e234","","","","","2540",""," ","key"," ","16.66600000000033","500","250","br","17","2","0","10","-12","3","202"
"","psychophysics","72","383108","0.0-72.0","636558deffacf6b4af41ae6b","64de7d2b7d27b3d7e2e9e234","","","","","3334",""," ","key"," ","16.66863316582924","500","250","br","15","2","0","2","21","-14","257"
"","psychophysics","73","385563","0.0-73.0","636558deffacf6b4af41ae6b","64de7d2b7d27b3d7e2e9e234","","","","","2452",""," ","key"," ","16.66600000000001","500","250","br","17","2","0","-14","-22","0","258"
"","psychophysics","74","388968","0.0-74.0","636558deffacf6b4af41ae6b","64de7d2b7d27b3d7e2e9e234","","","","","3403",""," ","key"," ","16.665999999999876","500","250","br","24","2","0","5","-12","-7","281"
"","psychophysics","75","394453","0.0-75.0","636558deffacf6b4af41ae6b","64de7d2b7d27b3d7e2e9e234","","","","","5483",""," ","key"," ","16.665999999999922","500","250","br","19","2","0","-2","-4","-26","284"
"","psychophysics","76","399420","0.0-76.0","636558deffacf6b4af41ae6b","64de7d2b7d27b3d7e2e9e234","","","","","4965",""," ","key"," ","16.66599999999989","500","250","br","16","2","0","-27","-12","-30","200"
"","psychophysics","77","400794","0.0-77.0","636558deffacf6b4af41ae6b","64de7d2b7d27b3d7e2e9e234","","","","","1372",""," ","key"," ","16.665999999999567","500","250","br","21","2","0","8","-20","20","267"
"","psychophysics","78","401559","0.0-78.0","636558deffacf6b4af41ae6b","64de7d2b7d27b3d7e2e9e234","","","","","763",""," ","key"," ","16.66599999999938","500","250","inst","","","","","","",""
"","psychophysics","79","409366","0.0-79.0","636558deffacf6b4af41ae6b","64de7d2b7d27b3d7e2e9e234","","","","","7804",""," ","key"," ","16.66711991434686","500","250","instPog0","340","2","","0","0","370","340"
"","psychophysics","80","415382","0.0-80.0","636558deffacf6b4af41ae6b","64de7d2b7d27b3d7e2e9e234","","","","","6014",""," ","key"," ","16.666000000000025","500","250","instPog1","350","2","","0","0","370","340"
"","psychophysics","81","420310","0.0-81.0","636558deffacf6b4af41ae6b","64de7d2b7d27b3d7e2e9e234","","","","","4926",""," ","key"," ","16.666000000000103","500","250","instPog2","328","2","","0","0","340","340"
"","psychophysics","82","420998","0.0-82.0","636558deffacf6b4af41ae6b","64de7d2b7d27b3d7e2e9e234","","","","","685",""," ","key"," ","16.66600000000035","500","250","inst","","","","","","",""
"","psychophysics","83","425863","0.0-83.0","636558deffacf6b4af41ae6b","64de7d2b7d27b3d7e2e9e234","","","","","4864",""," ","key"," ","16.66780068728508","500","250","pog","304","2","0","0","0","288","325"
"","psychophysics","84","428278","0.0-84.0","636558deffacf6b4af41ae6b","64de7d2b7d27b3d7e2e9e234","","","","","2413",""," ","key"," ","16.665999999999865","500","250","pog","362","2","0","0","0","372","371"
"","psychophysics","85","436284","0.0-85.0","636558deffacf6b4af41ae6b","64de7d2b7d27b3d7e2e9e234","","","","","null","","null","key","null","16.66599999999993","500","250","pog","367","2","0","0","0","373","378"
"","psychophysics","86","438450","0.0-86.0","636558deffacf6b4af41ae6b","64de7d2b7d27b3d7e2e9e234","","","","","2164",""," ","key"," ","16.665999999999922","500","250","pog","286","2","0","0","0","288","310"
"","psychophysics","87","444505","0.0-87.0","636558deffacf6b4af41ae6b","64de7d2b7d27b3d7e2e9e234","","","","","6049",""," ","key"," ","16.6674475138121","500","250","pog","300","2","0","0","0","400","307"
"","psychophysics","88","449716","0.0-88.0","636558deffacf6b4af41ae6b","64de7d2b7d27b3d7e2e9e234","","","","","5210",""," ","key"," ","16.66600000000005","500","250","pog","312","2","0","0","0","400","323"
"","psychophysics","89","454316","0.0-89.0","636558deffacf6b4af41ae6b","64de7d2b7d27b3d7e2e9e234","","","","","4598",""," ","key"," ","16.665999999999872","500","250","pog","297","2","0","0","0","369","310"
"","psychophysics","90","457103","0.0-90.0","636558deffacf6b4af41ae6b","64de7d2b7d27b3d7e2e9e234","","","","","2785",""," ","key"," ","16.665999999999894","500","250","pog","286","2","0","0","0","316","308"
"","psychophysics","91","460126","0.0-91.0","636558deffacf6b4af41ae6b","64de7d2b7d27b3d7e2e9e234","","","","","3021",""," ","key"," ","16.666000000000025","500","250","pog","361","2","0","0","0","353","378"
"","psychophysics","92","465547","0.0-92.0","636558deffacf6b4af41ae6b","64de7d2b7d27b3d7e2e9e234","","","","","5419",""," ","key"," ","16.667609230769227","500","250","pog","347","2","0","0","0","389","361"
"","psychophysics","93","467547","0.0-93.0","636558deffacf6b4af41ae6b","64de7d2b7d27b3d7e2e9e234","","","","","1999",""," ","key"," ","16.66599999999964","500","250","pog","351","2","0","0","0","357","360"
"","psychophysics","94","471035","0.0-94.0","636558deffacf6b4af41ae6b","64de7d2b7d27b3d7e2e9e234","","","","","3486",""," ","key"," ","16.665999999999958","500","250","pog","338","2","0","0","0","386","348"
"","psychophysics","95","473393","0.0-95.0","636558deffacf6b4af41ae6b","64de7d2b7d27b3d7e2e9e234","","","","","2357",""," ","key"," ","16.665999999999933","500","250","pog","349","2","0","0","0","355","355"
"","psychophysics","96","478946","0.0-96.0","636558deffacf6b4af41ae6b","64de7d2b7d27b3d7e2e9e234","","","","","5550",""," ","key"," ","16.66600000000015","500","250","pog","339","2","0","0","0","281","360"
"","psychophysics","97","484895","0.0-97.0","636558deffacf6b4af41ae6b","64de7d2b7d27b3d7e2e9e234","","","","","5947",""," ","key"," ","16.667471910112347","500","250","pog","299","2","0","0","0","397","309"
"","psychophysics","98","485646","0.0-98.0","636558deffacf6b4af41ae6b","64de7d2b7d27b3d7e2e9e234","","","","","750",""," ","key"," ","16.66599999999947","500","250","inst","","","","","","",""
"","psychophysics","99","487148","0.0-99.0","636558deffacf6b4af41ae6b","64de7d2b7d27b3d7e2e9e234","","","","","1498",""," ","key"," ","16.666000000000025","500","250","instPzPre","50","0","","","","50","50"
"","psychophysics","100","489538","0.0-100.0","636558deffacf6b4af41ae6b","64de7d2b7d27b3d7e2e9e234","","","","","2381",""," ","key"," ","16.784198581560183","500","250","instPz0","50","2","","","","50","50"
"","psychophysics","101","496144","0.0-101.0","636558deffacf6b4af41ae6b","64de7d2b7d27b3d7e2e9e234","","","","","6604",""," ","key"," ","16.665999999999936","500","250","instPz1","44","2","","","","25","50"
"","psychophysics","102","499887","0.0-102.0","636558deffacf6b4af41ae6b","64de7d2b7d27b3d7e2e9e234","","","","","3741",""," ","key"," ","16.66599999999992","500","250","instPz2","31","2","","","","20","35"
"","psychophysics","103","507020","0.0-103.0","636558deffacf6b4af41ae6b","64de7d2b7d27b3d7e2e9e234","","","","","7119",""," ","key"," ","16.706349765258146","500","250","instPz3","74","2","","","","30","100"
"","psychophysics","104","513558","0.0-104.0","636558deffacf6b4af41ae6b","64de7d2b7d27b3d7e2e9e234","","","","","6535",""," ","key"," ","16.666000000000043","500","250","instPz4","75","2","","","","30","100"
"","psychophysics","105","514727","0.0-105.0","636558deffacf6b4af41ae6b","64de7d2b7d27b3d7e2e9e234","","","","","1168",""," ","key"," ","16.66600000000039","500","250","inst","","","","","","",""
"","psychophysics","106","518132","0.0-106.0","636558deffacf6b4af41ae6b","64de7d2b7d27b3d7e2e9e234","","","","","3395",""," ","key"," ","16.666000000000007","500","250","pz","41","2","0","","","37","52"
"","psychophysics","107","521644","0.0-107.0","636558deffacf6b4af41ae6b","64de7d2b7d27b3d7e2e9e234","","","","","3510",""," ","key"," ","16.665999999999933","500","250","pz","53","2","0","","","57","60"
"","psychophysics","108","527974","0.0-108.0","636558deffacf6b4af41ae6b","64de7d2b7d27b3d7e2e9e234","","","","","6327",""," ","key"," ","16.667386243386236","500","250","pz","42","2","0","","","50","44"
"","psychophysics","109","530841","0.0-109.0","636558deffacf6b4af41ae6b","64de7d2b7d27b3d7e2e9e234","","","","","2865",""," ","key"," ","16.665999999999652","500","250","pz","29","2","0","","","37","25"
"","psychophysics","110","533536","0.0-110.0","636558deffacf6b4af41ae6b","64de7d2b7d27b3d7e2e9e234","","","","","2693",""," ","key"," ","16.66600000000015","500","250","pz","31","2","0","","","24","41"
"","psychophysics","111","535704","0.0-111.0","636558deffacf6b4af41ae6b","64de7d2b7d27b3d7e2e9e234","","","","","2161",""," ","key"," ","16.665999999999922","500","250","pz","25","2","0","","","27","28"
"","psychophysics","112","537114","0.0-112.0","636558deffacf6b4af41ae6b","64de7d2b7d27b3d7e2e9e234","","","","","1407",""," ","key"," ","16.66600000000021","500","250","pz","38","2","0","","","38","44"
"","psychophysics","113","539927","0.0-113.0","636558deffacf6b4af41ae6b","64de7d2b7d27b3d7e2e9e234","","","","","2811",""," ","key"," ","16.665999999999705","500","250","pz","37","2","0","","","46","48"
"","psychophysics","114","544363","0.0-114.0","636558deffacf6b4af41ae6b","64de7d2b7d27b3d7e2e9e234","","","","","4428",""," ","key"," ","16.66796616541355","500","250","pz","27","2","0","","","57","31"
"","psychophysics","115","546821","0.0-115.0","636558deffacf6b4af41ae6b","64de7d2b7d27b3d7e2e9e234","","","","","2456",""," ","key"," ","16.66600000000023","500","250","pz","21","2","0","","","35","28"
"","psychophysics","116","551171","0.0-116.0","636558deffacf6b4af41ae6b","64de7d2b7d27b3d7e2e9e234","","","","","4348",""," ","key"," ","16.666000000000125","500","250","pz","31","2","0","","","57","40"
"","psychophysics","117","554925","0.0-117.0","636558deffacf6b4af41ae6b","64de7d2b7d27b3d7e2e9e234","","","","","3751",""," ","key"," ","16.666000000000036","500","250","pz","26","2","0","","","53","29"
"","psychophysics","118","557688","0.0-118.0","636558deffacf6b4af41ae6b","64de7d2b7d27b3d7e2e9e234","","","","","2760",""," ","key"," ","16.666000000000086","500","250","pz","34","2","0","","","50","41"
"","psychophysics","119","562148","0.0-119.0","636558deffacf6b4af41ae6b","64de7d2b7d27b3d7e2e9e234","","","","","4458",""," ","key"," ","16.666000000000164","500","250","pz","47","2","0","","","28","58"
"","psychophysics","120","563729","0.0-120.0","636558deffacf6b4af41ae6b","64de7d2b7d27b3d7e2e9e234","","","","","1578",""," ","key"," ","16.67163440860277","500","250","pz","28","2","0","","","28","29"
"","psychophysics","121","564586","0.0-121.0","636558deffacf6b4af41ae6b","64de7d2b7d27b3d7e2e9e234","","","","","847",""," ","key"," ","16.66600000000029","500","250","inst","","","","","","",""
"","psychophysics","122","573772","0.0-122.0","636558deffacf6b4af41ae6b","64de7d2b7d27b3d7e2e9e234","","","","","9184",""," ","key"," ","16.666000000000086","500","250","instZol1","-1.942890293094024e-16","","","0","0","-1.3",""
"","psychophysics","123","578258","0.0-123.0","636558deffacf6b4af41ae6b","64de7d2b7d27b3d7e2e9e234","","","","","4483",""," ","key"," ","16.666000000000047","500","250","instZol2","-1.0999999999999992","2","","0","0","2",""
"","psychophysics","124","579950","0.0-124.0","636558deffacf6b4af41ae6b","64de7d2b7d27b3d7e2e9e234","","","","","1689",""," ","key"," ","16.665999999999457","500","250","inst","","","","","","",""
"","psychophysics","125","584254","0.0-125.0","636558deffacf6b4af41ae6b","64de7d2b7d27b3d7e2e9e234","","","","","4300",""," ","key"," ","16.668038910505786","500","250","zol","-0.65","2","1","30","-10","-0.05",""
"","psychophysics","126","588448","0.0-126.0","636558deffacf6b4af41ae6b","64de7d2b7d27b3d7e2e9e234","","","","","4191",""," ","key"," ","16.665999999999872","500","250","zol","-1.04","2","1","-24","-23","-0.06",""
"","psychophysics","127","594154","0.0-127.0","636558deffacf6b4af41ae6b","64de7d2b7d27b3d7e2e9e234","","","","","5703",""," ","key"," ","16.665999999999745","500","250","zol","-1.1500000000000001","2","1","-2","-17","0.45",""
"","psychophysics","128","599979","0.0-128.0","636558deffacf6b4af41ae6b","64de7d2b7d27b3d7e2e9e234","","","","","5823",""," ","key"," ","16.810502890173435","500","250","zol","-0.7100000000000001","2","1","12","-5","-0.09",""
"","psychophysics","129","603456","0.0-129.0","636558deffacf6b4af41ae6b","64de7d2b7d27b3d7e2e9e234","","","","","3473",""," ","key"," ","16.668526570048353","500","250","zol","-0.72","2","1","24","10","0.72",""
"","psychophysics","130","606730","0.0-130.0","636558deffacf6b4af41ae6b","64de7d2b7d27b3d7e2e9e234","","","","","3272",""," ","key"," ","16.665999999999816","500","250","zol","-0.29","2","1","-23","0","-0.51",""
"","psychophysics","131","609185","0.0-131.0","636558deffacf6b4af41ae6b","64de7d2b7d27b3d7e2e9e234","","","","","2452",""," ","key"," ","16.665999999999432","500","250","zol","-0.8999999999999999","2","1","-29","-30","0.6",""
"","psychophysics","132","614702","0.0-132.0","636558deffacf6b4af41ae6b","64de7d2b7d27b3d7e2e9e234","","","","","5515",""," ","key"," ","16.66599999999973","500","250","zol","-0.5599999999999999","2","1","-3","15","-0.44",""
"","psychophysics","133","617959","0.0-133.0","636558deffacf6b4af41ae6b","64de7d2b7d27b3d7e2e9e234","","","","","3253",""," ","key"," ","16.66599999999954","500","250","zol","-0.82","2","1","-6","26","0.32",""
"","psychophysics","134","619490","0.0-134.0","636558deffacf6b4af41ae6b","64de7d2b7d27b3d7e2e9e234","","","","","1528",""," ","key"," ","16.665999999999038","500","250","zol","-0.94","2","1","9","21","0.64",""
"","psychophysics","135","621086","0.0-135.0","636558deffacf6b4af41ae6b","64de7d2b7d27b3d7e2e9e234","","","","","1594",""," ","key"," ","16.666000000000196","500","250","zol","-0.43000000000000005","2","1","24","-20","-0.07",""
"","psychophysics","136","624303","0.0-136.0","636558deffacf6b4af41ae6b","64de7d2b7d27b3d7e2e9e234","","","","","3214",""," ","key"," ","16.668729166666406","500","250","zol","-0.8999999999999999","2","1","-16","-22","0.7",""
"","psychophysics","137","626422","0.0-137.0","636558deffacf6b4af41ae6b","64de7d2b7d27b3d7e2e9e234","","","","","2116",""," ","key"," ","16.665999999999748","500","250","zol","-0.58","2","1","-13","-8","0.08",""
"","psychophysics","138","628232","0.0-138.0","636558deffacf6b4af41ae6b","64de7d2b7d27b3d7e2e9e234","","","","","1807",""," ","key"," ","16.665999999999595","500","250","zol","-0.83","2","1","-30","-5","0.53",""
"","psychophysics","139","630678","0.0-139.0","636558deffacf6b4af41ae6b","64de7d2b7d27b3d7e2e9e234","","","","","2444",""," ","key"," ","16.665999999999645","500","250","zol","-0.8799999999999999","2","1","-28","2","0.58",""
"","psychophysics","140","631799","0.0-140.0","636558deffacf6b4af41ae6b","64de7d2b7d27b3d7e2e9e234","","","","","1118",""," ","key"," ","16.666000000001347","500","250","inst","","","","","","",""
"","psychophysics","141","636463","0.0-141.0","636558deffacf6b4af41ae6b","64de7d2b7d27b3d7e2e9e234","","","","","4663",""," ","key"," ","16.666000000000047","500","250","instPog0","160","1","","0","0","190","160"
"","psychophysics","142","639055","0.0-142.0","636558deffacf6b4af41ae6b","64de7d2b7d27b3d7e2e9e234","","","","","2590",""," ","key"," ","16.666000000000086","500","250","instPog1","170","1","","0","0","190","160"
"","psychophysics","143","642230","0.0-143.0","636558deffacf6b4af41ae6b","64de7d2b7d27b3d7e2e9e234","","","","","3174",""," ","key"," ","16.666000000000366","500","250","instPog2","172","1","","0","0","160","160"
"","psychophysics","144","642671","0.0-144.0","636558deffacf6b4af41ae6b","64de7d2b7d27b3d7e2e9e234","","","","","433",""," ","key"," ","16.665999999999677","500","250","inst","","","","","","",""
"","psychophysics","145","647956","0.0-145.0","636558deffacf6b4af41ae6b","64de7d2b7d27b3d7e2e9e234","","","","","5283",""," ","key"," ","16.667661392405154","500","250","pog","192","1","1","0","0","116","172"
"","psychophysics","146","652732","0.0-146.0","636558deffacf6b4af41ae6b","64de7d2b7d27b3d7e2e9e234","","","","","4774",""," ","key"," ","16.666000000000086","500","250","pog","142","1","1","0","0","104","126"
"","psychophysics","147","659034","0.0-147.0","636558deffacf6b4af41ae6b","64de7d2b7d27b3d7e2e9e234","","","","","6300",""," ","key"," ","16.666000000000142","500","250","pog","214","1","1","0","0","110","195"
"","psychophysics","148","663983","0.0-148.0","636558deffacf6b4af41ae6b","64de7d2b7d27b3d7e2e9e234","","","","","4947",""," ","key"," ","16.66777027027038","500","250","pog","186","1","1","0","0","126","165"
"","psychophysics","149","666682","0.0-149.0","636558deffacf6b4af41ae6b","64de7d2b7d27b3d7e2e9e234","","","","","2697",""," ","key"," ","16.66600000000015","500","250","pog","202","1","1","0","0","190","190"
"","psychophysics","150","670630","0.0-150.0","636558deffacf6b4af41ae6b","64de7d2b7d27b3d7e2e9e234","","","","","3947",""," ","key"," ","16.66600000000004","500","250","pog","201","1","1","0","0","161","184"
"","psychophysics","151","673780","0.0-151.0","636558deffacf6b4af41ae6b","64de7d2b7d27b3d7e2e9e234","","","","","3146",""," ","key"," ","16.666000000000533","500","250","pog","193","1","1","0","0","183","181"
"","psychophysics","152","681787","0.0-152.0","636558deffacf6b4af41ae6b","64de7d2b7d27b3d7e2e9e234","","","","","null","","null","key","null","16.665999999999865","500","250","pog","182","1","1","0","0","206","182"
"","psychophysics","153","686243","0.0-153.0","636558deffacf6b4af41ae6b","64de7d2b7d27b3d7e2e9e234","","","","","4455",""," ","key"," ","16.66796616541355","500","250","pog","140","1","1","0","0","146","131"
"","psychophysics","154","689567","0.0-154.0","636558deffacf6b4af41ae6b","64de7d2b7d27b3d7e2e9e234","","","","","3322",""," ","key"," ","16.665999999999926","500","250","pog","201","1","1","0","0","187","198"
"","psychophysics","155","692823","0.0-155.0","636558deffacf6b4af41ae6b","64de7d2b7d27b3d7e2e9e234","","","","","3254",""," ","key"," ","16.66600000000014","500","250","pog","184","1","1","0","0","180","184"
"","psychophysics","156","696762","0.0-156.0","636558deffacf6b4af41ae6b","64de7d2b7d27b3d7e2e9e234","","","","","3938",""," ","key"," ","16.66600000000004","500","250","pog","141","1","1","0","0","175","129"
"","psychophysics","157","702409","0.0-157.0","636558deffacf6b4af41ae6b","64de7d2b7d27b3d7e2e9e234","","","","","5644",""," ","key"," ","16.665999999999677","500","250","pog","168","1","1","0","0","128","166"
"","psychophysics","158","707066","0.0-158.0","636558deffacf6b4af41ae6b","64de7d2b7d27b3d7e2e9e234","","","","","4655",""," ","key"," ","16.667874551971117","500","250","pog","151","1","1","0","0","101","156"
"","psychophysics","159","709481","0.0-159.0","636558deffacf6b4af41ae6b","64de7d2b7d27b3d7e2e9e234","","","","","2414",""," ","key"," ","16.665999999999865","500","250","pog","196","1","1","0","0","196","183"
"","psychophysics","160","710542","0.0-160.0","636558deffacf6b4af41ae6b","64de7d2b7d27b3d7e2e9e234","","","","","1059",""," ","key"," ","16.666000000000256","500","250","inst","","","","","","",""
"","psychophysics","161","730464","0.0-161.0","636558deffacf6b4af41ae6b","64de7d2b7d27b3d7e2e9e234","","","","","19919",""," ","key"," ","16.666438860971528","500","250","instPz1","51","1","","","","25","50"
"","psychophysics","162","735056","0.0-162.0","636558deffacf6b4af41ae6b","64de7d2b7d27b3d7e2e9e234","","","","","4590",""," ","key"," ","16.666000000000086","500","250","instPz2","22","1","","","","35","20"
"","psychophysics","163","743445","0.0-163.0","636558deffacf6b4af41ae6b","64de7d2b7d27b3d7e2e9e234","","","","","8385",""," ","key"," ","16.667043824701253","500","250","instPz3","47","1","","","","100","30"
"","psychophysics","164","751301","0.0-164.0","636558deffacf6b4af41ae6b","64de7d2b7d27b3d7e2e9e234","","","","","7854",""," ","key"," ","16.66600000000022","500","250","instPz4","44","1","","","","100","30"
"","psychophysics","165","752865","0.0-165.0","636558deffacf6b4af41ae6b","64de7d2b7d27b3d7e2e9e234","","","","","1562",""," ","key"," ","16.66599999999963","500","250","inst","","","","","","",""
"","psychophysics","166","757634","0.0-166.0","636558deffacf6b4af41ae6b","64de7d2b7d27b3d7e2e9e234","","","","","4766",""," ","key"," ","16.666000000000196","500","250","pz","28","1","1","","","23","27"
"","psychophysics","167","761456","0.0-167.0","636558deffacf6b4af41ae6b","64de7d2b7d27b3d7e2e9e234","","","","","3820",""," ","key"," ","16.665999999999993","500","250","pz","30","1","1","","","45","21"
"","psychophysics","168","766409","0.0-168.0","636558deffacf6b4af41ae6b","64de7d2b7d27b3d7e2e9e234","","","","","4951",""," ","key"," ","16.667766891892235","500","250","pz","44","1","1","","","59","32"
"","psychophysics","169","771101","0.0-169.0","636558deffacf6b4af41ae6b","64de7d2b7d27b3d7e2e9e234","","","","","4689",""," ","key"," ","16.665999999999823","500","250","pz","54","1","1","","","24","57"
"","psychophysics","170","774572","0.0-170.0","636558deffacf6b4af41ae6b","64de7d2b7d27b3d7e2e9e234","","","","","3469",""," ","key"," ","16.66599999999983","500","250","pz","50","1","1","","","41","42"
"","psychophysics","171","779605","0.0-171.0","636558deffacf6b4af41ae6b","64de7d2b7d27b3d7e2e9e234","","","","","5032",""," ","key"," ","16.66600000000005","500","250","pz","49","1","1","","","36","42"
"","psychophysics","172","781564","0.0-172.0","636558deffacf6b4af41ae6b","64de7d2b7d27b3d7e2e9e234","","","","","1952",""," ","key"," ","16.666000000000448","500","250","pz","36","1","1","","","37","27"
"","psychophysics","173","786070","0.0-173.0","636558deffacf6b4af41ae6b","64de7d2b7d27b3d7e2e9e234","","","","","4503",""," ","key"," ","16.667940740740892","500","250","pz","54","1","1","","","44","47"
"","psychophysics","174","792885","0.0-174.0","636558deffacf6b4af41ae6b","64de7d2b7d27b3d7e2e9e234","","","","","6813",""," ","key"," ","16.666000000000007","500","250","pz","59","1","1","","","28","58"
"","psychophysics","175","797125","0.0-175.0","636558deffacf6b4af41ae6b","64de7d2b7d27b3d7e2e9e234","","","","","4237",""," ","key"," ","16.666000000000086","500","250","pz","46","1","1","","","23","41"
"","psychophysics","176","798703","0.0-176.0","636558deffacf6b4af41ae6b","64de7d2b7d27b3d7e2e9e234","","","","","1575",""," ","key"," ","16.666000000000533","500","250","pz","45","1","1","","","49","37"
"","psychophysics","177","799943","0.0-177.0","636558deffacf6b4af41ae6b","64de7d2b7d27b3d7e2e9e234","","","","","1233",""," ","key"," ","16.66600000000023","500","250","pz","29","1","1","","","29","27"
"","psychophysics","178","803371","0.0-178.0","636558deffacf6b4af41ae6b","64de7d2b7d27b3d7e2e9e234","","","","","3425",""," ","key"," ","16.66855121951255","500","250","pz","46","1","1","","","37","39"
"","psychophysics","179","806060","0.0-179.0","636558deffacf6b4af41ae6b","64de7d2b7d27b3d7e2e9e234","","","","","2687",""," ","key"," ","16.66600000000035","500","250","pz","51","1","1","","","38","43"
"","psychophysics","180","808611","0.0-180.0","636558deffacf6b4af41ae6b","64de7d2b7d27b3d7e2e9e234","","","","","2549",""," ","key"," ","16.665999999999737","500","250","pz","44","1","1","","","54","33"
"","psychophysics","181","809342","0.0-181.0","636558deffacf6b4af41ae6b","64de7d2b7d27b3d7e2e9e234","","","","","728",""," ","key"," ","16.666000000000825","500","250","inst","","","","","","",""
"","psychophysics","182","816902","0.0-182.0","636558deffacf6b4af41ae6b","64de7d2b7d27b3d7e2e9e234","","","","","7557",""," ","key"," ","16.666000000000203","500","250","instBr3","-12","1","","0","0","40","300"
"","psychophysics","183","817435","0.0-183.0","636558deffacf6b4af41ae6b","64de7d2b7d27b3d7e2e9e234","","","","","532",""," ","key"," ","16.665999999998377","500","250","inst","","","","","","",""
"","psychophysics","184","819495","0.0-184.0","636558deffacf6b4af41ae6b","64de7d2b7d27b3d7e2e9e234","","","","","2057",""," ","key"," ","16.665999999999823","500","250","br","-14","1","1","0","7","-22","271"
"","psychophysics","185","823343","0.0-185.0","636558deffacf6b4af41ae6b","64de7d2b7d27b3d7e2e9e234","","","","","3846",""," ","key"," ","16.668278260869684","500","250","br","-6","1","1","30","27","24","261"
"","psychophysics","186","825318","0.0-186.0","636558deffacf6b4af41ae6b","64de7d2b7d27b3d7e2e9e234","","","","","1973",""," ","key"," ","16.665999999999904","500","250","br","-9","1","1","29","12","-5","242"
"","psychophysics","187","828950","0.0-187.0","636558deffacf6b4af41ae6b","64de7d2b7d27b3d7e2e9e234","","","","","3630",""," ","key"," ","16.666000000000135","500","250","br","-11","1","1","18","-29","17","298"
"","psychophysics","188","829965","0.0-188.0","636558deffacf6b4af41ae6b","64de7d2b7d27b3d7e2e9e234","","","","","1013",""," ","key"," ","16.66600000000132","500","250","br","-7","1","1","-18","19","-6","272"
"","psychophysics","189","831850","0.0-189.0","636558deffacf6b4af41ae6b","64de7d2b7d27b3d7e2e9e234","","","","","1882",""," ","key"," ","16.66600000000027","500","250","br","-21","1","1","28","28","-27","240"
"","psychophysics","190","834437","0.0-190.0","636558deffacf6b4af41ae6b","64de7d2b7d27b3d7e2e9e234","","","","","2585",""," ","key"," ","16.666000000000086","500","250","br","-9","1","1","-21","19","-9","212"
"","psychophysics","191","837758","0.0-191.0","636558deffacf6b4af41ae6b","64de7d2b7d27b3d7e2e9e234","","","","","3319",""," ","key"," ","16.666000000000086","500","250","br","-3","1","1","-18","-20","23","296"
"","psychophysics","192","841699","0.0-192.0","636558deffacf6b4af41ae6b","64de7d2b7d27b3d7e2e9e234","","","","","3939",""," ","key"," ","16.66600000000004","500","250","br","-12","1","1","-10","2","-26","201"
"","psychophysics","193","844884","0.0-193.0","636558deffacf6b4af41ae6b","64de7d2b7d27b3d7e2e9e234","","","","","3182",""," ","key"," ","16.668752631578766","500","250","br","-5","1","1","-15","26","-22","299"
"","psychophysics","194","847757","0.0-194.0","636558deffacf6b4af41ae6b","64de7d2b7d27b3d7e2e9e234","","","","","2870",""," ","key"," ","16.666000000000146","500","250","br","-10","1","1","14","-10","-20","214"
"","psychophysics","195","849617","0.0-195.0","636558deffacf6b4af41ae6b","64de7d2b7d27b3d7e2e9e234","","","","","1858",""," ","key"," ","16.665999999999798","500","250","br","-6","1","1","11","17","3","234"
"","psychophysics","196","851399","0.0-196.0","636558deffacf6b4af41ae6b","64de7d2b7d27b3d7e2e9e234","","","","","1780",""," ","key"," ","16.665999999999087","500","250","br","-6","1","1","-18","-4","-5","204"
"","psychophysics","197","853325","0.0-197.0","636558deffacf6b4af41ae6b","64de7d2b7d27b3d7e2e9e234","","","","","1924",""," ","key"," ","16.665999999999993","500","250","br","-9","1","1","-29","1","-13","265"
"","psychophysics","198","854871","0.0-198.0","636558deffacf6b4af41ae6b","64de7d2b7d27b3d7e2e9e234","","","","","1544",""," ","key"," ","16.66599999999997","500","250","br","-8","1","1","-9","-1","-7","229"
"","psychophysics","199","855662","0.0-199.0","636558deffacf6b4af41ae6b","64de7d2b7d27b3d7e2e9e234","","","","","789",""," ","key"," ","16.666000000001237","500","250","inst","","","","","","",""
"","psychophysics","200","862847","0.0-200.0","636558deffacf6b4af41ae6b","64de7d2b7d27b3d7e2e9e234","","","","","7183",""," ","key"," ","16.66600000000001","500","250","instEB1","40","2","","0","0","30","40"
"","psychophysics","201","865170","0.0-201.0","636558deffacf6b4af41ae6b","64de7d2b7d27b3d7e2e9e234","","","","","2321",""," ","key"," ","16.669769784172647","500","250","instEB2","37","2","","0","0","40","30"
"","psychophysics","202","870136","0.0-202.0","636558deffacf6b4af41ae6b","64de7d2b7d27b3d7e2e9e234","","","","","4964",""," ","key"," ","16.66599999999969","500","250","instEB3","39","2","","0","0","45","27"
"","psychophysics","203","873129","0.0-203.0","636558deffacf6b4af41ae6b","64de7d2b7d27b3d7e2e9e234","","","","","2991",""," ","key"," ","16.665999999999727","500","250","instEB4","46","2","","0","0","30","40"
"","psychophysics","204","873607","0.0-204.0","636558deffacf6b4af41ae6b","64de7d2b7d27b3d7e2e9e234","","","","","477",""," ","key"," ","16.666000000001596","500","250","inst","","","","","","",""
"","psychophysics","205","876027","0.0-205.0","636558deffacf6b4af41ae6b","64de7d2b7d27b3d7e2e9e234","","","","","2414",""," ","key"," ","16.665999999999865","500","250","eb","56","2","","0","0","52","48"
"","psychophysics","206","878890","0.0-206.0","636558deffacf6b4af41ae6b","64de7d2b7d27b3d7e2e9e234","","","","","2860",""," ","key"," ","16.665999999999652","500","250","eb","33","2","","0","0","41","26"
"","psychophysics","207","884928","0.0-207.0","636558deffacf6b4af41ae6b","64de7d2b7d27b3d7e2e9e234","","","","","6036",""," ","key"," ","16.6674515235459","500","250","eb","58","2","","0","0","32","53"
"","psychophysics","208","888878","0.0-208.0","636558deffacf6b4af41ae6b","64de7d2b7d27b3d7e2e9e234","","","","","3947",""," ","key"," ","16.665999999999904","500","250","eb","61","2","","0","0","41","48"
"","psychophysics","209","891273","0.0-209.0","636558deffacf6b4af41ae6b","64de7d2b7d27b3d7e2e9e234","","","","","2392",""," ","key"," ","16.666000000000086","500","250","eb","41","2","","0","0","33","32"
"","psychophysics","210","893085","0.0-210.0","636558deffacf6b4af41ae6b","64de7d2b7d27b3d7e2e9e234","","","","","1810",""," ","key"," ","16.665999999999595","500","250","eb","39","2","","0","0","38","30"
"","psychophysics","211","895074","0.0-211.0","636558deffacf6b4af41ae6b","64de7d2b7d27b3d7e2e9e234","","","","","1987",""," ","key"," ","16.666000000000892","500","250","eb","49","2","","0","0","41","44"
"","psychophysics","212","896310","0.0-212.0","636558deffacf6b4af41ae6b","64de7d2b7d27b3d7e2e9e234","","","","","1234",""," ","key"," ","16.66600000000023","500","250","eb","48","2","","0","0","48","38"
"","psychophysics","213","898642","0.0-213.0","636558deffacf6b4af41ae6b","64de7d2b7d27b3d7e2e9e234","","","","","2330",""," ","key"," ","16.66600000000016","500","250","eb","49","2","","0","0","45","39"
"","psychophysics","214","902763","0.0-214.0","636558deffacf6b4af41ae6b","64de7d2b7d27b3d7e2e9e234","","","","","4114",""," ","key"," ","16.666000000000043","500","250","eb","56","2","","0","0","27","49"
"","psychophysics","215","905218","0.0-215.0","636558deffacf6b4af41ae6b","64de7d2b7d27b3d7e2e9e234","","","","","2453",""," ","key"," ","16.66958219178136","500","250","eb","30","2","","0","0","28","27"
"","psychophysics","216","907576","0.0-216.0","636558deffacf6b4af41ae6b","64de7d2b7d27b3d7e2e9e234","","","","","2353",""," ","key"," ","16.66599999999971","500","250","eb","55","2","","0","0","45","45"
"","psychophysics","217","913170","0.0-217.0","636558deffacf6b4af41ae6b","64de7d2b7d27b3d7e2e9e234","","","","","5592",""," ","key"," ","16.666000000000306","500","250","eb","47","2","","0","0","25","39"
"","psychophysics","218","917177","0.0-218.0","636558deffacf6b4af41ae6b","64de7d2b7d27b3d7e2e9e234","","","","","4005",""," ","key"," ","16.665999999999997","500","250","eb","57","2","","0","0","42","46"
"","psychophysics","219","920719","0.0-219.0","636558deffacf6b4af41ae6b","64de7d2b7d27b3d7e2e9e234","","","","","3540",""," ","key"," ","16.666000000000185","500","250","eb","44","2","","0","0","24","32"
