"success","trial_type","trial_index","time_elapsed","internal_node_id","pid","sid","timeout","failed_images","failed_audio","failed_video","rt","stimulus","response","response_type","key_press","avg_frame_time","center_x","center_y","task","resp","version","block","jitterX","jitterY","start","parA"
"true","fullscreen","0","5912","0.0-0.0","60fe06feb5a616377ef806da","64e506be92ac81e31c1b4742","","","","","","","","","","","","","","","","","","","",""
"true","preload","1","6010","0.0-1.0","60fe06feb5a616377ef806da","64e506be92ac81e31c1b4742","false","[]","[]","[]","","","","","","","","","","","","","","","",""
"","html-button-response","2","8899","0.0-2.0","60fe06feb5a616377ef806da","64e506be92ac81e31c1b4742","","","","","2888","Please Make Sure Your Audio Is On.","0","","","","","","","","","","","","",""
"","psychophysics","3","16983","0.0-3.0","60fe06feb5a616377ef806da","64e506be92ac81e31c1b4742","","","","","8078",""," ","key"," ","16.675433884297515","683","250","","","","","","","",""
"","psychophysics","4","20093","0.0-4.0","60fe06feb5a616377ef806da","64e506be92ac81e31c1b4742","","","","","3105",""," ","key"," ","16.641295698924726","500","250","inst","","","","","","",""
"","psychophysics","5","42458","0.0-5.0","60fe06feb5a616377ef806da","64e506be92ac81e31c1b4742","","","","","22360",""," ","key"," ","16.64095606850335","500","250","sample0","","","","","","",""
"","psychophysics","6","44165","0.0-6.0","60fe06feb5a616377ef806da","64e506be92ac81e31c1b4742","","","","","1703",""," ","key"," ","16.64077227722773","500","250","sample1","","","","","","",""
"","psychophysics","7","64296","0.0-7.0","60fe06feb5a616377ef806da","64e506be92ac81e31c1b4742","","","","","20116",""," ","key"," ","16.64108933002482","500","250","sample2","100","","","","","",""
"","psychophysics","8","79719","0.0-8.0","60fe06feb5a616377ef806da","64e506be92ac81e31c1b4742","","","","","15419",""," ","key"," ","16.640817494600437","500","250","sample3","100","","","","","",""
"","psychophysics","9","93967","0.0-9.0","60fe06feb5a616377ef806da","64e506be92ac81e31c1b4742","","","","","14243",""," ","key"," ","16.641098245614028","500","250","sample4","100","","","","","",""
"","psychophysics","10","97759","0.0-10.0","60fe06feb5a616377ef806da","64e506be92ac81e31c1b4742","","","","","3788",""," ","key"," ","16.640806167400896","500","250","sample5","","","","","","",""
"","psychophysics","11","105875","0.0-11.0","60fe06feb5a616377ef806da","64e506be92ac81e31c1b4742","","","","","8115",""," ","key"," ","16.641197125256685","500","250","sample6","502","","","","","",""
"","psychophysics","12","110923","0.0-12.0","60fe06feb5a616377ef806da","64e506be92ac81e31c1b4742","","","","","5046",""," ","key"," ","16.64220529801328","500","250","inst","","","","","","",""
"","psychophysics","13","115423","0.0-13.0","60fe06feb5a616377ef806da","64e506be92ac81e31c1b4742","","","","","4495",""," ","key"," ","16.641843866171012","500","250","inst","","","","","","",""
"","psychophysics","14","119966","0.0-14.0","60fe06feb5a616377ef806da","64e506be92ac81e31c1b4742","","","","","4532",""," ","key"," ","16.64154044117651","500","250","inst","","","","","","",""
"","psychophysics","15","121958","0.0-15.0","60fe06feb5a616377ef806da","64e506be92ac81e31c1b4742","","","","","1982",""," ","key"," ","16.64059663865546","500","250","inst","","","","","","",""
"","psychophysics","16","123899","0.0-16.0","60fe06feb5a616377ef806da","64e506be92ac81e31c1b4742","","","","","1937",""," ","key"," ","16.642422413793046","500","250","inst","","","","","","",""
"","psychophysics","17","127749","0.0-17.0","60fe06feb5a616377ef806da","64e506be92ac81e31c1b4742","","","","","3845",""," ","key"," ","16.64063913043482","500","250","instBr0","0","","","0","0","0","300"
"","psychophysics","18","135980","0.0-18.0","60fe06feb5a616377ef806da","64e506be92ac81e31c1b4742","","","","","8226",""," ","key"," ","16.640882591093128","500","250","instBr1","-2","","","0","0","-40","300"
"","psychophysics","19","143668","0.0-19.0","60fe06feb5a616377ef806da","64e506be92ac81e31c1b4742","","","","","7684",""," ","key"," ","16.641127982646417","500","250","instBr3","15","2","","0","0","40","300"
"","psychophysics","20","146317","0.0-20.0","60fe06feb5a616377ef806da","64e506be92ac81e31c1b4742","","","","","2646",""," ","key"," ","16.640848101265735","500","250","inst","","","","","","",""
"","psychophysics","21","152487","0.0-21.0","60fe06feb5a616377ef806da","64e506be92ac81e31c1b4742","","","","","6152",""," ","key"," ","16.641181081081143","500","250","br","16","2","0","-22","-13","24","273"
"","psychophysics","22","158174","0.0-22.0","60fe06feb5a616377ef806da","64e506be92ac81e31c1b4742","","","","","5686",""," ","key"," ","16.641085294117595","500","250","br","22","2","0","24","2","29","262"
"","psychophysics","23","165105","0.0-23.0","60fe06feb5a616377ef806da","64e506be92ac81e31c1b4742","","","","","6923",""," ","key"," ","16.641156249999977","500","250","br","13","2","0","-3","-7","-1","282"
"","psychophysics","24","173110","0.0-24.0","60fe06feb5a616377ef806da","64e506be92ac81e31c1b4742","","","","","null","","null","key","null","16.640677083333383","500","250","br","15","2","0","24","-24","-15","239"
"","psychophysics","25","178952","0.0-25.0","60fe06feb5a616377ef806da","64e506be92ac81e31c1b4742","","","","","5839",""," ","key"," ","16.641431428571398","500","250","br","16","2","0","-21","-12","-8","242"
"","psychophysics","26","184570","0.0-26.0","60fe06feb5a616377ef806da","64e506be92ac81e31c1b4742","","","","","5615",""," ","key"," ","16.641330357142838","500","250","br","14","2","0","26","17","-23","256"
"","psychophysics","27","190425","0.0-27.0","60fe06feb5a616377ef806da","64e506be92ac81e31c1b4742","","","","","5845",""," ","key"," ","16.64144729344734","500","250","br","13","2","0","0","25","-20","253"
"","psychophysics","28","195715","0.0-28.0","60fe06feb5a616377ef806da","64e506be92ac81e31c1b4742","","","","","5280",""," ","key"," ","16.640851735015755","500","250","br","14","2","0","-18","-30","0","225"
"","psychophysics","29","198569","0.0-29.0","60fe06feb5a616377ef806da","64e506be92ac81e31c1b4742","","","","","2842",""," ","key"," ","16.64117543859651","500","250","br","13","2","0","-4","-19","14","263"
"","psychophysics","30","202739","0.0-30.0","60fe06feb5a616377ef806da","64e506be92ac81e31c1b4742","","","","","4165",""," ","key"," ","16.64111244979915","500","250","br","13","2","0","-22","16","10","228"
"","psychophysics","31","206270","0.0-31.0","60fe06feb5a616377ef806da","64e506be92ac81e31c1b4742","","","","","3523",""," ","key"," ","16.641635071090093","500","250","br","14","2","0","11","16","10","249"
"","psychophysics","32","212241","0.0-32.0","60fe06feb5a616377ef806da","64e506be92ac81e31c1b4742","","","","","5964",""," ","key"," ","16.64091061452513","500","250","br","15","2","0","-24","12","-10","253"
"","psychophysics","33","215330","0.0-33.0","60fe06feb5a616377ef806da","64e506be92ac81e31c1b4742","","","","","3078",""," ","key"," ","16.641589189189126","500","250","br","17","2","0","0","-24","19","286"
"","psychophysics","34","221831","0.0-34.0","60fe06feb5a616377ef806da","64e506be92ac81e31c1b4742","","","","","6496",""," ","key"," ","16.640756410256383","500","250","br","12","2","0","15","-9","-19","222"
"","psychophysics","35","227496","0.0-35.0","60fe06feb5a616377ef806da","64e506be92ac81e31c1b4742","","","","","5658",""," ","key"," ","16.64089085545719","500","250","br","14","2","0","19","-23","-23","239"
"","psychophysics","36","230541","0.0-36.0","60fe06feb5a616377ef806da","64e506be92ac81e31c1b4742","","","","","3043",""," ","key"," ","16.641763736263773","500","250","inst","","","","","","",""
"","psychophysics","37","232517","0.0-37.0","60fe06feb5a616377ef806da","64e506be92ac81e31c1b4742","","","","","1970",""," ","key"," ","16.64217796610171","500","250","instEB0","40","1","","0","0","40","40"
"","psychophysics","38","241843","0.0-38.0","60fe06feb5a616377ef806da","64e506be92ac81e31c1b4742","","","","","9323",""," ","key"," ","16.64107871198571","500","250","instEB1","32","1","","0","0","40","30"
"","psychophysics","39","250365","0.0-39.0","60fe06feb5a616377ef806da","64e506be92ac81e31c1b4742","","","","","8509",""," ","key"," ","16.64113111545986","500","250","instEB2","38","1","","0","0","30","40"
"","psychophysics","40","261002","0.0-40.0","60fe06feb5a616377ef806da","64e506be92ac81e31c1b4742","","","","","10628",""," ","key"," ","16.641123824451427","500","250","instEB3","42","1","","0","0","27","45"
"","psychophysics","41","274595","0.0-41.0","60fe06feb5a616377ef806da","64e506be92ac81e31c1b4742","","","","","13589",""," ","key"," ","16.64104779411765","500","250","instEB4","28","1","","0","0","40","30"
"","psychophysics","42","276594","0.0-42.0","60fe06feb5a616377ef806da","64e506be92ac81e31c1b4742","","","","","1992",""," ","key"," ","16.641731092437297","500","250","inst","","","","","","",""
"","psychophysics","43","280674","0.0-43.0","60fe06feb5a616377ef806da","64e506be92ac81e31c1b4742","","","","","4063",""," ","key"," ","16.641493877551127","500","250","eb","41","1","","0","0","47","41"
"","psychophysics","44","287913","0.0-44.0","60fe06feb5a616377ef806da","64e506be92ac81e31c1b4742","","","","","7234",""," ","key"," ","16.6408456221199","500","250","eb","51","1","","0","0","24","52"
"","psychophysics","45","292725","0.0-45.0","60fe06feb5a616377ef806da","64e506be92ac81e31c1b4742","","","","","4808",""," ","key"," ","16.641253472222363","500","250","eb","27","1","","0","0","41","28"
"","psychophysics","46","297719","0.0-46.0","60fe06feb5a616377ef806da","64e506be92ac81e31c1b4742","","","","","4989",""," ","key"," ","16.640792642140497","500","250","eb","37","1","","0","0","28","43"
"","psychophysics","47","304204","0.0-47.0","60fe06feb5a616377ef806da","64e506be92ac81e31c1b4742","","","","","6479",""," ","key"," ","16.641071979434543","500","250","eb","25","1","","0","0","36","26"
"","psychophysics","48","308246","0.0-48.0","60fe06feb5a616377ef806da","64e506be92ac81e31c1b4742","","","","","4037",""," ","key"," ","16.64073858921164","500","250","eb","41","1","","0","0","38","41"
"","psychophysics","49","312037","0.0-49.0","60fe06feb5a616377ef806da","64e506be92ac81e31c1b4742","","","","","3780",""," ","key"," ","16.64100440528648","500","250","eb","36","1","","0","0","32","40"
"","psychophysics","50","319265","0.0-50.0","60fe06feb5a616377ef806da","64e506be92ac81e31c1b4742","","","","","7221",""," ","key"," ","16.64095622119813","500","250","eb","24","1","","0","0","45","24"
"","psychophysics","51","324425","0.0-51.0","60fe06feb5a616377ef806da","64e506be92ac81e31c1b4742","","","","","5157",""," ","key"," ","16.641035598705365","500","250","eb","36","1","","0","0","38","36"
"","psychophysics","52","329283","0.0-52.0","60fe06feb5a616377ef806da","64e506be92ac81e31c1b4742","","","","","4853",""," ","key"," ","16.640896907216458","500","250","eb","40","1","","0","0","41","43"
"","psychophysics","53","337287","0.0-53.0","60fe06feb5a616377ef806da","64e506be92ac81e31c1b4742","","","","","null","","null","key","null","16.64112499999998","500","250","eb","42","1","","0","0","52","39"
"","psychophysics","54","343216","0.0-54.0","60fe06feb5a616377ef806da","64e506be92ac81e31c1b4742","","","","","5926",""," ","key"," ","16.641033802816846","500","250","eb","29","1","","0","0","36","29"
"","psychophysics","55","346463","0.0-55.0","60fe06feb5a616377ef806da","64e506be92ac81e31c1b4742","","","","","3242",""," ","key"," ","16.641278350515442","500","250","eb","34","1","","0","0","37","38"
"","psychophysics","56","351598","0.0-56.0","60fe06feb5a616377ef806da","64e506be92ac81e31c1b4742","","","","","5130",""," ","key"," ","16.64127272727269","500","250","eb","43","1","","0","0","50","43"
"","psychophysics","57","357486","0.0-57.0","60fe06feb5a616377ef806da","64e506be92ac81e31c1b4742","","","","","5883",""," ","key"," ","16.641005681818072","500","250","eb","50","1","","0","0","42","53"
"","psychophysics","58","359530","0.0-58.0","60fe06feb5a616377ef806da","64e506be92ac81e31c1b4742","","","","","2038",""," ","key"," ","16.641745901639386","500","250","inst","","","","","","",""
"","psychophysics","59","362169","0.0-59.0","60fe06feb5a616377ef806da","64e506be92ac81e31c1b4742","","","","","2629",""," ","key"," ","16.6417594936708","500","250","instZol0","0","","","0","0","0",""
"","psychophysics","60","383625","0.0-60.0","60fe06feb5a616377ef806da","64e506be92ac81e31c1b4742","","","","","21453",""," ","key"," ","16.64097127329192","500","250","instZol1","-1.942890293094024e-16","","","0","0","-1.3",""
"","psychophysics","61","407634","0.0-61.0","60fe06feb5a616377ef806da","64e506be92ac81e31c1b4742","","","","","24000",""," ","key"," ","16.64108183079057","500","250","instZol2","0.4000000000000006","1","","0","0","2",""
"","psychophysics","62","408570","0.0-62.0","60fe06feb5a616377ef806da","64e506be92ac81e31c1b4742","","","","","933",""," ","key"," ","16.63854545454537","500","250","inst","","","","","","",""
"","psychophysics","63","413860","0.0-63.0","60fe06feb5a616377ef806da","64e506be92ac81e31c1b4742","","","","","5273",""," ","key"," ","16.64103154574131","500","250","zol","0.06","1","0","-8","16","-0.36",""
"","psychophysics","64","419754","0.0-64.0","60fe06feb5a616377ef806da","64e506be92ac81e31c1b4742","","","","","5886",""," ","key"," ","16.64145609065158","500","250","zol","0.43000000000000005","1","0","-16","6","-0.53",""
"","psychophysics","65","424921","0.0-65.0","60fe06feb5a616377ef806da","64e506be92ac81e31c1b4742","","","","","5156",""," ","key"," ","16.640745161290305","500","250","zol","0.4","1","0","-6","-24","-0.5",""
"","psychophysics","66","429220","0.0-66.0","60fe06feb5a616377ef806da","64e506be92ac81e31c1b4742","","","","","4291",""," ","key"," ","16.640482490272344","500","250","zol","0.04000000000000001","1","0","26","-3","0.26",""
"","psychophysics","67","432831","0.0-67.0","60fe06feb5a616377ef806da","64e506be92ac81e31c1b4742","","","","","3599",""," ","key"," ","16.641208333333285","500","250","zol","-0.010000000000000009","1","0","-21","-11","-0.09",""
"","psychophysics","68","437092","0.0-68.0","60fe06feb5a616377ef806da","64e506be92ac81e31c1b4742","","","","","4249",""," ","key"," ","16.64092941176484","500","250","zol","0.45000000000000007","1","0","-14","2","-0.55",""
"","psychophysics","69","445101","0.0-69.0","60fe06feb5a616377ef806da","64e506be92ac81e31c1b4742","","","","","null","","null","key","null","16.641414583333365","500","250","zol","0.49","1","0","-8","5","-0.39",""
"","psychophysics","70","448238","0.0-70.0","60fe06feb5a616377ef806da","64e506be92ac81e31c1b4742","","","","","3125",""," ","key"," ","16.640500000000255","500","250","zol","0.03","1","0","-30","-28","-0.13",""
"","psychophysics","71","451558","0.0-71.0","60fe06feb5a616377ef806da","64e506be92ac81e31c1b4742","","","","","3317",""," ","key"," ","16.64155778894464","500","250","zol","0.45000000000000007","1","0","30","-21","-0.65",""
"","psychophysics","72","454265","0.0-72.0","60fe06feb5a616377ef806da","64e506be92ac81e31c1b4742","","","","","2703",""," ","key"," ","16.64049068322949","500","250","zol","0.009999999999999995","1","0","18","-5","-0.11",""
"","psychophysics","73","458476","0.0-73.0","60fe06feb5a616377ef806da","64e506be92ac81e31c1b4742","","","","","4202",""," ","key"," ","16.64227380952382","500","250","zol","0.42999999999999994","1","0","5","-11","-0.43",""
"","psychophysics","74","464979","0.0-74.0","60fe06feb5a616377ef806da","64e506be92ac81e31c1b4742","","","","","6491",""," ","key"," ","16.64118717948724","500","250","zol","-0.7699999999999999","1","0","-25","9","0.57",""
"","psychophysics","75","468823","0.0-75.0","60fe06feb5a616377ef806da","64e506be92ac81e31c1b4742","","","","","3827",""," ","key"," ","16.641660869565197","500","250","zol","-0.03","1","0","-10","25","-0.27",""
"","psychophysics","76","476830","0.0-76.0","60fe06feb5a616377ef806da","64e506be92ac81e31c1b4742","","","","","null","","null","key","null","16.640850000000015","500","250","zol","0.47","1","0","27","1","0.03",""
"","psychophysics","77","483721","0.0-77.0","60fe06feb5a616377ef806da","64e506be92ac81e31c1b4742","","","","","6888",""," ","key"," ","16.641159806295537","500","250","zol","-0.41000000000000003","1","0","-25","-8","0.71",""
"","psychophysics","78","485000","0.0-78.0","60fe06feb5a616377ef806da","64e506be92ac81e31c1b4742","","","","","1276",""," ","key"," ","16.640907894736493","500","250","inst","","","","","","",""
"","psychophysics","79","493504","0.0-79.0","60fe06feb5a616377ef806da","64e506be92ac81e31c1b4742","","","","","8501",""," ","key"," ","16.641566666666712","500","250","instPog0","160","1","","0","0","190","160"
"","psychophysics","80","500119","0.0-80.0","60fe06feb5a616377ef806da","64e506be92ac81e31c1b4742","","","","","6611",""," ","key"," ","16.640717884130957","500","250","instPog1","168","1","","0","0","190","160"
"","psychophysics","81","506877","0.0-81.0","60fe06feb5a616377ef806da","64e506be92ac81e31c1b4742","","","","","6756",""," ","key"," ","16.641639506172844","500","250","instPog2","172","1","","0","0","160","160"
"","psychophysics","82","508191","0.0-82.0","60fe06feb5a616377ef806da","64e506be92ac81e31c1b4742","","","","","1312",""," ","key"," ","16.640987179487592","500","250","inst","","","","","","",""
"","psychophysics","83","516024","0.0-83.0","60fe06feb5a616377ef806da","64e506be92ac81e31c1b4742","","","","","7827",""," ","key"," ","16.64107675906179","500","250","pog","160","1","0","0","0","208","143"
"","psychophysics","84","524029","0.0-84.0","60fe06feb5a616377ef806da","64e506be92ac81e31c1b4742","","","","","null","","null","key","null","16.641047916666746","500","250","pog","196","1","0","0","0","184","186"
"","psychophysics","85","529760","0.0-85.0","60fe06feb5a616377ef806da","64e506be92ac81e31c1b4742","","","","","5726",""," ","key"," ","16.64145639534907","500","250","pog","170","1","0","0","0","214","154"
"","psychophysics","86","532526","0.0-86.0","60fe06feb5a616377ef806da","64e506be92ac81e31c1b4742","","","","","2765",""," ","key"," ","16.64091515151544","500","250","pog","145","1","0","0","0","155","122"
"","psychophysics","87","535349","0.0-87.0","60fe06feb5a616377ef806da","64e506be92ac81e31c1b4742","","","","","2819",""," ","key"," ","16.642502958579787","500","250","pog","203","1","0","0","0","199","197"
"","psychophysics","88","539984","0.0-88.0","60fe06feb5a616377ef806da","64e506be92ac81e31c1b4742","","","","","4631",""," ","key"," ","16.640808664260195","500","250","pog","146","1","0","0","0","166","120"
"","psychophysics","89","546267","0.0-89.0","60fe06feb5a616377ef806da","64e506be92ac81e31c1b4742","","","","","6279",""," ","key"," ","16.68567021276605","500","250","pog","186","1","0","0","0","140","178"
"","psychophysics","90","552771","0.0-90.0","60fe06feb5a616377ef806da","64e506be92ac81e31c1b4742","","","","","6500",""," ","key"," ","16.641223076922902","500","250","pog","130","1","0","0","0","166","121"
"","psychophysics","91","556616","0.0-91.0","60fe06feb5a616377ef806da","64e506be92ac81e31c1b4742","","","","","3842",""," ","key"," ","16.641056521739","500","250","pog","146","1","0","0","0","170","141"
"","psychophysics","92","561198","0.0-92.0","60fe06feb5a616377ef806da","64e506be92ac81e31c1b4742","","","","","4579",""," ","key"," ","16.641346715328226","500","250","pog","163","1","0","0","0","137","160"
"","psychophysics","93","566444","0.0-93.0","60fe06feb5a616377ef806da","64e506be92ac81e31c1b4742","","","","","5240",""," ","key"," ","16.64096496815298","500","250","pog","165","1","0","0","0","113","164"
"","psychophysics","94","571113","0.0-94.0","60fe06feb5a616377ef806da","64e506be92ac81e31c1b4742","","","","","4667",""," ","key"," ","16.641810714285903","500","250","pog","166","1","0","0","0","110","167"
"","psychophysics","95","575590","0.0-95.0","60fe06feb5a616377ef806da","64e506be92ac81e31c1b4742","","","","","4474",""," ","key"," ","16.640772388059535","500","250","pog","127","1","0","0","0","117","133"
"","psychophysics","96","579868","0.0-96.0","60fe06feb5a616377ef806da","64e506be92ac81e31c1b4742","","","","","4274",""," ","key"," ","16.64003906249991","500","250","pog","172","1","0","0","0","214","172"
"","psychophysics","97","581062","0.0-97.0","60fe06feb5a616377ef806da","64e506be92ac81e31c1b4742","","","","","1191",""," ","key"," ","16.642478873239973","500","250","pog","172","1","0","0","0","174","171"
"","psychophysics","98","582985","0.0-98.0","60fe06feb5a616377ef806da","64e506be92ac81e31c1b4742","","","","","1920",""," ","key"," ","16.6405438596491","500","250","inst","","","","","","",""
"","psychophysics","99","585044","0.0-99.0","60fe06feb5a616377ef806da","64e506be92ac81e31c1b4742","","","","","2052",""," ","key"," ","16.64329268292683","500","250","instPzPre","50","0","","","","50","50"
"","psychophysics","100","587686","0.0-100.0","60fe06feb5a616377ef806da","64e506be92ac81e31c1b4742","","","","","2637",""," ","key"," ","16.641183544303985","500","250","instPz0","50","1","","","","50","50"
"","psychophysics","101","597141","0.0-101.0","60fe06feb5a616377ef806da","64e506be92ac81e31c1b4742","","","","","9449",""," ","key"," ","16.641744268077716","500","250","instPz1","51","1","","","","25","50"
"","psychophysics","102","603210","0.0-102.0","60fe06feb5a616377ef806da","64e506be92ac81e31c1b4742","","","","","6064",""," ","key"," ","16.64115109890098","500","250","instPz2","21","1","","","","35","20"
"","psychophysics","103","615019","0.0-103.0","60fe06feb5a616377ef806da","64e506be92ac81e31c1b4742","","","","","11799",""," ","key"," ","16.641011299435043","500","250","instPz3","40","1","","","","100","30"
"","psychophysics","104","636829","0.0-104.0","60fe06feb5a616377ef806da","64e506be92ac81e31c1b4742","","","","","21801",""," ","key"," ","16.64097251908397","500","250","instPz4","39","1","","","","100","30"
"","psychophysics","105","637750","0.0-105.0","60fe06feb5a616377ef806da","64e506be92ac81e31c1b4742","","","","","916",""," ","key"," ","16.643166666667202","500","250","inst","","","","","","",""
"","psychophysics","106","642726","0.0-106.0","60fe06feb5a616377ef806da","64e506be92ac81e31c1b4742","","","","","4966",""," ","key"," ","16.641332214764997","500","250","pz","61","1","0","","","25","56"
"","psychophysics","107","646932","0.0-107.0","60fe06feb5a616377ef806da","64e506be92ac81e31c1b4742","","","","","4194",""," ","key"," ","16.641400793650917","500","250","pz","44","1","0","","","56","33"
"","psychophysics","108","652087","0.0-108.0","60fe06feb5a616377ef806da","64e506be92ac81e31c1b4742","","","","","5150",""," ","key"," ","16.640980582524538","500","250","pz","57","1","0","","","23","48"
"","psychophysics","109","656614","0.0-109.0","60fe06feb5a616377ef806da","64e506be92ac81e31c1b4742","","","","","4522",""," ","key"," ","16.64078597785996","500","250","pz","25","1","0","","","30","21"
"","psychophysics","110","660572","0.0-110.0","60fe06feb5a616377ef806da","64e506be92ac81e31c1b4742","","","","","3953",""," ","key"," ","16.641426160337723","500","250","pz","60","1","0","","","36","53"
"","psychophysics","111","664673","0.0-111.0","60fe06feb5a616377ef806da","64e506be92ac81e31c1b4742","","","","","4096",""," ","key"," ","16.640824489796305","500","250","pz","27","1","0","","","33","23"
"","psychophysics","112","670391","0.0-112.0","60fe06feb5a616377ef806da","64e506be92ac81e31c1b4742","","","","","5709",""," ","key"," ","16.641233236151855","500","250","pz","34","1","0","","","55","29"
"","psychophysics","113","676755","0.0-113.0","60fe06feb5a616377ef806da","64e506be92ac81e31c1b4742","","","","","6357",""," ","key"," ","16.641551181102315","500","250","pz","54","1","0","","","51","47"
"","psychophysics","114","682486","0.0-114.0","60fe06feb5a616377ef806da","64e506be92ac81e31c1b4742","","","","","5723",""," ","key"," ","16.640906976744382","500","250","pz","34","1","0","","","48","23"
"","psychophysics","115","684460","0.0-115.0","60fe06feb5a616377ef806da","64e506be92ac81e31c1b4742","","","","","1966",""," ","key"," ","16.642119658118887","500","250","pz","27","1","0","","","27","23"
"","psychophysics","116","691468","0.0-116.0","60fe06feb5a616377ef806da","64e506be92ac81e31c1b4742","","","","","6999",""," ","key"," ","16.641285714285637","500","250","pz","57","1","0","","","25","44"
"","psychophysics","117","695024","0.0-117.0","60fe06feb5a616377ef806da","64e506be92ac81e31c1b4742","","","","","3548",""," ","key"," ","16.640915492957813","500","250","pz","57","1","0","","","44","49"
"","psychophysics","118","700432","0.0-118.0","60fe06feb5a616377ef806da","64e506be92ac81e31c1b4742","","","","","5403",""," ","key"," ","16.64071913580245","500","250","pz","54","1","0","","","27","45"
"","psychophysics","119","703721","0.0-119.0","60fe06feb5a616377ef806da","64e506be92ac81e31c1b4742","","","","","3286",""," ","key"," ","16.641807106598918","500","250","pz","71","1","0","","","54","60"
"","psychophysics","120","706652","0.0-120.0","60fe06feb5a616377ef806da","64e506be92ac81e31c1b4742","","","","","2926",""," ","key"," ","16.640080000000474","500","250","pz","47","1","0","","","42","39"
"","psychophysics","121","707267","0.0-121.0","60fe06feb5a616377ef806da","64e506be92ac81e31c1b4742","","","","","611",""," ","key"," ","16.6470555555554","500","250","inst","","","","","","",""
"","psychophysics","122","730141","0.0-122.0","60fe06feb5a616377ef806da","64e506be92ac81e31c1b4742","","","","","22870",""," ","key"," ","16.64096649672252","500","250","instZol1","2.7755575615628914e-17","","","0","0","-1.3",""
"","psychophysics","123","749322","0.0-123.0","60fe06feb5a616377ef806da","64e506be92ac81e31c1b4742","","","","","19163",""," ","key"," ","16.641144965277817","500","250","instZol2","-0.39999999999999936","2","","0","0","2",""
"","psychophysics","124","750141","0.0-124.0","60fe06feb5a616377ef806da","64e506be92ac81e31c1b4742","","","","","816",""," ","key"," ","16.641437499999785","500","250","inst","","","","","","",""
"","psychophysics","125","758152","0.0-125.0","60fe06feb5a616377ef806da","64e506be92ac81e31c1b4742","","","","","null","","null","key","null","16.64101247401233","500","250","zol","-1.0499999999999998","2","1","-25","-8","0.45",""
"","psychophysics","126","764795","0.0-126.0","60fe06feb5a616377ef806da","64e506be92ac81e31c1b4742","","","","","6635",""," ","key"," ","16.64103015075378","500","250","zol","-0.84","2","1","6","-23","-0.36",""
"","psychophysics","127","772803","0.0-127.0","60fe06feb5a616377ef806da","64e506be92ac81e31c1b4742","","","","","null","","null","key","null","16.640202083333374","500","250","zol","-0.9499999999999998","2","1","6","27","-0.75",""
"","psychophysics","128","779181","0.0-128.0","60fe06feb5a616377ef806da","64e506be92ac81e31c1b4742","","","","","6375",""," ","key"," ","16.641617801047115","500","250","zol","-1.29","2","1","14","27","-0.71",""
"","psychophysics","129","787193","0.0-129.0","60fe06feb5a616377ef806da","64e506be92ac81e31c1b4742","","","","","null","","null","key","null","16.640297297297312","500","250","zol","-0.91","2","1","12","29","-0.49",""
"","psychophysics","130","795198","0.0-130.0","60fe06feb5a616377ef806da","64e506be92ac81e31c1b4742","","","","","null","","null","key","null","16.64102083333322","500","250","zol","-1.02","2","1","-18","9","0.12",""
"","psychophysics","131","801183","0.0-131.0","60fe06feb5a616377ef806da","64e506be92ac81e31c1b4742","","","","","5978",""," ","key"," ","16.641265363128422","500","250","zol","-0.8099999999999999","2","1","-2","17","-0.09",""
"","psychophysics","132","809187","0.0-132.0","60fe06feb5a616377ef806da","64e506be92ac81e31c1b4742","","","","","null","","null","key","null","16.64122291666669","500","250","zol","-0.7699999999999999","2","1","19","27","0.17",""
"","psychophysics","133","814237","0.0-133.0","60fe06feb5a616377ef806da","64e506be92ac81e31c1b4742","","","","","5044",""," ","key"," ","16.6410759075909","500","250","zol","-1.15","2","1","-27","-15","0.15",""
"","psychophysics","134","819728","0.0-134.0","60fe06feb5a616377ef806da","64e506be92ac81e31c1b4742","","","","","5487",""," ","key"," ","16.641091185410318","500","250","zol","-1.19","2","1","-23","-17","0.19",""
"","psychophysics","135","824336","0.0-135.0","60fe06feb5a616377ef806da","64e506be92ac81e31c1b4742","","","","","4599",""," ","key"," ","16.641152173912985","500","250","zol","-0.8899999999999999","2","1","19","2","-0.31",""
"","psychophysics","136","829178","0.0-136.0","60fe06feb5a616377ef806da","64e506be92ac81e31c1b4742","","","","","4835",""," ","key"," ","16.641134482758634","500","250","zol","-0.8799999999999999","2","1","-19","30","-0.22",""
"","psychophysics","137","835003","0.0-137.0","60fe06feb5a616377ef806da","64e506be92ac81e31c1b4742","","","","","5816",""," ","key"," ","16.641197707736197","500","250","zol","-1.0799999999999998","2","1","-27","-22","-0.12",""
"","psychophysics","138","839685","0.0-138.0","60fe06feb5a616377ef806da","64e506be92ac81e31c1b4742","","","","","4672",""," ","key"," ","16.640846428571553","500","250","zol","-1.3200000000000003","2","1","17","23","0.42",""
"","psychophysics","139","844271","0.0-139.0","60fe06feb5a616377ef806da","64e506be92ac81e31c1b4742","","","","","4570",""," ","key"," ","16.641447272727437","500","250","zol","-1.1400000000000001","2","1","-28","29","-0.06",""
"","psychophysics","140","849365","0.0-140.0","60fe06feb5a616377ef806da","64e506be92ac81e31c1b4742","","","","","5091",""," ","key"," ","16.641095081967165","500","250","inst","","","","","","",""
"","psychophysics","141","857371","0.0-141.0","60fe06feb5a616377ef806da","64e506be92ac81e31c1b4742","","","","","8000",""," ","key"," ","16.64150625000014","500","250","instEB1","41","2","","0","0","30","40"
"","psychophysics","142","861911","0.0-142.0","60fe06feb5a616377ef806da","64e506be92ac81e31c1b4742","","","","","4535",""," ","key"," ","16.641147058823503","500","250","instEB2","36","2","","0","0","40","30"
"","psychophysics","143","868735","0.0-143.0","60fe06feb5a616377ef806da","64e506be92ac81e31c1b4742","","","","","6818",""," ","key"," ","16.641383863080687","500","250","instEB3","35","2","","0","0","45","27"
"","psychophysics","144","872179","0.0-144.0","60fe06feb5a616377ef806da","64e506be92ac81e31c1b4742","","","","","3440",""," ","key"," ","16.640781553398288","500","250","instEB4","47","2","","0","0","30","40"
"","psychophysics","145","872734","0.0-145.0","60fe06feb5a616377ef806da","64e506be92ac81e31c1b4742","","","","","551",""," ","key"," ","16.648093749998225","500","250","inst","","","","","","",""
"","psychophysics","146","874983","0.0-146.0","60fe06feb5a616377ef806da","64e506be92ac81e31c1b4742","","","","","2240",""," ","key"," ","16.6413283582087","500","250","eb","47","2","","0","0","49","40"
"","psychophysics","147","878103","0.0-147.0","60fe06feb5a616377ef806da","64e506be92ac81e31c1b4742","","","","","3108",""," ","key"," ","16.64112299465186","500","250","eb","41","2","","0","0","33","34"
"","psychophysics","148","882922","0.0-148.0","60fe06feb5a616377ef806da","64e506be92ac81e31c1b4742","","","","","4815",""," ","key"," ","16.640656249999868","500","250","eb","45","2","","0","0","24","40"
"","psychophysics","149","886651","0.0-149.0","60fe06feb5a616377ef806da","64e506be92ac81e31c1b4742","","","","","3716",""," ","key"," ","16.64112556053768","500","250","eb","48","2","","0","0","26","47"
"","psychophysics","150","890601","0.0-150.0","60fe06feb5a616377ef806da","64e506be92ac81e31c1b4742","","","","","3943",""," ","key"," ","16.64094092827025","500","250","eb","48","2","","0","0","25","49"
"","psychophysics","151","892898","0.0-151.0","60fe06feb5a616377ef806da","64e506be92ac81e31c1b4742","","","","","2290",""," ","key"," ","16.64218248175134","500","250","eb","42","2","","0","0","37","35"
"","psychophysics","152","896192","0.0-152.0","60fe06feb5a616377ef806da","64e506be92ac81e31c1b4742","","","","","3289",""," ","key"," ","16.640598984771447","500","250","eb","28","2","","0","0","38","24"
"","psychophysics","153","899830","0.0-153.0","60fe06feb5a616377ef806da","64e506be92ac81e31c1b4742","","","","","3629",""," ","key"," ","16.641566820276907","500","250","eb","53","2","","0","0","42","48"
"","psychophysics","154","902515","0.0-154.0","60fe06feb5a616377ef806da","64e506be92ac81e31c1b4742","","","","","2676",""," ","key"," ","16.6398509316774","500","250","eb","36","2","","0","0","42","30"
"","psychophysics","155","907719","0.0-155.0","60fe06feb5a616377ef806da","64e506be92ac81e31c1b4742","","","","","5201",""," ","key"," ","16.64191639871401","500","250","eb","52","2","","0","0","33","50"
"","psychophysics","156","909538","0.0-156.0","60fe06feb5a616377ef806da","64e506be92ac81e31c1b4742","","","","","1812",""," ","key"," ","16.640082568807074","500","250","eb","29","2","","0","0","29","29"
"","psychophysics","157","911588","0.0-157.0","60fe06feb5a616377ef806da","64e506be92ac81e31c1b4742","","","","","2048",""," ","key"," ","16.642204918033162","500","250","eb","47","2","","0","0","47","46"
"","psychophysics","158","915185","0.0-158.0","60fe06feb5a616377ef806da","64e506be92ac81e31c1b4742","","","","","3594",""," ","key"," ","16.640590697674753","500","250","eb","35","2","","0","0","52","30"
"","psychophysics","159","918895","0.0-159.0","60fe06feb5a616377ef806da","64e506be92ac81e31c1b4742","","","","","3697",""," ","key"," ","16.641180180179937","500","250","eb","52","2","","0","0","27","45"
"","psychophysics","160","922365","0.0-160.0","60fe06feb5a616377ef806da","64e506be92ac81e31c1b4742","","","","","3465",""," ","key"," ","16.6400480769231","500","250","eb","46","2","","0","0","30","36"
"","psychophysics","161","922991","0.0-161.0","60fe06feb5a616377ef806da","64e506be92ac81e31c1b4742","","","","","624",""," ","key"," ","16.644583333332168","500","250","inst","","","","","","",""
"","psychophysics","162","927587","0.0-162.0","60fe06feb5a616377ef806da","64e506be92ac81e31c1b4742","","","","","4593",""," ","key"," ","16.641272727272643","500","250","instPog0","340","2","","0","0","370","340"
"","psychophysics","163","934075","0.0-163.0","60fe06feb5a616377ef806da","64e506be92ac81e31c1b4742","","","","","6480",""," ","key"," ","16.6412313624679","500","250","instPog1","346","2","","0","0","370","340"
"","psychophysics","164","937077","0.0-164.0","60fe06feb5a616377ef806da","64e506be92ac81e31c1b4742","","","","","2998",""," ","key"," ","16.64111111111124","500","250","instPog2","336","2","","0","0","340","340"
"","psychophysics","165","937993","0.0-165.0","60fe06feb5a616377ef806da","64e506be92ac81e31c1b4742","","","","","911",""," ","key"," ","16.644351851850473","500","250","inst","","","","","","",""
"","psychophysics","166","942679","0.0-166.0","60fe06feb5a616377ef806da","64e506be92ac81e31c1b4742","","","","","4681",""," ","key"," ","16.640467857142877","500","250","pog","312","2","1","0","0","374","313"
"","psychophysics","167","944262","0.0-167.0","60fe06feb5a616377ef806da","64e506be92ac81e31c1b4742","","","","","1580",""," ","key"," ","16.64260638297902","500","250","pog","300","2","1","0","0","298","304"
"","psychophysics","168","949446","0.0-168.0","60fe06feb5a616377ef806da","64e506be92ac81e31c1b4742","","","","","5175",""," ","key"," ","16.64107395498377","500","250","pog","366","2","1","0","0","380","367"
"","psychophysics","169","954457","0.0-169.0","60fe06feb5a616377ef806da","64e506be92ac81e31c1b4742","","","","","5007",""," ","key"," ","16.641023333333045","500","250","pog","341","2","1","0","0","347","338"
"","psychophysics","170","962125","0.0-170.0","60fe06feb5a616377ef806da","64e506be92ac81e31c1b4742","","","","","7666",""," ","key"," ","16.64072173913035","500","250","pog","367","2","1","0","0","293","380"
"","psychophysics","171","968292","0.0-171.0","60fe06feb5a616377ef806da","64e506be92ac81e31c1b4742","","","","","6165",""," ","key"," ","16.640864498644806","500","250","pog","358","2","1","0","0","318","371"
"","psychophysics","172","971523","0.0-172.0","60fe06feb5a616377ef806da","64e506be92ac81e31c1b4742","","","","","3227",""," ","key"," ","16.6412164948457","500","250","pog","294","2","1","0","0","328","301"
"","psychophysics","173","975081","0.0-173.0","60fe06feb5a616377ef806da","64e506be92ac81e31c1b4742","","","","","3556",""," ","key"," ","16.64111320754757","500","250","pog","316","2","1","0","0","366","325"
"","psychophysics","174","977046","0.0-174.0","60fe06feb5a616377ef806da","64e506be92ac81e31c1b4742","","","","","1959",""," ","key"," ","16.639305084746457","500","250","pog","304","2","1","0","0","302","315"
"","psychophysics","175","980020","0.0-175.0","60fe06feb5a616377ef806da","64e506be92ac81e31c1b4742","","","","","2972",""," ","key"," ","16.641169491525226","500","250","pog","370","2","1","0","0","382","368"
"","psychophysics","176","982615","0.0-176.0","60fe06feb5a616377ef806da","64e506be92ac81e31c1b4742","","","","","2584",""," ","key"," ","16.64216774193525","500","250","pog","349","2","1","0","0","345","360"
"","psychophysics","177","989305","0.0-177.0","60fe06feb5a616377ef806da","64e506be92ac81e31c1b4742","","","","","6687",""," ","key"," ","16.64131421446388","500","250","pog","357","2","1","0","0","389","362"
"","psychophysics","178","993179","0.0-178.0","60fe06feb5a616377ef806da","64e506be92ac81e31c1b4742","","","","","3863",""," ","key"," ","16.640987068965654","500","250","pog","374","2","1","0","0","300","374"
"","psychophysics","179","997670","0.0-179.0","60fe06feb5a616377ef806da","64e506be92ac81e31c1b4742","","","","","4490",""," ","key"," ","16.641074349442462","500","250","pog","310","2","1","0","0","374","305"
"","psychophysics","180","999332","0.0-180.0","60fe06feb5a616377ef806da","64e506be92ac81e31c1b4742","","","","","1659",""," ","key"," ","16.642313131313497","500","250","pog","347","2","1","0","0","345","343"
"","psychophysics","181","1000098","0.0-181.0","60fe06feb5a616377ef806da","64e506be92ac81e31c1b4742","","","","","763",""," ","key"," ","16.64168888888736","500","250","inst","","","","","","",""
"","psychophysics","182","1006379","0.0-182.0","60fe06feb5a616377ef806da","64e506be92ac81e31c1b4742","","","","","6275",""," ","key"," ","16.64103191489344","500","250","instPz1","47","2","","","","25","50"
"","psychophysics","183","1018768","0.0-183.0","60fe06feb5a616377ef806da","64e506be92ac81e31c1b4742","","","","","12386",""," ","key"," ","16.641037634408644","500","250","instPz2","35","2","","","","20","35"
"","psychophysics","184","1025906","0.0-184.0","60fe06feb5a616377ef806da","64e506be92ac81e31c1b4742","","","","","7130",""," ","key"," ","16.640960280373847","500","250","instPz3","76","2","","","","30","100"
"","psychophysics","185","1030257","0.0-185.0","60fe06feb5a616377ef806da","64e506be92ac81e31c1b4742","","","","","4348",""," ","key"," ","16.641757692307987","500","250","instPz4","63","2","","","","30","100"
"","psychophysics","186","1033003","0.0-186.0","60fe06feb5a616377ef806da","64e506be92ac81e31c1b4742","","","","","2742",""," ","key"," ","16.642219512195258","500","250","inst","","","","","","",""
"","psychophysics","187","1039419","0.0-187.0","60fe06feb5a616377ef806da","64e506be92ac81e31c1b4742","","","","","6407",""," ","key"," ","16.641124675324633","500","250","pz","27","2","1","","","60","30"
"","psychophysics","188","1042533","0.0-188.0","60fe06feb5a616377ef806da","64e506be92ac81e31c1b4742","","","","","3107",""," ","key"," ","16.641451612903527","500","250","pz","45","2","1","","","27","57"
"","psychophysics","189","1045204","0.0-189.0","60fe06feb5a616377ef806da","64e506be92ac81e31c1b4742","","","","","2666",""," ","key"," ","16.640654088050688","500","250","pz","30","2","1","","","49","33"
"","psychophysics","190","1047888","0.0-190.0","60fe06feb5a616377ef806da","64e506be92ac81e31c1b4742","","","","","2672",""," ","key"," ","16.64126708074574","500","250","pz","46","2","1","","","45","54"
"","psychophysics","191","1052384","0.0-191.0","60fe06feb5a616377ef806da","64e506be92ac81e31c1b4742","","","","","4491",""," ","key"," ","16.64013011152354","500","250","pz","19","2","1","","","48","20"
"","psychophysics","192","1055057","0.0-192.0","60fe06feb5a616377ef806da","64e506be92ac81e31c1b4742","","","","","2669",""," ","key"," ","16.64264779874276","500","250","pz","45","2","1","","","55","52"
"","psychophysics","193","1057182","0.0-193.0","60fe06feb5a616377ef806da","64e506be92ac81e31c1b4742","","","","","2116",""," ","key"," ","16.64114173228383","500","250","pz","36","2","1","","","37","40"
"","psychophysics","194","1058734","0.0-194.0","60fe06feb5a616377ef806da","64e506be92ac81e31c1b4742","","","","","1548",""," ","key"," ","16.643956521738563","500","250","pz","45","2","1","","","45","54"
"","psychophysics","195","1062760","0.0-195.0","60fe06feb5a616377ef806da","64e506be92ac81e31c1b4742","","","","","4017",""," ","key"," ","16.640933609957887","500","250","pz","39","2","1","","","26","43"
"","psychophysics","196","1064960","0.0-196.0","60fe06feb5a616377ef806da","64e506be92ac81e31c1b4742","","","","","2187",""," ","key"," ","16.641396946565227","500","250","pz","50","2","1","","","51","58"
"","psychophysics","197","1067714","0.0-197.0","60fe06feb5a616377ef806da","64e506be92ac81e31c1b4742","","","","","2746",""," ","key"," ","16.641266666666013","500","250","pz","42","2","1","","","34","46"
"","psychophysics","198","1070676","0.0-198.0","60fe06feb5a616377ef806da","64e506be92ac81e31c1b4742","","","","","2958",""," ","key"," ","16.640813559322687","500","250","pz","30","2","1","","","38","28"
"","psychophysics","199","1074781","0.0-199.0","60fe06feb5a616377ef806da","64e506be92ac81e31c1b4742","","","","","4100",""," ","key"," ","16.640512195121445","500","250","pz","41","2","1","","","56","47"
"","psychophysics","200","1077176","0.0-200.0","60fe06feb5a616377ef806da","64e506be92ac81e31c1b4742","","","","","2391",""," ","key"," ","16.64065034964962","500","250","pz","42","2","1","","","36","49"
"","psychophysics","201","1079352","0.0-201.0","60fe06feb5a616377ef806da","64e506be92ac81e31c1b4742","","","","","2170",""," ","key"," ","16.640077519380352","500","250","pz","36","2","1","","","29","40"
"","psychophysics","202","1080327","0.0-202.0","60fe06feb5a616377ef806da","64e506be92ac81e31c1b4742","","","","","970",""," ","key"," ","16.643482758619438","500","250","inst","","","","","","",""
"","psychophysics","203","1127654","0.0-203.0","60fe06feb5a616377ef806da","64e506be92ac81e31c1b4742","","","","","47322",""," ","key"," ","16.640916285613788","500","250","instBr3","-12","1","","0","0","40","300"
"","psychophysics","204","1128296","0.0-204.0","60fe06feb5a616377ef806da","64e506be92ac81e31c1b4742","","","","","642",""," ","key"," ","16.642605263163876","500","250","inst","","","","","","",""
"","psychophysics","205","1130668","0.0-205.0","60fe06feb5a616377ef806da","64e506be92ac81e31c1b4742","","","","","2366",""," ","key"," ","16.641936170213018","500","250","br","-11","1","1","17","-7","8","212"
"","psychophysics","206","1133069","0.0-206.0","60fe06feb5a616377ef806da","64e506be92ac81e31c1b4742","","","","","2397",""," ","key"," ","16.639503496503654","500","250","br","-7","1","1","-6","8","23","237"
"","psychophysics","207","1135756","0.0-207.0","60fe06feb5a616377ef806da","64e506be92ac81e31c1b4742","","","","","2682",""," ","key"," ","16.642534161489802","500","250","br","-9","1","1","30","13","11","273"
"","psychophysics","208","1138468","0.0-208.0","60fe06feb5a616377ef806da","64e506be92ac81e31c1b4742","","","","","2707",""," ","key"," ","16.641790123456616","500","250","br","-5","1","1","1","-8","25","259"
"","psychophysics","209","1142612","0.0-209.0","60fe06feb5a616377ef806da","64e506be92ac81e31c1b4742","","","","","4140",""," ","key"," ","16.641568548387788","500","250","br","-6","1","1","1","20","3","220"
"","psychophysics","210","1145599","0.0-210.0","60fe06feb5a616377ef806da","64e506be92ac81e31c1b4742","","","","","2982",""," ","key"," ","16.640235955056504","500","250","br","-4","1","1","-17","30","18","200"
"","psychophysics","211","1147564","0.0-211.0","60fe06feb5a616377ef806da","64e506be92ac81e31c1b4742","","","","","1948",""," ","key"," ","16.642401709402392","500","250","br","-9","1","1","11","28","6","267"
"","psychophysics","212","1149424","0.0-212.0","60fe06feb5a616377ef806da","64e506be92ac81e31c1b4742","","","","","1851",""," ","key"," ","16.642225225225324","500","250","br","-3","1","1","-1","11","16","211"
"","psychophysics","213","1151779","0.0-213.0","60fe06feb5a616377ef806da","64e506be92ac81e31c1b4742","","","","","2344",""," ","key"," ","16.641929078014925","500","250","br","-4","1","1","-21","26","28","270"
"","psychophysics","214","1154159","0.0-214.0","60fe06feb5a616377ef806da","64e506be92ac81e31c1b4742","","","","","2375",""," ","key"," ","16.6398591549303","500","250","br","-8","1","1","4","22","23","290"
"","psychophysics","215","1155876","0.0-215.0","60fe06feb5a616377ef806da","64e506be92ac81e31c1b4742","","","","","1710",""," ","key"," ","16.64207843137339","500","250","br","-14","1","1","8","-7","-3","234"
"","psychophysics","216","1159223","0.0-216.0","60fe06feb5a616377ef806da","64e506be92ac81e31c1b4742","","","","","3343",""," ","key"," ","16.64064999999944","500","250","br","-9","1","1","-11","-9","-30","290"
"","psychophysics","217","1161585","0.0-217.0","60fe06feb5a616377ef806da","64e506be92ac81e31c1b4742","","","","","2360",""," ","key"," ","16.64241134751826","500","250","br","-6","1","1","-16","-29","6","202"
"","psychophysics","218","1164010","0.0-218.0","60fe06feb5a616377ef806da","64e506be92ac81e31c1b4742","","","","","2421",""," ","key"," ","16.64011724137958","500","250","br","-10","1","1","25","5","7","229"
"","psychophysics","219","1166551","0.0-219.0","60fe06feb5a616377ef806da","64e506be92ac81e31c1b4742","","","","","2535",""," ","key"," ","16.64113907284714","500","250","br","-10","1","1","-18","-3","-18","238"
