"success","trial_type","trial_index","time_elapsed","internal_node_id","pid","sid","timeout","failed_images","failed_audio","failed_video","rt","stimulus","response","response_type","key_press","avg_frame_time","center_x","center_y","task","resp","version","block","start","jitterX","jitterY","parA"
"true","fullscreen","0","4804","0.0-0.0","588fc465a7e5300001199329","64e508cc391e968d7180fa21","","","","","","","","","","","","","","","","","","","",""
"true","preload","1","4847","0.0-1.0","588fc465a7e5300001199329","64e508cc391e968d7180fa21","false","[]","[]","[]","","","","","","","","","","","","","","","",""
"","html-button-response","2","7759","0.0-2.0","588fc465a7e5300001199329","64e508cc391e968d7180fa21","","","","","2911","Please Make Sure Your Audio Is On.","0","","","","","","","","","","","","",""
"","psychophysics","3","17434","0.0-3.0","588fc465a7e5300001199329","64e508cc391e968d7180fa21","","","","","9668",""," ","key"," ","16.66","768","250","","","","","","","",""
"","psychophysics","4","24990","0.0-4.0","588fc465a7e5300001199329","64e508cc391e968d7180fa21","","","","","7555",""," ","key"," ","16.664768211920528","500","250","inst","","","","","","",""
"","psychophysics","5","29184","0.0-5.0","588fc465a7e5300001199329","64e508cc391e968d7180fa21","","","","","4191",""," ","key"," ","16.664800000000003","500","250","sample0","","","","","","",""
"","psychophysics","6","32931","0.0-6.0","588fc465a7e5300001199329","64e508cc391e968d7180fa21","","","","","3745",""," ","key"," ","16.66473214285715","500","250","sample1","","","","","","",""
"","psychophysics","7","53436","0.0-7.0","588fc465a7e5300001199329","64e508cc391e968d7180fa21","","","","","20502",""," ","key"," ","16.666183889340925","500","250","sample2","102","","","","","",""
"","psychophysics","8","66195","0.0-8.0","588fc465a7e5300001199329","64e508cc391e968d7180fa21","","","","","12751",""," ","key"," ","16.664810457516342","500","250","sample3","100","","","","","",""
"","psychophysics","9","74209","0.0-9.0","588fc465a7e5300001199329","64e508cc391e968d7180fa21","","","","","7995",""," ","key"," ","16.66479166666665","500","250","sample4","102","","","","","",""
"","psychophysics","10","79252","0.0-10.0","588fc465a7e5300001199329","64e508cc391e968d7180fa21","","","","","5037",""," ","key"," ","16.664784053156165","500","250","sample5","","","","","","",""
"","psychophysics","11","91714","0.0-11.0","588fc465a7e5300001199329","64e508cc391e968d7180fa21","","","","","12452",""," ","key"," ","16.66677376171352","500","250","sample6","502","","","","","",""
"","psychophysics","12","98498","0.0-12.0","588fc465a7e5300001199329","64e508cc391e968d7180fa21","","","","","6772",""," ","key"," ","16.78888337468982","500","250","inst","","","","","","",""
"","psychophysics","13","106692","0.0-13.0","588fc465a7e5300001199329","64e508cc391e968d7180fa21","","","","","8184",""," ","key"," ","16.664806517311604","500","250","inst","","","","","","",""
"","psychophysics","14","112725","0.0-14.0","588fc465a7e5300001199329","64e508cc391e968d7180fa21","","","","","6030",""," ","key"," ","16.664764542936275","500","250","inst","","","","","","",""
"","psychophysics","15","115609","0.0-15.0","588fc465a7e5300001199329","64e508cc391e968d7180fa21","","","","","2879",""," ","key"," ","16.66476744186053","500","250","inst","","","","","","",""
"","psychophysics","16","117832","0.0-16.0","588fc465a7e5300001199329","64e508cc391e968d7180fa21","","","","","2220",""," ","key"," ","16.664848484848555","500","250","inst","","","","","","",""
"","psychophysics","17","129074","0.0-17.0","588fc465a7e5300001199329","64e508cc391e968d7180fa21","","","","","11230",""," ","key"," ","16.667418397626108","500","250","instPog0","340","2","","370","0","0","340"
"","psychophysics","18","140284","0.0-18.0","588fc465a7e5300001199329","64e508cc391e968d7180fa21","","","","","11194",""," ","key"," ","16.664791666666673","500","250","instPog1","344","2","","370","0","0","340"
"","psychophysics","19","150439","0.0-19.0","588fc465a7e5300001199329","64e508cc391e968d7180fa21","","","","","10145",""," ","key"," ","16.66480263157892","500","250","instPog2","332","2","","340","0","0","340"
"","psychophysics","20","153922","0.0-20.0","588fc465a7e5300001199329","64e508cc391e968d7180fa21","","","","","3480",""," ","key"," ","16.74531400966183","500","250","inst","","","","","","",""
"","psychophysics","21","160589","0.0-21.0","588fc465a7e5300001199329","64e508cc391e968d7180fa21","","","","","6662",""," ","key"," ","16.66481203007521","500","250","pog","317","2","0","287","0","0","336"
"","psychophysics","22","163065","0.0-22.0","588fc465a7e5300001199329","64e508cc391e968d7180fa21","","","","","2471",""," ","key"," ","16.675675675675677","500","250","pog","285","2","0","285","0","0","310"
"","psychophysics","23","171070","0.0-23.0","588fc465a7e5300001199329","64e508cc391e968d7180fa21","","","","","null","","null","key","null","16.664801670146144","500","250","pog","317","2","0","371","0","0","327"
"","psychophysics","24","176269","0.0-24.0","588fc465a7e5300001199329","64e508cc391e968d7180fa21","","","","","5195",""," ","key"," ","16.664823151125432","500","250","pog","328","2","0","306","0","0","348"
"","psychophysics","25","179993","0.0-25.0","588fc465a7e5300001199329","64e508cc391e968d7180fa21","","","","","3719",""," ","key"," ","16.664774774774717","500","250","pog","332","2","0","342","0","0","346"
"","psychophysics","26","184936","0.0-26.0","588fc465a7e5300001199329","64e508cc391e968d7180fa21","","","","","4929",""," ","key"," ","16.664797297297294","500","250","pog","343","2","0","389","0","0","362"
"","psychophysics","27","192003","0.0-27.0","588fc465a7e5300001199329","64e508cc391e968d7180fa21","","","","","7063",""," ","key"," ","16.664775413711542","500","250","pog","351","2","0","341","0","0","375"
"","psychophysics","28","193660","0.0-28.0","588fc465a7e5300001199329","64e508cc391e968d7180fa21","","","","","1654",""," ","key"," ","16.664693877551162","500","250","pog","306","2","0","306","0","0","324"
"","psychophysics","29","200933","0.0-29.0","588fc465a7e5300001199329","64e508cc391e968d7180fa21","","","","","7262",""," ","key"," ","16.668165137614697","500","250","pog","314","2","0","346","0","0","332"
"","psychophysics","30","206041","0.0-30.0","588fc465a7e5300001199329","64e508cc391e968d7180fa21","","","","","5103",""," ","key"," ","16.664786885245835","500","250","pog","352","2","0","374","0","0","365"
"","psychophysics","31","207185","0.0-31.0","588fc465a7e5300001199329","64e508cc391e968d7180fa21","","","","","1134",""," ","key"," ","16.665000000000017","500","250","pog","318","2","0","318","0","0","331"
"","psychophysics","32","214293","0.0-32.0","588fc465a7e5300001199329","64e508cc391e968d7180fa21","","","","","7103",""," ","key"," ","16.66480000000002","500","250","pog","301","2","0","387","0","0","316"
"","psychophysics","33","215465","0.0-33.0","588fc465a7e5300001199329","64e508cc391e968d7180fa21","","","","","1164",""," ","key"," ","16.664857142856842","500","250","pog","367","2","0","367","0","0","374"
"","psychophysics","34","220486","0.0-34.0","588fc465a7e5300001199329","64e508cc391e968d7180fa21","","","","","5017",""," ","key"," ","16.664800000000007","500","250","pog","306","2","0","374","0","0","319"
"","psychophysics","35","226699","0.0-35.0","588fc465a7e5300001199329","64e508cc391e968d7180fa21","","","","","6210",""," ","key"," ","16.664838709677436","500","250","pog","326","2","0","294","0","0","344"
"","psychophysics","36","231937","0.0-36.0","588fc465a7e5300001199329","64e508cc391e968d7180fa21","","","","","5234",""," ","key"," ","16.669392971245973","500","250","inst","","","","","","",""
"","psychophysics","37","235046","0.0-37.0","588fc465a7e5300001199329","64e508cc391e968d7180fa21","","","","","3105",""," ","key"," ","16.664838709677436","500","250","instPzPre","50","0","","50","","","50"
"","psychophysics","38","239217","0.0-38.0","588fc465a7e5300001199329","64e508cc391e968d7180fa21","","","","","4166",""," ","key"," ","16.66481927710835","500","250","instPz0","50","1","","50","","","50"
"","psychophysics","39","244935","0.0-39.0","588fc465a7e5300001199329","64e508cc391e968d7180fa21","","","","","5715",""," ","key"," ","16.66479532163747","500","250","instPz1","25","1","","25","","","50"
"","psychophysics","40","249028","0.0-40.0","588fc465a7e5300001199329","64e508cc391e968d7180fa21","","","","","4087",""," ","key"," ","16.664734693877495","500","250","instPz2","35","1","","35","","","20"
"","psychophysics","41","261136","0.0-41.0","588fc465a7e5300001199329","64e508cc391e968d7180fa21","","","","","12103",""," ","key"," ","16.687817679557984","500","250","instPz3","83","1","","100","","","30"
"","psychophysics","42","267071","0.0-42.0","588fc465a7e5300001199329","64e508cc391e968d7180fa21","","","","","5925",""," ","key"," ","16.66478873239445","500","250","instPz4","85","1","","100","","","30"
"","psychophysics","43","269119","0.0-43.0","588fc465a7e5300001199329","64e508cc391e968d7180fa21","","","","","2040",""," ","key"," ","16.664754098360465","500","250","inst","","","","","","",""
"","psychophysics","44","273204","0.0-44.0","588fc465a7e5300001199329","64e508cc391e968d7180fa21","","","","","4076",""," ","key"," ","16.67188524590141","500","250","pz","79","1","0","35","","","50"
"","psychophysics","45","276828","0.0-45.0","588fc465a7e5300001199329","64e508cc391e968d7180fa21","","","","","3615",""," ","key"," ","16.664792626727884","500","250","pz","79","1","0","41","","","48"
"","psychophysics","46","281365","0.0-46.0","588fc465a7e5300001199329","64e508cc391e968d7180fa21","","","","","4533",""," ","key"," ","16.664797047970385","500","250","pz","79","1","0","26","","","37"
"","psychophysics","47","285186","0.0-47.0","588fc465a7e5300001199329","64e508cc391e968d7180fa21","","","","","3817",""," ","key"," ","16.664824561403325","500","250","pz","89","1","0","44","","","57"
"","psychophysics","48","289362","0.0-48.0","588fc465a7e5300001199329","64e508cc391e968d7180fa21","","","","","4167",""," ","key"," ","16.664800000000046","500","250","pz","48","1","0","22","","","26"
"","psychophysics","49","295866","0.0-49.0","588fc465a7e5300001199329","64e508cc391e968d7180fa21","","","","","6499",""," ","key"," ","16.664832904884307","500","250","pz","68","1","0","20","","","46"
"","psychophysics","50","298977","0.0-50.0","588fc465a7e5300001199329","64e508cc391e968d7180fa21","","","","","3108",""," ","key"," ","16.66483870967728","500","250","pz","78","1","0","36","","","56"
"","psychophysics","51","302267","0.0-51.0","588fc465a7e5300001199329","64e508cc391e968d7180fa21","","","","","3284",""," ","key"," ","16.664795918367286","500","250","pz","90","1","0","27","","","50"
"","psychophysics","52","304949","0.0-52.0","588fc465a7e5300001199329","64e508cc391e968d7180fa21","","","","","2672",""," ","key"," ","16.875822784810158","500","250","pz","89","1","0","37","","","50"
"","psychophysics","53","306916","0.0-53.0","588fc465a7e5300001199329","64e508cc391e968d7180fa21","","","","","1949",""," ","key"," ","16.664786324786068","500","250","pz","86","1","0","53","","","34"
"","psychophysics","54","309964","0.0-54.0","588fc465a7e5300001199329","64e508cc391e968d7180fa21","","","","","3034",""," ","key"," ","16.664835164835164","500","250","pz","92","1","0","47","","","57"
"","psychophysics","55","313259","0.0-55.0","588fc465a7e5300001199329","64e508cc391e968d7180fa21","","","","","3290",""," ","key"," ","16.673401015228297","500","250","pz","95","1","0","27","","","47"
"","psychophysics","56","317710","0.0-56.0","588fc465a7e5300001199329","64e508cc391e968d7180fa21","","","","","4447",""," ","key"," ","16.664812030075066","500","250","pz","108","1","0","53","","","58"
"","psychophysics","57","321017","0.0-57.0","588fc465a7e5300001199329","64e508cc391e968d7180fa21","","","","","3302",""," ","key"," ","16.664771573603872","500","250","pz","90","1","0","45","","","46"
"","psychophysics","58","323675","0.0-58.0","588fc465a7e5300001199329","64e508cc391e968d7180fa21","","","","","2645",""," ","key"," ","16.664779874213544","500","250","pz","76","1","0","39","","","35"
"","psychophysics","59","324648","0.0-59.0","588fc465a7e5300001199329","64e508cc391e968d7180fa21","","","","","969",""," ","key"," ","16.962499999999377","500","250","inst","","","","","","",""
"","psychophysics","60","326296","0.0-60.0","588fc465a7e5300001199329","64e508cc391e968d7180fa21","","","","","1638",""," ","key"," ","16.664897959183413","500","250","instEB0","40","1","","40","0","0","40"
"","psychophysics","61","329027","0.0-61.0","588fc465a7e5300001199329","64e508cc391e968d7180fa21","","","","","2728",""," ","key"," ","16.664785276073534","500","250","instEB1","40","1","","40","0","0","30"
"","psychophysics","62","334894","0.0-62.0","588fc465a7e5300001199329","64e508cc391e968d7180fa21","","","","","5860",""," ","key"," ","16.664786324786398","500","250","instEB2","30","1","","30","0","0","40"
"","psychophysics","63","339557","0.0-63.0","588fc465a7e5300001199329","64e508cc391e968d7180fa21","","","","","4658",""," ","key"," ","16.664802867383447","500","250","instEB3","27","1","","27","0","0","45"
"","psychophysics","64","349641","0.0-64.0","588fc465a7e5300001199329","64e508cc391e968d7180fa21","","","","","10079",""," ","key"," ","16.664801324503276","500","250","instEB4","27","1","","40","0","0","30"
"","psychophysics","65","350790","0.0-65.0","588fc465a7e5300001199329","64e508cc391e968d7180fa21","","","","","1146",""," ","key"," ","16.9134328358202","500","250","inst","","","","","","",""
"","psychophysics","66","358797","0.0-66.0","588fc465a7e5300001199329","64e508cc391e968d7180fa21","","","","","null","","null","key","null","16.668392484342327","500","250","eb","47","1","","37","0","0","49"
"","psychophysics","67","359031","0.0-67.0","588fc465a7e5300001199329","64e508cc391e968d7180fa21","","","","","222",""," ","key"," ","16.66461538461646","500","250","eb","24","1","","24","0","0","28"
"","psychophysics","68","362701","0.0-68.0","588fc465a7e5300001199329","64e508cc391e968d7180fa21","","","","","3658",""," ","key"," ","16.664818181818223","500","250","eb","34","1","","46","0","0","37"
"","psychophysics","69","364675","0.0-69.0","588fc465a7e5300001199329","64e508cc391e968d7180fa21","","","","","1967",""," ","key"," ","16.664786324786565","500","250","eb","44","1","","44","0","0","50"
"","psychophysics","70","367501","0.0-70.0","588fc465a7e5300001199329","64e508cc391e968d7180fa21","","","","","2808",""," ","key"," ","16.664733727810457","500","250","eb","26","1","","40","0","0","27"
"","psychophysics","71","370520","0.0-71.0","588fc465a7e5300001199329","64e508cc391e968d7180fa21","","","","","3010",""," ","key"," ","16.664777777777637","500","250","eb","27","1","","53","0","0","29"
"","psychophysics","72","372743","0.0-72.0","588fc465a7e5300001199329","64e508cc391e968d7180fa21","","","","","2219",""," ","key"," ","16.66469696969734","500","250","eb","40","1","","33","0","0","47"
"","psychophysics","73","374102","0.0-73.0","588fc465a7e5300001199329","64e508cc391e968d7180fa21","","","","","1345",""," ","key"," ","16.66469135802429","500","250","eb","34","1","","34","0","0","39"
"","psychophysics","74","376261","0.0-74.0","588fc465a7e5300001199329","64e508cc391e968d7180fa21","","","","","2153",""," ","key"," ","16.664843749999818","500","250","eb","42","1","","50","0","0","38"
"","psychophysics","75","379021","0.0-75.0","588fc465a7e5300001199329","64e508cc391e968d7180fa21","","","","","2744",""," ","key"," ","16.664848484848203","500","250","eb","30","1","","40","0","0","29"
"","psychophysics","76","382112","0.0-76.0","588fc465a7e5300001199329","64e508cc391e968d7180fa21","","","","","3084",""," ","key"," ","16.664782608695692","500","250","eb","27","1","","25","0","0","28"
"","psychophysics","77","386913","0.0-77.0","588fc465a7e5300001199329","64e508cc391e968d7180fa21","","","","","4788",""," ","key"," ","16.664808362369296","500","250","eb","31","1","","49","0","0","35"
"","psychophysics","78","389470","0.0-78.0","588fc465a7e5300001199329","64e508cc391e968d7180fa21","","","","","2546",""," ","key"," ","16.66470588235302","500","250","eb","37","1","","50","0","0","39"
"","psychophysics","79","392110","0.0-79.0","588fc465a7e5300001199329","64e508cc391e968d7180fa21","","","","","2634",""," ","key"," ","16.66471337579646","500","250","eb","34","1","","53","0","0","35"
"","psychophysics","80","395009","0.0-80.0","588fc465a7e5300001199329","64e508cc391e968d7180fa21","","","","","2888",""," ","key"," ","16.664855491329586","500","250","eb","33","1","","38","0","0","32"
"","psychophysics","81","396085","0.0-81.0","588fc465a7e5300001199329","64e508cc391e968d7180fa21","","","","","1064",""," ","key"," ","16.956507936508086","500","250","inst","","","","","","",""
"","psychophysics","82","398046","0.0-82.0","588fc465a7e5300001199329","64e508cc391e968d7180fa21","","","","","1957",""," ","key"," ","16.66482758620736","500","250","instZol0","0","","","0","0","0",""
"","psychophysics","83","404315","0.0-83.0","588fc465a7e5300001199329","64e508cc391e968d7180fa21","","","","","6260",""," ","key"," ","16.66478723404261","500","250","instZol1","1.3","","","-1.3","0","0",""
"","psychophysics","84","407317","0.0-84.0","588fc465a7e5300001199329","64e508cc391e968d7180fa21","","","","","2995",""," ","key"," ","16.664804469273744","500","250","instZol2","-1.9","2","","2","0","0",""
"","psychophysics","85","410365","0.0-85.0","588fc465a7e5300001199329","64e508cc391e968d7180fa21","","","","","3045",""," ","key"," ","16.664835164835164","500","250","inst","","","","","","",""
"","psychophysics","86","418372","0.0-86.0","588fc465a7e5300001199329","64e508cc391e968d7180fa21","","","","","null","","null","key","null","16.664801670146144","500","250","zol","0.04000000000000001","2","0","-0.04","28","16",""
"","psychophysics","87","423072","0.0-87.0","588fc465a7e5300001199329","64e508cc391e968d7180fa21","","","","","4695",""," ","key"," ","16.66476868327398","500","250","zol","0.05999999999999983","2","0","0.64","23","14",""
"","psychophysics","88","424567","0.0-88.0","588fc465a7e5300001199329","64e508cc391e968d7180fa21","","","","","1492",""," ","key"," ","16.66471910112396","500","250","zol","0.57","2","0","-0.07","15","20",""
"","psychophysics","89","425984","0.0-89.0","588fc465a7e5300001199329","64e508cc391e968d7180fa21","","","","","1411",""," ","key"," ","16.66476190476221","500","250","zol","-0.08999999999999997","2","0","-0.71","-30","20",""
"","psychophysics","90","427025","0.0-90.0","588fc465a7e5300001199329","64e508cc391e968d7180fa21","","","","","1036",""," ","key"," ","16.664590163934083","500","250","zol","-1.06","2","0","0.46","23","-5",""
"","psychophysics","91","428467","0.0-91.0","588fc465a7e5300001199329","64e508cc391e968d7180fa21","","","","","1428",""," ","key"," ","16.664883720930153","500","250","zol","1.1500000000000001","2","0","-0.55","-8","-26",""
"","psychophysics","92","430300","0.0-92.0","588fc465a7e5300001199329","64e508cc391e968d7180fa21","","","","","1829",""," ","key"," ","16.664770642202026","500","250","zol","1.37","2","0","-0.47","-29","2",""
"","psychophysics","93","432069","0.0-93.0","588fc465a7e5300001199329","64e508cc391e968d7180fa21","","","","","1762",""," ","key"," ","16.664761904761793","500","250","zol","-0.54","2","0","-0.16","-14","7",""
"","psychophysics","94","433471","0.0-94.0","588fc465a7e5300001199329","64e508cc391e968d7180fa21","","","","","1398",""," ","key"," ","16.66481927710835","500","250","zol","-1.3100000000000003","2","0","0.71","-3","27",""
"","psychophysics","95","434936","0.0-95.0","588fc465a7e5300001199329","64e508cc391e968d7180fa21","","","","","1460",""," ","key"," ","16.684367816092383","500","250","zol","0.5499999999999999","2","0","0.05","11","-14",""
"","psychophysics","96","436717","0.0-96.0","588fc465a7e5300001199329","64e508cc391e968d7180fa21","","","","","1775",""," ","key"," ","16.664716981132273","500","250","zol","-1.19","2","0","0.19","8","-26",""
"","psychophysics","97","439588","0.0-97.0","588fc465a7e5300001199329","64e508cc391e968d7180fa21","","","","","2865",""," ","key"," ","16.664795321637385","500","250","zol","-0.97","2","0","-0.43","9","-3",""
"","psychophysics","98","442726","0.0-98.0","588fc465a7e5300001199329","64e508cc391e968d7180fa21","","","","","3134",""," ","key"," ","16.664812834224637","500","250","zol","-1.0599999999999998","2","0","-0.54","9","-14",""
"","psychophysics","99","445168","0.0-99.0","588fc465a7e5300001199329","64e508cc391e968d7180fa21","","","","","2428",""," ","key"," ","16.66479452054793","500","250","zol","-1.4500000000000002","2","0","0.25","-21","-29",""
"","psychophysics","100","448115","0.0-100.0","588fc465a7e5300001199329","64e508cc391e968d7180fa21","","","","","2944",""," ","key"," ","16.664772727272727","500","250","zol","-1.29","2","0","0.09","-2","30",""
"","psychophysics","101","449198","0.0-101.0","588fc465a7e5300001199329","64e508cc391e968d7180fa21","","","","","1079",""," ","key"," ","16.664687500000582","500","250","inst","","","","","","",""
"","psychophysics","102","451281","0.0-102.0","588fc465a7e5300001199329","64e508cc391e968d7180fa21","","","","","2079",""," ","key"," ","16.664838709677436","500","250","instBr0","0","","","0","0","0","300"
"","psychophysics","103","454953","0.0-103.0","588fc465a7e5300001199329","64e508cc391e968d7180fa21","","","","","3668",""," ","key"," ","16.66484018264856","500","250","instBr1","-40","","","-40","0","0","300"
"","psychophysics","104","460839","0.0-104.0","588fc465a7e5300001199329","64e508cc391e968d7180fa21","","","","","5881",""," ","key"," ","16.760057142857196","500","250","instBr3","26","2","","40","0","0","300"
"","psychophysics","105","461713","0.0-105.0","588fc465a7e5300001199329","64e508cc391e968d7180fa21","","","","","857",""," ","key"," ","16.664615384615338","500","250","inst","","","","","","",""
"","psychophysics","106","465778","0.0-106.0","588fc465a7e5300001199329","64e508cc391e968d7180fa21","","","","","4057",""," ","key"," ","16.66485596707818","500","250","br","19","2","0","-24","-28","-20","237"
"","psychophysics","107","466732","0.0-107.0","588fc465a7e5300001199329","64e508cc391e968d7180fa21","","","","","947",""," ","key"," ","16.6646428571434","500","250","br","22","2","0","22","-21","-18","282"
"","psychophysics","108","470815","0.0-108.0","588fc465a7e5300001199329","64e508cc391e968d7180fa21","","","","","4079",""," ","key"," ","16.664754098360703","500","250","br","19","2","0","4","10","13","273"
"","psychophysics","109","471654","0.0-109.0","588fc465a7e5300001199329","64e508cc391e968d7180fa21","","","","","835",""," ","key"," ","16.664897959184007","500","250","br","18","2","0","18","18","15","266"
"","psychophysics","110","475645","0.0-110.0","588fc465a7e5300001199329","64e508cc391e968d7180fa21","","","","","3976",""," ","key"," ","16.671799163179905","500","250","br","22","2","0","-12","4","26","281"
"","psychophysics","111","478394","0.0-111.0","588fc465a7e5300001199329","64e508cc391e968d7180fa21","","","","","2741",""," ","key"," ","16.66487804878036","500","250","br","22","2","0","5","-10","0","286"
"","psychophysics","112","482162","0.0-112.0","588fc465a7e5300001199329","64e508cc391e968d7180fa21","","","","","3762",""," ","key"," ","16.664799999999815","500","250","br","21","2","0","-8","24","-14","240"
"","psychophysics","113","484143","0.0-113.0","588fc465a7e5300001199329","64e508cc391e968d7180fa21","","","","","1976",""," ","key"," ","16.664745762711885","500","250","br","21","2","0","6","28","14","288"
"","psychophysics","114","485863","0.0-114.0","588fc465a7e5300001199329","64e508cc391e968d7180fa21","","","","","1714",""," ","key"," ","16.664705882352827","500","250","br","14","2","0","-5","-2","-18","266"
"","psychophysics","115","489156","0.0-115.0","588fc465a7e5300001199329","64e508cc391e968d7180fa21","","","","","3286",""," ","key"," ","16.664795918367286","500","250","br","17","2","0","-26","5","19","276"
"","psychophysics","116","492414","0.0-116.0","588fc465a7e5300001199329","64e508cc391e968d7180fa21","","","","","3249",""," ","key"," ","16.664717948717925","500","250","br","17","2","0","-22","-12","-3","260"
"","psychophysics","117","495263","0.0-117.0","588fc465a7e5300001199329","64e508cc391e968d7180fa21","","","","","2844",""," ","key"," ","16.66470588235294","500","250","br","20","2","0","-16","-25","-30","238"
"","psychophysics","118","496264","0.0-118.0","588fc465a7e5300001199329","64e508cc391e968d7180fa21","","","","","996",""," ","key"," ","16.66474576271238","500","250","br","25","2","0","25","27","-6","228"
"","psychophysics","119","497468","0.0-119.0","588fc465a7e5300001199329","64e508cc391e968d7180fa21","","","","","1201",""," ","key"," ","16.66478873239453","500","250","br","15","2","0","15","0","-7","259"
"","psychophysics","120","499422","0.0-120.0","588fc465a7e5300001199329","64e508cc391e968d7180fa21","","","","","1944",""," ","key"," ","16.664827586206858","500","250","br","24","2","0","3","7","-21","266"
"","psychophysics","121","500238","0.0-121.0","588fc465a7e5300001199329","64e508cc391e968d7180fa21","","","","","809",""," ","key"," ","17.01957446808476","500","250","inst","","","","","","",""
"","psychophysics","122","502369","0.0-122.0","588fc465a7e5300001199329","64e508cc391e968d7180fa21","","","","","2120",""," ","key"," ","16.664881889763798","500","250","instPz1","25","2","","25","","","50"
"","psychophysics","123","504999","0.0-123.0","588fc465a7e5300001199329","64e508cc391e968d7180fa21","","","","","2617",""," ","key"," ","16.664840764331238","500","250","instPz2","20","2","","20","","","35"
"","psychophysics","124","508120","0.0-124.0","588fc465a7e5300001199329","64e508cc391e968d7180fa21","","","","","3117",""," ","key"," ","16.664731182795773","500","250","instPz3","25","2","","30","","","100"
"","psychophysics","125","510604","0.0-125.0","588fc465a7e5300001199329","64e508cc391e968d7180fa21","","","","","2472",""," ","key"," ","16.66472972972976","500","250","instPz4","25","2","","30","","","100"
"","psychophysics","126","511475","0.0-126.0","588fc465a7e5300001199329","64e508cc391e968d7180fa21","","","","","862",""," ","key"," ","16.664999999999193","500","250","inst","","","","","","",""
"","psychophysics","127","519492","0.0-127.0","588fc465a7e5300001199329","64e508cc391e968d7180fa21","","","","","null","","null","key","null","16.703089770354843","500","250","pz","9","2","1","56","","","29"
"","psychophysics","128","521810","0.0-128.0","588fc465a7e5300001199329","64e508cc391e968d7180fa21","","","","","2306",""," ","key"," ","16.664782608695585","500","250","pz","35","2","1","38","","","60"
"","psychophysics","129","522803","0.0-129.0","588fc465a7e5300001199329","64e508cc391e968d7180fa21","","","","","987",""," ","key"," ","16.664827586206858","500","250","pz","26","2","1","26","","","49"
"","psychophysics","130","527830","0.0-130.0","588fc465a7e5300001199329","64e508cc391e968d7180fa21","","","","","5015",""," ","key"," ","16.664850498338662","500","250","pz","23","2","1","57","","","33"
"","psychophysics","131","529593","0.0-131.0","588fc465a7e5300001199329","64e508cc391e968d7180fa21","","","","","1757",""," ","key"," ","16.664761904762347","500","250","pz","20","2","1","36","","","36"
"","psychophysics","132","533494","0.0-132.0","588fc465a7e5300001199329","64e508cc391e968d7180fa21","","","","","3895",""," ","key"," ","16.66480686695289","500","250","pz","15","2","1","52","","","24"
"","psychophysics","133","535981","0.0-133.0","588fc465a7e5300001199329","64e508cc391e968d7180fa21","","","","","2482",""," ","key"," ","16.664864864865024","500","250","pz","24","2","1","50","","","45"
"","psychophysics","134","539444","0.0-134.0","588fc465a7e5300001199329","64e508cc391e968d7180fa21","","","","","3458",""," ","key"," ","16.664830917874372","500","250","pz","18","2","1","32","","","29"
"","psychophysics","135","542233","0.0-135.0","588fc465a7e5300001199329","64e508cc391e968d7180fa21","","","","","2784",""," ","key"," ","16.66481927710835","500","250","pz","26","2","1","43","","","49"
"","psychophysics","136","543310","0.0-136.0","588fc465a7e5300001199329","64e508cc391e968d7180fa21","","","","","1064",""," ","key"," ","16.664687500000582","500","250","pz","27","2","1","27","","","38"
"","psychophysics","137","545790","0.0-137.0","588fc465a7e5300001199329","64e508cc391e968d7180fa21","","","","","2473",""," ","key"," ","16.66472972972976","500","250","pz","26","2","1","46","","","50"
"","psychophysics","138","548479","0.0-138.0","588fc465a7e5300001199329","64e508cc391e968d7180fa21","","","","","2681",""," ","key"," ","16.66487500000003","500","250","pz","22","2","1","57","","","28"
"","psychophysics","139","550255","0.0-139.0","588fc465a7e5300001199329","64e508cc391e968d7180fa21","","","","","1771",""," ","key"," ","16.664905660377183","500","250","pz","17","2","1","40","","","30"
"","psychophysics","140","552142","0.0-140.0","588fc465a7e5300001199329","64e508cc391e968d7180fa21","","","","","1883",""," ","key"," ","16.664821428571095","500","250","pz","21","2","1","50","","","47"
"","psychophysics","141","553198","0.0-141.0","588fc465a7e5300001199329","64e508cc391e968d7180fa21","","","","","1052",""," ","key"," ","16.69129032258042","500","250","pz","20","2","1","20","","","24"
"","psychophysics","142","554172","0.0-142.0","588fc465a7e5300001199329","64e508cc391e968d7180fa21","","","","","969",""," ","key"," ","16.66482758620786","500","250","inst","","","","","","",""
"","psychophysics","143","555889","0.0-143.0","588fc465a7e5300001199329","64e508cc391e968d7180fa21","","","","","1709",""," ","key"," ","16.664901960783812","500","250","instBr3","40","1","","40","0","0","300"
"","psychophysics","144","556606","0.0-144.0","588fc465a7e5300001199329","64e508cc391e968d7180fa21","","","","","711",""," ","key"," ","16.6647619047629","500","250","inst","","","","","","",""
"","psychophysics","145","557495","0.0-145.0","588fc465a7e5300001199329","64e508cc391e968d7180fa21","","","","","884",""," ","key"," ","16.665000000001434","500","250","br","-29","1","1","-29","-23","17","278"
"","psychophysics","146","559734","0.0-146.0","588fc465a7e5300001199329","64e508cc391e968d7180fa21","","","","","2235",""," ","key"," ","16.664812030075502","500","250","br","-21","1","1","5","30","1","271"
"","psychophysics","147","560823","0.0-147.0","588fc465a7e5300001199329","64e508cc391e968d7180fa21","","","","","1078",""," ","key"," ","16.664923076922648","500","250","br","-28","1","1","-29","-28","-18","284"
"","psychophysics","148","562776","0.0-148.0","588fc465a7e5300001199329","64e508cc391e968d7180fa21","","","","","1948",""," ","key"," ","16.664827586206858","500","250","br","-20","1","1","3","-21","-29","251"
"","psychophysics","149","565138","0.0-149.0","588fc465a7e5300001199329","64e508cc391e968d7180fa21","","","","","2358",""," ","key"," ","16.664822695035394","500","250","br","-12","1","1","23","1","16","200"
"","psychophysics","150","567072","0.0-150.0","588fc465a7e5300001199329","64e508cc391e968d7180fa21","","","","","1930",""," ","key"," ","16.66486956521808","500","250","br","-19","1","1","11","-5","-30","249"
"","psychophysics","151","567745","0.0-151.0","588fc465a7e5300001199329","64e508cc391e968d7180fa21","","","","","668",""," ","key"," ","16.66461538461646","500","250","br","-12","1","1","-12","-12","-18","219"
"","psychophysics","152","570087","0.0-152.0","588fc465a7e5300001199329","64e508cc391e968d7180fa21","","","","","2339",""," ","key"," ","16.664857142856842","500","250","br","-17","1","1","21","12","7","218"
"","psychophysics","153","573325","0.0-153.0","588fc465a7e5300001199329","64e508cc391e968d7180fa21","","","","","3234",""," ","key"," ","16.664870466320977","500","250","br","-21","1","1","4","-14","-21","272"
"","psychophysics","154","576106","0.0-154.0","588fc465a7e5300001199329","64e508cc391e968d7180fa21","","","","","2775",""," ","key"," ","16.66481927710835","500","250","br","-21","1","1","-29","23","-10","287"
"","psychophysics","155","576958","0.0-155.0","588fc465a7e5300001199329","64e508cc391e968d7180fa21","","","","","833",""," ","key"," ","16.664799999999815","500","250","br","-20","1","1","-20","-22","-9","259"
"","psychophysics","156","577764","0.0-156.0","588fc465a7e5300001199329","64e508cc391e968d7180fa21","","","","","800",""," ","key"," ","16.66468085106611","500","250","br","-18","1","1","-18","-19","4","261"
"","psychophysics","157","579504","0.0-157.0","588fc465a7e5300001199329","64e508cc391e968d7180fa21","","","","","1728",""," ","key"," ","16.664807692307825","500","250","br","-23","1","1","-28","-21","3","274"
"","psychophysics","158","583285","0.0-158.0","588fc465a7e5300001199329","64e508cc391e968d7180fa21","","","","","3774",""," ","key"," ","16.664778761061907","500","250","br","-24","1","1","25","14","-14","298"
"","psychophysics","159","587010","0.0-159.0","588fc465a7e5300001199329","64e508cc391e968d7180fa21","","","","","3720",""," ","key"," ","16.66486486486476","500","250","br","-21","1","1","30","15","-8","265"
"","psychophysics","160","587952","0.0-160.0","588fc465a7e5300001199329","64e508cc391e968d7180fa21","","","","","938",""," ","key"," ","16.664642857144436","500","250","inst","","","","","","",""
"","psychophysics","161","590539","0.0-161.0","588fc465a7e5300001199329","64e508cc391e968d7180fa21","","","","","2581",""," ","key"," ","16.664805194805226","500","250","instEB1","30","2","","30","0","0","40"
"","psychophysics","162","596158","0.0-162.0","588fc465a7e5300001199329","64e508cc391e968d7180fa21","","","","","5614",""," ","key"," ","16.670297619047535","500","250","instEB2","30","2","","40","0","0","30"
"","psychophysics","163","602456","0.0-163.0","588fc465a7e5300001199329","64e508cc391e968d7180fa21","","","","","6293",""," ","key"," ","16.664827586206933","500","250","instEB3","29","2","","45","0","0","27"
"","psychophysics","164","605887","0.0-164.0","588fc465a7e5300001199329","64e508cc391e968d7180fa21","","","","","3425",""," ","key"," ","16.664780487805015","500","250","instEB4","46","2","","30","0","0","40"
"","psychophysics","165","606690","0.0-165.0","588fc465a7e5300001199329","64e508cc391e968d7180fa21","","","","","799",""," ","key"," ","16.665106382978923","500","250","inst","","","","","","",""
"","psychophysics","166","608930","0.0-166.0","588fc465a7e5300001199329","64e508cc391e968d7180fa21","","","","","2237",""," ","key"," ","16.66481203007463","500","250","eb","47","2","","34","0","0","41"
"","psychophysics","167","611500","0.0-167.0","588fc465a7e5300001199329","64e508cc391e968d7180fa21","","","","","2556",""," ","key"," ","16.664805194805226","500","250","eb","41","2","","54","0","0","31"
"","psychophysics","168","614306","0.0-168.0","588fc465a7e5300001199329","64e508cc391e968d7180fa21","","","","","2800",""," ","key"," ","16.66479041916109","500","250","eb","51","2","","30","0","0","47"
"","psychophysics","169","615800","0.0-169.0","588fc465a7e5300001199329","64e508cc391e968d7180fa21","","","","","1489",""," ","key"," ","16.664943820225293","500","250","eb","40","2","","39","0","0","36"
"","psychophysics","170","616901","0.0-170.0","588fc465a7e5300001199329","64e508cc391e968d7180fa21","","","","","1095",""," ","key"," ","16.66492307692444","500","250","eb","48","2","","48","0","0","45"
"","psychophysics","171","620139","0.0-171.0","588fc465a7e5300001199329","64e508cc391e968d7180fa21","","","","","3233",""," ","key"," ","16.66476683937848","500","250","eb","63","2","","34","0","0","53"
"","psychophysics","172","622831","0.0-172.0","588fc465a7e5300001199329","64e508cc391e968d7180fa21","","","","","2686",""," ","key"," ","16.66487500000003","500","250","eb","54","2","","27","0","0","46"
"","psychophysics","173","623827","0.0-173.0","588fc465a7e5300001199329","64e508cc391e968d7180fa21","","","","","988",""," ","key"," ","16.664745762713363","500","250","eb","48","2","","48","0","0","40"
"","psychophysics","174","626325","0.0-174.0","588fc465a7e5300001199329","64e508cc391e968d7180fa21","","","","","2488",""," ","key"," ","16.664832214765475","500","250","eb","31","2","","37","0","0","27"
"","psychophysics","175","629834","0.0-175.0","588fc465a7e5300001199329","64e508cc391e968d7180fa21","","","","","3505",""," ","key"," ","16.66485714285712","500","250","eb","37","2","","50","0","0","31"
"","psychophysics","176","632650","0.0-176.0","588fc465a7e5300001199329","64e508cc391e968d7180fa21","","","","","2811",""," ","key"," ","16.66476190476221","500","250","eb","57","2","","47","0","0","51"
"","psychophysics","177","634044","0.0-177.0","588fc465a7e5300001199329","64e508cc391e968d7180fa21","","","","","1389",""," ","key"," ","16.664634146341463","500","250","eb","47","2","","42","0","0","39"
"","psychophysics","178","636788","0.0-178.0","588fc465a7e5300001199329","64e508cc391e968d7180fa21","","","","","2733",""," ","key"," ","16.66475609756109","500","250","eb","44","2","","53","0","0","37"
"","psychophysics","179","638822","0.0-179.0","588fc465a7e5300001199329","64e508cc391e968d7180fa21","","","","","2013",""," ","key"," ","16.679008264462116","500","250","eb","57","2","","48","0","0","51"
"","psychophysics","180","641184","0.0-180.0","588fc465a7e5300001199329","64e508cc391e968d7180fa21","","","","","2356",""," ","key"," ","16.664822695035394","500","250","eb","59","2","","32","0","0","54"
"","psychophysics","181","642158","0.0-181.0","588fc465a7e5300001199329","64e508cc391e968d7180fa21","","","","","968",""," ","key"," ","16.664561403508852","500","250","inst","","","","","","",""
"","psychophysics","182","644349","0.0-182.0","588fc465a7e5300001199329","64e508cc391e968d7180fa21","","","","","2181",""," ","key"," ","16.66473282442805","500","250","instZol1","1.3","","","-1.3","0","0",""
"","psychophysics","183","646771","0.0-183.0","588fc465a7e5300001199329","64e508cc391e968d7180fa21","","","","","2414",""," ","key"," ","16.664861111111048","500","250","instZol2","-2","1","","2","0","0",""
"","psychophysics","184","647536","0.0-184.0","588fc465a7e5300001199329","64e508cc391e968d7180fa21","","","","","760",""," ","key"," ","16.66488888888982","500","250","inst","","","","","","",""
"","psychophysics","185","648572","0.0-185.0","588fc465a7e5300001199329","64e508cc391e968d7180fa21","","","","","1030",""," ","key"," ","16.664918032787803","500","250","zol","0.42","1","1","-0.42","3","24",""
"","psychophysics","186","649870","0.0-186.0","588fc465a7e5300001199329","64e508cc391e968d7180fa21","","","","","1292",""," ","key"," ","16.66493506493446","500","250","zol","0.43","1","1","-0.43","-4","-25",""
"","psychophysics","187","650767","0.0-187.0","588fc465a7e5300001199329","64e508cc391e968d7180fa21","","","","","891",""," ","key"," ","16.664528301886264","500","250","zol","0.71","1","1","-0.71","22","-25",""
"","psychophysics","188","654336","0.0-188.0","588fc465a7e5300001199329","64e508cc391e968d7180fa21","","","","","3563",""," ","key"," ","16.664788732394257","500","250","zol","1.12","1","1","-0.02","-7","26",""
"","psychophysics","189","655792","0.0-189.0","588fc465a7e5300001199329","64e508cc391e968d7180fa21","","","","","1450",""," ","key"," ","16.664883720929474","500","250","zol","1.06","1","1","-0.66","10","-5",""
"","psychophysics","190","656768","0.0-190.0","588fc465a7e5300001199329","64e508cc391e968d7180fa21","","","","","961",""," ","key"," ","16.664827586205853","500","250","zol","0.73","1","1","-0.73","-27","-12",""
"","psychophysics","191","658294","0.0-191.0","588fc465a7e5300001199329","64e508cc391e968d7180fa21","","","","","1523",""," ","key"," ","16.664888888888527","500","250","zol","0.4","1","1","-0.4","7","-29",""
"","psychophysics","192","660775","0.0-192.0","588fc465a7e5300001199329","64e508cc391e968d7180fa21","","","","","2467",""," ","key"," ","16.66472972972976","500","250","zol","1.1400000000000001","1","1","-0.34","-23","30",""
"","psychophysics","193","663201","0.0-193.0","588fc465a7e5300001199329","64e508cc391e968d7180fa21","","","","","2411",""," ","key"," ","16.664689655172445","500","250","zol","0.7","1","1","0.2","23","-14",""
"","psychophysics","194","665501","0.0-194.0","588fc465a7e5300001199329","64e508cc391e968d7180fa21","","","","","2296",""," ","key"," ","16.66481751824787","500","250","zol","1.17","1","1","0.03","12","24",""
"","psychophysics","195","668850","0.0-195.0","588fc465a7e5300001199329","64e508cc391e968d7180fa21","","","","","3344",""," ","key"," ","16.664800000000398","500","250","zol","1.3100000000000003","1","1","0.59","-4","-6",""
"","psychophysics","196","670638","0.0-196.0","588fc465a7e5300001199329","64e508cc391e968d7180fa21","","","","","1783",""," ","key"," ","16.664716981132823","500","250","zol","1.0299999999999998","1","1","0.67","-1","-12",""
"","psychophysics","197","674834","0.0-197.0","588fc465a7e5300001199329","64e508cc391e968d7180fa21","","","","","4192",""," ","key"," ","16.664780876493968","500","250","zol","1.5900000000000003","1","1","-0.39","-26","-29",""
"","psychophysics","198","677100","0.0-198.0","588fc465a7e5300001199329","64e508cc391e968d7180fa21","","","","","2263",""," ","key"," ","16.664888888888957","500","250","zol","1.3","1","1","0.2","-29","22",""
"","psychophysics","199","679032","0.0-199.0","588fc465a7e5300001199329","64e508cc391e968d7180fa21","","","","","1928",""," ","key"," ","16.664695652173428","500","250","zol","1.0899999999999999","1","1","0.61","29","-14",""
"","psychophysics","200","680217","0.0-200.0","588fc465a7e5300001199329","64e508cc391e968d7180fa21","","","","","1181",""," ","key"," ","16.66457142857003","500","250","inst","","","","","","",""
"","psychophysics","201","682637","0.0-201.0","588fc465a7e5300001199329","64e508cc391e968d7180fa21","","","","","2416",""," ","key"," ","16.677083333333332","500","250","instPog0","190","1","","190","0","0","160"
"","psychophysics","202","688150","0.0-202.0","588fc465a7e5300001199329","64e508cc391e968d7180fa21","","","","","5511",""," ","key"," ","16.664848484848555","500","250","instPog1","176","1","","190","0","0","160"
"","psychophysics","203","692120","0.0-203.0","588fc465a7e5300001199329","64e508cc391e968d7180fa21","","","","","3966",""," ","key"," ","16.664810126582513","500","250","instPog2","166","1","","160","0","0","160"
"","psychophysics","204","692798","0.0-204.0","588fc465a7e5300001199329","64e508cc391e968d7180fa21","","","","","673",""," ","key"," ","17.092307692307095","500","250","inst","","","","","","",""
"","psychophysics","205","696377","0.0-205.0","588fc465a7e5300001199329","64e508cc391e968d7180fa21","","","","","3576",""," ","key"," ","16.66476635514023","500","250","pog","157","1","1","131","0","0","149"
"","psychophysics","206","697389","0.0-206.0","588fc465a7e5300001199329","64e508cc391e968d7180fa21","","","","","1005",""," ","key"," ","17.249824561403344","500","250","pog","147","1","1","147","0","0","131"
"","psychophysics","207","701232","0.0-207.0","588fc465a7e5300001199329","64e508cc391e968d7180fa21","","","","","3825",""," ","key"," ","16.664782608695752","500","250","pog","211","1","1","153","0","0","200"
"","psychophysics","208","708388","0.0-208.0","588fc465a7e5300001199329","64e508cc391e968d7180fa21","","","","","7149",""," ","key"," ","16.664813084112236","500","250","pog","148","1","1","214","0","0","122"
"","psychophysics","209","709155","0.0-209.0","588fc465a7e5300001199329","64e508cc391e968d7180fa21","","","","","757",""," ","key"," ","16.664888888887234","500","250","pog","203","1","1","203","0","0","187"
"","psychophysics","210","712215","0.0-210.0","588fc465a7e5300001199329","64e508cc391e968d7180fa21","","","","","3047",""," ","key"," ","16.664808743169576","500","250","pog","160","1","1","186","0","0","132"
"","psychophysics","211","715071","0.0-211.0","588fc465a7e5300001199329","64e508cc391e968d7180fa21","","","","","2851",""," ","key"," ","16.66482352941119","500","250","pog","162","1","1","194","0","0","143"
"","psychophysics","212","717329","0.0-212.0","588fc465a7e5300001199329","64e508cc391e968d7180fa21","","","","","2248",""," ","key"," ","16.664888888888957","500","250","pog","166","1","1","142","0","0","154"
"","psychophysics","213","721573","0.0-213.0","588fc465a7e5300001199329","64e508cc391e968d7180fa21","","","","","4239",""," ","key"," ","16.67162055335939","500","250","pog","167","1","1","181","0","0","146"
"","psychophysics","214","726171","0.0-214.0","588fc465a7e5300001199329","64e508cc391e968d7180fa21","","","","","4587",""," ","key"," ","16.664800000000238","500","250","pog","196","1","1","216","0","0","167"
"","psychophysics","215","728578","0.0-215.0","588fc465a7e5300001199329","64e508cc391e968d7180fa21","","","","","2397",""," ","key"," ","16.66472222222203","500","250","pog","146","1","1","138","0","0","130"
"","psychophysics","216","731607","0.0-216.0","588fc465a7e5300001199329","64e508cc391e968d7180fa21","","","","","3024",""," ","key"," ","16.664888888889173","500","250","pog","178","1","1","202","0","0","155"
"","psychophysics","217","738085","0.0-217.0","588fc465a7e5300001199329","64e508cc391e968d7180fa21","","","","","6466",""," ","key"," ","16.664793814433146","500","250","pog","158","1","1","118","0","0","149"
"","psychophysics","218","739141","0.0-218.0","588fc465a7e5300001199329","64e508cc391e968d7180fa21","","","","","1043",""," ","key"," ","16.664761904761978","500","250","pog","191","1","1","191","0","0","175"
"","psychophysics","219","740101","0.0-219.0","588fc465a7e5300001199329","64e508cc391e968d7180fa21","","","","","954",""," ","key"," ","16.664642857142358","500","250","pog","137","1","1","137","0","0","125"
