"success","trial_type","trial_index","time_elapsed","internal_node_id","pid","sid","timeout","failed_images","failed_audio","failed_video","rt","stimulus","response","response_type","key_press","avg_frame_time","center_x","center_y","task","resp","version","block","start","jitterX","jitterY","parA"
"true","fullscreen","0","3884","0.0-0.0","5b0fa626bd9c310001568d6c","64de82825cf36e603b0b1082","","","","","","","","","","","","","","","","","","","",""
"true","preload","1","4009","0.0-1.0","5b0fa626bd9c310001568d6c","64de82825cf36e603b0b1082","false","[]","[]","[]","","","","","","","","","","","","","","","",""
"","html-button-response","2","5592","0.0-2.0","5b0fa626bd9c310001568d6c","64de82825cf36e603b0b1082","","","","","1581","Please Make Sure Your Audio Is On.","0","","","","","","","","","","","","",""
"","psychophysics","3","15375","0.0-3.0","5b0fa626bd9c310001568d6c","64de82825cf36e603b0b1082","","","","","9778",""," ","key"," ","16.65071088435374","683","250","","","","","","","",""
"","psychophysics","4","20786","0.0-4.0","5b0fa626bd9c310001568d6c","64de82825cf36e603b0b1082","","","","","5406",""," ","key"," ","16.651160493827156","500","250","inst","","","","","","",""
"","psychophysics","5","27629","0.0-5.0","5b0fa626bd9c310001568d6c","64de82825cf36e603b0b1082","","","","","6842",""," ","key"," ","16.650102439024394","500","250","sample0","","","","","","",""
"","psychophysics","6","62073","0.0-6.0","5b0fa626bd9c310001568d6c","64de82825cf36e603b0b1082","","","","","34441",""," ","key"," ","16.650353168843733","500","250","sample1","","","","","","",""
"","psychophysics","7","79855","0.0-7.0","5b0fa626bd9c310001568d6c","64de82825cf36e603b0b1082","","","","","17780",""," ","key"," ","16.650490159325216","500","250","sample2","100","","","","","",""
"","psychophysics","8","94597","0.0-8.0","5b0fa626bd9c310001568d6c","64de82825cf36e603b0b1082","","","","","14740",""," ","key"," ","16.650768361581914","500","250","sample3","98","","","","","",""
"","psychophysics","9","105255","0.0-9.0","5b0fa626bd9c310001568d6c","64de82825cf36e603b0b1082","","","","","10656",""," ","key"," ","16.650613458528948","500","250","sample4","100","","","","","",""
"","psychophysics","10","114187","0.0-10.0","5b0fa626bd9c310001568d6c","64de82825cf36e603b0b1082","","","","","8924",""," ","key"," ","16.651132710280372","500","250","sample5","","","","","","",""
"","psychophysics","11","127312","0.0-11.0","5b0fa626bd9c310001568d6c","64de82825cf36e603b0b1082","","","","","13116",""," ","key"," ","16.65066581956799","500","250","sample6","496","","","","","",""
"","psychophysics","12","134494","0.0-12.0","5b0fa626bd9c310001568d6c","64de82825cf36e603b0b1082","","","","","7175",""," ","key"," ","16.650863109048718","500","250","inst","","","","","","",""
"","psychophysics","13","143973","0.0-13.0","5b0fa626bd9c310001568d6c","64de82825cf36e603b0b1082","","","","","9478",""," ","key"," ","16.650894366197154","500","250","inst","","","","","","",""
"","psychophysics","14","151376","0.0-14.0","5b0fa626bd9c310001568d6c","64de82825cf36e603b0b1082","","","","","7401",""," ","key"," ","16.650671171171208","500","250","inst","","","","","","",""
"","psychophysics","15","153522","0.0-15.0","5b0fa626bd9c310001568d6c","64de82825cf36e603b0b1082","","","","","2146",""," ","key"," ","16.650078125000164","500","250","inst","","","","","","",""
"","psychophysics","16","159706","0.0-16.0","5b0fa626bd9c310001568d6c","64de82825cf36e603b0b1082","","","","","6178",""," ","key"," ","16.650889189189183","500","250","inst","","","","","","",""
"","psychophysics","17","171301","0.0-17.0","5b0fa626bd9c310001568d6c","64de82825cf36e603b0b1082","","","","","11590",""," ","key"," ","16.65012374100721","500","250","instPog0","340","2","","370","0","0","340"
"","psychophysics","18","196113","0.0-18.0","5b0fa626bd9c310001568d6c","64de82825cf36e603b0b1082","","","","","24809",""," ","key"," ","16.650499328859066","500","250","instPog1","338","2","","370","0","0","340"
"","psychophysics","19","206430","0.0-19.0","5b0fa626bd9c310001568d6c","64de82825cf36e603b0b1082","","","","","10313",""," ","key"," ","16.650496763754067","500","250","instPog2","314","2","","340","0","0","340"
"","psychophysics","20","211079","0.0-20.0","5b0fa626bd9c310001568d6c","64de82825cf36e603b0b1082","","","","","4636",""," ","key"," ","16.65084172661863","500","250","inst","","","","","","",""
"","psychophysics","21","219020","0.0-21.0","5b0fa626bd9c310001568d6c","64de82825cf36e603b0b1082","","","","","7931",""," ","key"," ","16.650634453781553","500","250","pog","325","2","0","373","0","0","357"
"","psychophysics","22","221865","0.0-22.0","5b0fa626bd9c310001568d6c","64de82825cf36e603b0b1082","","","","","2843",""," ","key"," ","16.652541176470592","500","250","pog","317","2","0","339","0","0","348"
"","psychophysics","23","225269","0.0-23.0","5b0fa626bd9c310001568d6c","64de82825cf36e603b0b1082","","","","","3399",""," ","key"," ","16.651960784313726","500","250","pog","295","2","0","287","0","0","335"
"","psychophysics","24","229122","0.0-24.0","5b0fa626bd9c310001568d6c","64de82825cf36e603b0b1082","","","","","3844",""," ","key"," ","16.65075217391296","500","250","pog","309","2","0","295","0","0","356"
"","psychophysics","25","233956","0.0-25.0","5b0fa626bd9c310001568d6c","64de82825cf36e603b0b1082","","","","","4828",""," ","key"," ","16.65150519031143","500","250","pog","316","2","0","356","0","0","358"
"","psychophysics","26","237206","0.0-26.0","5b0fa626bd9c310001568d6c","64de82825cf36e603b0b1082","","","","","3246",""," ","key"," ","16.651020512820626","500","250","pog","296","2","0","362","0","0","333"
"","psychophysics","27","239892","0.0-27.0","5b0fa626bd9c310001568d6c","64de82825cf36e603b0b1082","","","","","2681",""," ","key"," ","16.649381249999898","500","250","pog","325","2","0","295","0","0","378"
"","psychophysics","28","242256","0.0-28.0","5b0fa626bd9c310001568d6c","64de82825cf36e603b0b1082","","","","","2360",""," ","key"," ","16.651354609928976","500","250","pog","301","2","0","317","0","0","333"
"","psychophysics","29","244517","0.0-29.0","5b0fa626bd9c310001568d6c","64de82825cf36e603b0b1082","","","","","2257",""," ","key"," ","16.649874074073914","500","250","pog","334","2","0","334","0","0","358"
"","psychophysics","30","247065","0.0-30.0","5b0fa626bd9c310001568d6c","64de82825cf36e603b0b1082","","","","","2543",""," ","key"," ","16.651546052631602","500","250","pog","329","2","0","321","0","0","361"
"","psychophysics","31","249691","0.0-31.0","5b0fa626bd9c310001568d6c","64de82825cf36e603b0b1082","","","","","2620",""," ","key"," ","16.651769230769087","500","250","pog","311","2","0","353","0","0","344"
"","psychophysics","32","253958","0.0-32.0","5b0fa626bd9c310001568d6c","64de82825cf36e603b0b1082","","","","","4255",""," ","key"," ","16.651394531249935","500","250","pog","266","2","0","392","0","0","309"
"","psychophysics","33","254136","0.0-33.0","5b0fa626bd9c310001568d6c","64de82825cf36e603b0b1082","","","","","173",""," ","key"," ","16.649888888887492","500","250","pog","347","2","0","347","0","0","360"
"","psychophysics","34","257487","0.0-34.0","5b0fa626bd9c310001568d6c","64de82825cf36e603b0b1082","","","","","3340",""," ","key"," ","16.65096517412941","500","250","pog","325","2","0","307","0","0","376"
"","psychophysics","35","260984","0.0-35.0","5b0fa626bd9c310001568d6c","64de82825cf36e603b0b1082","","","","","3491",""," ","key"," ","16.650684210526258","500","250","pog","257","2","0","343","0","0","302"
"","psychophysics","36","264264","0.0-36.0","5b0fa626bd9c310001568d6c","64de82825cf36e603b0b1082","","","","","3274",""," ","key"," ","16.65158163265317","500","250","inst","","","","","","",""
"","psychophysics","37","270235","0.0-37.0","5b0fa626bd9c310001568d6c","64de82825cf36e603b0b1082","","","","","5970",""," ","key"," ","16.65071148459385","500","250","instPzPre","50","0","","50","","","50"
"","psychophysics","38","273496","0.0-38.0","5b0fa626bd9c310001568d6c","64de82825cf36e603b0b1082","","","","","3245",""," ","key"," ","16.650682051281912","500","250","instPz0","50","2","","50","","","50"
"","psychophysics","39","288906","0.0-39.0","5b0fa626bd9c310001568d6c","64de82825cf36e603b0b1082","","","","","15408",""," ","key"," ","16.650312432432422","500","250","instPz1","46","2","","25","","","50"
"","psychophysics","40","292503","0.0-40.0","5b0fa626bd9c310001568d6c","64de82825cf36e603b0b1082","","","","","3588",""," ","key"," ","16.650930232558192","500","250","instPz2","33","2","","20","","","35"
"","psychophysics","41","298914","0.0-41.0","5b0fa626bd9c310001568d6c","64de82825cf36e603b0b1082","","","","","6402",""," ","key"," ","16.650572916666686","500","250","instPz3","54","2","","30","","","100"
"","psychophysics","42","305239","0.0-42.0","5b0fa626bd9c310001568d6c","64de82825cf36e603b0b1082","","","","","6318",""," ","key"," ","16.65134391534403","500","250","instPz4","65","2","","30","","","100"
"","psychophysics","43","315906","0.0-43.0","5b0fa626bd9c310001568d6c","64de82825cf36e603b0b1082","","","","","10661",""," ","key"," ","16.650746875000003","500","250","inst","","","","","","",""
"","psychophysics","44","321527","0.0-44.0","5b0fa626bd9c310001568d6c","64de82825cf36e603b0b1082","","","","","5607",""," ","key"," ","16.651543026706253","500","250","pz","41","2","0","53","","","52"
"","psychophysics","45","325228","0.0-45.0","5b0fa626bd9c310001568d6c","64de82825cf36e603b0b1082","","","","","3695",""," ","key"," ","16.650321266968415","500","250","pz","24","2","0","47","","","28"
"","psychophysics","46","330338","0.0-46.0","5b0fa626bd9c310001568d6c","64de82825cf36e603b0b1082","","","","","5102",""," ","key"," ","16.651718954248484","500","250","pz","40","2","0","45","","","57"
"","psychophysics","47","335143","0.0-47.0","5b0fa626bd9c310001568d6c","64de82825cf36e603b0b1082","","","","","4800",""," ","key"," ","16.650083623693256","500","250","pz","23","2","0","42","","","27"
"","psychophysics","48","338410","0.0-48.0","5b0fa626bd9c310001568d6c","64de82825cf36e603b0b1082","","","","","3256",""," ","key"," ","16.650158163265218","500","250","pz","28","2","0","32","","","34"
"","psychophysics","49","343534","0.0-49.0","5b0fa626bd9c310001568d6c","64de82825cf36e603b0b1082","","","","","5119",""," ","key"," ","16.650310457516326","500","250","pz","32","2","0","55","","","39"
"","psychophysics","50","346963","0.0-50.0","5b0fa626bd9c310001568d6c","64de82825cf36e603b0b1082","","","","","3421",""," ","key"," ","16.65093170731703","500","250","pz","37","2","0","41","","","45"
"","psychophysics","51","348661","0.0-51.0","5b0fa626bd9c310001568d6c","64de82825cf36e603b0b1082","","","","","1690",""," ","key"," ","16.65409900990112","500","250","pz","39","2","0","41","","","54"
"","psychophysics","52","352062","0.0-52.0","5b0fa626bd9c310001568d6c","64de82825cf36e603b0b1082","","","","","3388",""," ","key"," ","16.650985294117824","500","250","pz","39","2","0","39","","","52"
"","psychophysics","53","354657","0.0-53.0","5b0fa626bd9c310001568d6c","64de82825cf36e603b0b1082","","","","","2593",""," ","key"," ","16.65254545454563","500","250","pz","40","2","0","36","","","60"
"","psychophysics","54","360205","0.0-54.0","5b0fa626bd9c310001568d6c","64de82825cf36e603b0b1082","","","","","5539",""," ","key"," ","16.65107207207216","500","250","pz","35","2","0","51","","","43"
"","psychophysics","55","363520","0.0-55.0","5b0fa626bd9c310001568d6c","64de82825cf36e603b0b1082","","","","","3308",""," ","key"," ","16.650479797979717","500","250","pz","42","2","0","38","","","60"
"","psychophysics","56","367699","0.0-56.0","5b0fa626bd9c310001568d6c","64de82825cf36e603b0b1082","","","","","4172",""," ","key"," ","16.651636000000174","500","250","pz","15","2","0","24","","","21"
"","psychophysics","57","371645","0.0-57.0","5b0fa626bd9c310001568d6c","64de82825cf36e603b0b1082","","","","","3943",""," ","key"," ","16.650385593220502","500","250","pz","35","2","0","59","","","46"
"","psychophysics","58","375934","0.0-58.0","5b0fa626bd9c310001568d6c","64de82825cf36e603b0b1082","","","","","4281",""," ","key"," ","16.65142187499987","500","250","pz","31","2","0","22","","","41"
"","psychophysics","59","377155","0.0-59.0","5b0fa626bd9c310001568d6c","64de82825cf36e603b0b1082","","","","","1219",""," ","key"," ","16.652452054793933","500","250","inst","","","","","","",""
"","psychophysics","60","383566","0.0-60.0","5b0fa626bd9c310001568d6c","64de82825cf36e603b0b1082","","","","","6406",""," ","key"," ","16.65136458333336","500","250","instEB0","40","1","","40","0","0","40"
"","psychophysics","61","394606","0.0-61.0","5b0fa626bd9c310001568d6c","64de82825cf36e603b0b1082","","","","","11036",""," ","key"," ","16.650483383685792","500","250","instEB1","28","1","","40","0","0","30"
"","psychophysics","62","401913","0.0-62.0","5b0fa626bd9c310001568d6c","64de82825cf36e603b0b1082","","","","","7299",""," ","key"," ","16.650600456620978","500","250","instEB2","39","1","","30","0","0","40"
"","psychophysics","63","408581","0.0-63.0","5b0fa626bd9c310001568d6c","64de82825cf36e603b0b1082","","","","","6662",""," ","key"," ","16.650746867167886","500","250","instEB3","39","1","","27","0","0","45"
"","psychophysics","64","417666","0.0-64.0","5b0fa626bd9c310001568d6c","64de82825cf36e603b0b1082","","","","","9079",""," ","key"," ","16.65115229357803","500","250","instEB4","25","1","","40","0","0","30"
"","psychophysics","65","432060","0.0-65.0","5b0fa626bd9c310001568d6c","64de82825cf36e603b0b1082","","","","","14389",""," ","key"," ","16.650820393974502","500","250","inst","","","","","","",""
"","psychophysics","66","435494","0.0-66.0","5b0fa626bd9c310001568d6c","64de82825cf36e603b0b1082","","","","","3421",""," ","key"," ","16.65060487804883","500","250","eb","43","1","","45","0","0","50"
"","psychophysics","67","438608","0.0-67.0","5b0fa626bd9c310001568d6c","64de82825cf36e603b0b1082","","","","","3107",""," ","key"," ","16.650623655913996","500","250","eb","34","1","","42","0","0","40"
"","psychophysics","68","441945","0.0-68.0","5b0fa626bd9c310001568d6c","64de82825cf36e603b0b1082","","","","","3322",""," ","key"," ","16.65035499999998","500","250","eb","41","1","","26","0","0","49"
"","psychophysics","69","446797","0.0-69.0","5b0fa626bd9c310001568d6c","64de82825cf36e603b0b1082","","","","","4847",""," ","key"," ","16.650296551724175","500","250","eb","38","1","","24","0","0","45"
"","psychophysics","70","449359","0.0-70.0","5b0fa626bd9c310001568d6c","64de82825cf36e603b0b1082","","","","","2554",""," ","key"," ","16.65283660130732","500","250","eb","33","1","","31","0","0","38"
"","psychophysics","71","452169","0.0-71.0","5b0fa626bd9c310001568d6c","64de82825cf36e603b0b1082","","","","","2803",""," ","key"," ","16.653172619047663","500","250","eb","42","1","","38","0","0","48"
"","psychophysics","72","455268","0.0-72.0","5b0fa626bd9c310001568d6c","64de82825cf36e603b0b1082","","","","","3091",""," ","key"," ","16.650351351351365","500","250","eb","45","1","","50","0","0","46"
"","psychophysics","73","457533","0.0-73.0","5b0fa626bd9c310001568d6c","64de82825cf36e603b0b1082","","","","","2260",""," ","key"," ","16.650244444444414","500","250","eb","47","1","","50","0","0","45"
"","psychophysics","74","462968","0.0-74.0","5b0fa626bd9c310001568d6c","64de82825cf36e603b0b1082","","","","","5432",""," ","key"," ","16.65125153374239","500","250","eb","36","1","","49","0","0","36"
"","psychophysics","75","465423","0.0-75.0","5b0fa626bd9c310001568d6c","64de82825cf36e603b0b1082","","","","","2452",""," ","key"," ","16.65025342465737","500","250","eb","34","1","","36","0","0","35"
"","psychophysics","76","468338","0.0-76.0","5b0fa626bd9c310001568d6c","64de82825cf36e603b0b1082","","","","","2912",""," ","key"," ","16.650942528735776","500","250","eb","48","1","","45","0","0","54"
"","psychophysics","77","471843","0.0-77.0","5b0fa626bd9c310001568d6c","64de82825cf36e603b0b1082","","","","","3500",""," ","key"," ","16.652028708133855","500","250","eb","29","1","","46","0","0","29"
"","psychophysics","78","475365","0.0-78.0","5b0fa626bd9c310001568d6c","64de82825cf36e603b0b1082","","","","","3510",""," ","key"," ","16.65155450236968","500","250","eb","37","1","","48","0","0","41"
"","psychophysics","79","478708","0.0-79.0","5b0fa626bd9c310001568d6c","64de82825cf36e603b0b1082","","","","","3337",""," ","key"," ","16.65180000000022","500","250","eb","28","1","","25","0","0","31"
"","psychophysics","80","483260","0.0-80.0","5b0fa626bd9c310001568d6c","64de82825cf36e603b0b1082","","","","","4549",""," ","key"," ","16.651022058823454","500","250","eb","44","1","","42","0","0","48"
"","psychophysics","81","484693","0.0-81.0","5b0fa626bd9c310001568d6c","64de82825cf36e603b0b1082","","","","","1429",""," ","key"," ","16.651635294117252","500","250","inst","","","","","","",""
"","psychophysics","82","491772","0.0-82.0","5b0fa626bd9c310001568d6c","64de82825cf36e603b0b1082","","","","","7068",""," ","key"," ","16.651193396226347","500","250","instZol0","0","","","0","0","0",""
"","psychophysics","83","532655","0.0-83.0","5b0fa626bd9c310001568d6c","64de82825cf36e603b0b1082","","","","","40877",""," ","key"," ","16.650399185336067","500","250","instZol1","-0.19999999999999982","","","-1.3","0","0",""
"","psychophysics","84","545251","0.0-84.0","5b0fa626bd9c310001568d6c","64de82825cf36e603b0b1082","","","","","12580",""," ","key"," ","16.65073907284763","500","250","instZol2","2.0000000000000013","1","","2","0","0",""
"","psychophysics","85","547266","0.0-85.0","5b0fa626bd9c310001568d6c","64de82825cf36e603b0b1082","","","","","2012",""," ","key"," ","16.654208333333372","500","250","inst","","","","","","",""
"","psychophysics","86","551674","0.0-86.0","5b0fa626bd9c310001568d6c","64de82825cf36e603b0b1082","","","","","4393",""," ","key"," ","16.650212121211965","500","250","zol","1.6300000000000006","1","0","0.37","-20","-6",""
"","psychophysics","87","556267","0.0-87.0","5b0fa626bd9c310001568d6c","64de82825cf36e603b0b1082","","","","","4587",""," ","key"," ","16.652196363636122","500","250","zol","1.8900000000000006","1","0","-0.39","9","20",""
"","psychophysics","88","561969","0.0-88.0","5b0fa626bd9c310001568d6c","64de82825cf36e603b0b1082","","","","","5685",""," ","key"," ","16.65042521994113","500","250","zol","1.8600000000000005","1","0","-0.16","-9","-19",""
"","psychophysics","89","569975","0.0-89.0","5b0fa626bd9c310001568d6c","64de82825cf36e603b0b1082","","","","","null","","null","key","null","16.650908333333305","500","250","zol","1.7500000000000007","1","0","-0.05","18","-12",""
"","psychophysics","90","570228","0.0-90.0","5b0fa626bd9c310001568d6c","64de82825cf36e603b0b1082","","","","","245",""," ","key"," ","16.65150000000306","500","250","zol","-0.03","1","0","0.03","9","17",""
"","psychophysics","91","576546","0.0-91.0","5b0fa626bd9c310001568d6c","64de82825cf36e603b0b1082","","","","","6310",""," ","key"," ","16.651720316622633","500","250","zol","1.5500000000000003","1","0","0.75","-25","-15",""
"","psychophysics","92","581685","0.0-92.0","5b0fa626bd9c310001568d6c","64de82825cf36e603b0b1082","","","","","5131",""," ","key"," ","16.6494104234526","500","250","zol","1.7700000000000005","1","0","0.53","-28","14",""
"","psychophysics","93","586386","0.0-93.0","5b0fa626bd9c310001568d6c","64de82825cf36e603b0b1082","","","","","4690",""," ","key"," ","16.65049999999997","500","250","zol","1.5600000000000003","1","0","-0.06","26","-24",""
"","psychophysics","94","589959","0.0-94.0","5b0fa626bd9c310001568d6c","64de82825cf36e603b0b1082","","","","","3564",""," ","key"," ","16.652492957746613","500","250","zol","1.9000000000000006","1","0","0.3","-11","-10",""
"","psychophysics","95","593145","0.0-95.0","5b0fa626bd9c310001568d6c","64de82825cf36e603b0b1082","","","","","3176",""," ","key"," ","16.65061780104733","500","250","zol","2.040000000000001","1","0","-0.04","1","-4",""
"","psychophysics","96","597066","0.0-96.0","5b0fa626bd9c310001568d6c","64de82825cf36e603b0b1082","","","","","3909",""," ","key"," ","16.650192307692386","500","250","zol","2.020000000000001","1","0","0.28","-12","30",""
"","psychophysics","97","599830","0.0-97.0","5b0fa626bd9c310001568d6c","64de82825cf36e603b0b1082","","","","","2754",""," ","key"," ","16.652072727273104","500","250","zol","1.9100000000000008","1","0","-0.31","29","-21",""
"","psychophysics","98","604121","0.0-98.0","5b0fa626bd9c310001568d6c","64de82825cf36e603b0b1082","","","","","4274",""," ","key"," ","16.650066147860073","500","250","zol","1.7500000000000004","1","0","0.55","28","-30",""
"","psychophysics","99","607178","0.0-99.0","5b0fa626bd9c310001568d6c","64de82825cf36e603b0b1082","","","","","3053",""," ","key"," ","16.651715846994353","500","250","zol","1.9100000000000006","1","0","-0.71","8","-13",""
"","psychophysics","100","612490","0.0-100.0","5b0fa626bd9c310001568d6c","64de82825cf36e603b0b1082","","","","","5298",""," ","key"," ","16.65073584905663","500","250","zol","1.7500000000000007","1","0","0.45","-21","7",""
"","psychophysics","101","613572","0.0-101.0","5b0fa626bd9c310001568d6c","64de82825cf36e603b0b1082","","","","","1078",""," ","key"," ","16.647937499999898","500","250","inst","","","","","","",""
"","psychophysics","102","616412","0.0-102.0","5b0fa626bd9c310001568d6c","64de82825cf36e603b0b1082","","","","","2833",""," ","key"," ","16.65268047337321","500","250","instBr0","0","","","0","0","0","300"
"","psychophysics","103","624651","0.0-103.0","5b0fa626bd9c310001568d6c","64de82825cf36e603b0b1082","","","","","8234",""," ","key"," ","16.650297570850384","500","250","instBr1","12","","","-40","0","0","300"
"","psychophysics","104","635394","0.0-104.0","5b0fa626bd9c310001568d6c","64de82825cf36e603b0b1082","","","","","10741",""," ","key"," ","16.65075776397514","500","250","instBr3","-20","1","","40","0","0","300"
"","psychophysics","105","636699","0.0-105.0","5b0fa626bd9c310001568d6c","64de82825cf36e603b0b1082","","","","","1301",""," ","key"," ","16.649923076921812","500","250","inst","","","","","","",""
"","psychophysics","106","639118","0.0-106.0","5b0fa626bd9c310001568d6c","64de82825cf36e603b0b1082","","","","","2410",""," ","key"," ","16.654395833333385","500","250","br","-19","1","0","-8","-29","-7","248"
"","psychophysics","107","641320","0.0-107.0","5b0fa626bd9c310001568d6c","64de82825cf36e603b0b1082","","","","","2198",""," ","key"," ","16.64997709923662","500","250","br","-21","1","0","0","25","28","237"
"","psychophysics","108","644628","0.0-108.0","5b0fa626bd9c310001568d6c","64de82825cf36e603b0b1082","","","","","3296",""," ","key"," ","16.649934343434516","500","250","br","-16","1","0","21","-17","23","226"
"","psychophysics","109","648358","0.0-109.0","5b0fa626bd9c310001568d6c","64de82825cf36e603b0b1082","","","","","3728",""," ","key"," ","16.65133632286953","500","250","br","-23","1","0","1","-10","20","236"
"","psychophysics","110","652070","0.0-110.0","5b0fa626bd9c310001568d6c","64de82825cf36e603b0b1082","","","","","3705",""," ","key"," ","16.651054054054512","500","250","br","-21","1","0","6","-24","12","271"
"","psychophysics","111","654584","0.0-111.0","5b0fa626bd9c310001568d6c","64de82825cf36e603b0b1082","","","","","2511",""," ","key"," ","16.650346666666834","500","250","br","-12","1","0","11","4","-19","219"
"","psychophysics","112","658653","0.0-112.0","5b0fa626bd9c310001568d6c","64de82825cf36e603b0b1082","","","","","4061",""," ","key"," ","16.65120164609041","500","250","br","-14","1","0","-24","7","14","298"
"","psychophysics","113","662023","0.0-113.0","5b0fa626bd9c310001568d6c","64de82825cf36e603b0b1082","","","","","3364",""," ","key"," ","16.650388059701505","500","250","br","-19","1","0","-20","-9","2","248"
"","psychophysics","114","665624","0.0-114.0","5b0fa626bd9c310001568d6c","64de82825cf36e603b0b1082","","","","","3586",""," ","key"," ","16.65154629629655","500","250","br","-15","1","0","-5","18","28","220"
"","psychophysics","115","669580","0.0-115.0","5b0fa626bd9c310001568d6c","64de82825cf36e603b0b1082","","","","","3951",""," ","key"," ","16.65033898305077","500","250","br","-21","1","0","5","-23","-4","275"
"","psychophysics","116","672304","0.0-116.0","5b0fa626bd9c310001568d6c","64de82825cf36e603b0b1082","","","","","2709",""," ","key"," ","16.651331288343656","500","250","br","-22","1","0","16","23","8","294"
"","psychophysics","117","674110","0.0-117.0","5b0fa626bd9c310001568d6c","64de82825cf36e603b0b1082","","","","","1804",""," ","key"," ","16.65022429906454","500","250","br","-20","1","0","-22","27","-16","206"
"","psychophysics","118","676850","0.0-118.0","5b0fa626bd9c310001568d6c","64de82825cf36e603b0b1082","","","","","2729",""," ","key"," ","16.652756097561127","500","250","br","-22","1","0","-12","27","27","243"
"","psychophysics","119","680243","0.0-119.0","5b0fa626bd9c310001568d6c","64de82825cf36e603b0b1082","","","","","3387",""," ","key"," ","16.650403940886733","500","250","br","-25","1","0","13","-24","1","289"
"","psychophysics","120","683524","0.0-120.0","5b0fa626bd9c310001568d6c","64de82825cf36e603b0b1082","","","","","3274",""," ","key"," ","16.651147959183675","500","250","br","-20","1","0","13","-1","22","250"
"","psychophysics","121","684516","0.0-121.0","5b0fa626bd9c310001568d6c","64de82825cf36e603b0b1082","","","","","991",""," ","key"," ","16.651482758620062","500","250","inst","","","","","","",""
"","psychophysics","122","690314","0.0-122.0","5b0fa626bd9c310001568d6c","64de82825cf36e603b0b1082","","","","","5787",""," ","key"," ","16.6504367816094","500","250","instEB1","41","2","","30","0","0","40"
"","psychophysics","123","696625","0.0-123.0","5b0fa626bd9c310001568d6c","64de82825cf36e603b0b1082","","","","","6305",""," ","key"," ","16.650436507936483","500","250","instEB2","34","2","","40","0","0","30"
"","psychophysics","124","704999","0.0-124.0","5b0fa626bd9c310001568d6c","64de82825cf36e603b0b1082","","","","","8369",""," ","key"," ","16.650352589641344","500","250","instEB3","30","2","","45","0","0","27"
"","psychophysics","125","712721","0.0-125.0","5b0fa626bd9c310001568d6c","64de82825cf36e603b0b1082","","","","","7719",""," ","key"," ","16.651216450216626","500","250","instEB4","50","2","","30","0","0","40"
"","psychophysics","126","713719","0.0-126.0","5b0fa626bd9c310001568d6c","64de82825cf36e603b0b1082","","","","","996",""," ","key"," ","16.658661016949722","500","250","inst","","","","","","",""
"","psychophysics","127","717370","0.0-127.0","5b0fa626bd9c310001568d6c","64de82825cf36e603b0b1082","","","","","3644",""," ","key"," ","16.65030593607313","500","250","eb","60","2","","48","0","0","54"
"","psychophysics","128","720607","0.0-128.0","5b0fa626bd9c310001568d6c","64de82825cf36e603b0b1082","","","","","3230",""," ","key"," ","16.65196891191688","500","250","eb","49","2","","45","0","0","40"
"","psychophysics","129","724058","0.0-129.0","5b0fa626bd9c310001568d6c","64de82825cf36e603b0b1082","","","","","3449",""," ","key"," ","16.650247572815537","500","250","eb","59","2","","48","0","0","52"
"","psychophysics","130","726339","0.0-130.0","5b0fa626bd9c310001568d6c","64de82825cf36e603b0b1082","","","","","2279",""," ","key"," ","16.651830882352762","500","250","eb","38","2","","26","0","0","30"
"","psychophysics","131","729476","0.0-131.0","5b0fa626bd9c310001568d6c","64de82825cf36e603b0b1082","","","","","3130",""," ","key"," ","16.651159574468423","500","250","eb","41","2","","51","0","0","35"
"","psychophysics","132","731928","0.0-132.0","5b0fa626bd9c310001568d6c","64de82825cf36e603b0b1082","","","","","2450",""," ","key"," ","16.651431506848894","500","250","eb","44","2","","43","0","0","40"
"","psychophysics","133","735911","0.0-133.0","5b0fa626bd9c310001568d6c","64de82825cf36e603b0b1082","","","","","3977",""," ","key"," ","16.650365546218534","500","250","eb","44","2","","54","0","0","39"
"","psychophysics","134","740025","0.0-134.0","5b0fa626bd9c310001568d6c","64de82825cf36e603b0b1082","","","","","4103",""," ","key"," ","16.6507845528455","500","250","eb","46","2","","32","0","0","43"
"","psychophysics","135","745264","0.0-135.0","5b0fa626bd9c310001568d6c","64de82825cf36e603b0b1082","","","","","5231",""," ","key"," ","16.65037898089185","500","250","eb","36","2","","39","0","0","31"
"","psychophysics","136","748982","0.0-136.0","5b0fa626bd9c310001568d6c","64de82825cf36e603b0b1082","","","","","3710",""," ","key"," ","16.651382882882704","500","250","eb","53","2","","45","0","0","48"
"","psychophysics","137","753128","0.0-137.0","5b0fa626bd9c310001568d6c","64de82825cf36e603b0b1082","","","","","4143",""," ","key"," ","16.65170564516138","500","250","eb","41","2","","41","0","0","36"
"","psychophysics","138","757808","0.0-138.0","5b0fa626bd9c310001568d6c","64de82825cf36e603b0b1082","","","","","4668",""," ","key"," ","16.651350000000093","500","250","eb","51","2","","25","0","0","45"
"","psychophysics","139","762896","0.0-139.0","5b0fa626bd9c310001568d6c","64de82825cf36e603b0b1082","","","","","5086",""," ","key"," ","16.651180327868808","500","250","eb","61","2","","24","0","0","53"
"","psychophysics","140","767204","0.0-140.0","5b0fa626bd9c310001568d6c","64de82825cf36e603b0b1082","","","","","4299",""," ","key"," ","16.650833333333477","500","250","eb","56","2","","28","0","0","52"
"","psychophysics","141","771275","0.0-141.0","5b0fa626bd9c310001568d6c","64de82825cf36e603b0b1082","","","","","4063",""," ","key"," ","16.651674897119655","500","250","eb","41","2","","54","0","0","34"
"","psychophysics","142","800807","0.0-142.0","5b0fa626bd9c310001568d6c","64de82825cf36e603b0b1082","","","","","29527",""," ","key"," ","16.65061872532432","500","250","inst","","","","","","",""
"","psychophysics","143","812728","0.0-143.0","5b0fa626bd9c310001568d6c","64de82825cf36e603b0b1082","","","","","11915",""," ","key"," ","16.650537062937172","500","250","instBr3","25","2","","40","0","0","300"
"","psychophysics","144","814199","0.0-144.0","5b0fa626bd9c310001568d6c","64de82825cf36e603b0b1082","","","","","1467",""," ","key"," ","16.647206896552067","500","250","inst","","","","","","",""
"","psychophysics","145","817317","0.0-145.0","5b0fa626bd9c310001568d6c","64de82825cf36e603b0b1082","","","","","3112",""," ","key"," ","16.650473118279635","500","250","br","25","2","1","30","15","-20","219"
"","psychophysics","146","822866","0.0-146.0","5b0fa626bd9c310001568d6c","64de82825cf36e603b0b1082","","","","","5544",""," ","key"," ","16.650876876876783","500","250","br","21","2","1","-27","-24","29","217"
"","psychophysics","147","826662","0.0-147.0","5b0fa626bd9c310001568d6c","64de82825cf36e603b0b1082","","","","","3794",""," ","key"," ","16.649672566371684","500","250","br","24","2","1","-20","-11","6","220"
"","psychophysics","148","831394","0.0-148.0","5b0fa626bd9c310001568d6c","64de82825cf36e603b0b1082","","","","","4728",""," ","key"," ","16.651732394366007","500","250","br","21","2","1","-11","26","12","270"
"","psychophysics","149","835458","0.0-149.0","5b0fa626bd9c310001568d6c","64de82825cf36e603b0b1082","","","","","4059",""," ","key"," ","16.649139917695152","500","250","br","21","2","1","-18","20","15","214"
"","psychophysics","150","837998","0.0-150.0","5b0fa626bd9c310001568d6c","64de82825cf36e603b0b1082","","","","","2534",""," ","key"," ","16.6504834437086","500","250","br","21","2","1","23","0","-11","228"
"","psychophysics","151","841326","0.0-151.0","5b0fa626bd9c310001568d6c","64de82825cf36e603b0b1082","","","","","3316",""," ","key"," ","16.652195979899552","500","250","br","22","2","1","18","-11","25","205"
"","psychophysics","152","843342","0.0-152.0","5b0fa626bd9c310001568d6c","64de82825cf36e603b0b1082","","","","","2008",""," ","key"," ","16.651866666667047","500","250","br","22","2","1","24","28","0","231"
"","psychophysics","153","846012","0.0-153.0","5b0fa626bd9c310001568d6c","64de82825cf36e603b0b1082","","","","","2657",""," ","key"," ","16.650162499999716","500","250","br","23","2","1","25","-29","13","248"
"","psychophysics","154","848351","0.0-154.0","5b0fa626bd9c310001568d6c","64de82825cf36e603b0b1082","","","","","2336",""," ","key"," ","16.652712230215506","500","250","br","26","2","1","29","29","27","220"
"","psychophysics","155","851497","0.0-155.0","5b0fa626bd9c310001568d6c","64de82825cf36e603b0b1082","","","","","3130",""," ","key"," ","16.65239893616997","500","250","br","22","2","1","14","14","1","247"
"","psychophysics","156","854967","0.0-156.0","5b0fa626bd9c310001568d6c","64de82825cf36e603b0b1082","","","","","3466",""," ","key"," ","16.65004830917845","500","250","br","23","2","1","19","-19","17","234"
"","psychophysics","157","857623","0.0-157.0","5b0fa626bd9c310001568d6c","64de82825cf36e603b0b1082","","","","","2650",""," ","key"," ","16.649867924528472","500","250","br","22","2","1","29","-20","11","207"
"","psychophysics","158","859432","0.0-158.0","5b0fa626bd9c310001568d6c","64de82825cf36e603b0b1082","","","","","1807",""," ","key"," ","16.6561296296293","500","250","br","22","2","1","18","5","-9","233"
"","psychophysics","159","863267","0.0-159.0","5b0fa626bd9c310001568d6c","64de82825cf36e603b0b1082","","","","","3831",""," ","key"," ","16.650973799127037","500","250","br","21","2","1","28","13","5","237"
"","psychophysics","160","864496","0.0-160.0","5b0fa626bd9c310001568d6c","64de82825cf36e603b0b1082","","","","","1225",""," ","key"," ","16.648383561644565","500","250","inst","","","","","","",""
"","psychophysics","161","869284","0.0-161.0","5b0fa626bd9c310001568d6c","64de82825cf36e603b0b1082","","","","","4782",""," ","key"," ","16.652048951049068","500","250","instZol1","-0.09999999999999998","","","-1.3","0","0",""
"","psychophysics","162","878795","0.0-162.0","5b0fa626bd9c310001568d6c","64de82825cf36e603b0b1082","","","","","9502",""," ","key"," ","16.650173380034943","500","250","instZol2","-1.3999999999999995","2","","2","0","0",""
"","psychophysics","163","879632","0.0-163.0","5b0fa626bd9c310001568d6c","64de82825cf36e603b0b1082","","","","","835",""," ","key"," ","16.654734693876257","500","250","inst","","","","","","",""
"","psychophysics","164","887638","0.0-164.0","5b0fa626bd9c310001568d6c","64de82825cf36e603b0b1082","","","","","null","","null","key","null","16.651179166666893","500","250","zol","0.7899999999999998","2","1","0.51","2","16",""
"","psychophysics","165","893639","0.0-165.0","5b0fa626bd9c310001568d6c","64de82825cf36e603b0b1082","","","","","5989",""," ","key"," ","16.650509749303772","500","250","zol","-1.5500000000000003","2","1","-0.65","-26","-20",""
"","psychophysics","166","899078","0.0-166.0","5b0fa626bd9c310001568d6c","64de82825cf36e603b0b1082","","","","","5436",""," ","key"," ","16.651619631901706","500","250","zol","-1.8700000000000006","2","1","0.47","-5","-27",""
"","psychophysics","167","902919","0.0-167.0","5b0fa626bd9c310001568d6c","64de82825cf36e603b0b1082","","","","","3833",""," ","key"," ","16.65015283842799","500","250","zol","-1.6200000000000006","2","1","0.32","-6","-20",""
"","psychophysics","168","906819","0.0-168.0","5b0fa626bd9c310001568d6c","64de82825cf36e603b0b1082","","","","","3896",""," ","key"," ","16.651051282051366","500","250","zol","-1.7100000000000006","2","1","0.51","-12","19",""
"","psychophysics","169","910419","0.0-169.0","5b0fa626bd9c310001568d6c","64de82825cf36e603b0b1082","","","","","3594",""," ","key"," ","16.64953023255803","500","250","zol","-2.0300000000000007","2","1","0.03","-5","7",""
"","psychophysics","170","914506","0.0-170.0","5b0fa626bd9c310001568d6c","64de82825cf36e603b0b1082","","","","","4085",""," ","key"," ","16.65142622950857","500","250","zol","-2.1800000000000006","2","1","0.48","14","-16",""
"","psychophysics","171","917797","0.0-171.0","5b0fa626bd9c310001568d6c","64de82825cf36e603b0b1082","","","","","3282",""," ","key"," ","16.651898477157356","500","250","zol","-1.4600000000000002","2","1","-0.24","13","9",""
"","psychophysics","172","923691","0.0-172.0","5b0fa626bd9c310001568d6c","64de82825cf36e603b0b1082","","","","","5892",""," ","key"," ","16.650699716713675","500","250","zol","-1.5700000000000003","2","1","0.67","1","-4",""
"","psychophysics","173","925912","0.0-173.0","5b0fa626bd9c310001568d6c","64de82825cf36e603b0b1082","","","","","2217",""," ","key"," ","16.654416666666016","500","250","zol","-1.2200000000000002","2","1","0.22","-6","-26",""
"","psychophysics","174","928607","0.0-174.0","5b0fa626bd9c310001568d6c","64de82825cf36e603b0b1082","","","","","2685",""," ","key"," ","16.650211180124277","500","250","zol","-1.5400000000000003","2","1","0.24","20","29",""
"","psychophysics","175","930781","0.0-175.0","5b0fa626bd9c310001568d6c","64de82825cf36e603b0b1082","","","","","2168",""," ","key"," ","16.650838461538886","500","250","zol","-2.0500000000000007","2","1","0.65","-4","28",""
"","psychophysics","176","936542","0.0-176.0","5b0fa626bd9c310001568d6c","64de82825cf36e603b0b1082","","","","","5756",""," ","key"," ","16.65090724637671","500","250","zol","-1.7300000000000006","2","1","-0.17","20","-26",""
"","psychophysics","177","940198","0.0-177.0","5b0fa626bd9c310001568d6c","64de82825cf36e603b0b1082","","","","","3647",""," ","key"," ","16.651394495412646","500","250","zol","-2.160000000000001","2","1","-0.44","-14","4",""
"","psychophysics","178","942262","0.0-178.0","5b0fa626bd9c310001568d6c","64de82825cf36e603b0b1082","","","","","2054",""," ","key"," ","16.652837398373975","500","250","zol","-1.6000000000000003","2","1","0.6","15","27",""
"","psychophysics","179","943250","0.0-179.0","5b0fa626bd9c310001568d6c","64de82825cf36e603b0b1082","","","","","976",""," ","key"," ","16.657050847456695","500","250","inst","","","","","","",""
"","psychophysics","180","949489","0.0-180.0","5b0fa626bd9c310001568d6c","64de82825cf36e603b0b1082","","","","","6234",""," ","key"," ","16.651096514745454","500","250","instPz1","55","1","","25","","","50"
"","psychophysics","181","957287","0.0-181.0","5b0fa626bd9c310001568d6c","64de82825cf36e603b0b1082","","","","","7781",""," ","key"," ","16.650448717948787","500","250","instPz2","21","1","","35","","","20"
"","psychophysics","182","967983","0.0-182.0","5b0fa626bd9c310001568d6c","64de82825cf36e603b0b1082","","","","","10691",""," ","key"," ","16.65080031201257","500","250","instPz3","57","1","","100","","","30"
"","psychophysics","183","971456","0.0-183.0","5b0fa626bd9c310001568d6c","64de82825cf36e603b0b1082","","","","","3466",""," ","key"," ","16.65151442307699","500","250","instPz4","73","1","","100","","","30"
"","psychophysics","184","972497","0.0-184.0","5b0fa626bd9c310001568d6c","64de82825cf36e603b0b1082","","","","","1037",""," ","key"," ","16.649786885245703","500","250","inst","","","","","","",""
"","psychophysics","185","974877","0.0-185.0","5b0fa626bd9c310001568d6c","64de82825cf36e603b0b1082","","","","","2364",""," ","key"," ","16.651028169014058","500","250","pz","77","1","1","60","","","36"
"","psychophysics","186","980631","0.0-186.0","5b0fa626bd9c310001568d6c","64de82825cf36e603b0b1082","","","","","5749",""," ","key"," ","16.65054492753613","500","250","pz","99","1","1","41","","","59"
"","psychophysics","187","985512","0.0-187.0","5b0fa626bd9c310001568d6c","64de82825cf36e603b0b1082","","","","","4873",""," ","key"," ","16.651506849315037","500","250","pz","89","1","1","60","","","47"
"","psychophysics","188","989481","0.0-188.0","5b0fa626bd9c310001568d6c","64de82825cf36e603b0b1082","","","","","3963",""," ","key"," ","16.651012658228005","500","250","pz","51","1","1","27","","","31"
"","psychophysics","189","993314","0.0-189.0","5b0fa626bd9c310001568d6c","64de82825cf36e603b0b1082","","","","","3828",""," ","key"," ","16.65110480349346","500","250","pz","68","1","1","49","","","39"
"","psychophysics","190","996507","0.0-190.0","5b0fa626bd9c310001568d6c","64de82825cf36e603b0b1082","","","","","3180",""," ","key"," ","16.651581151832715","500","250","pz","71","1","1","21","","","46"
"","psychophysics","191","999674","0.0-191.0","5b0fa626bd9c310001568d6c","64de82825cf36e603b0b1082","","","","","3157",""," ","key"," ","16.651470899471036","500","250","pz","44","1","1","57","","","27"
"","psychophysics","192","1004241","0.0-192.0","5b0fa626bd9c310001568d6c","64de82825cf36e603b0b1082","","","","","4558",""," ","key"," ","16.651339416058622","500","250","pz","33","1","1","50","","","20"
"","psychophysics","193","1006928","0.0-193.0","5b0fa626bd9c310001568d6c","64de82825cf36e603b0b1082","","","","","2681",""," ","key"," ","16.650793749999867","500","250","pz","78","1","1","40","","","50"
"","psychophysics","194","1011479","0.0-194.0","5b0fa626bd9c310001568d6c","64de82825cf36e603b0b1082","","","","","4547",""," ","key"," ","16.6509191176468","500","250","pz","49","1","1","58","","","31"
"","psychophysics","195","1014411","0.0-195.0","5b0fa626bd9c310001568d6c","64de82825cf36e603b0b1082","","","","","2929",""," ","key"," ","16.65233142857174","500","250","pz","52","1","1","45","","","29"
"","psychophysics","196","1016955","0.0-196.0","5b0fa626bd9c310001568d6c","64de82825cf36e603b0b1082","","","","","2538",""," ","key"," ","16.650901315788936","500","250","pz","77","1","1","57","","","50"
"","psychophysics","197","1019845","0.0-197.0","5b0fa626bd9c310001568d6c","64de82825cf36e603b0b1082","","","","","2883",""," ","key"," ","16.65117341040491","500","250","pz","87","1","1","49","","","46"
"","psychophysics","198","1022955","0.0-198.0","5b0fa626bd9c310001568d6c","64de82825cf36e603b0b1082","","","","","3103",""," ","key"," ","16.65111290322559","500","250","pz","78","1","1","36","","","50"
"","psychophysics","199","1029000","0.0-199.0","5b0fa626bd9c310001568d6c","64de82825cf36e603b0b1082","","","","","6039",""," ","key"," ","16.64997790055253","500","250","pz","43","1","1","57","","","30"
"","psychophysics","200","1029917","0.0-200.0","5b0fa626bd9c310001568d6c","64de82825cf36e603b0b1082","","","","","915",""," ","key"," ","16.649870370370248","500","250","inst","","","","","","",""
"","psychophysics","201","1036318","0.0-201.0","5b0fa626bd9c310001568d6c","64de82825cf36e603b0b1082","","","","","6398",""," ","key"," ","16.65119582245445","500","250","instPog0","160","1","","190","0","0","160"
"","psychophysics","202","1039210","0.0-202.0","5b0fa626bd9c310001568d6c","64de82825cf36e603b0b1082","","","","","2887",""," ","key"," ","16.652456647398843","500","250","instPog1","168","1","","190","0","0","160"
"","psychophysics","203","1043114","0.0-203.0","5b0fa626bd9c310001568d6c","64de82825cf36e603b0b1082","","","","","3900",""," ","key"," ","16.65024463519306","500","250","instPog2","182","1","","160","0","0","160"
"","psychophysics","204","1044088","0.0-204.0","5b0fa626bd9c310001568d6c","64de82825cf36e603b0b1082","","","","","972",""," ","key"," ","16.657379310345277","500","250","inst","","","","","","",""
"","psychophysics","205","1047268","0.0-205.0","5b0fa626bd9c310001568d6c","64de82825cf36e603b0b1082","","","","","3175",""," ","key"," ","16.649152631578527","500","250","pog","195","1","1","145","0","0","158"
"","psychophysics","206","1050878","0.0-206.0","5b0fa626bd9c310001568d6c","64de82825cf36e603b0b1082","","","","","3606",""," ","key"," ","16.650777777778718","500","250","pog","172","1","1","184","0","0","127"
"","psychophysics","207","1054304","0.0-207.0","5b0fa626bd9c310001568d6c","64de82825cf36e603b0b1082","","","","","3422",""," ","key"," ","16.65016666666591","500","250","pog","209","1","1","173","0","0","167"
"","psychophysics","208","1058795","0.0-208.0","5b0fa626bd9c310001568d6c","64de82825cf36e603b0b1082","","","","","4479",""," ","key"," ","16.651572490706485","500","250","pog","220","1","1","104","0","0","175"
"","psychophysics","209","1064271","0.0-209.0","5b0fa626bd9c310001568d6c","64de82825cf36e603b0b1082","","","","","5472",""," ","key"," ","16.650082317073036","500","250","pog","190","1","1","220","0","0","139"
"","psychophysics","210","1067578","0.0-210.0","5b0fa626bd9c310001568d6c","64de82825cf36e603b0b1082","","","","","3305",""," ","key"," ","16.649585858585944","500","250","pog","168","1","1","186","0","0","122"
"","psychophysics","211","1073795","0.0-211.0","5b0fa626bd9c310001568d6c","64de82825cf36e603b0b1082","","","","","6213",""," ","key"," ","16.65161559139804","500","250","pog","247","1","1","103","0","0","195"
"","psychophysics","212","1077446","0.0-212.0","5b0fa626bd9c310001568d6c","64de82825cf36e603b0b1082","","","","","3646",""," ","key"," ","16.651399082568293","500","250","pog","201","1","1","115","0","0","154"
"","psychophysics","213","1081970","0.0-213.0","5b0fa626bd9c310001568d6c","64de82825cf36e603b0b1082","","","","","4517",""," ","key"," ","16.651250922509444","500","250","pog","255","1","1","103","0","0","200"
"","psychophysics","214","1086677","0.0-214.0","5b0fa626bd9c310001568d6c","64de82825cf36e603b0b1082","","","","","4704",""," ","key"," ","16.65201773049627","500","250","pog","246","1","1","112","0","0","198"
"","psychophysics","215","1089454","0.0-215.0","5b0fa626bd9c310001568d6c","64de82825cf36e603b0b1082","","","","","2772",""," ","key"," ","16.647884848483866","500","250","pog","238","1","1","178","0","0","194"
"","psychophysics","216","1095060","0.0-216.0","5b0fa626bd9c310001568d6c","64de82825cf36e603b0b1082","","","","","5595",""," ","key"," ","16.651401785714413","500","250","pog","243","1","1","133","0","0","200"
"","psychophysics","217","1097872","0.0-217.0","5b0fa626bd9c310001568d6c","64de82825cf36e603b0b1082","","","","","2811",""," ","key"," ","16.650196428571473","500","250","pog","203","1","1","197","0","0","167"
"","psychophysics","218","1101615","0.0-218.0","5b0fa626bd9c310001568d6c","64de82825cf36e603b0b1082","","","","","3739",""," ","key"," ","16.65021874999989","500","250","pog","234","1","1","200","0","0","194"
"","psychophysics","219","1105254","0.0-219.0","5b0fa626bd9c310001568d6c","64de82825cf36e603b0b1082","","","","","3634",""," ","key"," ","16.648834101382583","500","250","pog","163","1","1","157","0","0","123"
