"success","trial_type","trial_index","time_elapsed","internal_node_id","pid","sid","timeout","failed_images","failed_audio","failed_video","rt","stimulus","response","response_type","key_press","avg_frame_time","center_x","center_y","task","resp","version","block","start","jitterX","jitterY","parA"
"true","fullscreen","0","3833","0.0-0.0","63d16430ec396edab1fe4a32","64de835b4911346a0131b292","","","","","","","","","","","","","","","","","","","",""
"true","preload","1","3940","0.0-1.0","63d16430ec396edab1fe4a32","64de835b4911346a0131b292","false","[]","[]","[]","","","","","","","","","","","","","","","",""
"","html-button-response","2","21544","0.0-2.0","63d16430ec396edab1fe4a32","64de835b4911346a0131b292","","","","","17603","Please Make Sure Your Audio Is On.","0","","","","","","","","","","","","",""
"","psychophysics","3","25571","0.0-3.0","63d16430ec396edab1fe4a32","64de835b4911346a0131b292","","","","","4021",""," ","key"," ","17.914732142857133","872.2727083667255","249.99999458139604","","","","","","","",""
"","psychophysics","4","29574","0.0-4.0","63d16430ec396edab1fe4a32","64de835b4911346a0131b292","","","","","3998",""," ","key"," ","17.805665178571417","499.9999891627921","249.99999458139604","inst","","","","","","",""
"","psychophysics","5","32642","0.0-5.0","63d16430ec396edab1fe4a32","64de835b4911346a0131b292","","","","","3066",""," ","key"," ","17.758854651162796","499.9999891627921","249.99999458139604","sample0","","","","","","",""
"","psychophysics","6","34804","0.0-6.0","63d16430ec396edab1fe4a32","64de835b4911346a0131b292","","","","","2161",""," ","key"," ","17.754999999999967","499.9999891627921","249.99999458139604","sample1","","","","","","",""
"","psychophysics","7","46748","0.0-7.0","63d16430ec396edab1fe4a32","64de835b4911346a0131b292","","","","","11942",""," ","key"," ","17.726613670133727","499.9999891627921","249.99999458139604","sample2","100","","","","","",""
"","psychophysics","8","51269","0.0-8.0","63d16430ec396edab1fe4a32","64de835b4911346a0131b292","","","","","4518",""," ","key"," ","17.702700787401564","499.9999891627921","249.99999458139604","sample3","82","","","","","",""
"","psychophysics","9","62982","0.0-9.0","63d16430ec396edab1fe4a32","64de835b4911346a0131b292","","","","","11711",""," ","key"," ","17.70863636363636","499.9999891627921","249.99999458139604","sample4","100","","","","","",""
"","psychophysics","10","66302","0.0-10.0","63d16430ec396edab1fe4a32","64de835b4911346a0131b292","","","","","3316",""," ","key"," ","17.702026737967927","499.9999891627921","249.99999458139604","sample5","","","","","","",""
"","psychophysics","11","73862","0.0-11.0","63d16430ec396edab1fe4a32","64de835b4911346a0131b292","","","","","7558",""," ","key"," ","17.710208920187824","499.9999891627921","249.99999458139604","sample6","500","","","","","",""
"","psychophysics","12","80439","0.0-12.0","63d16430ec396edab1fe4a32","64de835b4911346a0131b292","","","","","6575",""," ","key"," ","17.728800000000007","499.9999891627921","249.99999458139604","inst","","","","","","",""
"","psychophysics","13","86521","0.0-13.0","63d16430ec396edab1fe4a32","64de835b4911346a0131b292","","","","","6080",""," ","key"," ","17.7186783625731","499.9999891627921","249.99999458139604","inst","","","","","","",""
"","psychophysics","14","91282","0.0-14.0","63d16430ec396edab1fe4a32","64de835b4911346a0131b292","","","","","4761",""," ","key"," ","17.717802238805966","499.9999891627921","249.99999458139604","inst","","","","","","",""
"","psychophysics","15","93238","0.0-15.0","63d16430ec396edab1fe4a32","64de835b4911346a0131b292","","","","","1954",""," ","key"," ","17.733678899082616","499.9999891627921","249.99999458139604","inst","","","","","","",""
"","psychophysics","16","94914","0.0-16.0","63d16430ec396edab1fe4a32","64de835b4911346a0131b292","","","","","1675",""," ","key"," ","17.684829787234158","499.9999891627921","249.99999458139604","inst","","","","","","",""
"","psychophysics","17","98222","0.0-17.0","63d16430ec396edab1fe4a32","64de835b4911346a0131b292","","","","","3306",""," ","key"," ","17.720140540540513","499.9999891627921","249.99999458139604","instEB0","40","1","","40","0","0","40"
"","psychophysics","18","102762","0.0-18.0","63d16430ec396edab1fe4a32","64de835b4911346a0131b292","","","","","4538",""," ","key"," ","17.715382812499968","499.9999891627921","249.99999458139604","instEB1","32","1","","40","0","0","30"
"","psychophysics","19","109418","0.0-19.0","63d16430ec396edab1fe4a32","64de835b4911346a0131b292","","","","","6654",""," ","key"," ","17.700775999999994","499.9999891627921","249.99999458139604","instEB2","37","1","","30","0","0","40"
"","psychophysics","20","117073","0.0-20.0","63d16430ec396edab1fe4a32","64de835b4911346a0131b292","","","","","7654",""," ","key"," ","17.71790023201858","499.9999891627921","249.99999458139604","instEB3","42","1","","27","0","0","45"
"","psychophysics","21","133187","0.0-21.0","63d16430ec396edab1fe4a32","64de835b4911346a0131b292","","","","","16112",""," ","key"," ","17.669501646542276","499.9999891627921","249.99999458139604","instEB4","66","1","","40","0","0","30"
"","psychophysics","22","135558","0.0-22.0","63d16430ec396edab1fe4a32","64de835b4911346a0131b292","","","","","2369",""," ","key"," ","17.64224812030071","499.9999891627921","249.99999458139604","inst","","","","","","",""
"","psychophysics","23","143560","0.0-23.0","63d16430ec396edab1fe4a32","64de835b4911346a0131b292","","","","","null","","null","key","null","17.740579999999998","499.9999891627921","249.99999458139604","eb","35","1","","54","0","0","34"
"","psychophysics","24","146487","0.0-24.0","63d16430ec396edab1fe4a32","64de835b4911346a0131b292","","","","","2924",""," ","key"," ","17.708133333333357","499.9999891627921","249.99999458139604","eb","39","1","","41","0","0","40"
"","psychophysics","25","149854","0.0-25.0","63d16430ec396edab1fe4a32","64de835b4911346a0131b292","","","","","3365",""," ","key"," ","17.75867021276598","499.9999891627921","249.99999458139604","eb","24","1","","37","0","0","26"
"","psychophysics","26","154414","0.0-26.0","63d16430ec396edab1fe4a32","64de835b4911346a0131b292","","","","","4559",""," ","key"," ","17.731421875000024","499.9999891627921","249.99999458139604","eb","27","1","","46","0","0","28"
"","psychophysics","27","158870","0.0-27.0","63d16430ec396edab1fe4a32","64de835b4911346a0131b292","","","","","4454",""," ","key"," ","17.68298804780874","499.9999891627921","249.99999458139604","eb","35","1","","50","0","0","37"
"","psychophysics","28","162402","0.0-28.0","63d16430ec396edab1fe4a32","64de835b4911346a0131b292","","","","","3530",""," ","key"," ","17.65179396984922","499.9999891627921","249.99999458139604","eb","30","1","","35","0","0","31"
"","psychophysics","29","167619","0.0-29.0","63d16430ec396edab1fe4a32","64de835b4911346a0131b292","","","","","5214",""," ","key"," ","17.664162711864456","499.9999891627921","249.99999458139604","eb","46","1","","41","0","0","50"
"","psychophysics","30","173211","0.0-30.0","63d16430ec396edab1fe4a32","64de835b4911346a0131b292","","","","","5589",""," ","key"," ","17.70436507936508","499.9999891627921","249.99999458139604","eb","41","1","","28","0","0","44"
"","psychophysics","31","177457","0.0-31.0","63d16430ec396edab1fe4a32","64de835b4911346a0131b292","","","","","4244",""," ","key"," ","17.67115062761506","499.9999891627921","249.99999458139604","eb","33","1","","46","0","0","35"
"","psychophysics","32","180826","0.0-32.0","63d16430ec396edab1fe4a32","64de835b4911346a0131b292","","","","","3367",""," ","key"," ","17.654042105263063","499.9999891627921","249.99999458139604","eb","33","1","","50","0","0","35"
"","psychophysics","33","184306","0.0-33.0","63d16430ec396edab1fe4a32","64de835b4911346a0131b292","","","","","3477",""," ","key"," ","17.6636785714286","499.9999891627921","249.99999458139604","eb","27","1","","29","0","0","28"
"","psychophysics","34","190650","0.0-34.0","63d16430ec396edab1fe4a32","64de835b4911346a0131b292","","","","","6342",""," ","key"," ","17.64818715083801","499.9999891627921","249.99999458139604","eb","24","1","","50","0","0","26"
"","psychophysics","35","195361","0.0-35.0","63d16430ec396edab1fe4a32","64de835b4911346a0131b292","","","","","4709",""," ","key"," ","17.665266917293273","499.9999891627921","249.99999458139604","eb","41","1","","34","0","0","48"
"","psychophysics","36","199869","0.0-36.0","63d16430ec396edab1fe4a32","64de835b4911346a0131b292","","","","","4506",""," ","key"," ","17.62963921568635","499.9999891627921","249.99999458139604","eb","33","1","","24","0","0","37"
"","psychophysics","37","203822","0.0-37.0","63d16430ec396edab1fe4a32","64de835b4911346a0131b292","","","","","3950",""," ","key"," ","17.60010313901347","499.9999891627921","249.99999458139604","eb","39","1","","38","0","0","43"
"","psychophysics","38","207849","0.0-38.0","63d16430ec396edab1fe4a32","64de835b4911346a0131b292","","","","","4026",""," ","key"," ","17.670000000000112","499.9999891627921","249.99999458139604","inst","","","","","","",""
"","psychophysics","39","210109","0.0-39.0","63d16430ec396edab1fe4a32","64de835b4911346a0131b292","","","","","2260",""," ","key"," ","17.685795275590475","499.9999891627921","249.99999458139604","instPzPre","50","0","","50","","","50"
"","psychophysics","40","213222","0.0-40.0","63d16430ec396edab1fe4a32","64de835b4911346a0131b292","","","","","3111",""," ","key"," ","17.657897142857212","499.9999891627921","249.99999458139604","instPz0","50","2","","50","","","50"
"","psychophysics","41","219638","0.0-41.0","63d16430ec396edab1fe4a32","64de835b4911346a0131b292","","","","","6414",""," ","key"," ","17.676878453038672","499.9999891627921","249.99999458139604","instPz1","52","2","","25","","","50"
"","psychophysics","42","225542","0.0-42.0","63d16430ec396edab1fe4a32","64de835b4911346a0131b292","","","","","5902",""," ","key"," ","17.68712612612611","499.9999891627921","249.99999458139604","instPz2","33","2","","20","","","35"
"","psychophysics","43","232810","0.0-43.0","63d16430ec396edab1fe4a32","64de835b4911346a0131b292","","","","","7266",""," ","key"," ","17.65392700729926","499.9999891627921","249.99999458139604","instPz3","31","2","","30","","","100"
"","psychophysics","44","240794","0.0-44.0","63d16430ec396edab1fe4a32","64de835b4911346a0131b292","","","","","7982",""," ","key"," ","17.67519555555553","499.9999891627921","249.99999458139604","instPz4","63","2","","30","","","100"
"","psychophysics","45","243082","0.0-45.0","63d16430ec396edab1fe4a32","64de835b4911346a0131b292","","","","","2287",""," ","key"," ","17.693767441860572","499.9999891627921","249.99999458139604","inst","","","","","","",""
"","psychophysics","46","246938","0.0-46.0","63d16430ec396edab1fe4a32","64de835b4911346a0131b292","","","","","3853",""," ","key"," ","17.640230414746647","499.9999891627921","249.99999458139604","pz","32","2","0","25","","","49"
"","psychophysics","47","252706","0.0-47.0","63d16430ec396edab1fe4a32","64de835b4911346a0131b292","","","","","5767",""," ","key"," ","17.676665644171848","499.9999891627921","249.99999458139604","pz","27","2","0","22","","","41"
"","psychophysics","48","256610","0.0-48.0","63d16430ec396edab1fe4a32","64de835b4911346a0131b292","","","","","3901",""," ","key"," ","17.62824090909086","499.9999891627921","249.99999458139604","pz","36","2","0","28","","","60"
"","psychophysics","49","261625","0.0-49.0","63d16430ec396edab1fe4a32","64de835b4911346a0131b292","","","","","5014",""," ","key"," ","17.713354609928967","499.9999891627921","249.99999458139604","pz","29","2","0","33","","","39"
"","psychophysics","50","266946","0.0-50.0","63d16430ec396edab1fe4a32","64de835b4911346a0131b292","","","","","5319",""," ","key"," ","17.661176666666677","499.9999891627921","249.99999458139604","pz","23","2","0","50","","","29"
"","psychophysics","51","270271","0.0-51.0","63d16430ec396edab1fe4a32","64de835b4911346a0131b292","","","","","3323",""," ","key"," ","17.65343085106399","499.9999891627921","249.99999458139604","pz","17","2","0","28","","","20"
"","psychophysics","52","275648","0.0-52.0","63d16430ec396edab1fe4a32","64de835b4911346a0131b292","","","","","5373",""," ","key"," ","17.63228947368426","499.9999891627921","249.99999458139604","pz","33","2","0","23","","","60"
"","psychophysics","53","280102","0.0-53.0","63d16430ec396edab1fe4a32","64de835b4911346a0131b292","","","","","4452",""," ","key"," ","17.645916334661354","499.9999891627921","249.99999458139604","pz","31","2","0","21","","","54"
"","psychophysics","54","284069","0.0-54.0","63d16430ec396edab1fe4a32","64de835b4911346a0131b292","","","","","3965",""," ","key"," ","17.659705357143007","499.9999891627921","249.99999458139604","pz","41","2","0","59","","","57"
"","psychophysics","55","290357","0.0-55.0","63d16430ec396edab1fe4a32","64de835b4911346a0131b292","","","","","6286",""," ","key"," ","17.660554929577554","499.9999891627921","249.99999458139604","pz","36","2","0","53","","","47"
"","psychophysics","56","295934","0.0-56.0","63d16430ec396edab1fe4a32","64de835b4911346a0131b292","","","","","5574",""," ","key"," ","17.66868471337581","499.9999891627921","249.99999458139604","pz","31","2","0","57","","","39"
"","psychophysics","57","301546","0.0-57.0","63d16430ec396edab1fe4a32","64de835b4911346a0131b292","","","","","5609",""," ","key"," ","17.679072555205057","499.9999891627921","249.99999458139604","pz","39","2","0","31","","","57"
"","psychophysics","58","303793","0.0-58.0","63d16430ec396edab1fe4a32","64de835b4911346a0131b292","","","","","2245",""," ","key"," ","17.676595238095615","499.9999891627921","249.99999458139604","pz","32","2","0","29","","","45"
"","psychophysics","59","307114","0.0-59.0","63d16430ec396edab1fe4a32","64de835b4911346a0131b292","","","","","3317",""," ","key"," ","17.698893048128493","499.9999891627921","249.99999458139604","pz","26","2","0","27","","","37"
"","psychophysics","60","312753","0.0-60.0","63d16430ec396edab1fe4a32","64de835b4911346a0131b292","","","","","5636",""," ","key"," ","17.646185534591083","499.9999891627921","249.99999458139604","pz","29","2","0","23","","","51"
"","psychophysics","61","314593","0.0-61.0","63d16430ec396edab1fe4a32","64de835b4911346a0131b292","","","","","1839",""," ","key"," ","17.7612330097088","499.9999891627921","249.99999458139604","inst","","","","","","",""
"","psychophysics","62","321634","0.0-62.0","63d16430ec396edab1fe4a32","64de835b4911346a0131b292","","","","","7040",""," ","key"," ","17.653364321608013","499.9999891627921","249.99999458139604","instPog0","340","2","","370","0","0","340"
"","psychophysics","63","330489","0.0-63.0","63d16430ec396edab1fe4a32","64de835b4911346a0131b292","","","","","8854",""," ","key"," ","17.650765999999944","499.9999891627921","249.99999458139604","instPog1","342","2","","370","0","0","340"
"","psychophysics","64","335266","0.0-64.0","63d16430ec396edab1fe4a32","64de835b4911346a0131b292","","","","","4775",""," ","key"," ","17.64863703703719","499.9999891627921","249.99999458139604","instPog2","320","2","","340","0","0","340"
"","psychophysics","65","336612","0.0-65.0","63d16430ec396edab1fe4a32","64de835b4911346a0131b292","","","","","1345",""," ","key"," ","17.684560000000054","499.9999891627921","249.99999458139604","inst","","","","","","",""
"","psychophysics","66","341804","0.0-66.0","63d16430ec396edab1fe4a32","64de835b4911346a0131b292","","","","","5191",""," ","key"," ","17.653054607508636","499.9999891627921","249.99999458139604","pog","320","2","0","380","0","0","345"
"","psychophysics","67","346237","0.0-67.0","63d16430ec396edab1fe4a32","64de835b4911346a0131b292","","","","","4430",""," ","key"," ","17.660568000000204","499.9999891627921","249.99999458139604","pog","278","2","0","308","0","0","315"
"","psychophysics","68","350333","0.0-68.0","63d16430ec396edab1fe4a32","64de835b4911346a0131b292","","","","","4095",""," ","key"," ","17.650034632034615","499.9999891627921","249.99999458139604","pog","315","2","0","285","0","0","347"
"","psychophysics","69","355157","0.0-69.0","63d16430ec396edab1fe4a32","64de835b4911346a0131b292","","","","","4822",""," ","key"," ","17.662496323529496","499.9999891627921","249.99999458139604","pog","319","2","0","393","0","0","339"
"","psychophysics","70","362701","0.0-70.0","63d16430ec396edab1fe4a32","64de835b4911346a0131b292","","","","","7542",""," ","key"," ","17.697999999999997","499.9999891627921","249.99999458139604","pog","312","2","0","286","0","0","344"
"","psychophysics","71","368557","0.0-71.0","63d16430ec396edab1fe4a32","64de835b4911346a0131b292","","","","","5853",""," ","key"," ","17.656127272727264","499.9999891627921","249.99999458139604","pog","351","2","0","319","0","0","379"
"","psychophysics","72","373277","0.0-72.0","63d16430ec396edab1fe4a32","64de835b4911346a0131b292","","","","","4718",""," ","key"," ","17.688003759398573","499.9999891627921","249.99999458139604","pog","283","2","0","289","0","0","313"
"","psychophysics","73","377964","0.0-73.0","63d16430ec396edab1fe4a32","64de835b4911346a0131b292","","","","","4685",""," ","key"," ","17.659647727272716","499.9999891627921","249.99999458139604","pog","279","2","0","323","0","0","307"
"","psychophysics","74","384193","0.0-74.0","63d16430ec396edab1fe4a32","64de835b4911346a0131b292","","","","","6227",""," ","key"," ","17.665499999999984","499.9999891627921","249.99999458139604","pog","351","2","0","335","0","0","378"
"","psychophysics","75","389721","0.0-75.0","63d16430ec396edab1fe4a32","64de835b4911346a0131b292","","","","","5525",""," ","key"," ","17.675798076923037","499.9999891627921","249.99999458139604","pog","307","2","0","367","0","0","330"
"","psychophysics","76","391906","0.0-76.0","63d16430ec396edab1fe4a32","64de835b4911346a0131b292","","","","","2183",""," ","key"," ","17.647113821138458","499.9999891627921","249.99999458139604","pog","318","2","0","320","0","0","343"
"","psychophysics","77","396354","0.0-77.0","63d16430ec396edab1fe4a32","64de835b4911346a0131b292","","","","","4446",""," ","key"," ","17.709439999999944","499.9999891627921","249.99999458139604","pog","296","2","0","326","0","0","326"
"","psychophysics","78","399004","0.0-78.0","63d16430ec396edab1fe4a32","64de835b4911346a0131b292","","","","","2648",""," ","key"," ","17.70407432432458","499.9999891627921","249.99999458139604","pog","275","2","0","281","0","0","304"
"","psychophysics","79","403266","0.0-79.0","63d16430ec396edab1fe4a32","64de835b4911346a0131b292","","","","","4260",""," ","key"," ","17.670775933609985","499.9999891627921","249.99999458139604","pog","296","2","0","362","0","0","314"
"","psychophysics","80","407849","0.0-80.0","63d16430ec396edab1fe4a32","64de835b4911346a0131b292","","","","","4580",""," ","key"," ","17.644186046511674","499.9999891627921","249.99999458139604","pog","334","2","0","348","0","0","362"
"","psychophysics","81","408890","0.0-81.0","63d16430ec396edab1fe4a32","64de835b4911346a0131b292","","","","","1040",""," ","key"," ","17.585000000000235","499.9999891627921","249.99999458139604","inst","","","","","","",""
"","psychophysics","82","411384","0.0-82.0","63d16430ec396edab1fe4a32","64de835b4911346a0131b292","","","","","2492",""," ","key"," ","17.63088571428546","499.9999891627921","249.99999458139604","instZol0","0","","","0","0","0",""
"","psychophysics","83","417653","0.0-83.0","63d16430ec396edab1fe4a32","64de835b4911346a0131b292","","","","","6268",""," ","key"," ","17.662257062146928","499.9999891627921","249.99999458139604","instZol1","0.30000000000000004","","","-1.3","0","0",""
"","psychophysics","84","427477","0.0-84.0","63d16430ec396edab1fe4a32","64de835b4911346a0131b292","","","","","9823",""," ","key"," ","17.658627027027027","499.9999891627921","249.99999458139604","instZol2","1.1000000000000008","1","","2","0","0",""
"","psychophysics","85","428366","0.0-85.0","63d16430ec396edab1fe4a32","64de835b4911346a0131b292","","","","","887",""," ","key"," ","17.61451999999932","499.9999891627921","249.99999458139604","inst","","","","","","",""
"","psychophysics","86","433685","0.0-86.0","63d16430ec396edab1fe4a32","64de835b4911346a0131b292","","","","","5316",""," ","key"," ","17.626939999999983","499.9999891627921","249.99999458139604","zol","0.8799999999999999","1","0","0.62","-9","20",""
"","psychophysics","87","438421","0.0-87.0","63d16430ec396edab1fe4a32","64de835b4911346a0131b292","","","","","4732",""," ","key"," ","17.691322097378436","499.9999891627921","249.99999458139604","zol","0.7499999999999999","1","0","0.15","-5","14",""
"","psychophysics","88","445585","0.0-88.0","63d16430ec396edab1fe4a32","64de835b4911346a0131b292","","","","","7162",""," ","key"," ","17.74696774193546","499.9999891627921","249.99999458139604","zol","1.2300000000000002","1","0","0.47","18","-7",""
"","psychophysics","89","451720","0.0-89.0","63d16430ec396edab1fe4a32","64de835b4911346a0131b292","","","","","6134",""," ","key"," ","17.70236521739128","499.9999891627921","249.99999458139604","zol","1.8500000000000005","1","0","-0.05","-3","13",""
"","psychophysics","90","457888","0.0-90.0","63d16430ec396edab1fe4a32","64de835b4911346a0131b292","","","","","6165",""," ","key"," ","17.65452435530087","499.9999891627921","249.99999458139604","zol","1.4800000000000002","1","0","0.22","-9","-30",""
"","psychophysics","91","462160","0.0-91.0","63d16430ec396edab1fe4a32","64de835b4911346a0131b292","","","","","4270",""," ","key"," ","17.649535269709546","499.9999891627921","249.99999458139604","zol","1.8100000000000005","1","0","-0.71","2","5",""
"","psychophysics","92","469376","0.0-92.0","63d16430ec396edab1fe4a32","64de835b4911346a0131b292","","","","","7214",""," ","key"," ","17.735726600985263","499.9999891627921","249.99999458139604","zol","1.6000000000000003","1","0","0.7","-27","-11",""
"","psychophysics","93","473229","0.0-93.0","63d16430ec396edab1fe4a32","64de835b4911346a0131b292","","","","","3850",""," ","key"," ","17.85038317757018","499.9999891627921","249.99999458139604","zol","1.2200000000000002","1","0","0.38","20","19",""
"","psychophysics","94","476908","0.0-94.0","63d16430ec396edab1fe4a32","64de835b4911346a0131b292","","","","","3677",""," ","key"," ","17.902126829268514","499.9999891627921","249.99999458139604","zol","1.7800000000000007","1","0","-0.68","17","13",""
"","psychophysics","95","480876","0.0-95.0","63d16430ec396edab1fe4a32","64de835b4911346a0131b292","","","","","3966",""," ","key"," ","17.9766363636363","499.9999891627921","249.99999458139604","zol","1.8000000000000005","1","0","-0.5","-7","-22",""
"","psychophysics","96","485415","0.0-96.0","63d16430ec396edab1fe4a32","64de835b4911346a0131b292","","","","","4536",""," ","key"," ","18.089731999999845","499.9999891627921","249.99999458139604","zol","1.4400000000000004","1","0","0.06","-30","9",""
"","psychophysics","97","491012","0.0-97.0","63d16430ec396edab1fe4a32","64de835b4911346a0131b292","","","","","5595",""," ","key"," ","18.19728758169933","499.9999891627921","249.99999458139604","zol","1.6000000000000003","1","0","0.2","-1","16",""
"","psychophysics","98","495804","0.0-98.0","63d16430ec396edab1fe4a32","64de835b4911346a0131b292","","","","","4786",""," ","key"," ","18.46693050193049","499.9999891627921","249.99999458139604","zol","1.4500000000000002","1","0","-0.05","12","24",""
"","psychophysics","99","503807","0.0-99.0","63d16430ec396edab1fe4a32","64de835b4911346a0131b292","","","","","null","","null","key","null","18.756534117647064","499.9999891627921","249.99999458139604","zol","1.3100000000000003","1","0","0.59","4","-27",""
"","psychophysics","100","510908","0.0-100.0","63d16430ec396edab1fe4a32","64de835b4911346a0131b292","","","","","7099",""," ","key"," ","18.57004450261776","499.9999891627921","249.99999458139604","zol","1.27","1","0","-0.37","-1","13",""
"","psychophysics","101","512060","0.0-101.0","63d16430ec396edab1fe4a32","64de835b4911346a0131b292","","","","","1151",""," ","key"," ","18.554278688524377","499.9999891627921","249.99999458139604","inst","","","","","","",""
"","psychophysics","102","514608","0.0-102.0","63d16430ec396edab1fe4a32","64de835b4911346a0131b292","","","","","2547",""," ","key"," ","19.139833333333215","499.9999891627921","249.99999458139604","instBr0","0","","","0","0","0","300"
"","psychophysics","103","519536","0.0-103.0","63d16430ec396edab1fe4a32","64de835b4911346a0131b292","","","","","4927",""," ","key"," ","20.081426229508267","499.9999891627921","249.99999458139604","instBr1","0","","","-40","0","0","300"
"","psychophysics","104","524088","0.0-104.0","63d16430ec396edab1fe4a32","64de835b4911346a0131b292","","","","","4551",""," ","key"," ","20.55787782805442","499.9999891627921","249.99999458139604","instBr3","17","2","","40","0","0","300"
"","psychophysics","105","525064","0.0-105.0","63d16430ec396edab1fe4a32","64de835b4911346a0131b292","","","","","974",""," ","key"," ","20.81958695652176","499.9999891627921","249.99999458139604","inst","","","","","","",""
"","psychophysics","106","529984","0.0-106.0","63d16430ec396edab1fe4a32","64de835b4911346a0131b292","","","","","4917",""," ","key"," ","20.747546610169376","499.9999891627921","249.99999458139604","br","18","2","0","2","-27","-25","224"
"","psychophysics","107","531752","0.0-107.0","63d16430ec396edab1fe4a32","64de835b4911346a0131b292","","","","","1766",""," ","key"," ","20.74766666666671","499.9999891627921","249.99999458139604","br","22","2","0","22","-22","-12","280"
"","psychophysics","108","536571","0.0-108.0","63d16430ec396edab1fe4a32","64de835b4911346a0131b292","","","","","4818",""," ","key"," ","20.571360515021368","499.9999891627921","249.99999458139604","br","15","2","0","-26","-4","-8","211"
"","psychophysics","109","541673","0.0-109.0","63d16430ec396edab1fe4a32","64de835b4911346a0131b292","","","","","5100",""," ","key"," ","20.45336947791151","499.9999891627921","249.99999458139604","br","19","2","0","-21","-22","-25","202"
"","psychophysics","110","546834","0.0-110.0","63d16430ec396edab1fe4a32","64de835b4911346a0131b292","","","","","5159",""," ","key"," ","20.02014843750021","499.9999891627921","249.99999458139604","br","18","2","0","23","11","19","233"
"","psychophysics","111","549680","0.0-111.0","63d16430ec396edab1fe4a32","64de835b4911346a0131b292","","","","","2845",""," ","key"," ","19.08059060402705","499.9999891627921","249.99999458139604","br","23","2","0","23","0","-26","299"
"","psychophysics","112","553180","0.0-112.0","63d16430ec396edab1fe4a32","64de835b4911346a0131b292","","","","","3497",""," ","key"," ","18.51126063829771","499.9999891627921","249.99999458139604","br","14","2","0","-15","27","25","219"
"","psychophysics","113","556889","0.0-113.0","63d16430ec396edab1fe4a32","64de835b4911346a0131b292","","","","","3706",""," ","key"," ","17.931004854368986","499.9999891627921","249.99999458139604","br","16","2","0","6","29","10","266"
"","psychophysics","114","560292","0.0-114.0","63d16430ec396edab1fe4a32","64de835b4911346a0131b292","","","","","3401",""," ","key"," ","17.686575916230055","499.9999891627921","249.99999458139604","br","19","2","0","23","16","-8","238"
"","psychophysics","115","565276","0.0-115.0","63d16430ec396edab1fe4a32","64de835b4911346a0131b292","","","","","4982",""," ","key"," ","17.665359430605037","499.9999891627921","249.99999458139604","br","20","2","0","29","-23","18","204"
"","psychophysics","116","567724","0.0-116.0","63d16430ec396edab1fe4a32","64de835b4911346a0131b292","","","","","2447",""," ","key"," ","17.652840579709753","499.9999891627921","249.99999458139604","br","22","2","0","13","-14","-9","237"
"","psychophysics","117","570781","0.0-117.0","63d16430ec396edab1fe4a32","64de835b4911346a0131b292","","","","","3055",""," ","key"," ","17.673470930232895","499.9999891627921","249.99999458139604","br","22","2","0","25","-14","-28","221"
"","psychophysics","118","573892","0.0-118.0","63d16430ec396edab1fe4a32","64de835b4911346a0131b292","","","","","3109",""," ","key"," ","17.670394285714387","499.9999891627921","249.99999458139604","br","19","2","0","19","20","0","280"
"","psychophysics","119","577644","0.0-119.0","63d16430ec396edab1fe4a32","64de835b4911346a0131b292","","","","","3750",""," ","key"," ","17.67821800947836","499.9999891627921","249.99999458139604","br","18","2","0","20","-9","-28","219"
"","psychophysics","120","582380","0.0-120.0","63d16430ec396edab1fe4a32","64de835b4911346a0131b292","","","","","4734",""," ","key"," ","17.68720973782766","499.9999891627921","249.99999458139604","br","23","2","0","26","-7","-19","290"
"","psychophysics","121","583324","0.0-121.0","63d16430ec396edab1fe4a32","64de835b4911346a0131b292","","","","","943",""," ","key"," ","17.718807692308193","499.9999891627921","249.99999458139604","inst","","","","","","",""
"","psychophysics","122","590752","0.0-122.0","63d16430ec396edab1fe4a32","64de835b4911346a0131b292","","","","","7427",""," ","key"," ","17.638159523809527","499.9999891627921","249.99999458139604","instPz1","47","1","","25","","","50"
"","psychophysics","123","599136","0.0-123.0","63d16430ec396edab1fe4a32","64de835b4911346a0131b292","","","","","8382",""," ","key"," ","17.69541860465108","499.9999891627921","249.99999458139604","instPz2","19","1","","35","","","20"
"","psychophysics","124","604240","0.0-124.0","63d16430ec396edab1fe4a32","64de835b4911346a0131b292","","","","","5102",""," ","key"," ","17.646458333333513","499.9999891627921","249.99999458139604","instPz3","99","1","","100","","","30"
"","psychophysics","125","614584","0.0-125.0","63d16430ec396edab1fe4a32","64de835b4911346a0131b292","","","","","10342",""," ","key"," ","17.724024013722175","499.9999891627921","249.99999458139604","instPz4","45","1","","100","","","30"
"","psychophysics","126","616009","0.0-126.0","63d16430ec396edab1fe4a32","64de835b4911346a0131b292","","","","","1424",""," ","key"," ","17.704797468354478","499.9999891627921","249.99999458139604","inst","","","","","","",""
"","psychophysics","127","620392","0.0-127.0","63d16430ec396edab1fe4a32","64de835b4911346a0131b292","","","","","4379",""," ","key"," ","17.739276422764085","499.9999891627921","249.99999458139604","pz","53","1","1","53","","","39"
"","psychophysics","128","626758","0.0-128.0","63d16430ec396edab1fe4a32","64de835b4911346a0131b292","","","","","6363",""," ","key"," ","17.721732590529122","499.9999891627921","249.99999458139604","pz","60","1","1","20","","","47"
"","psychophysics","129","630060","0.0-129.0","63d16430ec396edab1fe4a32","64de835b4911346a0131b292","","","","","3299",""," ","key"," ","17.707524324324282","499.9999891627921","249.99999458139604","pz","35","1","1","41","","","20"
"","psychophysics","130","632989","0.0-130.0","63d16430ec396edab1fe4a32","64de835b4911346a0131b292","","","","","2927",""," ","key"," ","17.692078787878607","499.9999891627921","249.99999458139604","pz","35","1","1","39","","","21"
"","psychophysics","131","637916","0.0-131.0","63d16430ec396edab1fe4a32","64de835b4911346a0131b292","","","","","4925",""," ","key"," ","17.73302536231864","499.9999891627921","249.99999458139604","pz","53","1","1","25","","","44"
"","psychophysics","132","640156","0.0-132.0","63d16430ec396edab1fe4a32","64de835b4911346a0131b292","","","","","2237",""," ","key"," ","17.741103174603758","499.9999891627921","249.99999458139604","pz","41","1","1","40","","","30"
"","psychophysics","133","645397","0.0-133.0","63d16430ec396edab1fe4a32","64de835b4911346a0131b292","","","","","5238",""," ","key"," ","17.715544217687057","499.9999891627921","249.99999458139604","pz","55","1","1","26","","","43"
"","psychophysics","134","652060","0.0-134.0","63d16430ec396edab1fe4a32","64de835b4911346a0131b292","","","","","6660",""," ","key"," ","17.716510638297706","499.9999891627921","249.99999458139604","pz","78","1","1","46","","","60"
"","psychophysics","135","657340","0.0-135.0","63d16430ec396edab1fe4a32","64de835b4911346a0131b292","","","","","5277",""," ","key"," ","17.70692929292924","499.9999891627921","249.99999458139604","pz","60","1","1","31","","","46"
"","psychophysics","136","662936","0.0-136.0","63d16430ec396edab1fe4a32","64de835b4911346a0131b292","","","","","5595",""," ","key"," ","17.72389841269857","499.9999891627921","249.99999458139604","pz","57","1","1","33","","","50"
"","psychophysics","137","670568","0.0-137.0","63d16430ec396edab1fe4a32","64de835b4911346a0131b292","","","","","7629",""," ","key"," ","17.728139860139798","499.9999891627921","249.99999458139604","pz","31","1","1","28","","","26"
"","psychophysics","138","674824","0.0-138.0","63d16430ec396edab1fe4a32","64de835b4911346a0131b292","","","","","4254",""," ","key"," ","17.74813807531402","499.9999891627921","249.99999458139604","pz","34","1","1","51","","","28"
"","psychophysics","139","677920","0.0-139.0","63d16430ec396edab1fe4a32","64de835b4911346a0131b292","","","","","3095",""," ","key"," ","17.714511494253276","499.9999891627921","249.99999458139604","pz","33","1","1","26","","","25"
"","psychophysics","140","681768","0.0-140.0","63d16430ec396edab1fe4a32","64de835b4911346a0131b292","","","","","3845",""," ","key"," ","17.695351851851836","499.9999891627921","249.99999458139604","pz","41","1","1","45","","","29"
"","psychophysics","141","687201","0.0-141.0","63d16430ec396edab1fe4a32","64de835b4911346a0131b292","","","","","5432",""," ","key"," ","17.726552287581548","499.9999891627921","249.99999458139604","pz","55","1","1","23","","","51"
"","psychophysics","142","688432","0.0-142.0","63d16430ec396edab1fe4a32","64de835b4911346a0131b292","","","","","1229",""," ","key"," ","17.757529411764526","499.9999891627921","249.99999458139604","inst","","","","","","",""
"","psychophysics","143","694806","0.0-143.0","63d16430ec396edab1fe4a32","64de835b4911346a0131b292","","","","","6373",""," ","key"," ","17.72050417827288","499.9999891627921","249.99999458139604","instZol1","0.2999999999999998","","","-1.3","0","0",""
"","psychophysics","144","700695","0.0-144.0","63d16430ec396edab1fe4a32","64de835b4911346a0131b292","","","","","5886",""," ","key"," ","17.752551515151705","499.9999891627921","249.99999458139604","instZol2","-1.5999999999999996","2","","2","0","0",""
"","psychophysics","145","701588","0.0-145.0","63d16430ec396edab1fe4a32","64de835b4911346a0131b292","","","","","892",""," ","key"," ","17.69756000000052","499.9999891627921","249.99999458139604","inst","","","","","","",""
"","psychophysics","146","709590","0.0-146.0","63d16430ec396edab1fe4a32","64de835b4911346a0131b292","","","","","null","","null","key","null","17.70689135255006","499.9999891627921","249.99999458139604","zol","-1.28","2","1","-0.62","-4","25",""
"","psychophysics","147","709724","0.0-147.0","63d16430ec396edab1fe4a32","64de835b4911346a0131b292","","","","","131",""," ","key"," ","17.60816666666263","499.9999891627921","249.99999458139604","zol","-0.62","2","1","0.62","-2","7",""
"","psychophysics","148","713524","0.0-148.0","63d16430ec396edab1fe4a32","64de835b4911346a0131b292","","","","","3798",""," ","key"," ","17.746558685445976","499.9999891627921","249.99999458139604","zol","-1.3100000000000003","2","1","0.11","29","11",""
"","psychophysics","149","718396","0.0-149.0","63d16430ec396edab1fe4a32","64de835b4911346a0131b292","","","","","4869",""," ","key"," ","17.78396336996336","499.9999891627921","249.99999458139604","zol","-1.3300000000000003","2","1","-0.37","-5","20",""
"","psychophysics","150","722132","0.0-150.0","63d16430ec396edab1fe4a32","64de835b4911346a0131b292","","","","","3734",""," ","key"," ","17.760952380952602","499.9999891627921","249.99999458139604","zol","-1.16","2","1","0.16","19","-1",""
"","psychophysics","151","726240","0.0-151.0","63d16430ec396edab1fe4a32","64de835b4911346a0131b292","","","","","4105",""," ","key"," ","17.68296536796543","499.9999891627921","249.99999458139604","zol","-1.6000000000000003","2","1","0.1","-15","14",""
"","psychophysics","152","732354","0.0-152.0","63d16430ec396edab1fe4a32","64de835b4911346a0131b292","","","","","6111",""," ","key"," ","17.74554651162789","499.9999891627921","249.99999458139604","zol","-1.5400000000000005","2","1","-0.36","28","27",""
"","psychophysics","153","737040","0.0-153.0","63d16430ec396edab1fe4a32","64de835b4911346a0131b292","","","","","4683",""," ","key"," ","17.72004182509522","499.9999891627921","249.99999458139604","zol","-1.3200000000000003","2","1","-0.38","-23","21",""
"","psychophysics","154","741284","0.0-154.0","63d16430ec396edab1fe4a32","64de835b4911346a0131b292","","","","","4242",""," ","key"," ","17.716430962343395","499.9999891627921","249.99999458139604","zol","-1.03","2","1","0.33","18","-3",""
"","psychophysics","155","746520","0.0-155.0","63d16430ec396edab1fe4a32","64de835b4911346a0131b292","","","","","5234",""," ","key"," ","17.707880952381245","499.9999891627921","249.99999458139604","zol","-0.9399999999999998","2","1","-0.66","4","29",""
"","psychophysics","156","750112","0.0-156.0","63d16430ec396edab1fe4a32","64de835b4911346a0131b292","","","","","3589",""," ","key"," ","17.72431683168334","499.9999891627921","249.99999458139604","zol","-1.01","2","1","0.51","30","-5",""
"","psychophysics","157","753177","0.0-157.0","63d16430ec396edab1fe4a32","64de835b4911346a0131b292","","","","","3063",""," ","key"," ","17.749255813954015","499.9999891627921","249.99999458139604","zol","-1.2400000000000002","2","1","-0.06","-20","3",""
"","psychophysics","158","757832","0.0-158.0","63d16430ec396edab1fe4a32","64de835b4911346a0131b292","","","","","4652",""," ","key"," ","17.706272030651117","499.9999891627921","249.99999458139604","zol","-1.36","2","1","-0.04","10","18",""
"","psychophysics","159","762720","0.0-159.0","63d16430ec396edab1fe4a32","64de835b4911346a0131b292","","","","","4885",""," ","key"," ","17.709305454545486","499.9999891627921","249.99999458139604","zol","-0.9199999999999998","2","1","-0.68","21","0",""
"","psychophysics","160","766812","0.0-160.0","63d16430ec396edab1fe4a32","64de835b4911346a0131b292","","","","","4089",""," ","key"," ","17.721421739130545","499.9999891627921","249.99999458139604","zol","-0.8099999999999999","2","1","-0.39","4","-4",""
"","psychophysics","161","767764","0.0-161.0","63d16430ec396edab1fe4a32","64de835b4911346a0131b292","","","","","950",""," ","key"," ","17.764358490564913","499.9999891627921","249.99999458139604","inst","","","","","","",""
"","psychophysics","162","772917","0.0-162.0","63d16430ec396edab1fe4a32","64de835b4911346a0131b292","","","","","5152",""," ","key"," ","17.73193793103444","499.9999891627921","249.99999458139604","instPog0","160","1","","190","0","0","160"
"","psychophysics","163","775812","0.0-163.0","63d16430ec396edab1fe4a32","64de835b4911346a0131b292","","","","","2893",""," ","key"," ","17.733993827160536","499.9999891627921","249.99999458139604","instPog1","168","1","","190","0","0","160"
"","psychophysics","164","779459","0.0-164.0","63d16430ec396edab1fe4a32","64de835b4911346a0131b292","","","","","3646",""," ","key"," ","17.696317073170707","499.9999891627921","249.99999458139604","instPog2","174","1","","160","0","0","160"
"","psychophysics","165","780556","0.0-165.0","63d16430ec396edab1fe4a32","64de835b4911346a0131b292","","","","","1095",""," ","key"," ","17.75601639344212","499.9999891627921","249.99999458139604","inst","","","","","","",""
"","psychophysics","166","784388","0.0-166.0","63d16430ec396edab1fe4a32","64de835b4911346a0131b292","","","","","3829",""," ","key"," ","17.75814953271058","499.9999891627921","249.99999458139604","pog","190","1","1","170","0","0","171"
"","psychophysics","167","788012","0.0-167.0","63d16430ec396edab1fe4a32","64de835b4911346a0131b292","","","","","3623",""," ","key"," ","17.717147058823294","499.9999891627921","249.99999458139604","pog","151","1","1","117","0","0","128"
"","psychophysics","168","790496","0.0-168.0","63d16430ec396edab1fe4a32","64de835b4911346a0131b292","","","","","2482",""," ","key"," ","17.761280575539352","499.9999891627921","249.99999458139604","pog","204","1","1","172","0","0","182"
"","psychophysics","169","793632","0.0-169.0","63d16430ec396edab1fe4a32","64de835b4911346a0131b292","","","","","3135",""," ","key"," ","17.733204545454512","499.9999891627921","249.99999458139604","pog","166","1","1","134","0","0","145"
"","psychophysics","170","798894","0.0-170.0","63d16430ec396edab1fe4a32","64de835b4911346a0131b292","","","","","5258",""," ","key"," ","17.74904406779659","499.9999891627921","249.99999458139604","pog","167","1","1","131","0","0","151"
"","psychophysics","171","802001","0.0-171.0","63d16430ec396edab1fe4a32","64de835b4911346a0131b292","","","","","3105",""," ","key"," ","17.69879428571423","499.9999891627921","249.99999458139604","pog","185","1","1","143","0","0","170"
"","psychophysics","172","803752","0.0-172.0","63d16430ec396edab1fe4a32","64de835b4911346a0131b292","","","","","1749",""," ","key"," ","17.684448979591846","499.9999891627921","249.99999458139604","pog","167","1","1","169","0","0","156"
"","psychophysics","173","805952","0.0-173.0","63d16430ec396edab1fe4a32","64de835b4911346a0131b292","","","","","2196",""," ","key"," ","17.714186991870637","499.9999891627921","249.99999458139604","pog","160","1","1","166","0","0","137"
"","psychophysics","174","809680","0.0-174.0","63d16430ec396edab1fe4a32","64de835b4911346a0131b292","","","","","3727",""," ","key"," ","17.71475598086106","499.9999891627921","249.99999458139604","pog","190","1","1","166","0","0","174"
"","psychophysics","175","812463","0.0-175.0","63d16430ec396edab1fe4a32","64de835b4911346a0131b292","","","","","2782",""," ","key"," ","17.70223566878937","499.9999891627921","249.99999458139604","pog","153","1","1","121","0","0","143"
"","psychophysics","176","816159","0.0-176.0","63d16430ec396edab1fe4a32","64de835b4911346a0131b292","","","","","3694",""," ","key"," ","17.738473429951416","499.9999891627921","249.99999458139604","pog","168","1","1","150","0","0","154"
"","psychophysics","177","817928","0.0-177.0","63d16430ec396edab1fe4a32","64de835b4911346a0131b292","","","","","1766",""," ","key"," ","17.70399999999996","499.9999891627921","249.99999458139604","pog","178","1","1","178","0","0","167"
"","psychophysics","178","822808","0.0-178.0","63d16430ec396edab1fe4a32","64de835b4911346a0131b292","","","","","4879",""," ","key"," ","17.76888644688672","499.9999891627921","249.99999458139604","pog","180","1","1","170","0","0","164"
"","psychophysics","179","826687","0.0-179.0","63d16430ec396edab1fe4a32","64de835b4911346a0131b292","","","","","3876",""," ","key"," ","17.75771100917423","499.9999891627921","249.99999458139604","pog","168","1","1","144","0","0","157"
"","psychophysics","180","828479","0.0-180.0","63d16430ec396edab1fe4a32","64de835b4911346a0131b292","","","","","1791",""," ","key"," ","17.731300000000047","499.9999891627921","249.99999458139604","pog","141","1","1","141","0","0","125"
"","psychophysics","181","829856","0.0-181.0","63d16430ec396edab1fe4a32","64de835b4911346a0131b292","","","","","1375",""," ","key"," ","17.724415584415947","499.9999891627921","249.99999458139604","inst","","","","","","",""
"","psychophysics","182","836792","0.0-182.0","63d16430ec396edab1fe4a32","64de835b4911346a0131b292","","","","","6933",""," ","key"," ","17.689421994884945","499.9999891627921","249.99999458139604","instBr3","-20","1","","40","0","0","300"
"","psychophysics","183","837784","0.0-183.0","63d16430ec396edab1fe4a32","64de835b4911346a0131b292","","","","","990",""," ","key"," ","17.796462962964412","499.9999891627921","249.99999458139604","inst","","","","","","",""
"","psychophysics","184","841999","0.0-184.0","63d16430ec396edab1fe4a32","64de835b4911346a0131b292","","","","","4212",""," ","key"," ","17.748168776371273","499.9999891627921","249.99999458139604","br","-14","1","1","30","-2","16","254"
"","psychophysics","185","846656","0.0-185.0","63d16430ec396edab1fe4a32","64de835b4911346a0131b292","","","","","4654",""," ","key"," ","17.678958015267128","499.9999891627921","249.99999458139604","br","-13","1","1","27","-20","11","245"
"","psychophysics","186","850728","0.0-186.0","63d16430ec396edab1fe4a32","64de835b4911346a0131b292","","","","","4069",""," ","key"," ","17.765388646288105","499.9999891627921","249.99999458139604","br","-18","1","1","3","10","-19","251"
"","psychophysics","187","853364","0.0-187.0","63d16430ec396edab1fe4a32","64de835b4911346a0131b292","","","","","2633",""," ","key"," ","17.69414189189194","499.9999891627921","249.99999458139604","br","-19","1","1","-1","-10","5","276"
"","psychophysics","188","854667","0.0-188.0","63d16430ec396edab1fe4a32","64de835b4911346a0131b292","","","","","1300",""," ","key"," ","17.732972222223502","499.9999891627921","249.99999458139604","br","-21","1","1","-21","13","9","252"
"","psychophysics","189","857811","0.0-189.0","63d16430ec396edab1fe4a32","64de835b4911346a0131b292","","","","","3142",""," ","key"," ","17.673937853107407","499.9999891627921","249.99999458139604","br","-18","1","1","-21","-13","15","210"
"","psychophysics","190","861643","0.0-190.0","63d16430ec396edab1fe4a32","64de835b4911346a0131b292","","","","","3830",""," ","key"," ","17.74328372093015","499.9999891627921","249.99999458139604","br","-19","1","1","16","-16","9","238"
"","psychophysics","191","864716","0.0-191.0","63d16430ec396edab1fe4a32","64de835b4911346a0131b292","","","","","3071",""," ","key"," ","17.71938953488364","499.9999891627921","249.99999458139604","br","-21","1","1","7","16","7","288"
"","psychophysics","192","871275","0.0-192.0","63d16430ec396edab1fe4a32","64de835b4911346a0131b292","","","","","6557",""," ","key"," ","17.7462222222223","499.9999891627921","249.99999458139604","br","-19","1","1","22","24","-24","259"
"","psychophysics","193","874806","0.0-193.0","63d16430ec396edab1fe4a32","64de835b4911346a0131b292","","","","","3530",""," ","key"," ","17.73078787878786","499.9999891627921","249.99999458139604","br","-23","1","1","-19","-17","14","253"
"","psychophysics","194","876867","0.0-194.0","63d16430ec396edab1fe4a32","64de835b4911346a0131b292","","","","","2059",""," ","key"," ","17.694181034481957","499.9999891627921","249.99999458139604","br","-14","1","1","-13","-23","18","228"
"","psychophysics","195","884607","0.0-195.0","63d16430ec396edab1fe4a32","64de835b4911346a0131b292","","","","","7738",""," ","key"," ","17.70313761467883","499.9999891627921","249.99999458139604","br","-18","1","1","21","-26","-22","224"
"","psychophysics","196","889218","0.0-196.0","63d16430ec396edab1fe4a32","64de835b4911346a0131b292","","","","","4609",""," ","key"," ","17.744864864865026","499.9999891627921","249.99999458139604","br","-17","1","1","19","-28","22","240"
"","psychophysics","197","894048","0.0-197.0","63d16430ec396edab1fe4a32","64de835b4911346a0131b292","","","","","4828",""," ","key"," ","17.764951851851894","499.9999891627921","249.99999458139604","br","-21","1","1","28","22","2","284"
"","psychophysics","198","897183","0.0-198.0","63d16430ec396edab1fe4a32","64de835b4911346a0131b292","","","","","3133",""," ","key"," ","17.724267045454656","499.9999891627921","249.99999458139604","br","-22","1","1","-29","-23","12","296"
"","psychophysics","199","898255","0.0-199.0","63d16430ec396edab1fe4a32","64de835b4911346a0131b292","","","","","1069",""," ","key"," ","17.640599999999782","499.9999891627921","249.99999458139604","inst","","","","","","",""
"","psychophysics","200","903391","0.0-200.0","63d16430ec396edab1fe4a32","64de835b4911346a0131b292","","","","","5135",""," ","key"," ","17.706370242214344","499.9999891627921","249.99999458139604","instEB1","40","2","","30","0","0","40"
"","psychophysics","201","910551","0.0-201.0","63d16430ec396edab1fe4a32","64de835b4911346a0131b292","","","","","7159",""," ","key"," ","17.69247029702978","499.9999891627921","249.99999458139604","instEB2","33","2","","40","0","0","30"
"","psychophysics","202","916560","0.0-202.0","63d16430ec396edab1fe4a32","64de835b4911346a0131b292","","","","","6007",""," ","key"," ","17.722227810650924","499.9999891627921","249.99999458139604","instEB3","31","2","","45","0","0","27"
"","psychophysics","203","922463","0.0-203.0","63d16430ec396edab1fe4a32","64de835b4911346a0131b292","","","","","5902",""," ","key"," ","17.701385542168634","499.9999891627921","249.99999458139604","instEB4","43","2","","30","0","0","40"
"","psychophysics","204","923411","0.0-204.0","63d16430ec396edab1fe4a32","64de835b4911346a0131b292","","","","","945",""," ","key"," ","17.71150943396156","499.9999891627921","249.99999458139604","inst","","","","","","",""
"","psychophysics","205","926361","0.0-205.0","63d16430ec396edab1fe4a32","64de835b4911346a0131b292","","","","","2949",""," ","key"," ","17.688307228916134","499.9999891627921","249.99999458139604","eb","53","2","","44","0","0","46"
"","psychophysics","206","929507","0.0-206.0","63d16430ec396edab1fe4a32","64de835b4911346a0131b292","","","","","3145",""," ","key"," ","17.70059659090872","499.9999891627921","249.99999458139604","eb","55","2","","45","0","0","51"
"","psychophysics","207","935939","0.0-207.0","63d16430ec396edab1fe4a32","64de835b4911346a0131b292","","","","","6429",""," ","key"," ","17.739740331491614","499.9999891627921","249.99999458139604","eb","34","2","","54","0","0","31"
"","psychophysics","208","938107","0.0-208.0","63d16430ec396edab1fe4a32","64de835b4911346a0131b292","","","","","2166",""," ","key"," ","17.779611570248765","499.9999891627921","249.99999458139604","eb","39","2","","36","0","0","36"
"","psychophysics","209","941987","0.0-209.0","63d16430ec396edab1fe4a32","64de835b4911346a0131b292","","","","","3878",""," ","key"," ","17.74683944954176","499.9999891627921","249.99999458139604","eb","29","2","","29","0","0","27"
"","psychophysics","210","945187","0.0-210.0","63d16430ec396edab1fe4a32","64de835b4911346a0131b292","","","","","3198",""," ","key"," ","17.7020000000003","499.9999891627921","249.99999458139604","eb","39","2","","47","0","0","36"
"","psychophysics","211","950075","0.0-211.0","63d16430ec396edab1fe4a32","64de835b4911346a0131b292","","","","","4886",""," ","key"," ","17.670663043477848","499.9999891627921","249.99999458139604","eb","28","2","","49","0","0","27"
"","psychophysics","212","955147","0.0-212.0","63d16430ec396edab1fe4a32","64de835b4911346a0131b292","","","","","5070",""," ","key"," ","17.73905614035065","499.9999891627921","249.99999458139604","eb","26","2","","53","0","0","24"
"","psychophysics","213","958302","0.0-213.0","63d16430ec396edab1fe4a32","64de835b4911346a0131b292","","","","","3154",""," ","key"," ","17.71136723163848","499.9999891627921","249.99999458139604","eb","46","2","","43","0","0","41"
"","psychophysics","214","964456","0.0-214.0","63d16430ec396edab1fe4a32","64de835b4911346a0131b292","","","","","6152",""," ","key"," ","17.712063583814892","499.9999891627921","249.99999458139604","eb","56","2","","24","0","0","49"
"","psychophysics","215","968418","0.0-215.0","63d16430ec396edab1fe4a32","64de835b4911346a0131b292","","","","","3960",""," ","key"," ","17.69876681614381","499.9999891627921","249.99999458139604","eb","36","2","","47","0","0","31"
"","psychophysics","216","972183","0.0-216.0","63d16430ec396edab1fe4a32","64de835b4911346a0131b292","","","","","3763",""," ","key"," ","17.69436792452833","499.9999891627921","249.99999458139604","eb","32","2","","37","0","0","29"
"","psychophysics","217","974055","0.0-217.0","63d16430ec396edab1fe4a32","64de835b4911346a0131b292","","","","","1870",""," ","key"," ","17.690352380953154","499.9999891627921","249.99999458139604","eb","39","2","","39","0","0","36"
"","psychophysics","218","978391","0.0-218.0","63d16430ec396edab1fe4a32","64de835b4911346a0131b292","","","","","4334",""," ","key"," ","17.70147950819705","499.9999891627921","249.99999458139604","eb","47","2","","31","0","0","45"
"","psychophysics","219","980951","0.0-219.0","63d16430ec396edab1fe4a32","64de835b4911346a0131b292","","","","","2559",""," ","key"," ","17.763041958041892","499.9999891627921","249.99999458139604","eb","43","2","","52","0","0","39"
