"success","trial_type","trial_index","time_elapsed","internal_node_id","pid","sid","timeout","failed_images","failed_audio","failed_video","rt","stimulus","response","response_type","key_press","avg_frame_time","center_x","center_y","task","resp","version","block","jitterX","jitterY","start","parA"
"true","fullscreen","0","2998","0.0-0.0","5a6cfad8ab58b500015f56ef","64de82a8b073afa39cc01010","","","","","","","","","","","","","","","","","","","",""
"true","preload","1","3052","0.0-1.0","5a6cfad8ab58b500015f56ef","64de82a8b073afa39cc01010","false","[]","[]","[]","","","","","","","","","","","","","","","",""
"","html-button-response","2","4373","0.0-2.0","5a6cfad8ab58b500015f56ef","64de82a8b073afa39cc01010","","","","","1320","Please Make Sure Your Audio Is On.","0","","","","","","","","","","","","",""
"","psychophysics","3","9923","0.0-3.0","5a6cfad8ab58b500015f56ef","64de82a8b073afa39cc01010","","","","","5544",""," ","key"," ","16.667537537537534","960","250","","","","","","","",""
"","psychophysics","4","13850","0.0-4.0","5a6cfad8ab58b500015f56ef","64de82a8b073afa39cc01010","","","","","3925",""," ","key"," ","16.667273504273503","500","250","inst","","","","","","",""
"","psychophysics","5","17250","0.0-5.0","5a6cfad8ab58b500015f56ef","64de82a8b073afa39cc01010","","","","","3398",""," ","key"," ","16.667389162561573","500","250","sample0","","","","","","",""
"","psychophysics","6","20235","0.0-6.0","5a6cfad8ab58b500015f56ef","64de82a8b073afa39cc01010","","","","","2983",""," ","key"," ","16.667853932584254","500","250","sample1","","","","","","",""
"","psychophysics","7","39858","0.0-7.0","5a6cfad8ab58b500015f56ef","64de82a8b073afa39cc01010","","","","","19622",""," ","key"," ","16.667584536958366","500","250","sample2","100","","","","","",""
"","psychophysics","8","48434","0.0-8.0","5a6cfad8ab58b500015f56ef","64de82a8b073afa39cc01010","","","","","8575",""," ","key"," ","16.66796296296295","500","250","sample3","100","","","","","",""
"","psychophysics","9","55930","0.0-9.0","5a6cfad8ab58b500015f56ef","64de82a8b073afa39cc01010","","","","","7494",""," ","key"," ","16.667501113585743","500","250","sample4","100","","","","","",""
"","psychophysics","10","60034","0.0-10.0","5a6cfad8ab58b500015f56ef","64de82a8b073afa39cc01010","","","","","4102",""," ","key"," ","16.667922448979574","500","250","sample5","","","","","","",""
"","psychophysics","11","68985","0.0-11.0","5a6cfad8ab58b500015f56ef","64de82a8b073afa39cc01010","","","","","8950",""," ","key"," ","16.667580223880577","500","250","sample6","500","","","","","",""
"","psychophysics","12","77938","0.0-12.0","5a6cfad8ab58b500015f56ef","64de82a8b073afa39cc01010","","","","","8950",""," ","key"," ","16.667766791044794","500","250","inst","","","","","","",""
"","psychophysics","13","84250","0.0-13.0","5a6cfad8ab58b500015f56ef","64de82a8b073afa39cc01010","","","","","6311",""," ","key"," ","16.667904761904744","500","250","inst","","","","","","",""
"","psychophysics","14","88898","0.0-14.0","5a6cfad8ab58b500015f56ef","64de82a8b073afa39cc01010","","","","","4647",""," ","key"," ","16.668053956834523","500","250","inst","","","","","","",""
"","psychophysics","15","92570","0.0-15.0","5a6cfad8ab58b500015f56ef","64de82a8b073afa39cc01010","","","","","3671",""," ","key"," ","16.667607305936098","500","250","inst","","","","","","",""
"","psychophysics","16","94442","0.0-16.0","5a6cfad8ab58b500015f56ef","64de82a8b073afa39cc01010","","","","","1871",""," ","key"," ","16.66715178571433","500","250","inst","","","","","","",""
"","psychophysics","17","99298","0.0-17.0","5a6cfad8ab58b500015f56ef","64de82a8b073afa39cc01010","","","","","4854",""," ","key"," ","16.666827586206914","500","250","instZol0","0","","","0","0","0",""
"","psychophysics","18","123554","0.0-18.0","5a6cfad8ab58b500015f56ef","64de82a8b073afa39cc01010","","","","","24254",""," ","key"," ","16.667634800550204","500","250","instZol1","-1.942890293094024e-16","","","0","0","-1.3",""
"","psychophysics","19","134842","0.0-19.0","5a6cfad8ab58b500015f56ef","64de82a8b073afa39cc01010","","","","","11285",""," ","key"," ","16.667631656804758","500","250","instZol2","-2.2","2","","0","0","2",""
"","psychophysics","20","138810","0.0-20.0","5a6cfad8ab58b500015f56ef","64de82a8b073afa39cc01010","","","","","3967",""," ","key"," ","16.66729113924045","500","250","inst","","","","","","",""
"","psychophysics","21","144876","0.0-21.0","5a6cfad8ab58b500015f56ef","64de82a8b073afa39cc01010","","","","","6061",""," ","key"," ","16.667584022038525","500","250","zol","-1.6600000000000006","2","0","29","-19","0.66",""
"","psychophysics","22","150385","0.0-22.0","5a6cfad8ab58b500015f56ef","64de82a8b073afa39cc01010","","","","","5503",""," ","key"," ","16.66770606060604","500","250","zol","-1.3100000000000003","2","0","-15","-8","-0.49",""
"","psychophysics","23","155265","0.0-23.0","5a6cfad8ab58b500015f56ef","64de82a8b073afa39cc01010","","","","","4877",""," ","key"," ","16.66692808219174","500","250","zol","-1.6700000000000006","2","0","8","-10","0.67",""
"","psychophysics","24","160497","0.0-24.0","5a6cfad8ab58b500015f56ef","64de82a8b073afa39cc01010","","","","","5229",""," ","key"," ","16.667265175718825","500","250","zol","-1.15","2","0","13","18","-0.55",""
"","psychophysics","25","167458","0.0-25.0","5a6cfad8ab58b500015f56ef","64de82a8b073afa39cc01010","","","","","6957",""," ","key"," ","16.667144230769175","500","250","zol","-1.3900000000000001","2","0","21","-14","-0.31",""
"","psychophysics","26","172715","0.0-26.0","5a6cfad8ab58b500015f56ef","64de82a8b073afa39cc01010","","","","","5254",""," ","key"," ","16.667460317460318","500","250","zol","-1.6900000000000004","2","0","25","-11","0.49",""
"","psychophysics","27","180050","0.0-27.0","5a6cfad8ab58b500015f56ef","64de82a8b073afa39cc01010","","","","","7332",""," ","key"," ","16.66792938496581","500","250","zol","-1.7100000000000006","2","0","24","-2","0.01",""
"","psychophysics","28","186033","0.0-28.0","5a6cfad8ab58b500015f56ef","64de82a8b073afa39cc01010","","","","","5981",""," ","key"," ","16.667248603351954","500","250","zol","-1.34","2","0","23","-24","-0.66",""
"","psychophysics","29","191994","0.0-29.0","5a6cfad8ab58b500015f56ef","64de82a8b073afa39cc01010","","","","","5957",""," ","key"," ","16.667477528089897","500","250","zol","-1.5900000000000003","2","0","-27","28","0.19",""
"","psychophysics","30","198586","0.0-30.0","5a6cfad8ab58b500015f56ef","64de82a8b073afa39cc01010","","","","","6589",""," ","key"," ","16.66798227848102","500","250","zol","-1.3400000000000003","2","0","25","-28","0.74",""
"","psychophysics","31","204442","0.0-31.0","5a6cfad8ab58b500015f56ef","64de82a8b073afa39cc01010","","","","","5854",""," ","key"," ","16.668082857142853","500","250","zol","-0.92","2","0","-13","11","0.22",""
"","psychophysics","32","209866","0.0-32.0","5a6cfad8ab58b500015f56ef","64de82a8b073afa39cc01010","","","","","5421",""," ","key"," ","16.66762769230767","500","250","zol","-1.4800000000000002","2","0","4","-1","0.28",""
"","psychophysics","33","214754","0.0-33.0","5a6cfad8ab58b500015f56ef","64de82a8b073afa39cc01010","","","","","4885",""," ","key"," ","16.667613013698627","500","250","zol","-1.5500000000000003","2","0","19","30","-0.15",""
"","psychophysics","34","219809","0.0-34.0","5a6cfad8ab58b500015f56ef","64de82a8b073afa39cc01010","","","","","5052",""," ","key"," ","16.66729801324505","500","250","zol","-0.9499999999999998","2","0","28","25","-0.15",""
"","psychophysics","35","223961","0.0-35.0","5a6cfad8ab58b500015f56ef","64de82a8b073afa39cc01010","","","","","4149",""," ","key"," ","16.667512096774214","500","250","zol","-1.3900000000000001","2","0","15","8","0.29",""
"","psychophysics","36","226890","0.0-36.0","5a6cfad8ab58b500015f56ef","64de82a8b073afa39cc01010","","","","","2927",""," ","key"," ","16.66851428571423","500","250","inst","","","","","","",""
"","psychophysics","37","229883","0.0-37.0","5a6cfad8ab58b500015f56ef","64de82a8b073afa39cc01010","","","","","2990",""," ","key"," ","16.668056179775387","500","250","instBr0","0","","","0","0","0","300"
"","psychophysics","38","236995","0.0-38.0","5a6cfad8ab58b500015f56ef","64de82a8b073afa39cc01010","","","","","7106",""," ","key"," ","16.66770657276995","500","250","instBr1","14","","","0","0","-40","300"
"","psychophysics","39","246835","0.0-39.0","5a6cfad8ab58b500015f56ef","64de82a8b073afa39cc01010","","","","","9839",""," ","key"," ","16.66753728813556","500","250","instBr3","6","1","","0","0","40","300"
"","psychophysics","40","248587","0.0-40.0","5a6cfad8ab58b500015f56ef","64de82a8b073afa39cc01010","","","","","1750",""," ","key"," ","16.666730769230735","500","250","inst","","","","","","",""
"","psychophysics","41","252075","0.0-41.0","5a6cfad8ab58b500015f56ef","64de82a8b073afa39cc01010","","","","","3486",""," ","key"," ","16.666596153846164","500","250","br","-5","1","0","9","-29","2","227"
"","psychophysics","42","255835","0.0-42.0","5a6cfad8ab58b500015f56ef","64de82a8b073afa39cc01010","","","","","3758",""," ","key"," ","16.668366071428473","500","250","br","-3","1","0","-3","15","-4","215"
"","psychophysics","43","260954","0.0-43.0","5a6cfad8ab58b500015f56ef","64de82a8b073afa39cc01010","","","","","5117",""," ","key"," ","16.667980456025987","500","250","br","-8","1","0","-17","23","-26","203"
"","psychophysics","44","265187","0.0-44.0","5a6cfad8ab58b500015f56ef","64de82a8b073afa39cc01010","","","","","4230",""," ","key"," ","16.66782213438736","500","250","br","-1","1","0","3","14","28","276"
"","psychophysics","45","269731","0.0-45.0","5a6cfad8ab58b500015f56ef","64de82a8b073afa39cc01010","","","","","4542",""," ","key"," ","16.66832841328402","500","250","br","-7","1","0","-27","11","18","207"
"","psychophysics","46","274547","0.0-46.0","5a6cfad8ab58b500015f56ef","64de82a8b073afa39cc01010","","","","","4814",""," ","key"," ","16.667493055555596","500","250","br","-4","1","0","18","-1","24","300"
"","psychophysics","47","278474","0.0-47.0","5a6cfad8ab58b500015f56ef","64de82a8b073afa39cc01010","","","","","3926",""," ","key"," ","16.668357446808567","500","250","br","-5","1","0","-26","-29","16","234"
"","psychophysics","48","281347","0.0-48.0","5a6cfad8ab58b500015f56ef","64de82a8b073afa39cc01010","","","","","2870",""," ","key"," ","16.666543859649078","500","250","br","-12","1","0","-3","28","-30","201"
"","psychophysics","49","284331","0.0-49.0","5a6cfad8ab58b500015f56ef","64de82a8b073afa39cc01010","","","","","2982",""," ","key"," ","16.667174157303602","500","250","br","-4","1","0","-10","-16","26","242"
"","psychophysics","50","286819","0.0-50.0","5a6cfad8ab58b500015f56ef","64de82a8b073afa39cc01010","","","","","2486",""," ","key"," ","16.66862162162166","500","250","br","-11","1","0","0","-24","1","240"
"","psychophysics","51","290403","0.0-51.0","5a6cfad8ab58b500015f56ef","64de82a8b073afa39cc01010","","","","","3582",""," ","key"," ","16.668864485981253","500","250","br","-8","1","0","-1","-6","26","284"
"","psychophysics","52","293051","0.0-52.0","5a6cfad8ab58b500015f56ef","64de82a8b073afa39cc01010","","","","","2642",""," ","key"," ","16.66746835443051","500","250","br","-8","1","0","-19","-25","-27","285"
"","psychophysics","53","297243","0.0-53.0","5a6cfad8ab58b500015f56ef","64de82a8b073afa39cc01010","","","","","4190",""," ","key"," ","16.668334661354496","500","250","br","0","1","0","11","-1","21","239"
"","psychophysics","54","300427","0.0-54.0","5a6cfad8ab58b500015f56ef","64de82a8b073afa39cc01010","","","","","3182",""," ","key"," ","16.666610526315882","500","250","br","-9","1","0","10","-24","20","239"
"","psychophysics","55","303634","0.0-55.0","5a6cfad8ab58b500015f56ef","64de82a8b073afa39cc01010","","","","","3206",""," ","key"," ","16.66720418848161","500","250","br","7","1","0","-30","27","-3","244"
"","psychophysics","56","321027","0.0-56.0","5a6cfad8ab58b500015f56ef","64de82a8b073afa39cc01010","","","","","17391",""," ","key"," ","16.667511025886842","500","250","inst","","","","","","",""
"","psychophysics","57","328490","0.0-57.0","5a6cfad8ab58b500015f56ef","64de82a8b073afa39cc01010","","","","","7462",""," ","key"," ","16.667393736017925","500","250","instPog0","340","2","","0","0","370","340"
"","psychophysics","58","332514","0.0-58.0","5a6cfad8ab58b500015f56ef","64de82a8b073afa39cc01010","","","","","4023",""," ","key"," ","16.667129166666562","500","250","instPog1","342","2","","0","0","370","340"
"","psychophysics","59","337754","0.0-59.0","5a6cfad8ab58b500015f56ef","64de82a8b073afa39cc01010","","","","","5239",""," ","key"," ","16.667060702875332","500","250","instPog2","336","2","","0","0","340","340"
"","psychophysics","60","339218","0.0-60.0","5a6cfad8ab58b500015f56ef","64de82a8b073afa39cc01010","","","","","1460",""," ","key"," ","16.669954022988758","500","250","inst","","","","","","",""
"","psychophysics","61","343410","0.0-61.0","5a6cfad8ab58b500015f56ef","64de82a8b073afa39cc01010","","","","","4190",""," ","key"," ","16.66749800796819","500","250","pog","314","2","0","0","0","350","331"
"","psychophysics","62","346066","0.0-62.0","5a6cfad8ab58b500015f56ef","64de82a8b073afa39cc01010","","","","","2654",""," ","key"," ","16.66839873417696","500","250","pog","304","2","0","0","0","308","308"
"","psychophysics","63","349346","0.0-63.0","5a6cfad8ab58b500015f56ef","64de82a8b073afa39cc01010","","","","","3279",""," ","key"," ","16.667193877551114","500","250","pog","322","2","0","0","0","334","322"
"","psychophysics","64","352930","0.0-64.0","5a6cfad8ab58b500015f56ef","64de82a8b073afa39cc01010","","","","","3582",""," ","key"," ","16.66806074766367","500","250","pog","303","2","0","0","0","335","321"
"","psychophysics","65","356993","0.0-65.0","5a6cfad8ab58b500015f56ef","64de82a8b073afa39cc01010","","","","","4062",""," ","key"," ","16.6675185185185","500","250","pog","313","2","0","0","0","303","342"
"","psychophysics","66","359546","0.0-66.0","5a6cfad8ab58b500015f56ef","64de82a8b073afa39cc01010","","","","","2550",""," ","key"," ","16.668440789473703","500","250","pog","298","2","0","0","0","306","311"
"","psychophysics","67","363890","0.0-67.0","5a6cfad8ab58b500015f56ef","64de82a8b073afa39cc01010","","","","","4343",""," ","key"," ","16.667303846153665","500","250","pog","324","2","0","0","0","380","348"
"","psychophysics","68","368090","0.0-68.0","5a6cfad8ab58b500015f56ef","64de82a8b073afa39cc01010","","","","","4197",""," ","key"," ","16.668047999999953","500","250","pog","296","2","0","0","0","378","324"
"","psychophysics","69","372090","0.0-69.0","5a6cfad8ab58b500015f56ef","64de82a8b073afa39cc01010","","","","","3998",""," ","key"," ","16.66836820083678","500","250","pog","294","2","0","0","0","366","324"
"","psychophysics","70","375033","0.0-70.0","5a6cfad8ab58b500015f56ef","64de82a8b073afa39cc01010","","","","","2940",""," ","key"," ","16.668698863636315","500","250","pog","309","2","0","0","0","339","329"
"","psychophysics","71","377690","0.0-71.0","5a6cfad8ab58b500015f56ef","64de82a8b073afa39cc01010","","","","","2655",""," ","key"," ","16.667272151898757","500","250","pog","345","2","0","0","0","329","359"
"","psychophysics","72","381330","0.0-72.0","5a6cfad8ab58b500015f56ef","64de82a8b073afa39cc01010","","","","","3637",""," ","key"," ","16.6685321100917","500","250","pog","345","2","0","0","0","307","356"
"","psychophysics","73","384306","0.0-73.0","5a6cfad8ab58b500015f56ef","64de82a8b073afa39cc01010","","","","","2974",""," ","key"," ","16.66763841807921","500","250","pog","351","2","0","0","0","349","366"
"","psychophysics","74","387314","0.0-74.0","5a6cfad8ab58b500015f56ef","64de82a8b073afa39cc01010","","","","","3006",""," ","key"," ","16.668622222222297","500","250","pog","348","2","0","0","0","348","363"
"","psychophysics","75","389546","0.0-75.0","5a6cfad8ab58b500015f56ef","64de82a8b073afa39cc01010","","","","","2230",""," ","key"," ","16.6677218045115","500","250","pog","293","2","0","0","0","303","311"
"","psychophysics","76","399266","0.0-76.0","5a6cfad8ab58b500015f56ef","64de82a8b073afa39cc01010","","","","","9719",""," ","key"," ","16.66788831615112","500","250","inst","","","","","","",""
"","psychophysics","77","401562","0.0-77.0","5a6cfad8ab58b500015f56ef","64de82a8b073afa39cc01010","","","","","2294",""," ","key"," ","16.669240875912312","500","250","instEB0","40","1","","0","0","40","40"
"","psychophysics","78","407306","0.0-78.0","5a6cfad8ab58b500015f56ef","64de82a8b073afa39cc01010","","","","","5743",""," ","key"," ","16.667973760933087","500","250","instEB1","30","1","","0","0","40","30"
"","psychophysics","79","413443","0.0-79.0","5a6cfad8ab58b500015f56ef","64de82a8b073afa39cc01010","","","","","6134",""," ","key"," ","16.667531335149857","500","250","instEB2","38","1","","0","0","30","40"
"","psychophysics","80","419067","0.0-80.0","5a6cfad8ab58b500015f56ef","64de82a8b073afa39cc01010","","","","","5620",""," ","key"," ","16.667525222551774","500","250","instEB3","36","1","","0","0","27","45"
"","psychophysics","81","423002","0.0-81.0","5a6cfad8ab58b500015f56ef","64de82a8b073afa39cc01010","","","","","3934",""," ","key"," ","16.666846808510524","500","250","instEB4","27","1","","0","0","40","30"
"","psychophysics","82","425059","0.0-82.0","5a6cfad8ab58b500015f56ef","64de82a8b073afa39cc01010","","","","","2055",""," ","key"," ","16.66892622950817","500","250","inst","","","","","","",""
"","psychophysics","83","430058","0.0-83.0","5a6cfad8ab58b500015f56ef","64de82a8b073afa39cc01010","","","","","4997",""," ","key"," ","16.668284280936586","500","250","eb","34","1","","0","0","27","41"
"","psychophysics","84","434363","0.0-84.0","5a6cfad8ab58b500015f56ef","64de82a8b073afa39cc01010","","","","","4298",""," ","key"," ","16.667565891472712","500","250","eb","38","1","","0","0","26","43"
"","psychophysics","85","438834","0.0-85.0","5a6cfad8ab58b500015f56ef","64de82a8b073afa39cc01010","","","","","4470",""," ","key"," ","16.666677902621604","500","250","eb","29","1","","0","0","42","31"
"","psychophysics","86","443763","0.0-86.0","5a6cfad8ab58b500015f56ef","64de82a8b073afa39cc01010","","","","","4926",""," ","key"," ","16.667427118643882","500","250","eb","45","1","","0","0","44","48"
"","psychophysics","87","449434","0.0-87.0","5a6cfad8ab58b500015f56ef","64de82a8b073afa39cc01010","","","","","5669",""," ","key"," ","16.667982300884944","500","250","eb","45","1","","0","0","29","49"
"","psychophysics","88","453043","0.0-88.0","5a6cfad8ab58b500015f56ef","64de82a8b073afa39cc01010","","","","","3606",""," ","key"," ","16.66851162790689","500","250","eb","35","1","","0","0","27","41"
"","psychophysics","89","457363","0.0-89.0","5a6cfad8ab58b500015f56ef","64de82a8b073afa39cc01010","","","","","4319",""," ","key"," ","16.666830115830237","500","250","eb","43","1","","0","0","27","42"
"","psychophysics","90","460882","0.0-90.0","5a6cfad8ab58b500015f56ef","64de82a8b073afa39cc01010","","","","","3517",""," ","key"," ","16.667138095238034","500","250","eb","54","1","","0","0","49","54"
"","psychophysics","91","464706","0.0-91.0","5a6cfad8ab58b500015f56ef","64de82a8b073afa39cc01010","","","","","3822",""," ","key"," ","16.666728070175548","500","250","eb","36","1","","0","0","44","36"
"","psychophysics","92","468258","0.0-92.0","5a6cfad8ab58b500015f56ef","64de82a8b073afa39cc01010","","","","","3550",""," ","key"," ","16.667608490566018","500","250","eb","38","1","","0","0","41","41"
"","psychophysics","93","471474","0.0-93.0","5a6cfad8ab58b500015f56ef","64de82a8b073afa39cc01010","","","","","3214",""," ","key"," ","16.667343750000025","500","250","eb","48","1","","0","0","53","50"
"","psychophysics","94","474674","0.0-94.0","5a6cfad8ab58b500015f56ef","64de82a8b073afa39cc01010","","","","","3198",""," ","key"," ","16.66846596858652","500","250","eb","35","1","","0","0","29","37"
"","psychophysics","95","478178","0.0-95.0","5a6cfad8ab58b500015f56ef","64de82a8b073afa39cc01010","","","","","3502",""," ","key"," ","16.66718660287072","500","250","eb","44","1","","0","0","33","50"
"","psychophysics","96","482115","0.0-96.0","5a6cfad8ab58b500015f56ef","64de82a8b073afa39cc01010","","","","","3931",""," ","key"," ","16.667656779660938","500","250","eb","42","1","","0","0","26","47"
"","psychophysics","97","484915","0.0-97.0","5a6cfad8ab58b500015f56ef","64de82a8b073afa39cc01010","","","","","2798",""," ","key"," ","16.668263473053752","500","250","eb","50","1","","0","0","41","52"
"","psychophysics","98","502803","0.0-98.0","5a6cfad8ab58b500015f56ef","64de82a8b073afa39cc01010","","","","","17886",""," ","key"," ","16.667760261194008","500","250","inst","","","","","","",""
"","psychophysics","99","504954","0.0-99.0","5a6cfad8ab58b500015f56ef","64de82a8b073afa39cc01010","","","","","2150",""," ","key"," ","16.66949999999997","500","250","instPzPre","50","0","","","","50","50"
"","psychophysics","100","507890","0.0-100.0","5a6cfad8ab58b500015f56ef","64de82a8b073afa39cc01010","","","","","2934",""," ","key"," ","16.66764","500","250","instPz0","50","1","","","","50","50"
"","psychophysics","101","515218","0.0-101.0","5a6cfad8ab58b500015f56ef","64de82a8b073afa39cc01010","","","","","7326",""," ","key"," ","16.66776082004555","500","250","instPz1","56","1","","","","25","50"
"","psychophysics","102","521810","0.0-102.0","5a6cfad8ab58b500015f56ef","64de82a8b073afa39cc01010","","","","","6590",""," ","key"," ","16.66722842639603","500","250","instPz2","22","1","","","","35","20"
"","psychophysics","103","534578","0.0-103.0","5a6cfad8ab58b500015f56ef","64de82a8b073afa39cc01010","","","","","12766",""," ","key"," ","16.733408136482886","500","250","instPz3","39","1","","","","100","30"
"","psychophysics","104","542402","0.0-104.0","5a6cfad8ab58b500015f56ef","64de82a8b073afa39cc01010","","","","","7822",""," ","key"," ","16.667405117270615","500","250","instPz4","47","1","","","","100","30"
"","psychophysics","105","543738","0.0-105.0","5a6cfad8ab58b500015f56ef","64de82a8b073afa39cc01010","","","","","1336",""," ","key"," ","16.669556962025553","500","250","inst","","","","","","",""
"","psychophysics","106","548498","0.0-106.0","5a6cfad8ab58b500015f56ef","64de82a8b073afa39cc01010","","","","","4757",""," ","key"," ","16.668095070422336","500","250","pz","72","1","0","","","47","50"
"","psychophysics","107","552938","0.0-107.0","5a6cfad8ab58b500015f56ef","64de82a8b073afa39cc01010","","","","","4436",""," ","key"," ","16.667902255639138","500","250","pz","66","1","0","","","27","51"
"","psychophysics","108","556690","0.0-108.0","5a6cfad8ab58b500015f56ef","64de82a8b073afa39cc01010","","","","","3750",""," ","key"," ","16.667808035714447","500","250","pz","31","1","0","","","27","20"
"","psychophysics","109","562010","0.0-109.0","5a6cfad8ab58b500015f56ef","64de82a8b073afa39cc01010","","","","","5318",""," ","key"," ","16.66776415094354","500","250","pz","66","1","0","","","29","49"
"","psychophysics","110","566730","0.0-110.0","5a6cfad8ab58b500015f56ef","64de82a8b073afa39cc01010","","","","","4718",""," ","key"," ","16.66817730496446","500","250","pz","62","1","0","","","50","41"
"","psychophysics","111","573330","0.0-111.0","5a6cfad8ab58b500015f56ef","64de82a8b073afa39cc01010","","","","","6598",""," ","key"," ","16.667554430379766","500","250","pz","51","1","0","","","23","33"
"","psychophysics","112","579306","0.0-112.0","5a6cfad8ab58b500015f56ef","64de82a8b073afa39cc01010","","","","","5974",""," ","key"," ","16.668139664804517","500","250","pz","49","1","0","","","38","29"
"","psychophysics","113","583906","0.0-113.0","5a6cfad8ab58b500015f56ef","64de82a8b073afa39cc01010","","","","","4598",""," ","key"," ","16.667520000000316","500","250","pz","50","1","0","","","26","42"
"","psychophysics","114","587562","0.0-114.0","5a6cfad8ab58b500015f56ef","64de82a8b073afa39cc01010","","","","","3654",""," ","key"," ","16.6683807339452","500","250","pz","60","1","0","","","49","48"
"","psychophysics","115","591259","0.0-115.0","5a6cfad8ab58b500015f56ef","64de82a8b073afa39cc01010","","","","","3695",""," ","key"," ","16.66752036199094","500","250","pz","63","1","0","","","40","57"
"","psychophysics","116","595587","0.0-116.0","5a6cfad8ab58b500015f56ef","64de82a8b073afa39cc01010","","","","","4325",""," ","key"," ","16.6682015503874","500","250","pz","57","1","0","","","42","42"
"","psychophysics","117","600275","0.0-117.0","5a6cfad8ab58b500015f56ef","64de82a8b073afa39cc01010","","","","","4686",""," ","key"," ","16.667793594306133","500","250","pz","56","1","0","","","21","42"
"","psychophysics","118","606250","0.0-118.0","5a6cfad8ab58b500015f56ef","64de82a8b073afa39cc01010","","","","","5974",""," ","key"," ","16.667624649859793","500","250","pz","57","1","0","","","41","44"
"","psychophysics","119","611611","0.0-119.0","5a6cfad8ab58b500015f56ef","64de82a8b073afa39cc01010","","","","","5358",""," ","key"," ","16.66812461059188","500","250","pz","73","1","0","","","52","59"
"","psychophysics","120","617106","0.0-120.0","5a6cfad8ab58b500015f56ef","64de82a8b073afa39cc01010","","","","","5494",""," ","key"," ","16.667300911854152","500","250","pz","63","1","0","","","43","43"
"","psychophysics","121","618578","0.0-121.0","5a6cfad8ab58b500015f56ef","64de82a8b073afa39cc01010","","","","","1471",""," ","key"," ","16.665103448275207","500","250","inst","","","","","","",""
"","psychophysics","122","629339","0.0-122.0","5a6cfad8ab58b500015f56ef","64de82a8b073afa39cc01010","","","","","10759",""," ","key"," ","16.667491472868228","500","250","instPz1","50","2","","","","25","50"
"","psychophysics","123","635658","0.0-123.0","5a6cfad8ab58b500015f56ef","64de82a8b073afa39cc01010","","","","","6318",""," ","key"," ","16.667730158730162","500","250","instPz2","40","2","","","","20","35"
"","psychophysics","124","646018","0.0-124.0","5a6cfad8ab58b500015f56ef","64de82a8b073afa39cc01010","","","","","10358",""," ","key"," ","16.667162903225904","500","250","instPz3","71","2","","","","30","100"
"","psychophysics","125","651892","0.0-125.0","5a6cfad8ab58b500015f56ef","64de82a8b073afa39cc01010","","","","","5871",""," ","key"," ","16.667596590909273","500","250","instPz4","75","2","","","","30","100"
"","psychophysics","126","653507","0.0-126.0","5a6cfad8ab58b500015f56ef","64de82a8b073afa39cc01010","","","","","1614",""," ","key"," ","16.66631249999894","500","250","inst","","","","","","",""
"","psychophysics","127","657403","0.0-127.0","5a6cfad8ab58b500015f56ef","64de82a8b073afa39cc01010","","","","","3893",""," ","key"," ","16.666728448275787","500","250","pz","49","2","1","","","46","54"
"","psychophysics","128","662379","0.0-128.0","5a6cfad8ab58b500015f56ef","64de82a8b073afa39cc01010","","","","","4974",""," ","key"," ","16.667476510066905","500","250","pz","36","2","1","","","54","42"
"","psychophysics","129","667931","0.0-129.0","5a6cfad8ab58b500015f56ef","64de82a8b073afa39cc01010","","","","","5550",""," ","key"," ","16.667283132529946","500","250","pz","37","2","1","","","59","47"
"","psychophysics","130","671899","0.0-130.0","5a6cfad8ab58b500015f56ef","64de82a8b073afa39cc01010","","","","","3966",""," ","key"," ","16.66704641350197","500","250","pz","29","2","1","","","24","35"
"","psychophysics","131","676611","0.0-131.0","5a6cfad8ab58b500015f56ef","64de82a8b073afa39cc01010","","","","","4710",""," ","key"," ","16.66788652482243","500","250","pz","24","2","1","","","43","23"
"","psychophysics","132","682275","0.0-132.0","5a6cfad8ab58b500015f56ef","64de82a8b073afa39cc01010","","","","","5663",""," ","key"," ","16.66745722713876","500","250","pz","30","2","1","","","55","38"
"","psychophysics","133","686651","0.0-133.0","5a6cfad8ab58b500015f56ef","64de82a8b073afa39cc01010","","","","","4373",""," ","key"," ","16.667367816091804","500","250","pz","25","2","1","","","41","26"
"","psychophysics","134","691210","0.0-134.0","5a6cfad8ab58b500015f56ef","64de82a8b073afa39cc01010","","","","","4558",""," ","key"," ","16.66708791208788","500","250","pz","35","2","1","","","30","39"
"","psychophysics","135","695306","0.0-135.0","5a6cfad8ab58b500015f56ef","64de82a8b073afa39cc01010","","","","","4095",""," ","key"," ","16.667344262294822","500","250","pz","34","2","1","","","46","48"
"","psychophysics","136","699659","0.0-136.0","5a6cfad8ab58b500015f56ef","64de82a8b073afa39cc01010","","","","","4351",""," ","key"," ","16.668165384615378","500","250","pz","46","2","1","","","27","57"
"","psychophysics","137","703083","0.0-137.0","5a6cfad8ab58b500015f56ef","64de82a8b073afa39cc01010","","","","","3421",""," ","key"," ","16.667902439024594","500","250","pz","44","2","1","","","32","52"
"","psychophysics","138","706371","0.0-138.0","5a6cfad8ab58b500015f56ef","64de82a8b073afa39cc01010","","","","","3287",""," ","key"," ","16.668290816326458","500","250","pz","27","2","1","","","29","33"
"","psychophysics","139","711882","0.0-139.0","5a6cfad8ab58b500015f56ef","64de82a8b073afa39cc01010","","","","","5510",""," ","key"," ","16.667524242424406","500","250","pz","36","2","1","","","40","48"
"","psychophysics","140","715778","0.0-140.0","5a6cfad8ab58b500015f56ef","64de82a8b073afa39cc01010","","","","","3894",""," ","key"," ","16.667742489270523","500","250","pz","37","2","1","","","45","50"
"","psychophysics","141","718331","0.0-141.0","5a6cfad8ab58b500015f56ef","64de82a8b073afa39cc01010","","","","","2551",""," ","key"," ","16.668348684210766","500","250","pz","37","2","1","","","35","54"
"","psychophysics","142","721867","0.0-142.0","5a6cfad8ab58b500015f56ef","64de82a8b073afa39cc01010","","","","","3535",""," ","key"," ","16.666985781990782","500","250","inst","","","","","","",""
"","psychophysics","143","727259","0.0-143.0","5a6cfad8ab58b500015f56ef","64de82a8b073afa39cc01010","","","","","5391",""," ","key"," ","16.667416149068128","500","250","instPog0","160","1","","0","0","190","160"
"","psychophysics","144","732107","0.0-144.0","5a6cfad8ab58b500015f56ef","64de82a8b073afa39cc01010","","","","","4847",""," ","key"," ","16.66820000000017","500","250","instPog1","164","1","","0","0","190","160"
"","psychophysics","145","736964","0.0-145.0","5a6cfad8ab58b500015f56ef","64de82a8b073afa39cc01010","","","","","4856",""," ","key"," ","16.667192439862713","500","250","instPog2","168","1","","0","0","160","160"
"","psychophysics","146","738435","0.0-146.0","5a6cfad8ab58b500015f56ef","64de82a8b073afa39cc01010","","","","","1470",""," ","key"," ","16.67014942528819","500","250","inst","","","","","","",""
"","psychophysics","147","741890","0.0-147.0","5a6cfad8ab58b500015f56ef","64de82a8b073afa39cc01010","","","","","3454",""," ","key"," ","16.66774271844685","500","250","pog","176","1","1","0","0","126","154"
"","psychophysics","148","745090","0.0-148.0","5a6cfad8ab58b500015f56ef","64de82a8b073afa39cc01010","","","","","3199",""," ","key"," ","16.66846596858652","500","250","pog","188","1","1","0","0","150","166"
"","psychophysics","149","749419","0.0-149.0","5a6cfad8ab58b500015f56ef","64de82a8b073afa39cc01010","","","","","4327",""," ","key"," ","16.66672972972958","500","250","pog","208","1","1","0","0","104","187"
"","psychophysics","150","751891","0.0-150.0","5a6cfad8ab58b500015f56ef","64de82a8b073afa39cc01010","","","","","2471",""," ","key"," ","16.66778911564572","500","250","pog","163","1","1","0","0","159","147"
"","psychophysics","151","757555","0.0-151.0","5a6cfad8ab58b500015f56ef","64de82a8b073afa39cc01010","","","","","5663",""," ","key"," ","16.667321533923158","500","250","pog","217","1","1","0","0","155","197"
"","psychophysics","152","762434","0.0-152.0","5a6cfad8ab58b500015f56ef","64de82a8b073afa39cc01010","","","","","4878",""," ","key"," ","16.66760958904123","500","250","pog","216","1","1","0","0","114","198"
"","psychophysics","153","766306","0.0-153.0","5a6cfad8ab58b500015f56ef","64de82a8b073afa39cc01010","","","","","3871",""," ","key"," ","16.66851948051929","500","250","pog","152","1","1","0","0","118","129"
"","psychophysics","154","771602","0.0-154.0","5a6cfad8ab58b500015f56ef","64de82a8b073afa39cc01010","","","","","5295",""," ","key"," ","16.666921135646657","500","250","pog","153","1","1","0","0","219","120"
"","psychophysics","155","774330","0.0-155.0","5a6cfad8ab58b500015f56ef","64de82a8b073afa39cc01010","","","","","2727",""," ","key"," ","16.6675582822088","500","250","pog","174","1","1","0","0","192","151"
"","psychophysics","156","777682","0.0-156.0","5a6cfad8ab58b500015f56ef","64de82a8b073afa39cc01010","","","","","3342",""," ","key"," ","16.66630999999994","500","250","pog","182","1","1","0","0","144","152"
"","psychophysics","157","782330","0.0-157.0","5a6cfad8ab58b500015f56ef","64de82a8b073afa39cc01010","","","","","4647",""," ","key"," ","16.66762230215844","500","250","pog","212","1","1","0","0","182","188"
"","psychophysics","158","784450","0.0-158.0","5a6cfad8ab58b500015f56ef","64de82a8b073afa39cc01010","","","","","2118",""," ","key"," ","16.668150793651066","500","250","pog","194","1","1","0","0","200","173"
"","psychophysics","159","786786","0.0-159.0","5a6cfad8ab58b500015f56ef","64de82a8b073afa39cc01010","","","","","2334",""," ","key"," ","16.665884892086048","500","250","pog","142","1","1","0","0","136","127"
"","psychophysics","160","789474","0.0-160.0","5a6cfad8ab58b500015f56ef","64de82a8b073afa39cc01010","","","","","2687",""," ","key"," ","16.668424999999843","500","250","pog","203","1","1","0","0","207","187"
"","psychophysics","161","793082","0.0-161.0","5a6cfad8ab58b500015f56ef","64de82a8b073afa39cc01010","","","","","3605",""," ","key"," ","16.667708333333763","500","250","pog","139","1","1","0","0","175","132"
"","psychophysics","162","794546","0.0-162.0","5a6cfad8ab58b500015f56ef","64de82a8b073afa39cc01010","","","","","1463",""," ","key"," ","16.66543023255762","500","250","inst","","","","","","",""
"","psychophysics","163","802682","0.0-163.0","5a6cfad8ab58b500015f56ef","64de82a8b073afa39cc01010","","","","","8134",""," ","key"," ","16.66757786885256","500","250","instEB1","40","2","","0","0","30","40"
"","psychophysics","164","808338","0.0-164.0","5a6cfad8ab58b500015f56ef","64de82a8b073afa39cc01010","","","","","5654",""," ","key"," ","16.666911242603803","500","250","instEB2","34","2","","0","0","40","30"
"","psychophysics","165","816314","0.0-165.0","5a6cfad8ab58b500015f56ef","64de82a8b073afa39cc01010","","","","","7975",""," ","key"," ","16.667182389937196","500","250","instEB3","34","2","","0","0","45","27"
"","psychophysics","166","822683","0.0-166.0","5a6cfad8ab58b500015f56ef","64de82a8b073afa39cc01010","","","","","6366",""," ","key"," ","16.667539267015705","500","250","instEB4","49","2","","0","0","30","40"
"","psychophysics","167","823858","0.0-167.0","5a6cfad8ab58b500015f56ef","64de82a8b073afa39cc01010","","","","","1174",""," ","key"," ","16.668782608694922","500","250","inst","","","","","","",""
"","psychophysics","168","829754","0.0-168.0","5a6cfad8ab58b500015f56ef","64de82a8b073afa39cc01010","","","","","5894",""," ","key"," ","16.66818980169984","500","250","eb","29","2","","0","0","54","24"
"","psychophysics","169","835643","0.0-169.0","5a6cfad8ab58b500015f56ef","64de82a8b073afa39cc01010","","","","","5887",""," ","key"," ","16.667599431818168","500","250","eb","55","2","","0","0","40","49"
"","psychophysics","170","840890","0.0-170.0","5a6cfad8ab58b500015f56ef","64de82a8b073afa39cc01010","","","","","5246",""," ","key"," ","16.66752229299349","500","250","eb","69","2","","0","0","48","54"
"","psychophysics","171","844523","0.0-171.0","5a6cfad8ab58b500015f56ef","64de82a8b073afa39cc01010","","","","","3630",""," ","key"," ","16.668156682027607","500","250","eb","48","2","","0","0","35","35"
"","psychophysics","172","850762","0.0-172.0","5a6cfad8ab58b500015f56ef","64de82a8b073afa39cc01010","","","","","6238",""," ","key"," ","16.667777479892777","500","250","eb","28","2","","0","0","51","24"
"","psychophysics","173","855306","0.0-173.0","5a6cfad8ab58b500015f56ef","64de82a8b073afa39cc01010","","","","","4542",""," ","key"," ","16.667018382352953","500","250","eb","40","2","","0","0","39","34"
"","psychophysics","174","859322","0.0-174.0","5a6cfad8ab58b500015f56ef","64de82a8b073afa39cc01010","","","","","4014",""," ","key"," ","16.66765000000014","500","250","eb","44","2","","0","0","47","36"
"","psychophysics","175","863043","0.0-175.0","5a6cfad8ab58b500015f56ef","64de82a8b073afa39cc01010","","","","","3718",""," ","key"," ","16.6683243243244","500","250","eb","55","2","","0","0","39","48"
"","psychophysics","176","867170","0.0-176.0","5a6cfad8ab58b500015f56ef","64de82a8b073afa39cc01010","","","","","4126",""," ","key"," ","16.667433198380685","500","250","eb","39","2","","0","0","45","31"
"","psychophysics","177","870842","0.0-177.0","5a6cfad8ab58b500015f56ef","64de82a8b073afa39cc01010","","","","","3670",""," ","key"," ","16.668260273972813","500","250","eb","58","2","","0","0","33","49"
"","psychophysics","178","874298","0.0-178.0","5a6cfad8ab58b500015f56ef","64de82a8b073afa39cc01010","","","","","3454",""," ","key"," ","16.668631067960657","500","250","eb","31","2","","0","0","41","27"
"","psychophysics","179","877898","0.0-179.0","5a6cfad8ab58b500015f56ef","64de82a8b073afa39cc01010","","","","","3598",""," ","key"," ","16.667753488372274","500","250","eb","50","2","","0","0","34","48"
"","psychophysics","180","881195","0.0-180.0","5a6cfad8ab58b500015f56ef","64de82a8b073afa39cc01010","","","","","3294",""," ","key"," ","16.666340101522696","500","250","eb","47","2","","0","0","37","36"
"","psychophysics","181","885138","0.0-181.0","5a6cfad8ab58b500015f56ef","64de82a8b073afa39cc01010","","","","","3942",""," ","key"," ","16.667720338983276","500","250","eb","32","2","","0","0","31","28"
"","psychophysics","182","888562","0.0-182.0","5a6cfad8ab58b500015f56ef","64de82a8b073afa39cc01010","","","","","3422",""," ","key"," ","16.66858823529408","500","250","eb","53","2","","0","0","40","46"
"","psychophysics","183","890042","0.0-183.0","5a6cfad8ab58b500015f56ef","64de82a8b073afa39cc01010","","","","","1479",""," ","key"," ","16.66712499999928","500","250","inst","","","","","","",""
"","psychophysics","184","895826","0.0-184.0","5a6cfad8ab58b500015f56ef","64de82a8b073afa39cc01010","","","","","5783",""," ","key"," ","16.667621387283162","500","250","instZol1","0.2999999999999998","","","0","0","-1.3",""
"","psychophysics","185","904162","0.0-185.0","5a6cfad8ab58b500015f56ef","64de82a8b073afa39cc01010","","","","","8334",""," ","key"," ","16.667539078156455","500","250","instZol2","1.400000000000001","1","","0","0","2",""
"","psychophysics","186","905378","0.0-186.0","5a6cfad8ab58b500015f56ef","64de82a8b073afa39cc01010","","","","","1215",""," ","key"," ","16.668569444444277","500","250","inst","","","","","","",""
"","psychophysics","187","908522","0.0-187.0","5a6cfad8ab58b500015f56ef","64de82a8b073afa39cc01010","","","","","3142",""," ","key"," ","16.666244680850834","500","250","zol","1.2400000000000002","1","1","8","-21","-0.14",""
"","psychophysics","188","911506","0.0-188.0","5a6cfad8ab58b500015f56ef","64de82a8b073afa39cc01010","","","","","2982",""," ","key"," ","16.66837640449449","500","250","zol","1.5600000000000003","1","1","-20","9","-0.26",""
"","psychophysics","189","915442","0.0-189.0","5a6cfad8ab58b500015f56ef","64de82a8b073afa39cc01010","","","","","3934",""," ","key"," ","16.668357446808567","500","250","zol","1.5300000000000005","1","1","-3","-6","-0.63",""
"","psychophysics","190","920562","0.0-190.0","5a6cfad8ab58b500015f56ef","64de82a8b073afa39cc01010","","","","","5117",""," ","key"," ","16.667771241830028","500","250","zol","1.6600000000000004","1","1","-6","-29","0.54",""
"","psychophysics","191","924730","0.0-191.0","5a6cfad8ab58b500015f56ef","64de82a8b073afa39cc01010","","","","","4165",""," ","key"," ","16.66831325301218","500","250","zol","1.35","1","1","17","-15","-0.35",""
"","psychophysics","192","929690","0.0-192.0","5a6cfad8ab58b500015f56ef","64de82a8b073afa39cc01010","","","","","4958",""," ","key"," ","16.667208754209025","500","250","zol","1.6100000000000005","1","1","-25","-4","0.09",""
"","psychophysics","193","934370","0.0-193.0","5a6cfad8ab58b500015f56ef","64de82a8b073afa39cc01010","","","","","4677",""," ","key"," ","16.66728315412152","500","250","zol","1.27","1","1","-30","18","0.23",""
"","psychophysics","194","938530","0.0-194.0","5a6cfad8ab58b500015f56ef","64de82a8b073afa39cc01010","","","","","4156",""," ","key"," ","16.667891566265265","500","250","zol","1.28","1","1","-9","29","0.32",""
"","psychophysics","195","942307","0.0-195.0","5a6cfad8ab58b500015f56ef","64de82a8b073afa39cc01010","","","","","3774",""," ","key"," ","16.667628318584416","500","250","zol","1.3100000000000003","1","1","16","14","0.19",""
"","psychophysics","196","947050","0.0-196.0","5a6cfad8ab58b500015f56ef","64de82a8b073afa39cc01010","","","","","4741",""," ","key"," ","16.66692226148431","500","250","zol","1.0899999999999999","1","1","17","29","0.61",""
"","psychophysics","197","951131","0.0-197.0","5a6cfad8ab58b500015f56ef","64de82a8b073afa39cc01010","","","","","4078",""," ","key"," ","16.668196721311627","500","250","zol","1.07","1","1","30","-18","0.43",""
"","psychophysics","198","956179","0.0-198.0","5a6cfad8ab58b500015f56ef","64de82a8b073afa39cc01010","","","","","5046",""," ","key"," ","16.667784768212215","500","250","zol","1.28","1","1","0","18","-0.28",""
"","psychophysics","199","960771","0.0-199.0","5a6cfad8ab58b500015f56ef","64de82a8b073afa39cc01010","","","","","4590",""," ","key"," ","16.66692335766453","500","250","zol","1.02","1","1","-25","-13","0.48",""
"","psychophysics","200","964195","0.0-200.0","5a6cfad8ab58b500015f56ef","64de82a8b073afa39cc01010","","","","","3420",""," ","key"," ","16.66752682926826","500","250","zol","1.4200000000000004","1","1","17","-23","-0.32",""
"","psychophysics","201","969371","0.0-201.0","5a6cfad8ab58b500015f56ef","64de82a8b073afa39cc01010","","","","","5174",""," ","key"," ","16.667550161812443","500","250","zol","0.9499999999999998","1","1","15","3","0.75",""
"","psychophysics","202","970578","0.0-202.0","5a6cfad8ab58b500015f56ef","64de82a8b073afa39cc01010","","","","","1207",""," ","key"," ","16.667819444444223","500","250","inst","","","","","","",""
"","psychophysics","203","976955","0.0-203.0","5a6cfad8ab58b500015f56ef","64de82a8b073afa39cc01010","","","","","6375",""," ","key"," ","16.667564304461802","500","250","instBr3","37","2","","0","0","40","300"
"","psychophysics","204","978211","0.0-204.0","5a6cfad8ab58b500015f56ef","64de82a8b073afa39cc01010","","","","","1255",""," ","key"," ","16.665879999999888","500","250","inst","","","","","","",""
"","psychophysics","205","981179","0.0-205.0","5a6cfad8ab58b500015f56ef","64de82a8b073afa39cc01010","","","","","2964",""," ","key"," ","16.668378531073856","500","250","br","28","2","1","-22","-24","24","232"
"","psychophysics","206","985819","0.0-206.0","5a6cfad8ab58b500015f56ef","64de82a8b073afa39cc01010","","","","","4638",""," ","key"," ","16.667613718411566","500","250","br","24","2","1","5","8","-14","300"
"","psychophysics","207","989739","0.0-207.0","5a6cfad8ab58b500015f56ef","64de82a8b073afa39cc01010","","","","","3919",""," ","key"," ","16.667465811965958","500","250","br","21","2","1","3","17","-30","243"
"","psychophysics","208","992403","0.0-208.0","5a6cfad8ab58b500015f56ef","64de82a8b073afa39cc01010","","","","","2662",""," ","key"," ","16.66650943396212","500","250","br","24","2","1","-11","-14","21","275"
"","psychophysics","209","995411","0.0-209.0","5a6cfad8ab58b500015f56ef","64de82a8b073afa39cc01010","","","","","3006",""," ","key"," ","16.666399999999623","500","250","br","22","2","1","9","-29","10","297"
"","psychophysics","210","1000019","0.0-210.0","5a6cfad8ab58b500015f56ef","64de82a8b073afa39cc01010","","","","","4607",""," ","key"," ","16.66762181818189","500","250","br","29","2","1","-5","2","16","291"
"","psychophysics","211","1003963","0.0-211.0","5a6cfad8ab58b500015f56ef","64de82a8b073afa39cc01010","","","","","3942",""," ","key"," ","16.668228813559033","500","250","br","15","2","1","-18","7","-11","260"
"","psychophysics","212","1007475","0.0-212.0","5a6cfad8ab58b500015f56ef","64de82a8b073afa39cc01010","","","","","3510",""," ","key"," ","16.66752153110042","500","250","br","25","2","1","-3","-21","4","239"
"","psychophysics","213","1011778","0.0-213.0","5a6cfad8ab58b500015f56ef","64de82a8b073afa39cc01010","","","","","4301",""," ","key"," ","16.667333333332962","500","250","br","20","2","1","-4","-18","-25","208"
"","psychophysics","214","1015786","0.0-214.0","5a6cfad8ab58b500015f56ef","64de82a8b073afa39cc01010","","","","","4006",""," ","key"," ","16.667041841003982","500","250","br","27","2","1","-16","-19","5","277"
"","psychophysics","215","1018675","0.0-215.0","5a6cfad8ab58b500015f56ef","64de82a8b073afa39cc01010","","","","","2887",""," ","key"," ","16.667459302326005","500","250","br","24","2","1","23","27","11","249"
"","psychophysics","216","1023539","0.0-216.0","5a6cfad8ab58b500015f56ef","64de82a8b073afa39cc01010","","","","","4861",""," ","key"," ","16.66756357388296","500","250","br","20","2","1","19","-3","-9","244"
"","psychophysics","217","1029650","0.0-217.0","5a6cfad8ab58b500015f56ef","64de82a8b073afa39cc01010","","","","","6110",""," ","key"," ","16.668191256830813","500","250","br","18","2","1","-4","2","-27","243"
"","psychophysics","218","1033731","0.0-218.0","5a6cfad8ab58b500015f56ef","64de82a8b073afa39cc01010","","","","","4078",""," ","key"," ","16.66754508196695","500","250","br","18","2","1","20","-18","-28","290"
"","psychophysics","219","1037619","0.0-219.0","5a6cfad8ab58b500015f56ef","64de82a8b073afa39cc01010","","","","","3886",""," ","key"," ","16.667887931034283","500","250","br","20","2","1","18","-11","-21","283"
