"success","trial_type","trial_index","time_elapsed","internal_node_id","pid","sid","timeout","failed_images","failed_audio","failed_video","rt","stimulus","response","response_type","key_press","avg_frame_time","center_x","center_y","task","resp","start","parA","version","block","jitterX","jitterY"
"true","fullscreen","0","5849","0.0-0.0","58ed7f5aac62dc00019366a9","64e50e31f4dee89722ba50f0","","","","","","","","","","","","","","","","","","","",""
"true","preload","1","5981","0.0-1.0","58ed7f5aac62dc00019366a9","64e50e31f4dee89722ba50f0","false","[]","[]","[]","","","","","","","","","","","","","","","",""
"","html-button-response","2","8155","0.0-2.0","58ed7f5aac62dc00019366a9","64e50e31f4dee89722ba50f0","","","","","2171","Please Make Sure Your Audio Is On.","0","","","","","","","","","","","","",""
"","psychophysics","3","100552","0.0-3.0","58ed7f5aac62dc00019366a9","64e50e31f4dee89722ba50f0","","","","","92388",""," ","key"," ","16.674908139325034","683","250","","","","","","","",""
"","psychophysics","4","138691","0.0-4.0","58ed7f5aac62dc00019366a9","64e50e31f4dee89722ba50f0","","","","","38136",""," ","key"," ","16.66603804110188","500","250","inst","","","","","","",""
"","psychophysics","5","142409","0.0-5.0","58ed7f5aac62dc00019366a9","64e50e31f4dee89722ba50f0","","","","","3714",""," ","key"," ","16.665801801801887","500","250","sample0","","","","","","",""
"","psychophysics","6","144717","0.0-6.0","58ed7f5aac62dc00019366a9","64e50e31f4dee89722ba50f0","","","","","2306",""," ","key"," ","16.667108695652292","500","250","sample1","","","","","","",""
"","psychophysics","7","177463","0.0-7.0","58ed7f5aac62dc00019366a9","64e50e31f4dee89722ba50f0","","","","","32743",""," ","key"," ","16.665897657841143","500","250","sample2","100","","","","","",""
"","psychophysics","8","184789","0.0-8.0","58ed7f5aac62dc00019366a9","64e50e31f4dee89722ba50f0","","","","","7323",""," ","key"," ","16.665904109589036","500","250","sample3","98","","","","","",""
"","psychophysics","9","196418","0.0-9.0","58ed7f5aac62dc00019366a9","64e50e31f4dee89722ba50f0","","","","","11627",""," ","key"," ","16.666212338593983","500","250","sample4","100","","","","","",""
"","psychophysics","10","229867","0.0-10.0","58ed7f5aac62dc00019366a9","64e50e31f4dee89722ba50f0","","","","","33446",""," ","key"," ","16.66573429710868","500","250","sample5","","","","","","",""
"","psychophysics","11","240444","0.0-11.0","58ed7f5aac62dc00019366a9","64e50e31f4dee89722ba50f0","","","","","10575",""," ","key"," ","16.666320189274472","500","250","sample6","500","","","","","",""
"","psychophysics","12","355039","0.0-12.0","58ed7f5aac62dc00019366a9","64e50e31f4dee89722ba50f0","","","","","114591",""," ","key"," ","16.665899054545456","500","250","inst","","","","","","",""
"","psychophysics","13","360623","0.0-13.0","58ed7f5aac62dc00019366a9","64e50e31f4dee89722ba50f0","","","","","5582",""," ","key"," ","16.665757485029978","500","250","inst","","","","","","",""
"","psychophysics","14","376492","0.0-14.0","58ed7f5aac62dc00019366a9","64e50e31f4dee89722ba50f0","","","","","15867",""," ","key"," ","16.66545215562569","500","250","inst","","","","","","",""
"","psychophysics","15","378059","0.0-15.0","58ed7f5aac62dc00019366a9","64e50e31f4dee89722ba50f0","","","","","1566",""," ","key"," ","16.666623655913813","500","250","inst","","","","","","",""
"","psychophysics","16","381641","0.0-16.0","58ed7f5aac62dc00019366a9","64e50e31f4dee89722ba50f0","","","","","3580",""," ","key"," ","16.66375700934577","500","250","inst","","","","","","",""
"","psychophysics","17","384578","0.0-17.0","58ed7f5aac62dc00019366a9","64e50e31f4dee89722ba50f0","","","","","2935",""," ","key"," ","16.66621714285708","500","250","instPzPre","50","50","50","0","","",""
"","psychophysics","18","388967","0.0-18.0","58ed7f5aac62dc00019366a9","64e50e31f4dee89722ba50f0","","","","","4386",""," ","key"," ","16.666896946564936","500","250","instPz0","50","50","50","1","","",""
"","psychophysics","19","400177","0.0-19.0","58ed7f5aac62dc00019366a9","64e50e31f4dee89722ba50f0","","","","","11205",""," ","key"," ","16.666260416666688","500","250","instPz1","51","25","50","1","","",""
"","psychophysics","20","408145","0.0-20.0","58ed7f5aac62dc00019366a9","64e50e31f4dee89722ba50f0","","","","","7966",""," ","key"," ","16.66639203354299","500","250","instPz2","21","35","20","1","","",""
"","psychophysics","21","417074","0.0-21.0","58ed7f5aac62dc00019366a9","64e50e31f4dee89722ba50f0","","","","","8925",""," ","key"," ","16.666390654205664","500","250","instPz3","44","100","30","1","","",""
"","psychophysics","22","426929","0.0-22.0","58ed7f5aac62dc00019366a9","64e50e31f4dee89722ba50f0","","","","","9852",""," ","key"," ","16.66605593220339","500","250","instPz4","48","100","30","1","","",""
"","psychophysics","23","433732","0.0-23.0","58ed7f5aac62dc00019366a9","64e50e31f4dee89722ba50f0","","","","","6801",""," ","key"," ","16.665904176904142","500","250","inst","","","","","","",""
"","psychophysics","24","437857","0.0-24.0","58ed7f5aac62dc00019366a9","64e50e31f4dee89722ba50f0","","","","","4118",""," ","key"," ","16.667748987854285","500","250","pz","57","47","39","1","0","",""
"","psychophysics","25","443102","0.0-25.0","58ed7f5aac62dc00019366a9","64e50e31f4dee89722ba50f0","","","","","5242",""," ","key"," ","16.665270700637002","500","250","pz","39","34","33","1","0","",""
"","psychophysics","26","450942","0.0-26.0","58ed7f5aac62dc00019366a9","64e50e31f4dee89722ba50f0","","","","","7838",""," ","key"," ","16.66646481876342","500","250","pz","63","38","47","1","0","",""
"","psychophysics","27","458475","0.0-27.0","58ed7f5aac62dc00019366a9","64e50e31f4dee89722ba50f0","","","","","7529",""," ","key"," ","16.66570953436804","500","250","pz","73","32","50","1","0","",""
"","psychophysics","28","461471","0.0-28.0","58ed7f5aac62dc00019366a9","64e50e31f4dee89722ba50f0","","","","","2993",""," ","key"," ","16.66451955307275","500","250","pz","57","24","44","1","0","",""
"","psychophysics","29","464206","0.0-29.0","58ed7f5aac62dc00019366a9","64e50e31f4dee89722ba50f0","","","","","2732",""," ","key"," ","16.666079754601203","500","250","pz","69","48","44","1","0","",""
"","psychophysics","30","472210","0.0-30.0","58ed7f5aac62dc00019366a9","64e50e31f4dee89722ba50f0","","","","","null","","null","key","null","16.666336116910205","500","250","pz","30","59","45","1","0","",""
"","psychophysics","31","473104","0.0-31.0","58ed7f5aac62dc00019366a9","64e50e31f4dee89722ba50f0","","","","","891",""," ","key"," ","16.66518867924537","500","250","pz","42","39","38","1","0","",""
"","psychophysics","32","480093","0.0-32.0","58ed7f5aac62dc00019366a9","64e50e31f4dee89722ba50f0","","","","","6986",""," ","key"," ","16.666088516746523","500","250","pz","76","28","55","1","0","",""
"","psychophysics","33","485006","0.0-33.0","58ed7f5aac62dc00019366a9","64e50e31f4dee89722ba50f0","","","","","4911",""," ","key"," ","16.666115646258664","500","250","pz","67","36","47","1","0","",""
"","psychophysics","34","488304","0.0-34.0","58ed7f5aac62dc00019366a9","64e50e31f4dee89722ba50f0","","","","","3294",""," ","key"," ","16.667299492385705","500","250","pz","33","24","26","1","0","",""
"","psychophysics","35","490029","0.0-35.0","58ed7f5aac62dc00019366a9","64e50e31f4dee89722ba50f0","","","","","1722",""," ","key"," ","16.66445098039192","500","250","pz","48","48","35","1","0","",""
"","psychophysics","36","493308","0.0-36.0","58ed7f5aac62dc00019366a9","64e50e31f4dee89722ba50f0","","","","","3274",""," ","key"," ","16.667683673469583","500","250","pz","51","27","42","1","0","",""
"","psychophysics","37","495445","0.0-37.0","58ed7f5aac62dc00019366a9","64e50e31f4dee89722ba50f0","","","","","2135",""," ","key"," ","16.66634645669283","500","250","pz","47","37","39","1","0","",""
"","psychophysics","38","496710","0.0-38.0","58ed7f5aac62dc00019366a9","64e50e31f4dee89722ba50f0","","","","","1259",""," ","key"," ","16.670426666666753","500","250","pz","43","43","32","1","0","",""
"","psychophysics","39","498955","0.0-39.0","58ed7f5aac62dc00019366a9","64e50e31f4dee89722ba50f0","","","","","2243",""," ","key"," ","16.664895522388207","500","250","inst","","","","","","",""
"","psychophysics","40","659715","0.0-40.0","58ed7f5aac62dc00019366a9","64e50e31f4dee89722ba50f0","","","","","160758",""," ","key"," ","16.66586562986003","500","250","instPog0","160","190","160","1","","0","0"
"","psychophysics","41","669622","0.0-41.0","58ed7f5aac62dc00019366a9","64e50e31f4dee89722ba50f0","","","","","9904",""," ","key"," ","16.66547892074192","500","250","instPog1","172","190","160","1","","0","0"
"","psychophysics","42","680624","0.0-42.0","58ed7f5aac62dc00019366a9","64e50e31f4dee89722ba50f0","","","","","10998",""," ","key"," ","16.666343939393958","500","250","instPog2","198","160","160","1","","0","0"
"","psychophysics","43","685124","0.0-43.0","58ed7f5aac62dc00019366a9","64e50e31f4dee89722ba50f0","","","","","4498",""," ","key"," ","16.66613754646837","500","250","inst","","","","","","",""
"","psychophysics","44","693126","0.0-44.0","58ed7f5aac62dc00019366a9","64e50e31f4dee89722ba50f0","","","","","null","","null","key","null","16.66587891440502","500","250","pog","173","111","125","1","0","0","0"
"","psychophysics","45","693272","0.0-45.0","58ed7f5aac62dc00019366a9","64e50e31f4dee89722ba50f0","","","","","142",""," ","key"," ","16.71414285713607","500","250","pog","130","130","191","1","0","0","0"
"","psychophysics","46","697297","0.0-46.0","58ed7f5aac62dc00019366a9","64e50e31f4dee89722ba50f0","","","","","4022",""," ","key"," ","16.666186721991608","500","250","pog","183","155","141","1","0","0","0"
"","psychophysics","47","701193","0.0-47.0","58ed7f5aac62dc00019366a9","64e50e31f4dee89722ba50f0","","","","","3893",""," ","key"," ","16.664793991416296","500","250","pog","237","105","196","1","0","0","0"
"","psychophysics","48","704298","0.0-48.0","58ed7f5aac62dc00019366a9","64e50e31f4dee89722ba50f0","","","","","3104",""," ","key"," ","16.666989189188776","500","250","pog","210","214","170","1","0","0","0"
"","psychophysics","49","708960","0.0-49.0","58ed7f5aac62dc00019366a9","64e50e31f4dee89722ba50f0","","","","","4661",""," ","key"," ","16.665297491039485","500","250","pog","177","121","143","1","0","0","0"
"","psychophysics","50","716963","0.0-50.0","58ed7f5aac62dc00019366a9","64e50e31f4dee89722ba50f0","","","","","null","","null","key","null","17.05647222222223","500","250","pog","189","205","132","1","0","0","0"
"","psychophysics","51","721309","0.0-51.0","58ed7f5aac62dc00019366a9","64e50e31f4dee89722ba50f0","","","","","4344",""," ","key"," ","16.6655769230771","500","250","pog","180","202","128","1","0","0","0"
"","psychophysics","52","727541","0.0-52.0","58ed7f5aac62dc00019366a9","64e50e31f4dee89722ba50f0","","","","","6229",""," ","key"," ","16.665136729222574","500","250","pog","223","183","184","1","0","0","0"
"","psychophysics","53","733644","0.0-53.0","58ed7f5aac62dc00019366a9","64e50e31f4dee89722ba50f0","","","","","6100",""," ","key"," ","16.665180821917723","500","250","pog","197","159","147","1","0","0","0"
"","psychophysics","54","738571","0.0-54.0","58ed7f5aac62dc00019366a9","64e50e31f4dee89722ba50f0","","","","","4925",""," ","key"," ","16.66573220339004","500","250","pog","183","197","133","1","0","0","0"
"","psychophysics","55","742807","0.0-55.0","58ed7f5aac62dc00019366a9","64e50e31f4dee89722ba50f0","","","","","4234",""," ","key"," ","16.66476679841892","500","250","pog","232","154","192","1","0","0","0"
"","psychophysics","56","743828","0.0-56.0","58ed7f5aac62dc00019366a9","64e50e31f4dee89722ba50f0","","","","","1018",""," ","key"," ","16.668333333332946","500","250","pog","156","156","146","1","0","0","0"
"","psychophysics","57","745028","0.0-57.0","58ed7f5aac62dc00019366a9","64e50e31f4dee89722ba50f0","","","","","1197",""," ","key"," ","16.670056338028484","500","250","pog","158","158","154","1","0","0","0"
"","psychophysics","58","748661","0.0-58.0","58ed7f5aac62dc00019366a9","64e50e31f4dee89722ba50f0","","","","","3617",""," ","key"," ","16.66764055299551","500","250","pog","173","199","133","1","0","0","0"
"","psychophysics","59","753192","0.0-59.0","58ed7f5aac62dc00019366a9","64e50e31f4dee89722ba50f0","","","","","4529",""," ","key"," ","16.665918819188327","500","250","inst","","","","","","",""
"","psychophysics","60","767145","0.0-60.0","58ed7f5aac62dc00019366a9","64e50e31f4dee89722ba50f0","","","","","13951",""," ","key"," ","16.666000000000086","500","250","instEB0","40","40","40","1","","0","0"
"","psychophysics","61","776664","0.0-61.0","58ed7f5aac62dc00019366a9","64e50e31f4dee89722ba50f0","","","","","9517",""," ","key"," ","16.665835087719422","500","250","instEB1","30","40","30","1","","0","0"
"","psychophysics","62","786803","0.0-62.0","58ed7f5aac62dc00019366a9","64e50e31f4dee89722ba50f0","","","","","10133",""," ","key"," ","16.666277960526234","500","250","instEB2","35","30","40","1","","0","0"
"","psychophysics","63","792833","0.0-63.0","58ed7f5aac62dc00019366a9","64e50e31f4dee89722ba50f0","","","","","6027",""," ","key"," ","16.665066666666664","500","250","instEB3","35","27","45","1","","0","0"
"","psychophysics","64","798645","0.0-64.0","58ed7f5aac62dc00019366a9","64e50e31f4dee89722ba50f0","","","","","5807",""," ","key"," ","16.666620689655332","500","250","instEB4","27","40","30","1","","0","0"
"","psychophysics","65","800393","0.0-65.0","58ed7f5aac62dc00019366a9","64e50e31f4dee89722ba50f0","","","","","1747",""," ","key"," ","16.665836538462408","500","250","inst","","","","","","",""
"","psychophysics","66","808396","0.0-66.0","58ed7f5aac62dc00019366a9","64e50e31f4dee89722ba50f0","","","","","null","","null","key","null","16.806741052631438","500","250","eb","31","49","36","1","","0","0"
"","psychophysics","67","808486","0.0-67.0","58ed7f5aac62dc00019366a9","64e50e31f4dee89722ba50f0","","","","","84",""," ","key"," ","16.74439999999013","500","250","eb","34","34","45","1","","0","0"
"","psychophysics","68","815840","0.0-68.0","58ed7f5aac62dc00019366a9","64e50e31f4dee89722ba50f0","","","","","7351",""," ","key"," ","16.66520909090918","500","250","eb","46","54","49","1","","0","0"
"","psychophysics","69","819392","0.0-69.0","58ed7f5aac62dc00019366a9","64e50e31f4dee89722ba50f0","","","","","3550",""," ","key"," ","16.66556132075438","500","250","eb","43","30","47","1","","0","0"
"","psychophysics","70","820980","0.0-70.0","58ed7f5aac62dc00019366a9","64e50e31f4dee89722ba50f0","","","","","1585",""," ","key"," ","16.662574468085175","500","250","eb","40","40","41","1","","0","0"
"","psychophysics","71","823617","0.0-71.0","58ed7f5aac62dc00019366a9","64e50e31f4dee89722ba50f0","","","","","2631",""," ","key"," ","16.665974683544594","500","250","eb","40","44","42","1","","0","0"
"","psychophysics","72","827692","0.0-72.0","58ed7f5aac62dc00019366a9","64e50e31f4dee89722ba50f0","","","","","4072",""," ","key"," ","16.66603292181078","500","250","eb","47","48","49","1","","0","0"
"","psychophysics","73","834690","0.0-73.0","58ed7f5aac62dc00019366a9","64e50e31f4dee89722ba50f0","","","","","6995",""," ","key"," ","16.666687350835193","500","250","eb","23","54","26","1","","0","0"
"","psychophysics","74","837594","0.0-74.0","58ed7f5aac62dc00019366a9","64e50e31f4dee89722ba50f0","","","","","2902",""," ","key"," ","16.666485549133093","500","250","eb","31","50","36","1","","0","0"
"","psychophysics","75","840653","0.0-75.0","58ed7f5aac62dc00019366a9","64e50e31f4dee89722ba50f0","","","","","3053",""," ","key"," ","16.667431693989148","500","250","eb","40","37","52","1","","0","0"
"","psychophysics","76","845896","0.0-76.0","58ed7f5aac62dc00019366a9","64e50e31f4dee89722ba50f0","","","","","5240",""," ","key"," ","16.66524920127795","500","250","eb","23","50","24","1","","0","0"
"","psychophysics","77","848786","0.0-77.0","58ed7f5aac62dc00019366a9","64e50e31f4dee89722ba50f0","","","","","2885",""," ","key"," ","16.66746242774578","500","250","eb","29","35","36","1","","0","0"
"","psychophysics","78","851828","0.0-78.0","58ed7f5aac62dc00019366a9","64e50e31f4dee89722ba50f0","","","","","3038",""," ","key"," ","16.66571270718203","500","250","eb","40","39","53","1","","0","0"
"","psychophysics","79","853459","0.0-79.0","58ed7f5aac62dc00019366a9","64e50e31f4dee89722ba50f0","","","","","1626",""," ","key"," ","16.66894845360861","500","250","eb","45","48","49","1","","0","0"
"","psychophysics","80","857538","0.0-80.0","58ed7f5aac62dc00019366a9","64e50e31f4dee89722ba50f0","","","","","4074",""," ","key"," ","16.66628688524599","500","250","eb","26","54","29","1","","0","0"
"","psychophysics","81","859324","0.0-81.0","58ed7f5aac62dc00019366a9","64e50e31f4dee89722ba50f0","","","","","1784",""," ","key"," ","16.669726415093603","500","250","inst","","","","","","",""
"","psychophysics","82","861093","0.0-82.0","58ed7f5aac62dc00019366a9","64e50e31f4dee89722ba50f0","","","","","1767",""," ","key"," ","16.663400000000063","500","250","instZol0","0","0","","","","0","0"
"","psychophysics","83","863808","0.0-83.0","58ed7f5aac62dc00019366a9","64e50e31f4dee89722ba50f0","","","","","2710",""," ","key"," ","16.667530864197616","500","250","instZol1","1.3","-1.3","","","","0","0"
"","psychophysics","84","867365","0.0-84.0","58ed7f5aac62dc00019366a9","64e50e31f4dee89722ba50f0","","","","","3539",""," ","key"," ","16.66715962441306","500","250","instZol2","-2","2","","1","","0","0"
"","psychophysics","85","869524","0.0-85.0","58ed7f5aac62dc00019366a9","64e50e31f4dee89722ba50f0","","","","","2157",""," ","key"," ","16.662937500000226","500","250","inst","","","","","","",""
"","psychophysics","86","877528","0.0-86.0","58ed7f5aac62dc00019366a9","64e50e31f4dee89722ba50f0","","","","","null","","null","key","null","16.66639457202501","500","250","zol","-3.2500000000000018","-0.75","","1","0","24","0"
"","psychophysics","87","885533","0.0-87.0","58ed7f5aac62dc00019366a9","64e50e31f4dee89722ba50f0","","","","","null","","null","key","null","16.666170833333307","500","250","zol","1.0799999999999998","0.72","","1","0","-21","-23"
"","psychophysics","88","885864","0.0-88.0","58ed7f5aac62dc00019366a9","64e50e31f4dee89722ba50f0","","","","","326",""," ","key"," ","16.68526315789572","500","250","zol","0.57","-0.57","","1","0","15","21"
"","psychophysics","89","892603","0.0-89.0","58ed7f5aac62dc00019366a9","64e50e31f4dee89722ba50f0","","","","","6736",""," ","key"," ","16.665230769230742","500","250","zol","1.37","-0.57","","1","0","-23","21"
"","psychophysics","90","894834","0.0-90.0","58ed7f5aac62dc00019366a9","64e50e31f4dee89722ba50f0","","","","","2226",""," ","key"," ","16.66711278195507","500","250","zol","1.5600000000000003","-0.06","","1","0","-9","-7"
"","psychophysics","91","897315","0.0-91.0","58ed7f5aac62dc00019366a9","64e50e31f4dee89722ba50f0","","","","","2476",""," ","key"," ","16.66913513513518","500","250","zol","1.6600000000000004","0.34","","1","0","30","19"
"","psychophysics","92","898870","0.0-92.0","58ed7f5aac62dc00019366a9","64e50e31f4dee89722ba50f0","","","","","1537",""," ","key"," ","16.66884782608806","500","250","zol","2.140000000000001","-0.54","","1","0","-18","26"
"","psychophysics","93","901880","0.0-93.0","58ed7f5aac62dc00019366a9","64e50e31f4dee89722ba50f0","","","","","3006",""," ","key"," ","16.66582777777803","500","250","zol","1.3400000000000003","0.46","","1","0","17","-9"
"","psychophysics","94","903458","0.0-94.0","58ed7f5aac62dc00019366a9","64e50e31f4dee89722ba50f0","","","","","1574",""," ","key"," ","16.666247311828066","500","250","zol","1.9000000000000006","-0.6","","1","0","-18","16"
"","psychophysics","95","905369","0.0-95.0","58ed7f5aac62dc00019366a9","64e50e31f4dee89722ba50f0","","","","","1904",""," ","key"," ","16.66792982456115","500","250","zol","1.8200000000000007","-0.62","","1","0","20","19"
"","psychophysics","96","909884","0.0-96.0","58ed7f5aac62dc00019366a9","64e50e31f4dee89722ba50f0","","","","","4511",""," ","key"," ","16.664944444444565","500","250","zol","1.5900000000000003","-0.39","","1","0","7","-15"
"","psychophysics","97","916991","0.0-97.0","58ed7f5aac62dc00019366a9","64e50e31f4dee89722ba50f0","","","","","7103",""," ","key"," ","16.666524705882185","500","250","zol","1.2500000000000002","-0.15","","1","0","-19","-26"
"","psychophysics","98","921872","0.0-98.0","58ed7f5aac62dc00019366a9","64e50e31f4dee89722ba50f0","","","","","4874",""," ","key"," ","16.66667123287653","500","250","zol","1.9900000000000007","-0.49","","1","0","-17","-10"
"","psychophysics","99","929876","0.0-99.0","58ed7f5aac62dc00019366a9","64e50e31f4dee89722ba50f0","","","","","null","","null","key","null","16.666597077244354","500","250","zol","-0.57","-0.23","","1","0","-30","22"
"","psychophysics","100","930648","0.0-100.0","58ed7f5aac62dc00019366a9","64e50e31f4dee89722ba50f0","","","","","766",""," ","key"," ","16.672000000000242","500","250","zol","-0.09","0.09","","1","0","-29","-26"
"","psychophysics","101","931845","0.0-101.0","58ed7f5aac62dc00019366a9","64e50e31f4dee89722ba50f0","","","","","1195",""," ","key"," ","16.661549295775895","500","250","inst","","","","","","",""
"","psychophysics","102","938519","0.0-102.0","58ed7f5aac62dc00019366a9","64e50e31f4dee89722ba50f0","","","","","6671",""," ","key"," ","16.665769423558878","500","250","instBr0","0","0","300","","","0","0"
"","psychophysics","103","945481","0.0-103.0","58ed7f5aac62dc00019366a9","64e50e31f4dee89722ba50f0","","","","","6960",""," ","key"," ","16.665040767386195","500","250","instBr1","6","-40","300","","","0","0"
"","psychophysics","104","952505","0.0-104.0","58ed7f5aac62dc00019366a9","64e50e31f4dee89722ba50f0","","","","","7021",""," ","key"," ","16.666390476190386","500","250","instBr3","-19","40","300","1","","0","0"
"","psychophysics","105","953568","0.0-105.0","58ed7f5aac62dc00019366a9","64e50e31f4dee89722ba50f0","","","","","1061",""," ","key"," ","16.671761904761844","500","250","inst","","","","","","",""
"","psychophysics","106","957119","0.0-106.0","58ed7f5aac62dc00019366a9","64e50e31f4dee89722ba50f0","","","","","3548",""," ","key"," ","16.664325471697836","500","250","br","-17","5","240","1","0","14","29"
"","psychophysics","107","959048","0.0-107.0","58ed7f5aac62dc00019366a9","64e50e31f4dee89722ba50f0","","","","","1927",""," ","key"," ","16.670017391304565","500","250","br","-18","-2","287","1","0","-25","-14"
"","psychophysics","108","960706","0.0-108.0","58ed7f5aac62dc00019366a9","64e50e31f4dee89722ba50f0","","","","","1655",""," ","key"," ","16.66994897959212","500","250","br","-13","2","218","1","0","-27","-17"
"","psychophysics","109","962594","0.0-109.0","58ed7f5aac62dc00019366a9","64e50e31f4dee89722ba50f0","","","","","1883",""," ","key"," ","16.668212389380802","500","250","br","-5","-20","261","1","0","4","-9"
"","psychophysics","110","964520","0.0-110.0","58ed7f5aac62dc00019366a9","64e50e31f4dee89722ba50f0","","","","","1923",""," ","key"," ","16.667350877192803","500","250","br","-19","4","295","1","0","-16","28"
"","psychophysics","111","966528","0.0-111.0","58ed7f5aac62dc00019366a9","64e50e31f4dee89722ba50f0","","","","","2005",""," ","key"," ","16.666149999999714","500","250","br","-12","14","263","1","0","-13","-2"
"","psychophysics","112","967842","0.0-112.0","58ed7f5aac62dc00019366a9","64e50e31f4dee89722ba50f0","","","","","1311",""," ","key"," ","16.66299999999971","500","250","br","-23","-13","223","1","0","29","30"
"","psychophysics","113","969025","0.0-113.0","58ed7f5aac62dc00019366a9","64e50e31f4dee89722ba50f0","","","","","1178",""," ","key"," ","16.67089999999984","500","250","br","-20","-18","202","1","0","4","-2"
"","psychophysics","114","970565","0.0-114.0","58ed7f5aac62dc00019366a9","64e50e31f4dee89722ba50f0","","","","","1537",""," ","key"," ","16.66909782608728","500","250","br","-19","-6","298","1","0","21","-28"
"","psychophysics","115","974278","0.0-115.0","58ed7f5aac62dc00019366a9","64e50e31f4dee89722ba50f0","","","","","3710",""," ","key"," ","16.667049549549382","500","250","br","-9","27","253","1","0","-28","-14"
"","psychophysics","116","978061","0.0-116.0","58ed7f5aac62dc00019366a9","64e50e31f4dee89722ba50f0","","","","","3781",""," ","key"," ","16.665871681415773","500","250","br","-17","16","206","1","0","0","-1"
"","psychophysics","117","980123","0.0-117.0","58ed7f5aac62dc00019366a9","64e50e31f4dee89722ba50f0","","","","","2059",""," ","key"," ","16.66602459016397","500","250","br","-13","19","299","1","0","4","-9"
"","psychophysics","118","983603","0.0-118.0","58ed7f5aac62dc00019366a9","64e50e31f4dee89722ba50f0","","","","","3474",""," ","key"," ","16.667124999999942","500","250","br","-7","26","200","1","0","24","28"
"","psychophysics","119","985853","0.0-119.0","58ed7f5aac62dc00019366a9","64e50e31f4dee89722ba50f0","","","","","2247",""," ","key"," ","16.66842537313446","500","250","br","-19","2","254","1","0","-28","11"
"","psychophysics","120","987913","0.0-120.0","58ed7f5aac62dc00019366a9","64e50e31f4dee89722ba50f0","","","","","2058",""," ","key"," ","16.66586178861846","500","250","br","-18","-9","258","1","0","-22","10"
"","psychophysics","121","988693","0.0-121.0","58ed7f5aac62dc00019366a9","64e50e31f4dee89722ba50f0","","","","","777",""," ","key"," ","16.671413043478463","500","250","inst","","","","","","",""
"","psychophysics","122","989731","0.0-122.0","58ed7f5aac62dc00019366a9","64e50e31f4dee89722ba50f0","","","","","1036",""," ","key"," ","16.664442622950148","500","250","instZol1","1.3","-1.3","","","","0","0"
"","psychophysics","123","991250","0.0-123.0","58ed7f5aac62dc00019366a9","64e50e31f4dee89722ba50f0","","","","","1515",""," ","key"," ","16.66712222222187","500","250","instZol2","-2.1","2","","2","","0","0"
"","psychophysics","124","992747","0.0-124.0","58ed7f5aac62dc00019366a9","64e50e31f4dee89722ba50f0","","","","","1495",""," ","key"," ","16.665471910111858","500","250","inst","","","","","","",""
"","psychophysics","125","994380","0.0-125.0","58ed7f5aac62dc00019366a9","64e50e31f4dee89722ba50f0","","","","","1629",""," ","key"," ","16.665711340205217","500","250","zol","-1.2300000000000002","-0.17","","2","1","-8","-22"
"","psychophysics","126","996367","0.0-126.0","58ed7f5aac62dc00019366a9","64e50e31f4dee89722ba50f0","","","","","1983",""," ","key"," ","16.66633898305107","500","250","zol","-1.3100000000000003","-0.49","","2","1","-9","15"
"","psychophysics","127","998035","0.0-127.0","58ed7f5aac62dc00019366a9","64e50e31f4dee89722ba50f0","","","","","1664",""," ","key"," ","16.66699999999937","500","250","zol","-1.1500000000000001","-0.35","","2","1","27","-8"
"","psychophysics","128","999753","0.0-128.0","58ed7f5aac62dc00019366a9","64e50e31f4dee89722ba50f0","","","","","1714",""," ","key"," ","16.666882352941148","500","250","zol","-1.35","0.05","","2","1","-3","25"
"","psychophysics","129","1001066","0.0-129.0","58ed7f5aac62dc00019366a9","64e50e31f4dee89722ba50f0","","","","","1307",""," ","key"," ","16.670294871794074","500","250","zol","-1.04","-0.46","","2","1","5","7"
"","psychophysics","130","1002729","0.0-130.0","58ed7f5aac62dc00019366a9","64e50e31f4dee89722ba50f0","","","","","1653",""," ","key"," ","16.66846464646538","500","250","zol","-0.7699999999999999","-0.73","","2","1","29","-17"
"","psychophysics","131","1004148","0.0-131.0","58ed7f5aac62dc00019366a9","64e50e31f4dee89722ba50f0","","","","","1416",""," ","key"," ","16.669071428572003","500","250","zol","-0.9499999999999998","-0.55","","2","1","22","3"
"","psychophysics","132","1006598","0.0-132.0","58ed7f5aac62dc00019366a9","64e50e31f4dee89722ba50f0","","","","","2446",""," ","key"," ","16.665150684932062","500","250","zol","-1.3","0.3","","2","1","-12","-12"
"","psychophysics","133","1008712","0.0-133.0","58ed7f5aac62dc00019366a9","64e50e31f4dee89722ba50f0","","","","","2111",""," ","key"," ","16.666071428571797","500","250","zol","-1.4300000000000004","0.23","","2","1","-12","-22"
"","psychophysics","134","1010677","0.0-134.0","58ed7f5aac62dc00019366a9","64e50e31f4dee89722ba50f0","","","","","1961",""," ","key"," ","16.664982905982534","500","250","zol","-0.9799999999999999","-0.02","","2","1","-15","16"
"","psychophysics","135","1012713","0.0-135.0","58ed7f5aac62dc00019366a9","64e50e31f4dee89722ba50f0","","","","","2031",""," ","key"," ","16.66529752066155","500","250","zol","-0.8899999999999999","-0.61","","2","1","19","24"
"","psychophysics","136","1014800","0.0-136.0","58ed7f5aac62dc00019366a9","64e50e31f4dee89722ba50f0","","","","","2083",""," ","key"," ","16.666564516129814","500","250","zol","-1.19","-0.21","","2","1","9","18"
"","psychophysics","137","1016635","0.0-137.0","58ed7f5aac62dc00019366a9","64e50e31f4dee89722ba50f0","","","","","1831",""," ","key"," ","16.668431192661053","500","250","zol","-1.6400000000000006","0.44","","2","1","1","-8"
"","psychophysics","138","1018567","0.0-138.0","58ed7f5aac62dc00019366a9","64e50e31f4dee89722ba50f0","","","","","1927",""," ","key"," ","16.66803478260889","500","250","zol","-1.6600000000000006","-0.44","","2","1","19","-26"
"","psychophysics","139","1020541","0.0-139.0","58ed7f5aac62dc00019366a9","64e50e31f4dee89722ba50f0","","","","","1970",""," ","key"," ","16.665728813559173","500","250","zol","-1.8500000000000008","-0.35","","2","1","-25","-25"
"","psychophysics","140","1022151","0.0-140.0","58ed7f5aac62dc00019366a9","64e50e31f4dee89722ba50f0","","","","","1609",""," ","key"," ","16.66571578947386","500","250","inst","","","","","","",""
"","psychophysics","141","1027229","0.0-141.0","58ed7f5aac62dc00019366a9","64e50e31f4dee89722ba50f0","","","","","5075",""," ","key"," ","16.66674342105245","500","250","instBr3","24","40","300","2","","0","0"
"","psychophysics","142","1028209","0.0-142.0","58ed7f5aac62dc00019366a9","64e50e31f4dee89722ba50f0","","","","","978",""," ","key"," ","16.665810344827058","500","250","inst","","","","","","",""
"","psychophysics","143","1031278","0.0-143.0","58ed7f5aac62dc00019366a9","64e50e31f4dee89722ba50f0","","","","","3065",""," ","key"," ","16.66732240437156","500","250","br","27","-1","278","2","1","1","18"
"","psychophysics","144","1033080","0.0-144.0","58ed7f5aac62dc00019366a9","64e50e31f4dee89722ba50f0","","","","","1800",""," ","key"," ","16.665439252336903","500","250","br","29","-1","289","2","1","12","-26"
"","psychophysics","145","1034479","0.0-145.0","58ed7f5aac62dc00019366a9","64e50e31f4dee89722ba50f0","","","","","1397",""," ","key"," ","16.669012048191963","500","250","br","31","13","235","2","1","-22","8"
"","psychophysics","146","1037541","0.0-146.0","58ed7f5aac62dc00019366a9","64e50e31f4dee89722ba50f0","","","","","3060",""," ","key"," ","16.665622950819717","500","250","br","22","-24","207","2","1","-4","11"
"","psychophysics","147","1041939","0.0-147.0","58ed7f5aac62dc00019366a9","64e50e31f4dee89722ba50f0","","","","","4395",""," ","key"," ","16.66633079847907","500","250","br","25","23","209","2","1","-22","16"
"","psychophysics","148","1045204","0.0-148.0","58ed7f5aac62dc00019366a9","64e50e31f4dee89722ba50f0","","","","","3262",""," ","key"," ","16.66592783505126","500","250","br","23","-20","278","2","1","6","23"
"","psychophysics","149","1046051","0.0-149.0","58ed7f5aac62dc00019366a9","64e50e31f4dee89722ba50f0","","","","","842",""," ","key"," ","16.670840000000318","500","250","br","26","25","272","2","1","29","6"
"","psychophysics","150","1049833","0.0-150.0","58ed7f5aac62dc00019366a9","64e50e31f4dee89722ba50f0","","","","","3777",""," ","key"," ","16.666898230088677","500","250","br","34","-5","287","2","1","30","16"
"","psychophysics","151","1053261","0.0-151.0","58ed7f5aac62dc00019366a9","64e50e31f4dee89722ba50f0","","","","","3425",""," ","key"," ","16.6669024390248","500","250","br","25","-23","233","2","1","-7","-9"
"","psychophysics","152","1056390","0.0-152.0","58ed7f5aac62dc00019366a9","64e50e31f4dee89722ba50f0","","","","","3126",""," ","key"," ","16.6655401069519","500","250","br","27","24","285","2","1","-2","21"
"","psychophysics","153","1059456","0.0-153.0","58ed7f5aac62dc00019366a9","64e50e31f4dee89722ba50f0","","","","","3063",""," ","key"," ","16.66940983606482","500","250","br","24","-17","291","2","1","-26","-3"
"","psychophysics","154","1061317","0.0-154.0","58ed7f5aac62dc00019366a9","64e50e31f4dee89722ba50f0","","","","","1858",""," ","key"," ","16.66408181818287","500","250","br","33","2","230","2","1","26","5"
"","psychophysics","155","1064243","0.0-155.0","58ed7f5aac62dc00019366a9","64e50e31f4dee89722ba50f0","","","","","2921",""," ","key"," ","16.667565714285843","500","250","br","34","15","278","2","1","25","-16"
"","psychophysics","156","1066548","0.0-156.0","58ed7f5aac62dc00019366a9","64e50e31f4dee89722ba50f0","","","","","2303",""," ","key"," ","16.667474452555723","500","250","br","31","1","247","2","1","20","-7"
"","psychophysics","157","1067644","0.0-157.0","58ed7f5aac62dc00019366a9","64e50e31f4dee89722ba50f0","","","","","1094",""," ","key"," ","16.66620000000112","500","250","br","30","29","210","2","1","-16","-8"
"","psychophysics","158","1068758","0.0-158.0","58ed7f5aac62dc00019366a9","64e50e31f4dee89722ba50f0","","","","","1112",""," ","key"," ","16.668393939394843","500","250","inst","","","","","","",""
"","psychophysics","159","1074619","0.0-159.0","58ed7f5aac62dc00019366a9","64e50e31f4dee89722ba50f0","","","","","5859",""," ","key"," ","16.665711428571626","500","250","instPog0","370","370","340","2","","0","0"
"","psychophysics","160","1078868","0.0-160.0","58ed7f5aac62dc00019366a9","64e50e31f4dee89722ba50f0","","","","","4245",""," ","key"," ","16.667098425196734","500","250","instPog1","370","370","340","2","","0","0"
"","psychophysics","161","1091164","0.0-161.0","58ed7f5aac62dc00019366a9","64e50e31f4dee89722ba50f0","","","","","12291",""," ","key"," ","16.80303830369382","500","250","instPog2","324","340","340","2","","0","0"
"","psychophysics","162","1092455","0.0-162.0","58ed7f5aac62dc00019366a9","64e50e31f4dee89722ba50f0","","","","","1290",""," ","key"," ","16.6631298701297","500","250","inst","","","","","","",""
"","psychophysics","163","1095837","0.0-163.0","58ed7f5aac62dc00019366a9","64e50e31f4dee89722ba50f0","","","","","3380",""," ","key"," ","16.664648514850718","500","250","pog","338","382","357","2","1","0","0"
"","psychophysics","164","1097769","0.0-164.0","58ed7f5aac62dc00019366a9","64e50e31f4dee89722ba50f0","","","","","1930",""," ","key"," ","16.66173684210598","500","250","pog","313","371","350","2","1","0","0"
"","psychophysics","165","1103264","0.0-165.0","58ed7f5aac62dc00019366a9","64e50e31f4dee89722ba50f0","","","","","5492",""," ","key"," ","16.66669908814602","500","250","pog","323","291","369","2","1","0","0"
"","psychophysics","166","1111266","0.0-166.0","58ed7f5aac62dc00019366a9","64e50e31f4dee89722ba50f0","","","","","null","","null","key","null","16.66581419624227","500","250","pog","290","400","323","2","1","0","0"
"","psychophysics","167","1111418","0.0-167.0","58ed7f5aac62dc00019366a9","64e50e31f4dee89722ba50f0","","","","","148",""," ","key"," ","16.7003750000149","500","250","pog","351","351","371","2","1","0","0"
"","psychophysics","168","1115816","0.0-168.0","58ed7f5aac62dc00019366a9","64e50e31f4dee89722ba50f0","","","","","4395",""," ","key"," ","16.665764258554766","500","250","pog","321","395","360","2","1","0","0"
"","psychophysics","169","1118808","0.0-169.0","58ed7f5aac62dc00019366a9","64e50e31f4dee89722ba50f0","","","","","2987",""," ","key"," ","16.66774301675887","500","250","pog","341","389","374","2","1","0","0"
"","psychophysics","170","1122336","0.0-170.0","58ed7f5aac62dc00019366a9","64e50e31f4dee89722ba50f0","","","","","3526",""," ","key"," ","16.66522748815227","500","250","pog","301","371","335","2","1","0","0"
"","psychophysics","171","1124761","0.0-171.0","58ed7f5aac62dc00019366a9","64e50e31f4dee89722ba50f0","","","","","2423",""," ","key"," ","16.665354166666575","500","250","pog","307","347","345","2","1","0","0"
"","psychophysics","172","1126915","0.0-172.0","58ed7f5aac62dc00019366a9","64e50e31f4dee89722ba50f0","","","","","2153",""," ","key"," ","16.66541406249962","500","250","pog","283","293","306","2","1","0","0"
"","psychophysics","173","1128895","0.0-173.0","58ed7f5aac62dc00019366a9","64e50e31f4dee89722ba50f0","","","","","1975",""," ","key"," ","16.66971186440738","500","250","pog","347","361","354","2","1","0","0"
"","psychophysics","174","1129838","0.0-174.0","58ed7f5aac62dc00019366a9","64e50e31f4dee89722ba50f0","","","","","942",""," ","key"," ","16.96510909090919","500","250","pog","354","358","373","2","1","0","0"
"","psychophysics","175","1130869","0.0-175.0","58ed7f5aac62dc00019366a9","64e50e31f4dee89722ba50f0","","","","","1030",""," ","key"," ","16.663901639346523","500","250","pog","318","320","311","2","1","0","0"
"","psychophysics","176","1133321","0.0-176.0","58ed7f5aac62dc00019366a9","64e50e31f4dee89722ba50f0","","","","","2450",""," ","key"," ","16.664952054795208","500","250","pog","332","322","374","2","1","0","0"
"","psychophysics","177","1135740","0.0-177.0","58ed7f5aac62dc00019366a9","64e50e31f4dee89722ba50f0","","","","","2417",""," ","key"," ","16.666201388888616","500","250","pog","329","375","367","2","1","0","0"
"","psychophysics","178","1136946","0.0-178.0","58ed7f5aac62dc00019366a9","64e50e31f4dee89722ba50f0","","","","","1205",""," ","key"," ","16.66150704225276","500","250","inst","","","","","","",""
"","psychophysics","179","1145762","0.0-179.0","58ed7f5aac62dc00019366a9","64e50e31f4dee89722ba50f0","","","","","8814",""," ","key"," ","16.666393939394215","500","250","instEB1","42","30","40","2","","0","0"
"","psychophysics","180","1147698","0.0-180.0","58ed7f5aac62dc00019366a9","64e50e31f4dee89722ba50f0","","","","","1934",""," ","key"," ","16.666417391304655","500","250","instEB2","42","40","30","2","","0","0"
"","psychophysics","181","1149580","0.0-181.0","58ed7f5aac62dc00019366a9","64e50e31f4dee89722ba50f0","","","","","1878",""," ","key"," ","16.66826785714407","500","250","instEB3","41","45","27","2","","0","0"
"","psychophysics","182","1153711","0.0-182.0","58ed7f5aac62dc00019366a9","64e50e31f4dee89722ba50f0","","","","","4125",""," ","key"," ","16.66586234817764","500","250","instEB4","46","30","40","2","","0","0"
"","psychophysics","183","1154854","0.0-183.0","58ed7f5aac62dc00019366a9","64e50e31f4dee89722ba50f0","","","","","1142",""," ","key"," ","16.664823529413244","500","250","inst","","","","","","",""
"","psychophysics","184","1156287","0.0-184.0","58ed7f5aac62dc00019366a9","64e50e31f4dee89722ba50f0","","","","","1430",""," ","key"," ","16.665023529411787","500","250","eb","51","51","44","2","","0","0"
"","psychophysics","185","1158841","0.0-185.0","58ed7f5aac62dc00019366a9","64e50e31f4dee89722ba50f0","","","","","2551",""," ","key"," ","16.667651315789524","500","250","eb","52","43","47","2","","0","0"
"","psychophysics","186","1160447","0.0-186.0","58ed7f5aac62dc00019366a9","64e50e31f4dee89722ba50f0","","","","","1604",""," ","key"," ","16.663947368420562","500","250","eb","50","31","53","2","","0","0"
"","psychophysics","187","1162323","0.0-187.0","58ed7f5aac62dc00019366a9","64e50e31f4dee89722ba50f0","","","","","1870",""," ","key"," ","16.665741071429302","500","250","eb","41","42","33","2","","0","0"
"","psychophysics","188","1164187","0.0-188.0","58ed7f5aac62dc00019366a9","64e50e31f4dee89722ba50f0","","","","","1862",""," ","key"," ","16.6671441441448","500","250","eb","44","31","38","2","","0","0"
"","psychophysics","189","1165710","0.0-189.0","58ed7f5aac62dc00019366a9","64e50e31f4dee89722ba50f0","","","","","1520",""," ","key"," ","16.85761797752786","500","250","eb","41","28","31","2","","0","0"
"","psychophysics","190","1167752","0.0-190.0","58ed7f5aac62dc00019366a9","64e50e31f4dee89722ba50f0","","","","","2040",""," ","key"," ","16.666049180327168","500","250","eb","54","24","45","2","","0","0"
"","psychophysics","191","1170623","0.0-191.0","58ed7f5aac62dc00019366a9","64e50e31f4dee89722ba50f0","","","","","2869",""," ","key"," ","16.665725146198362","500","250","eb","58","47","52","2","","0","0"
"","psychophysics","192","1172950","0.0-192.0","58ed7f5aac62dc00019366a9","64e50e31f4dee89722ba50f0","","","","","2324",""," ","key"," ","16.6649352517984","500","250","eb","53","28","44","2","","0","0"
"","psychophysics","193","1176150","0.0-193.0","58ed7f5aac62dc00019366a9","64e50e31f4dee89722ba50f0","","","","","3198",""," ","key"," ","16.667617801046585","500","250","eb","52","33","54","2","","0","0"
"","psychophysics","194","1179408","0.0-194.0","58ed7f5aac62dc00019366a9","64e50e31f4dee89722ba50f0","","","","","3254",""," ","key"," ","16.667180412370932","500","250","eb","31","32","26","2","","0","0"
"","psychophysics","195","1183411","0.0-195.0","58ed7f5aac62dc00019366a9","64e50e31f4dee89722ba50f0","","","","","4001",""," ","key"," ","16.665548117155264","500","250","eb","64","42","53","2","","0","0"
"","psychophysics","196","1187974","0.0-196.0","58ed7f5aac62dc00019366a9","64e50e31f4dee89722ba50f0","","","","","4558",""," ","key"," ","16.666608058607835","500","250","eb","50","30","52","2","","0","0"
"","psychophysics","197","1190166","0.0-197.0","58ed7f5aac62dc00019366a9","64e50e31f4dee89722ba50f0","","","","","2189",""," ","key"," ","16.666900763359234","500","250","eb","43","29","31","2","","0","0"
"","psychophysics","198","1191696","0.0-198.0","58ed7f5aac62dc00019366a9","64e50e31f4dee89722ba50f0","","","","","1527",""," ","key"," ","16.66752222222276","500","250","eb","47","47","45","2","","0","0"
"","psychophysics","199","1211299","0.0-199.0","58ed7f5aac62dc00019366a9","64e50e31f4dee89722ba50f0","","","","","19598",""," ","key"," ","16.6662244897959","500","250","inst","","","","","","",""
"","psychophysics","200","1215480","0.0-200.0","58ed7f5aac62dc00019366a9","64e50e31f4dee89722ba50f0","","","","","4178",""," ","key"," ","16.66639357429731","500","250","instPz1","50","25","50","2","","",""
"","psychophysics","201","1217475","0.0-201.0","58ed7f5aac62dc00019366a9","64e50e31f4dee89722ba50f0","","","","","1991",""," ","key"," ","16.669117647058822","500","250","instPz2","35","20","35","2","","",""
"","psychophysics","202","1224284","0.0-202.0","58ed7f5aac62dc00019366a9","64e50e31f4dee89722ba50f0","","","","","6807",""," ","key"," ","16.66697058823546","500","250","instPz3","54","30","100","2","","",""
"","psychophysics","203","1226371","0.0-203.0","58ed7f5aac62dc00019366a9","64e50e31f4dee89722ba50f0","","","","","2085",""," ","key"," ","16.665032258065747","500","250","instPz4","63","30","100","2","","",""
"","psychophysics","204","1227168","0.0-204.0","58ed7f5aac62dc00019366a9","64e50e31f4dee89722ba50f0","","","","","795",""," ","key"," ","16.661957446807758","500","250","inst","","","","","","",""
"","psychophysics","205","1231159","0.0-205.0","58ed7f5aac62dc00019366a9","64e50e31f4dee89722ba50f0","","","","","3989",""," ","key"," ","16.664575630252077","500","250","pz","23","58","29","2","1","",""
"","psychophysics","206","1232960","0.0-206.0","58ed7f5aac62dc00019366a9","64e50e31f4dee89722ba50f0","","","","","1794",""," ","key"," ","16.66853271028088","500","250","pz","28","51","34","2","1","",""
"","psychophysics","207","1234667","0.0-207.0","58ed7f5aac62dc00019366a9","64e50e31f4dee89722ba50f0","","","","","1703",""," ","key"," ","16.668784313725638","500","250","pz","29","31","56","2","1","",""
"","psychophysics","208","1236382","0.0-208.0","58ed7f5aac62dc00019366a9","64e50e31f4dee89722ba50f0","","","","","1712",""," ","key"," ","16.665980392158506","500","250","pz","24","44","26","2","1","",""
"","psychophysics","209","1238652","0.0-209.0","58ed7f5aac62dc00019366a9","64e50e31f4dee89722ba50f0","","","","","2268",""," ","key"," ","16.663044444444004","500","250","pz","25","29","34","2","1","",""
"","psychophysics","210","1240589","0.0-210.0","58ed7f5aac62dc00019366a9","64e50e31f4dee89722ba50f0","","","","","1934",""," ","key"," ","16.66402608695764","500","250","pz","26","53","50","2","1","",""
"","psychophysics","211","1242319","0.0-211.0","58ed7f5aac62dc00019366a9","64e50e31f4dee89722ba50f0","","","","","1728",""," ","key"," ","16.668417475728805","500","250","pz","34","57","58","2","1","",""
"","psychophysics","212","1243941","0.0-212.0","58ed7f5aac62dc00019366a9","64e50e31f4dee89722ba50f0","","","","","1620",""," ","key"," ","16.667572916667268","500","250","pz","32","52","45","2","1","",""
"","psychophysics","213","1245404","0.0-213.0","58ed7f5aac62dc00019366a9","64e50e31f4dee89722ba50f0","","","","","1462",""," ","key"," ","16.663689655174192","500","250","pz","21","36","31","2","1","",""
"","psychophysics","214","1246998","0.0-214.0","58ed7f5aac62dc00019366a9","64e50e31f4dee89722ba50f0","","","","","1591",""," ","key"," ","16.662873684210506","500","250","pz","19","21","21","2","1","",""
"","psychophysics","215","1251017","0.0-215.0","58ed7f5aac62dc00019366a9","64e50e31f4dee89722ba50f0","","","","","4017",""," ","key"," ","16.664954166666334","500","250","pz","31","60","39","2","1","",""
"","psychophysics","216","1252998","0.0-216.0","58ed7f5aac62dc00019366a9","64e50e31f4dee89722ba50f0","","","","","1978",""," ","key"," ","16.66605932203366","500","250","pz","32","26","49","2","1","",""
"","psychophysics","217","1253894","0.0-217.0","58ed7f5aac62dc00019366a9","64e50e31f4dee89722ba50f0","","","","","893",""," ","key"," ","16.663730769230124","500","250","pz","35","35","50","2","1","",""
"","psychophysics","218","1256016","0.0-218.0","58ed7f5aac62dc00019366a9","64e50e31f4dee89722ba50f0","","","","","2118",""," ","key"," ","16.66821259842621","500","250","pz","30","57","47","2","1","",""
"","psychophysics","219","1256987","0.0-219.0","58ed7f5aac62dc00019366a9","64e50e31f4dee89722ba50f0","","","","","969",""," ","key"," ","16.665491228069488","500","250","pz","26","26","33","2","1","",""
