"success","trial_type","trial_index","time_elapsed","internal_node_id","pid","sid","timeout","failed_images","failed_audio","failed_video","rt","stimulus","response","response_type","key_press","avg_frame_time","center_x","center_y","task","resp","version","block","start","jitterX","jitterY","parA"
"true","fullscreen","0","4143","0.0-0.0","60fcfde8842d3a8a5a139726","64e50a12f27b5d9da04d88a7","","","","","","","","","","","","","","","","","","","",""
"true","preload","1","4292","0.0-1.0","60fcfde8842d3a8a5a139726","64e50a12f27b5d9da04d88a7","false","[]","[]","[]","","","","","","","","","","","","","","","",""
"","html-button-response","2","7845","0.0-2.0","60fcfde8842d3a8a5a139726","64e50a12f27b5d9da04d88a7","","","","","3545","Please Make Sure Your Audio Is On.","0","","","","","","","","","","","","",""
"","psychophysics","3","14924","0.0-3.0","60fcfde8842d3a8a5a139726","64e50a12f27b5d9da04d88a7","","","","","7034",""," ","key"," ","16.833038095238095","758.3333534223067","249.44445105246572","","","","","","","",""
"","psychophysics","4","24032","0.0-4.0","60fcfde8842d3a8a5a139726","64e50a12f27b5d9da04d88a7","","","","","9089",""," ","key"," ","16.735662983425414","499.4444576752042","249.44445105246572","inst","","","","","","",""
"","psychophysics","5","27208","0.0-5.0","60fcfde8842d3a8a5a139726","64e50a12f27b5d9da04d88a7","","","","","3160",""," ","key"," ","16.674168421052634","499.4444576752042","249.44445105246572","sample0","","","","","","",""
"","psychophysics","6","29658","0.0-6.0","60fcfde8842d3a8a5a139726","64e50a12f27b5d9da04d88a7","","","","","2444",""," ","key"," ","16.674191780821896","499.4444576752042","249.44445105246572","sample1","","","","","","",""
"","psychophysics","7","40842","0.0-7.0","60fcfde8842d3a8a5a139726","64e50a12f27b5d9da04d88a7","","","","","11178",""," ","key"," ","16.674230194319875","499.4444576752042","249.44445105246572","sample2","110","","","","","",""
"","psychophysics","8","45917","0.0-8.0","60fcfde8842d3a8a5a139726","64e50a12f27b5d9da04d88a7","","","","","5068",""," ","key"," ","16.674270627062693","499.4444576752042","249.44445105246572","sample3","94","","","","","",""
"","psychophysics","9","49964","0.0-9.0","60fcfde8842d3a8a5a139726","64e50a12f27b5d9da04d88a7","","","","","4038",""," ","key"," ","16.67424066390041","499.4444576752042","249.44445105246572","sample4","96","","","","","",""
"","psychophysics","10","55216","0.0-10.0","60fcfde8842d3a8a5a139726","64e50a12f27b5d9da04d88a7","","","","","5237",""," ","key"," ","16.674226114649688","499.4444576752042","249.44445105246572","sample5","","","","","","",""
"","psychophysics","11","63647","0.0-11.0","60fcfde8842d3a8a5a139726","64e50a12f27b5d9da04d88a7","","","","","8420",""," ","key"," ","16.70732142857144","499.4444576752042","249.44445105246572","sample6","500","","","","","",""
"","psychophysics","12","69266","0.0-12.0","60fcfde8842d3a8a5a139726","64e50a12f27b5d9da04d88a7","","","","","5605",""," ","key"," ","16.674247023809542","499.4444576752042","249.44445105246572","inst","","","","","","",""
"","psychophysics","13","75776","0.0-13.0","60fcfde8842d3a8a5a139726","64e50a12f27b5d9da04d88a7","","","","","6495",""," ","key"," ","16.67423136246786","499.4444576752042","249.44445105246572","inst","","","","","","",""
"","psychophysics","14","83321","0.0-14.0","60fcfde8842d3a8a5a139726","64e50a12f27b5d9da04d88a7","","","","","7533",""," ","key"," ","16.674201327433632","499.4444576752042","249.44445105246572","inst","","","","","","",""
"","psychophysics","15","86385","0.0-15.0","60fcfde8842d3a8a5a139726","64e50a12f27b5d9da04d88a7","","","","","3059",""," ","key"," ","16.674224043715856","499.4444576752042","249.44445105246572","inst","","","","","","",""
"","psychophysics","16","89754","0.0-16.0","60fcfde8842d3a8a5a139726","64e50a12f27b5d9da04d88a7","","","","","3365",""," ","key"," ","16.674243781094532","499.4444576752042","249.44445105246572","inst","","","","","","",""
"","psychophysics","17","94223","0.0-17.0","60fcfde8842d3a8a5a139726","64e50a12f27b5d9da04d88a7","","","","","4463",""," ","key"," ","16.67427443609024","499.4444576752042","249.44445105246572","instEB0","40","2","","40","0","0","40"
"","psychophysics","18","100225","0.0-18.0","60fcfde8842d3a8a5a139726","64e50a12f27b5d9da04d88a7","","","","","5998",""," ","key"," ","16.72082681564249","499.4444576752042","249.44445105246572","instEB1","42","2","","30","0","0","40"
"","psychophysics","19","104627","0.0-19.0","60fcfde8842d3a8a5a139726","64e50a12f27b5d9da04d88a7","","","","","4396",""," ","key"," ","16.674197718631174","499.4444576752042","249.44445105246572","instEB2","33","2","","40","0","0","30"
"","psychophysics","20","110866","0.0-20.0","60fcfde8842d3a8a5a139726","64e50a12f27b5d9da04d88a7","","","","","6232",""," ","key"," ","16.674243967828424","499.4444576752042","249.44445105246572","instEB3","39","2","","45","0","0","27"
"","psychophysics","21","116786","0.0-21.0","60fcfde8842d3a8a5a139726","64e50a12f27b5d9da04d88a7","","","","","5914",""," ","key"," ","16.67425141242937","499.4444576752042","249.44445105246572","instEB4","47","2","","30","0","0","40"
"","psychophysics","22","119991","0.0-22.0","60fcfde8842d3a8a5a139726","64e50a12f27b5d9da04d88a7","","","","","3201",""," ","key"," ","16.674157068062804","499.4444576752042","249.44445105246572","inst","","","","","","",""
"","psychophysics","23","123479","0.0-23.0","60fcfde8842d3a8a5a139726","64e50a12f27b5d9da04d88a7","","","","","3459",""," ","key"," ","16.67419711538458","499.4444576752042","249.44445105246572","eb","50","2","","54","0","0","35"
"","psychophysics","24","126743","0.0-24.0","60fcfde8842d3a8a5a139726","64e50a12f27b5d9da04d88a7","","","","","3244",""," ","key"," ","16.674276923076906","499.4444576752042","249.44445105246572","eb","56","2","","45","0","0","54"
"","psychophysics","25","129508","0.0-25.0","60fcfde8842d3a8a5a139726","64e50a12f27b5d9da04d88a7","","","","","2751",""," ","key"," ","16.67426060606059","499.4444576752042","249.44445105246572","eb","56","2","","44","0","0","51"
"","psychophysics","26","132889","0.0-26.0","60fcfde8842d3a8a5a139726","64e50a12f27b5d9da04d88a7","","","","","3368",""," ","key"," ","16.674272277227622","499.4444576752042","249.44445105246572","eb","30","2","","38","0","0","25"
"","psychophysics","27","134160","0.0-27.0","60fcfde8842d3a8a5a139726","64e50a12f27b5d9da04d88a7","","","","","1263",""," ","key"," ","16.67417333333326","499.4444576752042","249.44445105246572","eb","43","2","","43","0","0","31"
"","psychophysics","28","137859","0.0-28.0","60fcfde8842d3a8a5a139726","64e50a12f27b5d9da04d88a7","","","","","3683",""," ","key"," ","16.67426696832582","499.4444576752042","249.44445105246572","eb","54","2","","36","0","0","50"
"","psychophysics","29","141428","0.0-29.0","60fcfde8842d3a8a5a139726","64e50a12f27b5d9da04d88a7","","","","","3562",""," ","key"," ","16.674295774647888","499.4444576752042","249.44445105246572","eb","55","2","","37","0","0","51"
"","psychophysics","30","144967","0.0-30.0","60fcfde8842d3a8a5a139726","64e50a12f27b5d9da04d88a7","","","","","3523",""," ","key"," ","16.67426066350711","499.4444576752042","249.44445105246572","eb","61","2","","31","0","0","53"
"","psychophysics","31","146403","0.0-31.0","60fcfde8842d3a8a5a139726","64e50a12f27b5d9da04d88a7","","","","","1419",""," ","key"," ","16.674376470588406","499.4444576752042","249.44445105246572","eb","48","2","","50","0","0","39"
"","psychophysics","32","149233","0.0-32.0","60fcfde8842d3a8a5a139726","64e50a12f27b5d9da04d88a7","","","","","2815",""," ","key"," ","16.674266272189183","499.4444576752042","249.44445105246572","eb","62","2","","31","0","0","53"
"","psychophysics","33","151006","0.0-33.0","60fcfde8842d3a8a5a139726","64e50a12f27b5d9da04d88a7","","","","","1767",""," ","key"," ","16.674123809524048","499.4444576752042","249.44445105246572","eb","32","2","","45","0","0","26"
"","psychophysics","34","152804","0.0-34.0","60fcfde8842d3a8a5a139726","64e50a12f27b5d9da04d88a7","","","","","1779",""," ","key"," ","16.674271028037357","499.4444576752042","249.44445105246572","eb","32","2","","32","0","0","26"
"","psychophysics","35","156051","0.0-35.0","60fcfde8842d3a8a5a139726","64e50a12f27b5d9da04d88a7","","","","","3230",""," ","key"," ","16.674252577319553","499.4444576752042","249.44445105246572","eb","68","2","","31","0","0","46"
"","psychophysics","36","162906","0.0-36.0","60fcfde8842d3a8a5a139726","64e50a12f27b5d9da04d88a7","","","","","6840",""," ","key"," ","16.674263414634154","499.4444576752042","249.44445105246572","eb","57","2","","35","0","0","48"
"","psychophysics","37","164895","0.0-37.0","60fcfde8842d3a8a5a139726","64e50a12f27b5d9da04d88a7","","","","","1975",""," ","key"," ","16.674279661016968","499.4444576752042","249.44445105246572","eb","35","2","","41","0","0","25"
"","psychophysics","38","173477","0.0-38.0","60fcfde8842d3a8a5a139726","64e50a12f27b5d9da04d88a7","","","","","8571",""," ","key"," ","16.674249027237323","499.4444576752042","249.44445105246572","inst","","","","","","",""
"","psychophysics","39","176096","0.0-39.0","60fcfde8842d3a8a5a139726","64e50a12f27b5d9da04d88a7","","","","","2613",""," ","key"," ","16.674230769230725","499.4444576752042","249.44445105246572","instZol0","0","","","0","0","0",""
"","psychophysics","40","186889","0.0-40.0","60fcfde8842d3a8a5a139726","64e50a12f27b5d9da04d88a7","","","","","10781",""," ","key"," ","16.67425386996904","499.4444576752042","249.44445105246572","instZol1","0.5999999999999998","","","-1.3","0","0",""
"","psychophysics","41","192065","0.0-41.0","60fcfde8842d3a8a5a139726","64e50a12f27b5d9da04d88a7","","","","","5139",""," ","key"," ","16.728197411003258","499.4444576752042","249.44445105246572","instZol2","0.4000000000000007","1","","2","0","0",""
"","psychophysics","42","193404","0.0-42.0","60fcfde8842d3a8a5a139726","64e50a12f27b5d9da04d88a7","","","","","1334",""," ","key"," ","16.674202531645417","499.4444576752042","249.44445105246572","inst","","","","","","",""
"","psychophysics","43","201422","0.0-43.0","60fcfde8842d3a8a5a139726","64e50a12f27b5d9da04d88a7","","","","","null","","null","key","null","16.674243749999974","499.4444576752042","249.44445105246572","zol","1.05","1","0","0.25","15","-29",""
"","psychophysics","44","205111","0.0-44.0","60fcfde8842d3a8a5a139726","64e50a12f27b5d9da04d88a7","","","","","3672",""," ","key"," ","16.674222727272717","499.4444576752042","249.44445105246572","zol","0.49","1","0","-0.59","15","18",""
"","psychophysics","45","208462","0.0-45.0","60fcfde8842d3a8a5a139726","64e50a12f27b5d9da04d88a7","","","","","3324",""," ","key"," ","16.67425000000003","499.4444576752042","249.44445105246572","zol","-0.06000000000000022","1","0","0.46","20","-10",""
"","psychophysics","46","210261","0.0-46.0","60fcfde8842d3a8a5a139726","64e50a12f27b5d9da04d88a7","","","","","1781",""," ","key"," ","16.674392523364517","499.4444576752042","249.44445105246572","zol","0.7599999999999999","1","0","0.24","-4","-7",""
"","psychophysics","47","212009","0.0-47.0","60fcfde8842d3a8a5a139726","64e50a12f27b5d9da04d88a7","","","","","1735",""," ","key"," ","16.674182692307603","499.4444576752042","249.44445105246572","zol","-1.8700000000000008","1","0","0.67","21","16",""
"","psychophysics","48","214512","0.0-48.0","60fcfde8842d3a8a5a139726","64e50a12f27b5d9da04d88a7","","","","","2486",""," ","key"," ","16.674268456375742","499.4444576752042","249.44445105246572","zol","0.64","1","0","0.26","29","-22",""
"","psychophysics","49","219476","0.0-49.0","60fcfde8842d3a8a5a139726","64e50a12f27b5d9da04d88a7","","","","","4947",""," ","key"," ","16.67420945945943","499.4444576752042","249.44445105246572","zol","1.0399999999999998","1","0","-0.44","20","5",""
"","psychophysics","50","223347","0.0-50.0","60fcfde8842d3a8a5a139726","64e50a12f27b5d9da04d88a7","","","","","3854",""," ","key"," ","16.674232758620654","499.4444576752042","249.44445105246572","zol","0.8799999999999999","1","0","-0.48","-14","3",""
"","psychophysics","51","224905","0.0-51.0","60fcfde8842d3a8a5a139726","64e50a12f27b5d9da04d88a7","","","","","1534",""," ","key"," ","16.67424999999987","499.4444576752042","249.44445105246572","zol","0.8999999999999999","1","0","-0.2","22","9",""
"","psychophysics","52","229951","0.0-52.0","60fcfde8842d3a8a5a139726","64e50a12f27b5d9da04d88a7","","","","","5030",""," ","key"," ","16.674225165562945","499.4444576752042","249.44445105246572","zol","-0.14999999999999997","1","0","-0.25","14","29",""
"","psychophysics","53","235175","0.0-53.0","60fcfde8842d3a8a5a139726","64e50a12f27b5d9da04d88a7","","","","","5208",""," ","key"," ","16.674201923076907","499.4444576752042","249.44445105246572","zol","1.4300000000000004","1","0","-0.03","16","21",""
"","psychophysics","54","237110","0.0-54.0","60fcfde8842d3a8a5a139726","64e50a12f27b5d9da04d88a7","","","","","1920",""," ","key"," ","16.674234782608792","499.4444576752042","249.44445105246572","zol","1.01","1","0","0.39","-13","-3",""
"","psychophysics","55","241013","0.0-55.0","60fcfde8842d3a8a5a139726","64e50a12f27b5d9da04d88a7","","","","","3888",""," ","key"," ","16.67423175965661","499.4444576752042","249.44445105246572","zol","0.6599999999999999","1","0","0.14","-7","0",""
"","psychophysics","56","244180","0.0-56.0","60fcfde8842d3a8a5a139726","64e50a12f27b5d9da04d88a7","","","","","3151",""," ","key"," ","16.67429100529096","499.4444576752042","249.44445105246572","zol","0.7699999999999999","1","0","-0.27","4","21",""
"","psychophysics","57","249036","0.0-57.0","60fcfde8842d3a8a5a139726","64e50a12f27b5d9da04d88a7","","","","","4840",""," ","key"," ","16.674231034482766","499.4444576752042","249.44445105246572","zol","1.2","1","0","-0.1","16","17",""
"","psychophysics","58","250692","0.0-58.0","60fcfde8842d3a8a5a139726","64e50a12f27b5d9da04d88a7","","","","","1646",""," ","key"," ","16.674292929292978","499.4444576752042","249.44445105246572","inst","","","","","","",""
"","psychophysics","59","253114","0.0-59.0","60fcfde8842d3a8a5a139726","64e50a12f27b5d9da04d88a7","","","","","2416",""," ","key"," ","16.674256944444398","499.4444576752042","249.44445105246572","instBr0","0","","","0","0","0","300"
"","psychophysics","60","255745","0.0-60.0","60fcfde8842d3a8a5a139726","64e50a12f27b5d9da04d88a7","","","","","2611",""," ","key"," ","16.67429936305745","499.4444576752042","249.44445105246572","instBr1","-40","","","-40","0","0","300"
"","psychophysics","61","261298","0.0-61.0","60fcfde8842d3a8a5a139726","64e50a12f27b5d9da04d88a7","","","","","5547",""," ","key"," ","16.67422289156619","499.4444576752042","249.44445105246572","instBr3","-18","1","","40","0","0","300"
"","psychophysics","62","265211","0.0-62.0","60fcfde8842d3a8a5a139726","64e50a12f27b5d9da04d88a7","","","","","3908",""," ","key"," ","16.67417596566542","499.4444576752042","249.44445105246572","inst","","","","","","",""
"","psychophysics","63","267350","0.0-63.0","60fcfde8842d3a8a5a139726","64e50a12f27b5d9da04d88a7","","","","","2125",""," ","key"," ","16.67435156249985","499.4444576752042","249.44445105246572","br","-20","1","0","-5","-20","-27","226"
"","psychophysics","64","269450","0.0-64.0","60fcfde8842d3a8a5a139726","64e50a12f27b5d9da04d88a7","","","","","2091",""," ","key"," ","16.67419200000027","499.4444576752042","249.44445105246572","br","-22","1","0","-1","23","-16","237"
"","psychophysics","65","271734","0.0-65.0","60fcfde8842d3a8a5a139726","64e50a12f27b5d9da04d88a7","","","","","2277",""," ","key"," ","16.674272058823536","499.4444576752042","249.44445105246572","br","-21","1","0","-27","30","-17","223"
"","psychophysics","66","274101","0.0-66.0","60fcfde8842d3a8a5a139726","64e50a12f27b5d9da04d88a7","","","","","2361",""," ","key"," ","16.67424822695048","499.4444576752042","249.44445105246572","br","-19","1","0","7","30","20","274"
"","psychophysics","67","276421","0.0-67.0","60fcfde8842d3a8a5a139726","64e50a12f27b5d9da04d88a7","","","","","2313",""," ","key"," ","16.67424637681182","499.4444576752042","249.44445105246572","br","-16","1","0","-2","-13","-11","202"
"","psychophysics","68","278501","0.0-68.0","60fcfde8842d3a8a5a139726","64e50a12f27b5d9da04d88a7","","","","","2072",""," ","key"," ","16.674266129032233","499.4444576752042","249.44445105246572","br","-19","1","0","2","-19","-12","245"
"","psychophysics","69","279571","0.0-69.0","60fcfde8842d3a8a5a139726","64e50a12f27b5d9da04d88a7","","","","","1064",""," ","key"," ","16.674063492062803","499.4444576752042","249.44445105246572","br","-32","1","0","-30","-29","23","283"
"","psychophysics","70","282351","0.0-70.0","60fcfde8842d3a8a5a139726","64e50a12f27b5d9da04d88a7","","","","","2772",""," ","key"," ","16.67410909090911","499.4444576752042","249.44445105246572","br","-12","1","0","24","1","17","271"
"","psychophysics","71","283683","0.0-71.0","60fcfde8842d3a8a5a139726","64e50a12f27b5d9da04d88a7","","","","","1320",""," ","key"," ","16.67427848101243","499.4444576752042","249.44445105246572","br","-26","1","0","-29","-3","-2","206"
"","psychophysics","72","287248","0.0-72.0","60fcfde8842d3a8a5a139726","64e50a12f27b5d9da04d88a7","","","","","3553",""," ","key"," ","16.674234741784144","499.4444576752042","249.44445105246572","br","-28","1","0","-1","-7","-20","225"
"","psychophysics","73","287819","0.0-73.0","60fcfde8842d3a8a5a139726","64e50a12f27b5d9da04d88a7","","","","","560",""," ","key"," ","16.674545454545736","499.4444576752042","249.44445105246572","br","-25","1","0","-25","-1","-30","292"
"","psychophysics","74","291241","0.0-74.0","60fcfde8842d3a8a5a139726","64e50a12f27b5d9da04d88a7","","","","","3410",""," ","key"," ","16.67424390243889","499.4444576752042","249.44445105246572","br","-17","1","0","28","-14","4","281"
"","psychophysics","75","294624","0.0-75.0","60fcfde8842d3a8a5a139726","64e50a12f27b5d9da04d88a7","","","","","3362",""," ","key"," ","16.674203980099573","499.4444576752042","249.44445105246572","br","-13","1","0","18","-14","-8","250"
"","psychophysics","76","297830","0.0-76.0","60fcfde8842d3a8a5a139726","64e50a12f27b5d9da04d88a7","","","","","3194",""," ","key"," ","16.674229166666617","499.4444576752042","249.44445105246572","br","-23","1","0","-10","6","-29","205"
"","psychophysics","77","300743","0.0-77.0","60fcfde8842d3a8a5a139726","64e50a12f27b5d9da04d88a7","","","","","2906",""," ","key"," ","16.674213872832176","499.4444576752042","249.44445105246572","br","-23","1","0","-12","-21","-2","241"
"","psychophysics","78","301818","0.0-78.0","60fcfde8842d3a8a5a139726","64e50a12f27b5d9da04d88a7","","","","","1063",""," ","key"," ","16.673968750000313","499.4444576752042","249.44445105246572","inst","","","","","","",""
"","psychophysics","79","303418","0.0-79.0","60fcfde8842d3a8a5a139726","64e50a12f27b5d9da04d88a7","","","","","1596",""," ","key"," ","16.674221052631342","499.4444576752042","249.44445105246572","instPzPre","50","0","","50","","","50"
"","psychophysics","80","305353","0.0-80.0","60fcfde8842d3a8a5a139726","64e50a12f27b5d9da04d88a7","","","","","1929",""," ","key"," ","16.67422608695671","499.4444576752042","249.44445105246572","instPz0","49","1","","50","","","50"
"","psychophysics","81","314821","0.0-81.0","60fcfde8842d3a8a5a139726","64e50a12f27b5d9da04d88a7","","","","","9463",""," ","key"," ","16.67424162257493","499.4444576752042","249.44445105246572","instPz1","63","1","","25","","","50"
"","psychophysics","82","316641","0.0-82.0","60fcfde8842d3a8a5a139726","64e50a12f27b5d9da04d88a7","","","","","1814",""," ","key"," ","16.674324074073983","499.4444576752042","249.44445105246572","instPz2","28","1","","35","","","20"
"","psychophysics","83","324291","0.0-83.0","60fcfde8842d3a8a5a139726","64e50a12f27b5d9da04d88a7","","","","","7633",""," ","key"," ","16.6742096069869","499.4444576752042","249.44445105246572","instPz3","87","1","","100","","","30"
"","psychophysics","84","329435","0.0-84.0","60fcfde8842d3a8a5a139726","64e50a12f27b5d9da04d88a7","","","","","5137",""," ","key"," ","16.674221498371445","499.4444576752042","249.44445105246572","instPz4","72","1","","100","","","30"
"","psychophysics","85","330781","0.0-85.0","60fcfde8842d3a8a5a139726","64e50a12f27b5d9da04d88a7","","","","","1335",""," ","key"," ","16.6742250000003","499.4444576752042","249.44445105246572","inst","","","","","","",""
"","psychophysics","86","333321","0.0-86.0","60fcfde8842d3a8a5a139726","64e50a12f27b5d9da04d88a7","","","","","2528",""," ","key"," ","16.674245033112495","499.4444576752042","249.44445105246572","pz","57","1","0","37","","","28"
"","psychophysics","87","336015","0.0-87.0","60fcfde8842d3a8a5a139726","64e50a12f27b5d9da04d88a7","","","","","2680",""," ","key"," ","16.67427950310564","499.4444576752042","249.44445105246572","pz","56","1","0","25","","","37"
"","psychophysics","88","337616","0.0-88.0","60fcfde8842d3a8a5a139726","64e50a12f27b5d9da04d88a7","","","","","1594",""," ","key"," ","16.67431578947366","499.4444576752042","249.44445105246572","pz","38","1","0","24","","","26"
"","psychophysics","89","340175","0.0-89.0","60fcfde8842d3a8a5a139726","64e50a12f27b5d9da04d88a7","","","","","2552",""," ","key"," ","16.674171052631497","499.4444576752042","249.44445105246572","pz","61","1","0","48","","","42"
"","psychophysics","90","342993","0.0-90.0","60fcfde8842d3a8a5a139726","64e50a12f27b5d9da04d88a7","","","","","2805",""," ","key"," ","16.674291666666424","499.4444576752042","249.44445105246572","pz","31","1","0","56","","","20"
"","psychophysics","91","345583","0.0-91.0","60fcfde8842d3a8a5a139726","64e50a12f27b5d9da04d88a7","","","","","2577",""," ","key"," ","16.674258064516188","499.4444576752042","249.44445105246572","pz","61","1","0","37","","","33"
"","psychophysics","92","348788","0.0-92.0","60fcfde8842d3a8a5a139726","64e50a12f27b5d9da04d88a7","","","","","3192",""," ","key"," ","16.67423560209414","499.4444576752042","249.44445105246572","pz","53","1","0","21","","","32"
"","psychophysics","93","351372","0.0-93.0","60fcfde8842d3a8a5a139726","64e50a12f27b5d9da04d88a7","","","","","2578",""," ","key"," ","16.674240259740156","499.4444576752042","249.44445105246572","pz","52","1","0","21","","","35"
"","psychophysics","94","352875","0.0-94.0","60fcfde8842d3a8a5a139726","64e50a12f27b5d9da04d88a7","","","","","1495",""," ","key"," ","16.67422471910171","499.4444576752042","249.44445105246572","pz","51","1","0","43","","","36"
"","psychophysics","95","354592","0.0-95.0","60fcfde8842d3a8a5a139726","64e50a12f27b5d9da04d88a7","","","","","1711",""," ","key"," ","16.674254901961117","499.4444576752042","249.44445105246572","pz","60","1","0","47","","","38"
"","psychophysics","96","358927","0.0-96.0","60fcfde8842d3a8a5a139726","64e50a12f27b5d9da04d88a7","","","","","4328",""," ","key"," ","16.674239382239485","499.4444576752042","249.44445105246572","pz","103","1","0","40","","","60"
"","psychophysics","97","363458","0.0-97.0","60fcfde8842d3a8a5a139726","64e50a12f27b5d9da04d88a7","","","","","4519",""," ","key"," ","16.674243542435537","499.4444576752042","249.44445105246572","pz","98","1","0","31","","","58"
"","psychophysics","98","365898","0.0-98.0","60fcfde8842d3a8a5a139726","64e50a12f27b5d9da04d88a7","","","","","2433",""," ","key"," ","16.67423448275839","499.4444576752042","249.44445105246572","pz","49","1","0","23","","","48"
"","psychophysics","99","367817","0.0-99.0","60fcfde8842d3a8a5a139726","64e50a12f27b5d9da04d88a7","","","","","1913",""," ","key"," ","16.674140350877312","499.4444576752042","249.44445105246572","pz","51","1","0","30","","","34"
"","psychophysics","100","369370","0.0-100.0","60fcfde8842d3a8a5a139726","64e50a12f27b5d9da04d88a7","","","","","1542",""," ","key"," ","16.674293478261223","499.4444576752042","249.44445105246572","pz","52","1","0","48","","","30"
"","psychophysics","101","434250","0.0-101.0","60fcfde8842d3a8a5a139726","64e50a12f27b5d9da04d88a7","","","","","64871",""," ","key"," ","16.674231105398448","499.4444576752042","249.44445105246572","inst","","","","","","",""
"","psychophysics","102","439545","0.0-102.0","60fcfde8842d3a8a5a139726","64e50a12f27b5d9da04d88a7","","","","","5284",""," ","key"," ","16.67428075709771","499.4444576752042","249.44445105246572","instPog0","160","1","","190","0","0","160"
"","psychophysics","103","450690","0.0-103.0","60fcfde8842d3a8a5a139726","64e50a12f27b5d9da04d88a7","","","","","11140",""," ","key"," ","16.67423088455772","499.4444576752042","249.44445105246572","instPog1","190","1","","190","0","0","160"
"","psychophysics","104","453372","0.0-104.0","60fcfde8842d3a8a5a139726","64e50a12f27b5d9da04d88a7","","","","","2669",""," ","key"," ","16.674156249999943","499.4444576752042","249.44445105246572","instPog2","208","1","","160","0","0","160"
"","psychophysics","105","454226","0.0-105.0","60fcfde8842d3a8a5a139726","64e50a12f27b5d9da04d88a7","","","","","849",""," ","key"," ","16.67423999999999","499.4444576752042","249.44445105246572","inst","","","","","","",""
"","psychophysics","106","458917","0.0-106.0","60fcfde8842d3a8a5a139726","64e50a12f27b5d9da04d88a7","","","","","4678",""," ","key"," ","16.674245551601384","499.4444576752042","249.44445105246572","pog","198","1","0","112","0","0","149"
"","psychophysics","107","460945","0.0-107.0","60fcfde8842d3a8a5a139726","64e50a12f27b5d9da04d88a7","","","","","2022",""," ","key"," ","16.674141666666642","499.4444576752042","249.44445105246572","pog","218","1","0","182","0","0","174"
"","psychophysics","108","464235","0.0-108.0","60fcfde8842d3a8a5a139726","64e50a12f27b5d9da04d88a7","","","","","3275",""," ","key"," ","16.674290816326344","499.4444576752042","249.44445105246572","pog","208","1","0","122","0","0","158"
"","psychophysics","109","469824","0.0-109.0","60fcfde8842d3a8a5a139726","64e50a12f27b5d9da04d88a7","","","","","5577",""," ","key"," ","16.674223880596987","499.4444576752042","249.44445105246572","pog","219","1","0","129","0","0","180"
"","psychophysics","110","473532","0.0-110.0","60fcfde8842d3a8a5a139726","64e50a12f27b5d9da04d88a7","","","","","3699",""," ","key"," ","16.67425791855203","499.4444576752042","249.44445105246572","pog","215","1","0","133","0","0","148"
"","psychophysics","111","476593","0.0-111.0","60fcfde8842d3a8a5a139726","64e50a12f27b5d9da04d88a7","","","","","3051",""," ","key"," ","16.674224043716016","499.4444576752042","249.44445105246572","pog","224","1","0","188","0","0","147"
"","psychophysics","112","484601","0.0-112.0","60fcfde8842d3a8a5a139726","64e50a12f27b5d9da04d88a7","","","","","null","","null","key","null","16.674219206680586","499.4444576752042","249.44445105246572","pog","174","1","0","122","0","0","122"
"","psychophysics","113","484666","0.0-113.0","60fcfde8842d3a8a5a139726","64e50a12f27b5d9da04d88a7","","","","","60",""," ","key"," ","16.670333333332866","499.4444576752042","249.44445105246572","pog","102","1","0","102","0","0","193"
"","psychophysics","114","487753","0.0-114.0","60fcfde8842d3a8a5a139726","64e50a12f27b5d9da04d88a7","","","","","3081",""," ","key"," ","16.67422826086967","499.4444576752042","249.44445105246572","pog","164","1","0","104","0","0","139"
"","psychophysics","115","491943","0.0-115.0","60fcfde8842d3a8a5a139726","64e50a12f27b5d9da04d88a7","","","","","4180",""," ","key"," ","16.674263999999965","499.4444576752042","249.44445105246572","pog","257","1","0","161","0","0","191"
"","psychophysics","116","494354","0.0-116.0","60fcfde8842d3a8a5a139726","64e50a12f27b5d9da04d88a7","","","","","2396",""," ","key"," ","16.67435416666679","499.4444576752042","249.44445105246572","pog","166","1","0","142","0","0","123"
"","psychophysics","117","496185","0.0-117.0","60fcfde8842d3a8a5a139726","64e50a12f27b5d9da04d88a7","","","","","1825",""," ","key"," ","16.674229357798517","499.4444576752042","249.44445105246572","pog","200","1","0","214","0","0","138"
"","psychophysics","118","500420","0.0-118.0","60fcfde8842d3a8a5a139726","64e50a12f27b5d9da04d88a7","","","","","4229",""," ","key"," ","16.67423320158105","499.4444576752042","249.44445105246572","pog","230","1","0","128","0","0","170"
"","psychophysics","119","504871","0.0-119.0","60fcfde8842d3a8a5a139726","64e50a12f27b5d9da04d88a7","","","","","4444",""," ","key"," ","16.674255639097577","499.4444576752042","249.44445105246572","pog","246","1","0","138","0","0","187"
"","psychophysics","120","506275","0.0-120.0","60fcfde8842d3a8a5a139726","64e50a12f27b5d9da04d88a7","","","","","1397",""," ","key"," ","16.674289156626685","499.4444576752042","249.44445105246572","pog","180","1","0","184","0","0","131"
"","psychophysics","121","523865","0.0-121.0","60fcfde8842d3a8a5a139726","64e50a12f27b5d9da04d88a7","","","","","17585",""," ","key"," ","16.674230550284598","499.4444576752042","249.44445105246572","inst","","","","","","",""
"","psychophysics","122","529446","0.0-122.0","60fcfde8842d3a8a5a139726","64e50a12f27b5d9da04d88a7","","","","","5574",""," ","key"," ","16.674201201201438","499.4444576752042","249.44445105246572","instEB1","34","1","","40","0","0","30"
"","psychophysics","123","531530","0.0-123.0","60fcfde8842d3a8a5a139726","64e50a12f27b5d9da04d88a7","","","","","2069",""," ","key"," ","16.674258064516188","499.4444576752042","249.44445105246572","instEB2","35","1","","30","0","0","40"
"","psychophysics","124","533490","0.0-124.0","60fcfde8842d3a8a5a139726","64e50a12f27b5d9da04d88a7","","","","","1948",""," ","key"," ","16.674290598290536","499.4444576752042","249.44445105246572","instEB3","33","1","","27","0","0","45"
"","psychophysics","125","536328","0.0-125.0","60fcfde8842d3a8a5a139726","64e50a12f27b5d9da04d88a7","","","","","2824",""," ","key"," ","16.6742485207106","499.4444576752042","249.44445105246572","instEB4","29","1","","40","0","0","30"
"","psychophysics","126","538090","0.0-126.0","60fcfde8842d3a8a5a139726","64e50a12f27b5d9da04d88a7","","","","","1752",""," ","key"," ","16.67427619047618","499.4444576752042","249.44445105246572","inst","","","","","","",""
"","psychophysics","127","540626","0.0-127.0","60fcfde8842d3a8a5a139726","64e50a12f27b5d9da04d88a7","","","","","2527",""," ","key"," ","16.674258278145466","499.4444576752042","249.44445105246572","eb","34","1","","28","0","0","54"
"","psychophysics","128","542633","0.0-128.0","60fcfde8842d3a8a5a139726","64e50a12f27b5d9da04d88a7","","","","","1999",""," ","key"," ","16.674126050420334","499.4444576752042","249.44445105246572","eb","28","1","","28","0","0","36"
"","psychophysics","129","546639","0.0-129.0","60fcfde8842d3a8a5a139726","64e50a12f27b5d9da04d88a7","","","","","3984",""," ","key"," ","16.674184100417943","499.4444576752042","249.44445105246572","eb","26","1","","50","0","0","25"
"","psychophysics","130","547897","0.0-130.0","60fcfde8842d3a8a5a139726","64e50a12f27b5d9da04d88a7","","","","","1236",""," ","key"," ","16.674293333333917","499.4444576752042","249.44445105246572","eb","23","1","","24","0","0","25"
"","psychophysics","131","549699","0.0-131.0","60fcfde8842d3a8a5a139726","64e50a12f27b5d9da04d88a7","","","","","1794",""," ","key"," ","16.67412149532759","499.4444576752042","249.44445105246572","eb","24","1","","33","0","0","31"
"","psychophysics","132","552675","0.0-132.0","60fcfde8842d3a8a5a139726","64e50a12f27b5d9da04d88a7","","","","","2960",""," ","key"," ","16.674214689265593","499.4444576752042","249.44445105246572","eb","29","1","","31","0","0","40"
"","psychophysics","133","553897","0.0-133.0","60fcfde8842d3a8a5a139726","64e50a12f27b5d9da04d88a7","","","","","1206",""," ","key"," ","16.674301369863638","499.4444576752042","249.44445105246572","eb","29","1","","29","0","0","47"
"","psychophysics","134","555669","0.0-134.0","60fcfde8842d3a8a5a139726","64e50a12f27b5d9da04d88a7","","","","","1764",""," ","key"," ","16.674323809523845","499.4444576752042","249.44445105246572","eb","35","1","","32","0","0","50"
"","psychophysics","135","557005","0.0-135.0","60fcfde8842d3a8a5a139726","64e50a12f27b5d9da04d88a7","","","","","1320",""," ","key"," ","16.67431645569704","499.4444576752042","249.44445105246572","eb","38","1","","35","0","0","48"
"","psychophysics","136","558507","0.0-136.0","60fcfde8842d3a8a5a139726","64e50a12f27b5d9da04d88a7","","","","","1487",""," ","key"," ","16.674078651684273","499.4444576752042","249.44445105246572","eb","38","1","","47","0","0","47"
"","psychophysics","137","559587","0.0-137.0","60fcfde8842d3a8a5a139726","64e50a12f27b5d9da04d88a7","","","","","1072",""," ","key"," ","16.67431250000118","499.4444576752042","249.44445105246572","eb","39","1","","41","0","0","40"
"","psychophysics","138","560554","0.0-138.0","60fcfde8842d3a8a5a139726","64e50a12f27b5d9da04d88a7","","","","","954",""," ","key"," ","16.674315789473454","499.4444576752042","249.44445105246572","eb","32","1","","32","0","0","44"
"","psychophysics","139","561839","0.0-139.0","60fcfde8842d3a8a5a139726","64e50a12f27b5d9da04d88a7","","","","","1272",""," ","key"," ","16.674289473684773","499.4444576752042","249.44445105246572","eb","40","1","","42","0","0","45"
"","psychophysics","140","563191","0.0-140.0","60fcfde8842d3a8a5a139726","64e50a12f27b5d9da04d88a7","","","","","1335",""," ","key"," ","16.674237500000164","499.4444576752042","249.44445105246572","eb","44","1","","49","0","0","46"
"","psychophysics","141","564373","0.0-141.0","60fcfde8842d3a8a5a139726","64e50a12f27b5d9da04d88a7","","","","","1167",""," ","key"," ","16.674228571428518","499.4444576752042","249.44445105246572","eb","42","1","","46","0","0","36"
"","psychophysics","142","565557","0.0-142.0","60fcfde8842d3a8a5a139726","64e50a12f27b5d9da04d88a7","","","","","1179",""," ","key"," ","16.674242857143483","499.4444576752042","249.44445105246572","inst","","","","","","",""
"","psychophysics","143","569599","0.0-143.0","60fcfde8842d3a8a5a139726","64e50a12f27b5d9da04d88a7","","","","","4028",""," ","key"," ","16.674257261410965","499.4444576752042","249.44445105246572","instBr3","6","2","","40","0","0","300"
"","psychophysics","144","570819","0.0-144.0","60fcfde8842d3a8a5a139726","64e50a12f27b5d9da04d88a7","","","","","1213",""," ","key"," ","16.67434246575281","499.4444576752042","249.44445105246572","inst","","","","","","",""
"","psychophysics","145","572877","0.0-145.0","60fcfde8842d3a8a5a139726","64e50a12f27b5d9da04d88a7","","","","","2050",""," ","key"," ","16.67430327868864","499.4444576752042","249.44445105246572","br","20","2","1","15","20","-3","230"
"","psychophysics","146","574153","0.0-146.0","60fcfde8842d3a8a5a139726","64e50a12f27b5d9da04d88a7","","","","","1264",""," ","key"," ","16.674434210526094","499.4444576752042","249.44445105246572","br","20","2","1","17","14","-7","286"
"","psychophysics","147","576180","0.0-147.0","60fcfde8842d3a8a5a139726","64e50a12f27b5d9da04d88a7","","","","","2021",""," ","key"," ","16.674191666667078","499.4444576752042","249.44445105246572","br","15","2","1","-2","8","-19","222"
"","psychophysics","148","579773","0.0-148.0","60fcfde8842d3a8a5a139726","64e50a12f27b5d9da04d88a7","","","","","3581",""," ","key"," ","16.674251162790867","499.4444576752042","249.44445105246572","br","12","2","1","-23","-28","3","200"
"","psychophysics","149","583542","0.0-149.0","60fcfde8842d3a8a5a139726","64e50a12f27b5d9da04d88a7","","","","","3759",""," ","key"," ","16.674253333333052","499.4444576752042","249.44445105246572","br","14","2","1","26","-3","9","299"
"","psychophysics","150","586711","0.0-150.0","60fcfde8842d3a8a5a139726","64e50a12f27b5d9da04d88a7","","","","","3161",""," ","key"," ","16.674216931217064","499.4444576752042","249.44445105246572","br","27","2","1","-12","-21","4","235"
"","psychophysics","151","588724","0.0-151.0","60fcfde8842d3a8a5a139726","64e50a12f27b5d9da04d88a7","","","","","2006",""," ","key"," ","16.67429411764738","499.4444576752042","249.44445105246572","br","20","2","1","8","20","5","268"
"","psychophysics","152","590879","0.0-152.0","60fcfde8842d3a8a5a139726","64e50a12f27b5d9da04d88a7","","","","","2142",""," ","key"," ","16.674170542635608","499.4444576752042","249.44445105246572","br","23","2","1","2","25","17","223"
"","psychophysics","153","592511","0.0-153.0","60fcfde8842d3a8a5a139726","64e50a12f27b5d9da04d88a7","","","","","1625",""," ","key"," ","16.67410309278387","499.4444576752042","249.44445105246572","br","24","2","1","8","-26","25","256"
"","psychophysics","154","594564","0.0-154.0","60fcfde8842d3a8a5a139726","64e50a12f27b5d9da04d88a7","","","","","2044",""," ","key"," ","16.674163934426407","499.4444576752042","249.44445105246572","br","11","2","1","-9","-11","-6","272"
"","psychophysics","155","596082","0.0-155.0","60fcfde8842d3a8a5a139726","64e50a12f27b5d9da04d88a7","","","","","1512",""," ","key"," ","16.674288888890036","499.4444576752042","249.44445105246572","br","35","2","1","22","-19","21","206"
"","psychophysics","156","597515","0.0-156.0","60fcfde8842d3a8a5a139726","64e50a12f27b5d9da04d88a7","","","","","1415",""," ","key"," ","16.67428235294133","499.4444576752042","249.44445105246572","br","24","2","1","18","25","12","259"
"","psychophysics","157","598418","0.0-157.0","60fcfde8842d3a8a5a139726","64e50a12f27b5d9da04d88a7","","","","","896",""," ","key"," ","16.67456603773764","499.4444576752042","249.44445105246572","br","22","2","1","21","23","26","294"
"","psychophysics","158","599248","0.0-158.0","60fcfde8842d3a8a5a139726","64e50a12f27b5d9da04d88a7","","","","","823",""," ","key"," ","16.67416326530582","499.4444576752042","249.44445105246572","br","26","2","1","25","14","-25","252"
"","psychophysics","159","603987","0.0-159.0","60fcfde8842d3a8a5a139726","64e50a12f27b5d9da04d88a7","","","","","4733",""," ","key"," ","16.67420494699622","499.4444576752042","249.44445105246572","br","16","2","1","-29","-2","-17","274"
"","psychophysics","160","604974","0.0-160.0","60fcfde8842d3a8a5a139726","64e50a12f27b5d9da04d88a7","","","","","982",""," ","key"," ","16.674431034484236","499.4444576752042","249.44445105246572","inst","","","","","","",""
"","psychophysics","161","609373","0.0-161.0","60fcfde8842d3a8a5a139726","64e50a12f27b5d9da04d88a7","","","","","4394",""," ","key"," ","16.674228136882295","499.4444576752042","249.44445105246572","instPz1","35","2","","25","","","50"
"","psychophysics","162","611372","0.0-162.0","60fcfde8842d3a8a5a139726","64e50a12f27b5d9da04d88a7","","","","","1993",""," ","key"," ","16.674361344537417","499.4444576752042","249.44445105246572","instPz2","25","2","","20","","","35"
"","psychophysics","163","614339","0.0-163.0","60fcfde8842d3a8a5a139726","64e50a12f27b5d9da04d88a7","","","","","2958",""," ","key"," ","16.674214689265593","499.4444576752042","249.44445105246572","instPz3","7","2","","30","","","100"
"","psychophysics","164","617704","0.0-164.0","60fcfde8842d3a8a5a139726","64e50a12f27b5d9da04d88a7","","","","","3357",""," ","key"," ","16.674220000000204","499.4444576752042","249.44445105246572","instPz4","28","2","","30","","","100"
"","psychophysics","165","618678","0.0-165.0","60fcfde8842d3a8a5a139726","64e50a12f27b5d9da04d88a7","","","","","966",""," ","key"," ","16.67437931034385","499.4444576752042","249.44445105246572","inst","","","","","","",""
"","psychophysics","166","621077","0.0-166.0","60fcfde8842d3a8a5a139726","64e50a12f27b5d9da04d88a7","","","","","2385",""," ","key"," ","16.674104895104875","499.4444576752042","249.44445105246572","pz","30","2","1","52","","","37"
"","psychophysics","167","623158","0.0-167.0","60fcfde8842d3a8a5a139726","64e50a12f27b5d9da04d88a7","","","","","2073",""," ","key"," ","16.674146341463754","499.4444576752042","249.44445105246572","pz","26","2","1","29","","","40"
"","psychophysics","168","625196","0.0-168.0","60fcfde8842d3a8a5a139726","64e50a12f27b5d9da04d88a7","","","","","2022",""," ","key"," ","16.674245901638642","499.4444576752042","249.44445105246572","pz","15","2","1","35","","","31"
"","psychophysics","169","626414","0.0-169.0","60fcfde8842d3a8a5a139726","64e50a12f27b5d9da04d88a7","","","","","1212",""," ","key"," ","16.674402777776574","499.4444576752042","249.44445105246572","pz","19","2","1","23","","","27"
"","psychophysics","170","627522","0.0-170.0","60fcfde8842d3a8a5a139726","64e50a12f27b5d9da04d88a7","","","","","1103",""," ","key"," ","16.67418461538529","499.4444576752042","249.44445105246572","pz","31","2","1","32","","","41"
"","psychophysics","171","629823","0.0-171.0","60fcfde8842d3a8a5a139726","64e50a12f27b5d9da04d88a7","","","","","2285",""," ","key"," ","16.674408759124727","499.4444576752042","249.44445105246572","pz","20","2","1","35","","","24"
"","psychophysics","172","632052","0.0-172.0","60fcfde8842d3a8a5a139726","64e50a12f27b5d9da04d88a7","","","","","2217",""," ","key"," ","16.674165413533757","499.4444576752042","249.44445105246572","pz","21","2","1","43","","","24"
"","psychophysics","173","634342","0.0-173.0","60fcfde8842d3a8a5a139726","64e50a12f27b5d9da04d88a7","","","","","2278",""," ","key"," ","16.67425735294134","499.4444576752042","249.44445105246572","pz","22","2","1","49","","","29"
"","psychophysics","174","636352","0.0-174.0","60fcfde8842d3a8a5a139726","64e50a12f27b5d9da04d88a7","","","","","1998",""," ","key"," ","16.67418333333335","499.4444576752042","249.44445105246572","pz","48","2","1","55","","","57"
"","psychophysics","175","638531","0.0-175.0","60fcfde8842d3a8a5a139726","64e50a12f27b5d9da04d88a7","","","","","2172",""," ","key"," ","16.674255813953877","499.4444576752042","249.44445105246572","pz","26","2","1","39","","","38"
"","psychophysics","176","639744","0.0-176.0","60fcfde8842d3a8a5a139726","64e50a12f27b5d9da04d88a7","","","","","1202",""," ","key"," ","16.674152777777635","499.4444576752042","249.44445105246572","pz","35","2","1","36","","","58"
"","psychophysics","177","641607","0.0-177.0","60fcfde8842d3a8a5a139726","64e50a12f27b5d9da04d88a7","","","","","1846",""," ","key"," ","16.67419819819829","499.4444576752042","249.44445105246572","pz","18","2","1","30","","","20"
"","psychophysics","178","643528","0.0-178.0","60fcfde8842d3a8a5a139726","64e50a12f27b5d9da04d88a7","","","","","1915",""," ","key"," ","16.674350877193397","499.4444576752042","249.44445105246572","pz","23","2","1","40","","","45"
"","psychophysics","179","645790","0.0-179.0","60fcfde8842d3a8a5a139726","64e50a12f27b5d9da04d88a7","","","","","2248",""," ","key"," ","16.67429629629564","499.4444576752042","249.44445105246572","pz","31","2","1","58","","","50"
"","psychophysics","180","647112","0.0-180.0","60fcfde8842d3a8a5a139726","64e50a12f27b5d9da04d88a7","","","","","1310",""," ","key"," ","16.674346153846738","499.4444576752042","249.44445105246572","pz","31","2","1","32","","","55"
"","psychophysics","181","649728","0.0-181.0","60fcfde8842d3a8a5a139726","64e50a12f27b5d9da04d88a7","","","","","2606",""," ","key"," ","16.674314102564658","499.4444576752042","249.44445105246572","inst","","","","","","",""
"","psychophysics","182","654996","0.0-182.0","60fcfde8842d3a8a5a139726","64e50a12f27b5d9da04d88a7","","","","","5263",""," ","key"," ","16.674253968254014","499.4444576752042","249.44445105246572","instZol1","0.2999999999999998","","","-1.3","0","0",""
"","psychophysics","183","657481","0.0-183.0","60fcfde8842d3a8a5a139726","64e50a12f27b5d9da04d88a7","","","","","2468",""," ","key"," ","16.67424999999993","499.4444576752042","249.44445105246572","instZol2","-1.0999999999999992","2","","2","0","0",""
"","psychophysics","184","658426","0.0-184.0","60fcfde8842d3a8a5a139726","64e50a12f27b5d9da04d88a7","","","","","941",""," ","key"," ","16.674232142856845","499.4444576752042","249.44445105246572","inst","","","","","","",""
"","psychophysics","185","661763","0.0-185.0","60fcfde8842d3a8a5a139726","64e50a12f27b5d9da04d88a7","","","","","3319",""," ","key"," ","16.674236180904863","499.4444576752042","249.44445105246572","zol","-0.36","2","1","-0.34","-29","28",""
"","psychophysics","186","663349","0.0-186.0","60fcfde8842d3a8a5a139726","64e50a12f27b5d9da04d88a7","","","","","1570",""," ","key"," ","16.674212765957954","499.4444576752042","249.44445105246572","zol","-0.8999999999999999","2","1","0","-19","9",""
"","psychophysics","187","664400","0.0-187.0","60fcfde8842d3a8a5a139726","64e50a12f27b5d9da04d88a7","","","","","1037",""," ","key"," ","16.674290322580358","499.4444576752042","249.44445105246572","zol","-0.69","2","1","0.59","15","9",""
"","psychophysics","188","665907","0.0-188.0","60fcfde8842d3a8a5a139726","64e50a12f27b5d9da04d88a7","","","","","1491",""," ","key"," ","16.674157303370787","499.4444576752042","249.44445105246572","zol","-1.2100000000000002","2","1","0.31","-15","13",""
"","psychophysics","189","667535","0.0-189.0","60fcfde8842d3a8a5a139726","64e50a12f27b5d9da04d88a7","","","","","1610",""," ","key"," ","16.67432989690755","499.4444576752042","249.44445105246572","zol","-1.28","2","1","0.18","15","0",""
"","psychophysics","190","669476","0.0-190.0","60fcfde8842d3a8a5a139726","64e50a12f27b5d9da04d88a7","","","","","1925",""," ","key"," ","16.674252173912954","499.4444576752042","249.44445105246572","zol","-1.0599999999999998","2","1","0.36","3","-25",""
"","psychophysics","191","671005","0.0-191.0","60fcfde8842d3a8a5a139726","64e50a12f27b5d9da04d88a7","","","","","1515",""," ","key"," ","16.674263736263818","499.4444576752042","249.44445105246572","zol","-0.26999999999999996","2","1","-0.73","-20","-25",""
"","psychophysics","192","672401","0.0-192.0","60fcfde8842d3a8a5a139726","64e50a12f27b5d9da04d88a7","","","","","1381",""," ","key"," ","16.674156626505518","499.4444576752042","249.44445105246572","zol","-1.4200000000000004","2","1","0.52","20","16",""
"","psychophysics","193","674221","0.0-193.0","60fcfde8842d3a8a5a139726","64e50a12f27b5d9da04d88a7","","","","","1805",""," ","key"," ","16.674129629630542","499.4444576752042","249.44445105246572","zol","-1.3800000000000001","2","1","-0.02","18","-26",""
"","psychophysics","194","675921","0.0-194.0","60fcfde8842d3a8a5a139726","64e50a12f27b5d9da04d88a7","","","","","1682",""," ","key"," ","16.6743168316823","499.4444576752042","249.44445105246572","zol","-0.9099999999999999","2","1","-0.39","-13","-11",""
"","psychophysics","195","677497","0.0-195.0","60fcfde8842d3a8a5a139726","64e50a12f27b5d9da04d88a7","","","","","1561",""," ","key"," ","16.674344086021897","499.4444576752042","249.44445105246572","zol","-0.94","2","1","-0.16","27","-22",""
"","psychophysics","196","679045","0.0-196.0","60fcfde8842d3a8a5a139726","64e50a12f27b5d9da04d88a7","","","","","1531",""," ","key"," ","16.674271739129757","499.4444576752042","249.44445105246572","zol","-0.83","2","1","-0.37","25","5",""
"","psychophysics","197","681883","0.0-197.0","60fcfde8842d3a8a5a139726","64e50a12f27b5d9da04d88a7","","","","","2820",""," ","key"," ","16.674278106508755","499.4444576752042","249.44445105246572","zol","-1.28","2","1","0.28","-18","18",""
"","psychophysics","198","686329","0.0-198.0","60fcfde8842d3a8a5a139726","64e50a12f27b5d9da04d88a7","","","","","4428",""," ","key"," ","16.67421804511258","499.4444576752042","249.44445105246572","zol","-0.6800000000000002","2","1","0.68","-20","0",""
"","psychophysics","199","687929","0.0-199.0","60fcfde8842d3a8a5a139726","64e50a12f27b5d9da04d88a7","","","","","1583",""," ","key"," ","16.674199999999992","499.4444576752042","249.44445105246572","zol","-0.82","2","1","-0.28","-12","-25",""
"","psychophysics","200","689212","0.0-200.0","60fcfde8842d3a8a5a139726","64e50a12f27b5d9da04d88a7","","","","","1277",""," ","key"," ","16.67422368421103","499.4444576752042","249.44445105246572","inst","","","","","","",""
"","psychophysics","201","693361","0.0-201.0","60fcfde8842d3a8a5a139726","64e50a12f27b5d9da04d88a7","","","","","4145",""," ","key"," ","16.674250000000146","499.4444576752042","249.44445105246572","instPog0","340","2","","370","0","0","340"
"","psychophysics","202","696089","0.0-202.0","60fcfde8842d3a8a5a139726","64e50a12f27b5d9da04d88a7","","","","","2722",""," ","key"," ","16.674246913580266","499.4444576752042","249.44445105246572","instPog1","342","2","","370","0","0","340"
"","psychophysics","203","699758","0.0-203.0","60fcfde8842d3a8a5a139726","64e50a12f27b5d9da04d88a7","","","","","3657",""," ","key"," ","16.674210045662107","499.4444576752042","249.44445105246572","instPog2","324","2","","340","0","0","340"
"","psychophysics","204","700483","0.0-204.0","60fcfde8842d3a8a5a139726","64e50a12f27b5d9da04d88a7","","","","","714",""," ","key"," ","16.674093023256592","499.4444576752042","249.44445105246572","inst","","","","","","",""
"","psychophysics","205","701449","0.0-205.0","60fcfde8842d3a8a5a139726","64e50a12f27b5d9da04d88a7","","","","","954",""," ","key"," ","16.674350877192378","499.4444576752042","249.44445105246572","pog","300","2","1","302","0","0","311"
"","psychophysics","206","703775","0.0-206.0","60fcfde8842d3a8a5a139726","64e50a12f27b5d9da04d88a7","","","","","2319",""," ","key"," ","16.674188405796684","499.4444576752042","249.44445105246572","pog","290","2","1","340","0","0","316"
"","psychophysics","207","706590","0.0-207.0","60fcfde8842d3a8a5a139726","64e50a12f27b5d9da04d88a7","","","","","2804",""," ","key"," ","16.67426785714287","499.4444576752042","249.44445105246572","pog","288","2","1","344","0","0","301"
"","psychophysics","208","708245","0.0-208.0","60fcfde8842d3a8a5a139726","64e50a12f27b5d9da04d88a7","","","","","1641",""," ","key"," ","16.674397959183825","499.4444576752042","249.44445105246572","pog","328","2","1","356","0","0","355"
"","psychophysics","209","709131","0.0-209.0","60fcfde8842d3a8a5a139726","64e50a12f27b5d9da04d88a7","","","","","876",""," ","key"," ","16.673867924529883","499.4444576752042","249.44445105246572","pog","341","2","1","343","0","0","372"
"","psychophysics","210","711725","0.0-210.0","60fcfde8842d3a8a5a139726","64e50a12f27b5d9da04d88a7","","","","","2589",""," ","key"," ","16.67411688311697","499.4444576752042","249.44445105246572","pog","318","2","1","290","0","0","378"
"","psychophysics","211","714086","0.0-211.0","60fcfde8842d3a8a5a139726","64e50a12f27b5d9da04d88a7","","","","","2350",""," ","key"," ","16.67426241134749","499.4444576752042","249.44445105246572","pog","316","2","1","296","0","0","361"
"","psychophysics","212","716039","0.0-212.0","60fcfde8842d3a8a5a139726","64e50a12f27b5d9da04d88a7","","","","","1948",""," ","key"," ","16.67423275862078","499.4444576752042","249.44445105246572","pog","309","2","1","287","0","0","374"
"","psychophysics","213","720341","0.0-213.0","60fcfde8842d3a8a5a139726","64e50a12f27b5d9da04d88a7","","","","","4297",""," ","key"," ","16.674217898833042","499.4444576752042","249.44445105246572","pog","261","2","1","305","0","0","310"
"","psychophysics","214","721242","0.0-214.0","60fcfde8842d3a8a5a139726","64e50a12f27b5d9da04d88a7","","","","","896",""," ","key"," ","16.67435849056456","499.4444576752042","249.44445105246572","pog","295","2","1","295","0","0","329"
"","psychophysics","215","721977","0.0-215.0","60fcfde8842d3a8a5a139726","64e50a12f27b5d9da04d88a7","","","","","727",""," ","key"," ","16.67439534883881","499.4444576752042","249.44445105246572","pog","338","2","1","338","0","0","367"
"","psychophysics","216","723784","0.0-216.0","60fcfde8842d3a8a5a139726","64e50a12f27b5d9da04d88a7","","","","","1792",""," ","key"," ","16.674261682243607","499.4444576752042","249.44445105246572","pog","315","2","1","345","0","0","356"
"","psychophysics","217","726297","0.0-217.0","60fcfde8842d3a8a5a139726","64e50a12f27b5d9da04d88a7","","","","","2503",""," ","key"," ","16.674220000000204","499.4444576752042","249.44445105246572","pog","284","2","1","334","0","0","316"
"","psychophysics","218","730716","0.0-218.0","60fcfde8842d3a8a5a139726","64e50a12f27b5d9da04d88a7","","","","","4408",""," ","key"," ","16.674242424242426","499.4444576752042","249.44445105246572","pog","266","2","1","368","0","0","303"
"","psychophysics","219","732772","0.0-219.0","60fcfde8842d3a8a5a139726","64e50a12f27b5d9da04d88a7","","","","","2044",""," ","key"," ","16.67431147541034","499.4444576752042","249.44445105246572","pog","299","2","1","341","0","0","334"
