"success","trial_type","trial_index","time_elapsed","internal_node_id","pid","sid","timeout","failed_images","failed_audio","failed_video","rt","stimulus","response","response_type","key_press","avg_frame_time","center_x","center_y","task","resp","version","block","start","jitterX","jitterY","parA"
"true","fullscreen","0","242516","0.0-0.0","null","null","","","","","","","","","","","","","","","","","","","",""
"true","preload","1","242620","0.0-1.0","null","null","false","[]","[]","[]","","","","","","","","","","","","","","","",""
"","html-button-response","2","245076","0.0-2.0","null","null","","","","","2456","Please Make Sure Your Audio Is On.","0","","","","","","","","","","","","",""
"","psychophysics","3","259284","0.0-3.0","null","null","","","","","14172",""," ","key"," ","16.67623971797886","1920","250","","","","","","","",""
"","psychophysics","4","262996","0.0-4.0","null","null","","","","","3697",""," ","key"," ","16.669099099099135","500","250","inst","","","","","","",""
"","psychophysics","5","263740","0.0-5.0","null","null","","","","","741",""," ","key"," ","16.67636363636385","500","250","sample0","","","","","","",""
"","psychophysics","6","264076","0.0-6.0","null","null","","","","","333",""," ","key"," ","16.70210526315618","500","250","sample1","","","","","","",""
"","psychophysics","7","264404","0.0-7.0","null","null","","","","","326",""," ","key"," ","16.701052631579316","500","250","sample2","130","","","","","",""
"","psychophysics","8","264756","0.0-8.0","null","null","","","","","350",""," ","key"," ","16.69200000000128","500","250","sample3","70","","","","","",""
"","psychophysics","9","265084","0.0-9.0","null","null","","","","","326",""," ","key"," ","16.69777777777765","500","250","sample4","130","","","","","",""
"","psychophysics","10","265444","0.0-10.0","null","null","","","","","354",""," ","key"," ","16.682857142858364","500","250","sample5","","","","","","",""
"","psychophysics","11","265772","0.0-11.0","null","null","","","","","326",""," ","key"," ","16.645263157895226","500","250","sample6","450","","","","","",""
"","psychophysics","12","266076","0.0-12.0","null","null","","","","","302",""," ","key"," ","16.62235294117743","500","250","inst","","","","","","",""
"","psychophysics","13","266411","0.0-13.0","null","null","","","","","334",""," ","key"," ","16.68631578947258","500","250","inst","","","","","","",""
"","psychophysics","14","266708","0.0-14.0","null","null","","","","","294",""," ","key"," ","16.68588235293967","500","250","inst","","","","","","",""
"","psychophysics","15","267011","0.0-15.0","null","null","","","","","302",""," ","key"," ","16.676470588235293","500","250","inst","","","","","","",""
"","psychophysics","16","267308","0.0-16.0","null","null","","","","","294",""," ","key"," ","16.679999999999865","500","250","inst","","","","","","",""
"","psychophysics","17","267676","0.0-17.0","null","null","","","","","365",""," ","key"," ","16.679999999998557","500","250","instEB0","40","1","","40","0","0","40"
"","psychophysics","18","267996","0.0-18.0","null","null","","","","","318",""," ","key"," ","16.714444444443668","500","250","instEB1","40","1","","40","0","0","30"
"","psychophysics","19","268356","0.0-19.0","null","null","","","","","358",""," ","key"," ","16.656190476191806","500","250","instEB2","30","1","","30","0","0","40"
"","psychophysics","20","268660","0.0-20.0","null","null","","","","","301",""," ","key"," ","16.66823529412025","500","250","instEB3","27","1","","27","0","0","45"
"","psychophysics","21","268988","0.0-21.0","null","null","","","","","325",""," ","key"," ","16.65684210526218","500","250","instEB4","40","1","","40","0","0","30"
"","psychophysics","22","269332","0.0-22.0","null","null","","","","","342",""," ","key"," ","16.70947368421261","500","250","inst","","","","","","",""
"","psychophysics","23","269652","0.0-23.0","null","null","","","","","317",""," ","key"," ","16.69777777777765","500","250","eb","31","1","","31","0","0","43"
"","psychophysics","24","269988","0.0-24.0","null","null","","","","","330",""," ","key"," ","16.698999999999067","500","250","eb","44","1","","44","0","0","54"
"","psychophysics","25","270308","0.0-25.0","null","null","","","","","318",""," ","key"," ","16.661111111112405","500","250","eb","51","1","","51","0","0","32"
"","psychophysics","26","270588","0.0-26.0","null","null","","","","","278",""," ","key"," ","16.68249999999898","500","250","eb","38","1","","38","0","0","27"
"","psychophysics","27","270884","0.0-27.0","null","null","","","","","294",""," ","key"," ","16.703750000000582","500","250","eb","28","1","","28","0","0","39"
"","psychophysics","28","271180","0.0-28.0","null","null","","","","","289",""," ","key"," ","16.669411764706155","500","250","eb","41","1","","41","0","0","38"
"","psychophysics","29","271478","0.0-29.0","null","null","","","","","295",""," ","key"," ","16.675294117649386","500","250","eb","29","1","","29","0","0","42"
"","psychophysics","30","271756","0.0-30.0","null","null","","","","","272",""," ","key"," ","16.686249999998836","500","250","eb","45","1","","45","0","0","38"
"","psychophysics","31","272061","0.0-31.0","null","null","","","","","301",""," ","key"," ","16.674117647060058","500","250","eb","30","1","","30","0","0","29"
"","psychophysics","32","272373","0.0-32.0","null","null","","","","","309",""," ","key"," ","16.647777777779588","500","250","eb","47","1","","47","0","0","45"
"","psychophysics","33","272661","0.0-33.0","null","null","","","","","286",""," ","key"," ","16.654999999998836","500","250","eb","34","1","","34","0","0","36"
"","psychophysics","34","272948","0.0-34.0","null","null","","","","","285",""," ","key"," ","16.65625","500","250","eb","52","1","","52","0","0","39"
"","psychophysics","35","273261","0.0-35.0","null","null","","","","","310",""," ","key"," ","16.70111111111085","500","250","eb","40","1","","40","0","0","43"
"","psychophysics","36","273540","0.0-36.0","null","null","","","","","278",""," ","key"," ","16.678749999999127","500","250","eb","51","1","","51","0","0","50"
"","psychophysics","37","273836","0.0-37.0","null","null","","","","","294",""," ","key"," ","16.643749999999272","500","250","eb","52","1","","52","0","0","30"
"","psychophysics","38","274300","0.0-38.0","null","null","","","","","458",""," ","key"," ","16.646666666667443","500","250","inst","","","","","","",""
"","psychophysics","39","274596","0.0-39.0","null","null","","","","","293",""," ","key"," ","16.65411764705855","500","250","instBr0","0","","","0","0","0","300"
"","psychophysics","40","274869","0.0-40.0","null","null","","","","","270",""," ","key"," ","16.626666666664338","500","250","instBr1","-40","","","-40","0","0","300"
"","psychophysics","41","275301","0.0-41.0","null","null","","","","","427",""," ","key"," ","16.64719999999972","500","250","instBr3","40","1","","40","0","0","300"
"","psychophysics","42","275477","0.0-42.0","null","null","","","","","175",""," ","key"," ","16.66599999999744","500","250","inst","","","","","","",""
"","psychophysics","43","275773","0.0-43.0","null","null","","","","","294",""," ","key"," ","16.712941176470313","500","250","br","-19","1","0","-19","8","-15","222"
"","psychophysics","44","276068","0.0-44.0","null","null","","","","","294",""," ","key"," ","16.705000000001746","500","250","br","-23","1","0","-23","0","-11","245"
"","psychophysics","45","276316","0.0-45.0","null","null","","","","","242",""," ","key"," ","16.71714285714136","500","250","br","29","1","0","29","-16","-10","284"
"","psychophysics","46","277285","0.0-46.0","null","null","","","","","966",""," ","key"," ","16.66842105263117","500","250","br","9","1","0","9","-23","10","294"
"","psychophysics","47","277500","0.0-47.0","null","null","","","","","214",""," ","key"," ","16.67166666666647","500","250","br","17","1","0","17","-2","10","297"
"","psychophysics","48","277701","0.0-48.0","null","null","","","","","199",""," ","key"," ","16.701818181820933","500","250","br","-8","1","0","-8","-12","18","214"
"","psychophysics","49","277900","0.0-49.0","null","null","","","","","199",""," ","key"," ","16.690909090912267","500","250","br","21","1","0","21","23","7","280"
"","psychophysics","50","278100","0.0-50.0","null","null","","","","","199",""," ","key"," ","16.616363636366177","500","250","br","-2","1","0","-2","-4","8","230"
"","psychophysics","51","278316","0.0-51.0","null","null","","","","","213",""," ","key"," ","16.63666666666298","500","250","br","27","1","0","27","19","-16","244"
"","psychophysics","52","278540","0.0-52.0","null","null","","","","","222",""," ","key"," ","16.681538461537386","500","250","br","-17","1","0","-17","26","-15","294"
"","psychophysics","53","278749","0.0-53.0","null","null","","","","","207",""," ","key"," ","16.723636363632977","500","250","br","16","1","0","16","-6","-21","255"
"","psychophysics","54","278965","0.0-54.0","null","null","","","","","214",""," ","key"," ","16.64833333333566","500","250","br","11","1","0","11","-20","6","235"
"","psychophysics","55","279173","0.0-55.0","null","null","","","","","207",""," ","key"," ","16.643333333335857","500","250","br","3","1","0","3","-18","20","227"
"","psychophysics","56","279364","0.0-56.0","null","null","","","","","190",""," ","key"," ","16.656000000005587","500","250","br","2","1","0","2","-23","-16","291"
"","psychophysics","57","279580","0.0-57.0","null","null","","","","","213",""," ","key"," ","16.664999999998447","500","250","br","18","1","0","18","-10","24","235"
"","psychophysics","58","279773","0.0-58.0","null","null","","","","","192",""," ","key"," ","16.68909090909239","500","250","inst","","","","","","",""
"","psychophysics","59","279996","0.0-59.0","null","null","","","","","222",""," ","key"," ","16.653333333330618","500","250","instPzPre","50","0","","50","","","50"
"","psychophysics","60","280206","0.0-60.0","null","null","","","","","207",""," ","key"," ","16.653333333335468","500","250","instPz0","50","2","","50","","","50"
"","psychophysics","61","280412","0.0-61.0","null","null","","","","","205",""," ","key"," ","16.63818181818351","500","250","instPz1","25","2","","25","","","50"
"","psychophysics","62","280620","0.0-62.0","null","null","","","","","206",""," ","key"," ","16.707272727275267","500","250","instPz2","20","2","","20","","","35"
"","psychophysics","63","280821","0.0-63.0","null","null","","","","","193",""," ","key"," ","16.621818181815218","500","250","instPz3","30","2","","30","","","100"
"","psychophysics","64","281037","0.0-64.0","null","null","","","","","210",""," ","key"," ","16.613333333332168","500","250","instPz4","30","2","","30","","","100"
"","psychophysics","65","281244","0.0-65.0","null","null","","","","","203",""," ","key"," ","16.658333333335275","500","250","inst","","","","","","",""
"","psychophysics","66","281444","0.0-66.0","null","null","","","","","198",""," ","key"," ","16.629090909094717","500","250","pz","39","2","0","39","","","35"
"","psychophysics","67","281652","0.0-67.0","null","null","","","","","205",""," ","key"," ","16.643636363637846","500","250","pz","33","2","0","33","","","27"
"","psychophysics","68","281852","0.0-68.0","null","null","","","","","195",""," ","key"," ","16.723636363632977","500","250","pz","38","2","0","38","","","38"
"","psychophysics","69","282052","0.0-69.0","null","null","","","","","195",""," ","key"," ","16.73636363636152","500","250","pz","48","2","0","48","","","46"
"","psychophysics","70","282245","0.0-70.0","null","null","","","","","186",""," ","key"," ","16.690909090912267","500","250","pz","32","2","0","32","","","52"
"","psychophysics","71","282445","0.0-71.0","null","null","","","","","198",""," ","key"," ","16.629090909089427","500","250","pz","21","2","0","21","","","48"
"","psychophysics","72","282653","0.0-72.0","null","null","","","","","205",""," ","key"," ","16.61454545454101","500","250","pz","29","2","0","29","","","28"
"","psychophysics","73","282869","0.0-73.0","null","null","","","","","210",""," ","key"," ","16.64833333333566","500","250","pz","37","2","0","37","","","50"
"","psychophysics","74","283084","0.0-74.0","null","null","","","","","211",""," ","key"," ","16.71166666666977","500","250","pz","55","2","0","55","","","22"
"","psychophysics","75","283309","0.0-75.0","null","null","","","","","221",""," ","key"," ","16.598461538463688","500","250","pz","50","2","0","50","","","25"
"","psychophysics","76","283509","0.0-76.0","null","null","","","","","197",""," ","key"," ","16.68545454545264","500","250","pz","57","2","0","57","","","23"
"","psychophysics","77","283724","0.0-77.0","null","null","","","","","214",""," ","key"," ","16.68999999999748","500","250","pz","24","2","0","24","","","42"
"","psychophysics","78","283924","0.0-78.0","null","null","","","","","199",""," ","key"," ","16.643636363637846","500","250","pz","52","2","0","52","","","36"
"","psychophysics","79","284140","0.0-79.0","null","null","","","","","213",""," ","key"," ","16.6383333333312","500","250","pz","38","2","0","38","","","42"
"","psychophysics","80","284373","0.0-80.0","null","null","","","","","229",""," ","key"," ","16.624615384615026","500","250","pz","60","2","0","60","","","22"
"","psychophysics","81","284589","0.0-81.0","null","null","","","","","215",""," ","key"," ","16.66333333333508","500","250","inst","","","","","","",""
"","psychophysics","82","284796","0.0-82.0","null","null","","","","","205",""," ","key"," ","16.721818181818392","500","250","instPog0","370","2","","370","0","0","340"
"","psychophysics","83","285028","0.0-83.0","null","null","","","","","231",""," ","key"," ","16.692307692307693","500","250","instPog1","370","2","","370","0","0","340"
"","psychophysics","84","285252","0.0-84.0","null","null","","","","","222",""," ","key"," ","16.610000000000582","500","250","instPog2","340","2","","340","0","0","340"
"","psychophysics","85","285501","0.0-85.0","null","null","","","","","244",""," ","key"," ","16.665714285710628","500","250","inst","","","","","","",""
"","psychophysics","86","285741","0.0-86.0","null","null","","","","","237",""," ","key"," ","16.727142857142358","500","250","pog","303","2","0","303","0","0","319"
"","psychophysics","87","285965","0.0-87.0","null","null","","","","","223",""," ","key"," ","16.721666666669382","500","250","pog","327","2","0","327","0","0","360"
"","psychophysics","88","286196","0.0-88.0","null","null","","","","","229",""," ","key"," ","16.66461538461646","500","250","pog","381","2","0","381","0","0","365"
"","psychophysics","89","286444","0.0-89.0","null","null","","","","","247",""," ","key"," ","16.665714285714785","500","250","pog","331","2","0","331","0","0","375"
"","psychophysics","90","286660","0.0-90.0","null","null","","","","","215",""," ","key"," ","16.654999999998836","500","250","pog","342","2","0","342","0","0","334"
"","psychophysics","91","293605","0.0-91.0","null","null","","","","","6944",""," ","key"," ","16.668076923076885","500","250","pog","289","2","0","289","0","0","323"
"","psychophysics","92","293877","0.0-92.0","null","null","","","","","269",""," ","key"," ","16.619999999999223","500","250","pog","293","2","0","293","0","0","374"
"","psychophysics","93","294094","0.0-93.0","null","null","","","","","215",""," ","key"," ","16.67166666666647","500","250","pog","297","2","0","297","0","0","351"
"","psychophysics","94","294317","0.0-94.0","null","null","","","","","222",""," ","key"," ","16.669999999998254","500","250","pog","289","2","0","289","0","0","333"
"","psychophysics","95","294549","0.0-95.0","null","null","","","","","230",""," ","key"," ","16.67999999999749","500","250","pog","286","2","0","286","0","0","357"
"","psychophysics","96","294773","0.0-96.0","null","null","","","","","222",""," ","key"," ","16.69999999999821","500","250","pog","349","2","0","349","0","0","300"
"","psychophysics","97","295005","0.0-97.0","null","null","","","","","230",""," ","key"," ","16.618461538464405","500","250","pog","321","2","0","321","0","0","309"
"","psychophysics","98","295245","0.0-98.0","null","null","","","","","237",""," ","key"," ","16.686153846152592","500","250","pog","376","2","0","376","0","0","356"
"","psychophysics","99","295837","0.0-99.0","null","null","","","","","590",""," ","key"," ","16.684117647059097","500","250","pog","281","2","0","281","0","0","363"
"","psychophysics","100","296061","0.0-100.0","null","null","","","","","219",""," ","key"," ","16.66153846154115","500","250","pog","375","2","0","375","0","0","352"
"","psychophysics","101","296261","0.0-101.0","null","null","","","","","198",""," ","key"," ","16.629090909089427","500","250","inst","","","","","","",""
"","psychophysics","102","296477","0.0-102.0","null","null","","","","","214",""," ","key"," ","16.670000000003103","500","250","instZol0","0","","","0","0","0",""
"","psychophysics","103","296709","0.0-103.0","null","null","","","","","230",""," ","key"," ","16.71538461538372","500","250","instZol1","1.3","","","-1.3","0","0",""
"","psychophysics","104","296949","0.0-104.0","null","null","","","","","238",""," ","key"," ","16.701538461538103","500","250","instZol2","-2","1","","2","0","0",""
"","psychophysics","105","297173","0.0-105.0","null","null","","","","","222",""," ","key"," ","16.695384615383002","500","250","inst","","","","","","",""
"","psychophysics","106","297429","0.0-106.0","null","null","","","","","254",""," ","key"," ","16.72142857142691","500","250","zol","-0.07","1","0","0.07","-19","-13",""
"","psychophysics","107","297677","0.0-107.0","null","null","","","","","246",""," ","key"," ","16.664285714284883","500","250","zol","-0.3","1","0","0.3","20","2",""
"","psychophysics","108","297917","0.0-108.0","null","null","","","","","238",""," ","key"," ","16.676923076922183","500","250","zol","-0.42","1","0","0.42","-30","27",""
"","psychophysics","109","298173","0.0-109.0","null","null","","","","","254",""," ","key"," ","16.67333333333178","500","250","zol","0.56","1","0","-0.56","0","-27",""
"","psychophysics","110","298421","0.0-110.0","null","null","","","","","246",""," ","key"," ","16.687692307692487","500","250","zol","0.29","1","0","-0.29","26","3",""
"","psychophysics","111","298645","0.0-111.0","null","null","","","","","218",""," ","key"," ","16.695384615383002","500","250","zol","-0.28","1","0","0.28","18","6",""
"","psychophysics","112","298877","0.0-112.0","null","null","","","","","230",""," ","key"," ","16.698461538458314","500","250","zol","0.51","1","0","-0.51","20","-2",""
"","psychophysics","113","299101","0.0-113.0","null","null","","","","","221",""," ","key"," ","16.668333333330036","500","250","zol","-0.05","1","0","0.05","-1","11",""
"","psychophysics","114","299342","0.0-114.0","null","null","","","","","238",""," ","key"," ","16.68571428571678","500","250","zol","-0.01","1","0","0.01","-22","26",""
"","psychophysics","115","299565","0.0-115.0","null","null","","","","","222",""," ","key"," ","16.731666666668996","500","250","zol","-0.71","1","0","0.71","-13","1",""
"","psychophysics","116","299805","0.0-116.0","null","null","","","","","238",""," ","key"," ","16.6907692307678","500","250","zol","0.26","1","0","-0.26","12","-28",""
"","psychophysics","117","300029","0.0-117.0","null","null","","","","","218",""," ","key"," ","16.607692307694098","500","250","zol","-0.28","1","0","0.28","-21","-12",""
"","psychophysics","118","300262","0.0-118.0","null","null","","","","","230",""," ","key"," ","16.68307692307728","500","250","zol","0.46","1","0","-0.46","-23","-26",""
"","psychophysics","119","300486","0.0-119.0","null","null","","","","","222",""," ","key"," ","16.71333333333314","500","250","zol","0.26","1","0","-0.26","21","-2",""
"","psychophysics","120","300717","0.0-120.0","null","null","","","","","230",""," ","key"," ","16.72461538461861","500","250","zol","0.37","1","0","-0.37","30","-26",""
"","psychophysics","121","300941","0.0-121.0","null","null","","","","","223",""," ","key"," ","16.656923076921466","500","250","inst","","","","","","",""
"","psychophysics","122","301221","0.0-122.0","null","null","","","","","279",""," ","key"," ","16.626666666668218","500","250","instPog0","190","1","","190","0","0","160"
"","psychophysics","123","301398","0.0-123.0","null","null","","","","","172",""," ","key"," ","16.640000000002328","500","250","instPog1","190","1","","190","0","0","160"
"","psychophysics","124","301637","0.0-124.0","null","null","","","","","239",""," ","key"," ","16.64307692307585","500","250","instPog2","160","1","","160","0","0","160"
"","psychophysics","125","301869","0.0-125.0","null","null","","","","","227",""," ","key"," ","16.61692307692003","500","250","inst","","","","","","",""
"","psychophysics","126","302117","0.0-126.0","null","null","","","","","247",""," ","key"," ","16.678571428571427","500","250","pog","168","1","1","168","0","0","123"
"","psychophysics","127","302374","0.0-127.0","null","null","","","","","255",""," ","key"," ","16.709333333334264","500","250","pog","173","1","1","173","0","0","191"
"","psychophysics","128","302606","0.0-128.0","null","null","","","","","231",""," ","key"," ","16.670000000003103","500","250","pog","156","1","1","156","0","0","122"
"","psychophysics","129","302861","0.0-129.0","null","null","","","","","250",""," ","key"," ","16.653333333332558","500","250","pog","140","1","1","140","0","0","164"
"","psychophysics","130","303094","0.0-130.0","null","null","","","","","230",""," ","key"," ","16.653846153846153","500","250","pog","157","1","1","157","0","0","185"
"","psychophysics","131","303333","0.0-131.0","null","null","","","","","239",""," ","key"," ","16.68923076923238","500","250","pog","172","1","1","172","0","0","125"
"","psychophysics","132","303573","0.0-132.0","null","null","","","","","237",""," ","key"," ","16.670000000000332","500","250","pog","153","1","1","153","0","0","164"
"","psychophysics","133","303830","0.0-133.0","null","null","","","","","255",""," ","key"," ","16.649999999998336","500","250","pog","183","1","1","183","0","0","194"
"","psychophysics","134","304062","0.0-134.0","null","null","","","","","230",""," ","key"," ","16.606153846154204","500","250","pog","186","1","1","186","0","0","148"
"","psychophysics","135","304294","0.0-135.0","null","null","","","","","230",""," ","key"," ","16.66461538461646","500","250","pog","162","1","1","162","0","0","139"
"","psychophysics","136","304557","0.0-136.0","null","null","","","","","263",""," ","key"," ","16.628000000002793","500","250","pog","141","1","1","141","0","0","194"
"","psychophysics","137","304790","0.0-137.0","null","null","","","","","230",""," ","key"," ","16.631666666668025","500","250","pog","200","1","1","200","0","0","153"
"","psychophysics","138","305029","0.0-138.0","null","null","","","","","236",""," ","key"," ","16.65857142857359","500","250","pog","171","1","1","171","0","0","200"
"","psychophysics","139","305245","0.0-139.0","null","null","","","","","214",""," ","key"," ","16.591666666664725","500","250","pog","159","1","1","159","0","0","157"
"","psychophysics","140","305485","0.0-140.0","null","null","","","","","238",""," ","key"," ","16.689230769227905","500","250","pog","136","1","1","136","0","0","183"
"","psychophysics","141","305718","0.0-141.0","null","null","","","","","230",""," ","key"," ","16.69846153846279","500","250","inst","","","","","","",""
"","psychophysics","142","305957","0.0-142.0","null","null","","","","","238",""," ","key"," ","16.728571428568102","500","250","instZol1","1.3","","","-1.3","0","0",""
"","psychophysics","143","306184","0.0-143.0","null","null","","","","","222",""," ","key"," ","16.69833333333372","500","250","instZol2","-2","2","","2","0","0",""
"","psychophysics","144","306422","0.0-144.0","null","null","","","","","227",""," ","key"," ","16.710769230768513","500","250","inst","","","","","","",""
"","psychophysics","145","306637","0.0-145.0","null","null","","","","","208",""," ","key"," ","16.721666666664532","500","250","zol","-0.11","2","1","0.11","-27","-20",""
"","psychophysics","146","306877","0.0-146.0","null","null","","","","","233",""," ","key"," ","16.654285714283883","500","250","zol","0.1","2","1","-0.1","1","1",""
"","psychophysics","147","307118","0.0-147.0","null","null","","","","","237",""," ","key"," ","16.693846153847588","500","250","zol","0.42","2","1","-0.42","20","-4",""
"","psychophysics","148","307365","0.0-148.0","null","null","","","","","245",""," ","key"," ","16.699999999999168","500","250","zol","0.53","2","1","-0.53","-21","8",""
"","psychophysics","149","307630","0.0-149.0","null","null","","","","","261",""," ","key"," ","16.71599999999938","500","250","zol","-0.26","2","1","0.26","-3","-28",""
"","psychophysics","150","307877","0.0-150.0","null","null","","","","","245",""," ","key"," ","16.717142857145518","500","250","zol","-0.11","2","1","0.11","-9","3",""
"","psychophysics","151","308125","0.0-151.0","null","null","","","","","245",""," ","key"," ","16.66285714285914","500","250","zol","-0.27","2","1","0.27","-26","4",""
"","psychophysics","152","308382","0.0-152.0","null","null","","","","","254",""," ","key"," ","16.664285714284883","500","250","zol","-0.53","2","1","0.53","-15","-6",""
"","psychophysics","153","308614","0.0-153.0","null","null","","","","","229",""," ","key"," ","16.687692307692487","500","250","zol","0.27","2","1","-0.27","18","9",""
"","psychophysics","154","308870","0.0-154.0","null","null","","","","","255",""," ","key"," ","16.651428571428237","500","250","zol","-0.55","2","1","0.55","-24","12",""
"","psychophysics","155","309126","0.0-155.0","null","null","","","","","254",""," ","key"," ","16.622666666668373","500","250","zol","-0.28","2","1","0.28","-28","4",""
"","psychophysics","156","309374","0.0-156.0","null","null","","","","","246",""," ","key"," ","16.66857142857043","500","250","zol","-0.57","2","1","0.57","28","28",""
"","psychophysics","157","309630","0.0-157.0","null","null","","","","","254",""," ","key"," ","16.72428571428671","500","250","zol","-0.12","2","1","0.12","-12","-3",""
"","psychophysics","158","309870","0.0-158.0","null","null","","","","","237",""," ","key"," ","16.703076923077997","500","250","zol","-0.04","2","1","0.04","30","22",""
"","psychophysics","159","310118","0.0-159.0","null","null","","","","","246",""," ","key"," ","16.702857142854814","500","250","zol","-0.19","2","1","0.19","29","-21",""
"","psychophysics","160","310365","0.0-160.0","null","null","","","","","247",""," ","key"," ","16.71142857142591","500","250","inst","","","","","","",""
"","psychophysics","161","310646","0.0-161.0","null","null","","","","","277",""," ","key"," ","16.673750000001746","500","250","instPz1","25","1","","25","","","50"
"","psychophysics","162","310869","0.0-162.0","null","null","","","","","222",""," ","key"," ","16.608333333332364","500","250","instPz2","35","1","","35","","","20"
"","psychophysics","163","311118","0.0-163.0","null","null","","","","","245",""," ","key"," ","16.645714285716945","500","250","instPz3","100","1","","100","","","30"
"","psychophysics","164","311406","0.0-164.0","null","null","","","","","287",""," ","key"," ","16.664999999997235","500","250","instPz4","100","1","","100","","","30"
"","psychophysics","165","311654","0.0-165.0","null","null","","","","","243",""," ","key"," ","16.718571428571263","500","250","inst","","","","","","",""
"","psychophysics","166","311966","0.0-166.0","null","null","","","","","310",""," ","key"," ","16.69111111111124","500","250","pz","44","1","1","44","","","40"
"","psychophysics","167","312181","0.0-167.0","null","null","","","","","214",""," ","key"," ","16.67666666666628","500","250","pz","31","1","1","31","","","29"
"","psychophysics","168","312422","0.0-168.0","null","null","","","","","237",""," ","key"," ","16.678461538462077","500","250","pz","21","1","1","21","","","39"
"","psychophysics","169","312694","0.0-169.0","null","null","","","","","267",""," ","key"," ","16.655000000002474","500","250","pz","59","1","1","59","","","21"
"","psychophysics","170","312965","0.0-170.0","null","null","","","","","270",""," ","key"," ","16.670666666666513","500","250","pz","50","1","1","50","","","34"
"","psychophysics","171","313221","0.0-171.0","null","null","","","","","253",""," ","key"," ","16.725714285716613","500","250","pz","30","1","1","30","","","24"
"","psychophysics","172","313470","0.0-172.0","null","null","","","","","243",""," ","key"," ","16.661428571429237","500","250","pz","47","1","1","47","","","46"
"","psychophysics","173","313725","0.0-173.0","null","null","","","","","254",""," ","key"," ","16.68933333333116","500","250","pz","32","1","1","32","","","40"
"","psychophysics","174","313990","0.0-174.0","null","null","","","","","261",""," ","key"," ","16.70714285714452","500","250","pz","49","1","1","49","","","27"
"","psychophysics","175","314238","0.0-175.0","null","null","","","","","243",""," ","key"," ","16.64714285714269","500","250","pz","22","1","1","22","","","34"
"","psychophysics","176","314510","0.0-176.0","null","null","","","","","266",""," ","key"," ","16.65124999999898","500","250","pz","56","1","1","56","","","59"
"","psychophysics","177","314766","0.0-177.0","null","null","","","","","255",""," ","key"," ","16.640000000001496","500","250","pz","32","1","1","32","","","43"
"","psychophysics","178","315038","0.0-178.0","null","null","","","","","269",""," ","key"," ","16.620000000003106","500","250","pz","20","1","1","20","","","48"
"","psychophysics","179","315310","0.0-179.0","null","null","","","","","271",""," ","key"," ","16.650000000001455","500","250","pz","37","1","1","37","","","51"
"","psychophysics","180","315582","0.0-180.0","null","null","","","","","270",""," ","key"," ","16.6786666666662","500","250","pz","48","1","1","48","","","27"
"","psychophysics","181","316102","0.0-181.0","null","null","","","","","519",""," ","key"," ","16.661999999999534","500","250","inst","","","","","","",""
"","psychophysics","182","316326","0.0-182.0","null","null","","","","","223",""," ","key"," ","16.62769230769034","500","250","instEB1","30","2","","30","0","0","40"
"","psychophysics","183","316622","0.0-183.0","null","null","","","","","294",""," ","key"," ","16.667499999999563","500","250","instEB2","40","2","","40","0","0","30"
"","psychophysics","184","316862","0.0-184.0","null","null","","","","","235",""," ","key"," ","16.664285714284883","500","250","instEB3","45","2","","45","0","0","27"
"","psychophysics","185","317086","0.0-185.0","null","null","","","","","222",""," ","key"," ","16.673333333334693","500","250","instEB4","30","2","","30","0","0","40"
"","psychophysics","186","317326","0.0-186.0","null","null","","","","","239",""," ","key"," ","16.66714285714053","500","250","inst","","","","","","",""
"","psychophysics","187","317549","0.0-187.0","null","null","","","","","221",""," ","key"," ","16.639999999999418","500","250","eb","31","2","","31","0","0","26"
"","psychophysics","188","317782","0.0-188.0","null","null","","","","","231",""," ","key"," ","16.615384615384617","500","250","eb","26","2","","26","0","0","38"
"","psychophysics","189","317998","0.0-189.0","null","null","","","","","214",""," ","key"," ","16.669999999998254","500","250","eb","33","2","","33","0","0","29"
"","psychophysics","190","318422","0.0-190.0","null","null","","","","","421",""," ","key"," ","16.636666666665406","500","250","eb","33","2","","33","0","0","29"
"","psychophysics","191","318622","0.0-191.0","null","null","","","","","194",""," ","key"," ","16.68363636363806","500","250","eb","36","2","","36","0","0","50"
"","psychophysics","192","318822","0.0-192.0","null","null","","","","","194",""," ","key"," ","16.694545454546724","500","250","eb","37","2","","37","0","0","49"
"","psychophysics","193","319031","0.0-193.0","null","null","","","","","206",""," ","key"," ","16.641666666667636","500","250","eb","35","2","","35","0","0","49"
"","psychophysics","194","319238","0.0-194.0","null","null","","","","","206",""," ","key"," ","16.714545454544183","500","250","eb","54","2","","54","0","0","29"
"","psychophysics","195","319454","0.0-195.0","null","null","","","","","214",""," ","key"," ","16.61166666666395","500","250","eb","54","2","","54","0","0","46"
"","psychophysics","196","319687","0.0-196.0","null","null","","","","","230",""," ","key"," ","16.663076923076567","500","250","eb","24","2","","24","0","0","43"
"","psychophysics","197","319879","0.0-197.0","null","null","","","","","190",""," ","key"," ","16.709090909089852","500","250","eb","41","2","","41","0","0","44"
"","psychophysics","198","320110","0.0-198.0","null","null","","","","","229",""," ","key"," ","16.62769230769034","500","250","eb","40","2","","40","0","0","53"
"","psychophysics","199","320342","0.0-199.0","null","null","","","","","230",""," ","key"," ","16.623076923075132","500","250","eb","53","2","","53","0","0","41"
"","psychophysics","200","320559","0.0-200.0","null","null","","","","","214",""," ","key"," ","16.646666666667443","500","250","eb","36","2","","36","0","0","52"
"","psychophysics","201","320782","0.0-201.0","null","null","","","","","222",""," ","key"," ","16.643333333335857","500","250","eb","36","2","","36","0","0","51"
"","psychophysics","202","321014","0.0-202.0","null","null","","","","","230",""," ","key"," ","16.63538461538533","500","250","inst","","","","","","",""
"","psychophysics","203","321278","0.0-203.0","null","null","","","","","263",""," ","key"," ","16.657333333332403","500","250","instBr3","40","2","","40","0","0","300"
"","psychophysics","204","321494","0.0-204.0","null","null","","","","","214",""," ","key"," ","16.716666666664725","500","250","inst","","","","","","",""
"","psychophysics","205","321733","0.0-205.0","null","null","","","","","238",""," ","key"," ","16.710769230768513","500","250","br","-19","2","1","-19","30","1","222"
"","psychophysics","206","321974","0.0-206.0","null","null","","","","","238",""," ","key"," ","16.716923076923614","500","250","br","16","2","1","16","-24","-26","202"
"","psychophysics","207","322198","0.0-207.0","null","null","","","","","217",""," ","key"," ","16.669230769231664","500","250","br","15","2","1","15","-26","7","279"
"","psychophysics","208","322438","0.0-208.0","null","null","","","","","238",""," ","key"," ","16.63230769230554","500","250","br","8","2","1","8","3","-10","267"
"","psychophysics","209","322678","0.0-209.0","null","null","","","","","238",""," ","key"," ","16.648571428568435","500","250","br","7","2","1","7","24","-26","267"
"","psychophysics","210","322902","0.0-210.0","null","null","","","","","223",""," ","key"," ","16.591666666664725","500","250","br","-4","2","1","-4","-14","6","266"
"","psychophysics","211","323118","0.0-211.0","null","null","","","","","215",""," ","key"," ","16.664999999998447","500","250","br","21","2","1","21","21","-13","230"
"","psychophysics","212","323342","0.0-212.0","null","null","","","","","224",""," ","key"," ","16.621538461539714","500","250","br","-28","2","1","-28","22","29","284"
"","psychophysics","213","323566","0.0-213.0","null","null","","","","","222",""," ","key"," ","16.645000000004075","500","250","br","7","2","1","7","29","-3","265"
"","psychophysics","214","323814","0.0-214.0","null","null","","","","","246",""," ","key"," ","16.665714285714785","500","250","br","22","2","1","22","17","26","290"
"","psychophysics","215","324022","0.0-215.0","null","null","","","","","206",""," ","key"," ","16.667272727269765","500","250","br","27","2","1","27","-10","-16","293"
"","psychophysics","216","324247","0.0-216.0","null","null","","","","","222",""," ","key"," ","16.66769230769177","500","250","br","23","2","1","23","-16","5","287"
"","psychophysics","217","324463","0.0-217.0","null","null","","","","","214",""," ","key"," ","16.733333333332364","500","250","br","-19","2","1","-19","7","-4","244"
"","psychophysics","218","324694","0.0-218.0","null","null","","","","","231",""," ","key"," ","16.67999999999749","500","250","br","27","2","1","27","2","-5","215"
"","psychophysics","219","324910","0.0-219.0","null","null","","","","","213",""," ","key"," ","16.669999999998254","500","250","br","19","2","1","19","12","3","238"
