"success","trial_type","trial_index","time_elapsed","internal_node_id","pid","sid","timeout","failed_images","failed_audio","failed_video","rt","stimulus","response","response_type","key_press","avg_frame_time","center_x","center_y","task","resp","version","block","start","jitterX","jitterY","parA"
"true","fullscreen","0","9880","0.0-0.0","6488e429e530a1949174c9f4","64de8047c0a20a8351ecea0f","","","","","","","","","","","","","","","","","","","",""
"true","preload","1","11752","0.0-1.0","6488e429e530a1949174c9f4","64de8047c0a20a8351ecea0f","false","[]","[]","[]","","","","","","","","","","","","","","","",""
"","html-button-response","2","13326","0.0-2.0","6488e429e530a1949174c9f4","64de8047c0a20a8351ecea0f","","","","","1571","Please Make Sure Your Audio Is On.","0","","","","","","","","","","","","",""
"","psychophysics","3","18308","0.0-3.0","6488e429e530a1949174c9f4","64de8047c0a20a8351ecea0f","","","","","4957",""," ","key"," ","17.203737024221457","683","250","","","","","","","",""
"","psychophysics","4","20697","0.0-4.0","6488e429e530a1949174c9f4","64de8047c0a20a8351ecea0f","","","","","2383",""," ","key"," ","17.05381294964031","500","250","inst","","","","","","",""
"","psychophysics","5","27108","0.0-5.0","6488e429e530a1949174c9f4","64de8047c0a20a8351ecea0f","","","","","6405",""," ","key"," ","16.700417754569177","500","250","sample0","","","","","","",""
"","psychophysics","6","28979","0.0-6.0","6488e429e530a1949174c9f4","64de8047c0a20a8351ecea0f","","","","","1863",""," ","key"," ","16.73225225225224","500","250","sample1","","","","","","",""
"","psychophysics","7","33694","0.0-7.0","6488e429e530a1949174c9f4","64de8047c0a20a8351ecea0f","","","","","4709",""," ","key"," ","16.699857651245537","500","250","sample2","120","","","","","",""
"","psychophysics","8","36801","0.0-8.0","6488e429e530a1949174c9f4","64de8047c0a20a8351ecea0f","","","","","3089",""," ","key"," ","16.696108108108103","500","250","sample3","80","","","","","",""
"","psychophysics","9","52719","0.0-9.0","6488e429e530a1949174c9f4","64de8047c0a20a8351ecea0f","","","","","15900",""," ","key"," ","16.70098739495798","500","250","sample4","100","","","","","",""
"","psychophysics","10","55286","0.0-10.0","6488e429e530a1949174c9f4","64de8047c0a20a8351ecea0f","","","","","2539",""," ","key"," ","16.70313725490197","500","250","sample5","","","","","","",""
"","psychophysics","11","63300","0.0-11.0","6488e429e530a1949174c9f4","64de8047c0a20a8351ecea0f","","","","","7991",""," ","key"," ","16.698872651356982","500","250","sample6","500","","","","","",""
"","psychophysics","12","69765","0.0-12.0","6488e429e530a1949174c9f4","64de8047c0a20a8351ecea0f","","","","","6460",""," ","key"," ","16.701088082901542","500","250","inst","","","","","","",""
"","psychophysics","13","74142","0.0-13.0","6488e429e530a1949174c9f4","64de8047c0a20a8351ecea0f","","","","","4342",""," ","key"," ","16.70022988505745","500","250","inst","","","","","","",""
"","psychophysics","14","77512","0.0-14.0","6488e429e530a1949174c9f4","64de8047c0a20a8351ecea0f","","","","","3355",""," ","key"," ","16.6959203980099","500","250","inst","","","","","","",""
"","psychophysics","15","81001","0.0-15.0","6488e429e530a1949174c9f4","64de8047c0a20a8351ecea0f","","","","","3485",""," ","key"," ","16.694038461538465","500","250","inst","","","","","","",""
"","psychophysics","16","83951","0.0-16.0","6488e429e530a1949174c9f4","64de8047c0a20a8351ecea0f","","","","","2946",""," ","key"," ","16.700228571428617","500","250","inst","","","","","","",""
"","psychophysics","17","91277","0.0-17.0","6488e429e530a1949174c9f4","64de8047c0a20a8351ecea0f","","","","","7308",""," ","key"," ","16.701050228310496","500","250","instPog0","160","1","","190","0","0","160"
"","psychophysics","18","109790","0.0-18.0","6488e429e530a1949174c9f4","64de8047c0a20a8351ecea0f","","","","","18487",""," ","key"," ","16.699963866305332","500","250","instPog1","176","1","","190","0","0","160"
"","psychophysics","19","119063","0.0-19.0","6488e429e530a1949174c9f4","64de8047c0a20a8351ecea0f","","","","","9241",""," ","key"," ","16.69906137184118","500","250","instPog2","188","1","","160","0","0","160"
"","psychophysics","20","121375","0.0-20.0","6488e429e530a1949174c9f4","64de8047c0a20a8351ecea0f","","","","","2304",""," ","key"," ","16.707883211678695","500","250","inst","","","","","","",""
"","psychophysics","21","127414","0.0-21.0","6488e429e530a1949174c9f4","64de8047c0a20a8351ecea0f","","","","","6016",""," ","key"," ","16.699113573407214","500","250","pog","199","1","0","155","0","0","182"
"","psychophysics","22","135419","0.0-22.0","6488e429e530a1949174c9f4","64de8047c0a20a8351ecea0f","","","","","null","","null","key","null","16.701255230125547","500","250","pog","183","1","0","183","0","0","159"
"","psychophysics","23","141413","0.0-23.0","6488e429e530a1949174c9f4","64de8047c0a20a8351ecea0f","","","","","5978",""," ","key"," ","16.699888268156418","500","250","pog","171","1","0","181","0","0","134"
"","psychophysics","24","147254","0.0-24.0","6488e429e530a1949174c9f4","64de8047c0a20a8351ecea0f","","","","","5815",""," ","key"," ","16.69914040114613","500","250","pog","212","1","0","158","0","0","181"
"","psychophysics","25","152166","0.0-25.0","6488e429e530a1949174c9f4","64de8047c0a20a8351ecea0f","","","","","4905",""," ","key"," ","16.700409556313996","500","250","pog","214","1","0","184","0","0","183"
"","psychophysics","26","154068","0.0-26.0","6488e429e530a1949174c9f4","64de8047c0a20a8351ecea0f","","","","","1886",""," ","key"," ","16.70070796460171","500","250","pog","181","1","0","177","0","0","160"
"","psychophysics","27","160267","0.0-27.0","6488e429e530a1949174c9f4","64de8047c0a20a8351ecea0f","","","","","6191",""," ","key"," ","16.702540540540546","500","250","pog","221","1","0","155","0","0","196"
"","psychophysics","28","165662","0.0-28.0","6488e429e530a1949174c9f4","64de8047c0a20a8351ecea0f","","","","","5361",""," ","key"," ","16.695887850467305","500","250","pog","223","1","0","115","0","0","196"
"","psychophysics","29","169535","0.0-29.0","6488e429e530a1949174c9f4","64de8047c0a20a8351ecea0f","","","","","3841",""," ","key"," ","16.700606060606045","500","250","pog","159","1","0","159","0","0","133"
"","psychophysics","30","174622","0.0-30.0","6488e429e530a1949174c9f4","64de8047c0a20a8351ecea0f","","","","","5070",""," ","key"," ","16.70473684210533","500","250","pog","178","1","0","120","0","0","155"
"","psychophysics","31","179183","0.0-31.0","6488e429e530a1949174c9f4","64de8047c0a20a8351ecea0f","","","","","4556",""," ","key"," ","16.695514705882328","500","250","pog","184","1","0","132","0","0","160"
"","psychophysics","32","184239","0.0-32.0","6488e429e530a1949174c9f4","64de8047c0a20a8351ecea0f","","","","","5045",""," ","key"," ","16.706158940397383","500","250","pog","194","1","0","152","0","0","172"
"","psychophysics","33","189886","0.0-33.0","6488e429e530a1949174c9f4","64de8047c0a20a8351ecea0f","","","","","5639",""," ","key"," ","16.696023738872398","500","250","pog","158","1","0","178","0","0","135"
"","psychophysics","34","195816","0.0-34.0","6488e429e530a1949174c9f4","64de8047c0a20a8351ecea0f","","","","","5925",""," ","key"," ","16.69790960451977","500","250","pog","170","1","0","204","0","0","146"
"","psychophysics","35","198287","0.0-35.0","6488e429e530a1949174c9f4","64de8047c0a20a8351ecea0f","","","","","2463",""," ","key"," ","16.706258503401408","500","250","pog","197","1","0","199","0","0","166"
"","psychophysics","36","200196","0.0-36.0","6488e429e530a1949174c9f4","64de8047c0a20a8351ecea0f","","","","","1905",""," ","key"," ","16.700530973451357","500","250","inst","","","","","","",""
"","psychophysics","37","202879","0.0-37.0","6488e429e530a1949174c9f4","64de8047c0a20a8351ecea0f","","","","","2670",""," ","key"," ","16.691749999999956","500","250","instPzPre","50","0","","50","","","50"
"","psychophysics","38","206157","0.0-38.0","6488e429e530a1949174c9f4","64de8047c0a20a8351ecea0f","","","","","3272",""," ","key"," ","16.704205128205164","500","250","instPz0","50","1","","50","","","50"
"","psychophysics","39","214076","0.0-39.0","6488e429e530a1949174c9f4","64de8047c0a20a8351ecea0f","","","","","7915",""," ","key"," ","16.70219873150109","500","250","instPz1","51","1","","25","","","50"
"","psychophysics","40","219280","0.0-40.0","6488e429e530a1949174c9f4","64de8047c0a20a8351ecea0f","","","","","5175",""," ","key"," ","16.69755627009647","500","250","instPz2","22","1","","35","","","20"
"","psychophysics","41","235165","0.0-41.0","6488e429e530a1949174c9f4","64de8047c0a20a8351ecea0f","","","","","15878",""," ","key"," ","16.694863157894734","500","250","instPz3","37","1","","100","","","30"
"","psychophysics","42","244820","0.0-42.0","6488e429e530a1949174c9f4","64de8047c0a20a8351ecea0f","","","","","9650",""," ","key"," ","16.699653379549414","500","250","instPz4","36","1","","100","","","30"
"","psychophysics","43","246020","0.0-43.0","6488e429e530a1949174c9f4","64de8047c0a20a8351ecea0f","","","","","1186",""," ","key"," ","16.695211267605846","500","250","inst","","","","","","",""
"","psychophysics","44","252749","0.0-44.0","6488e429e530a1949174c9f4","64de8047c0a20a8351ecea0f","","","","","6722",""," ","key"," ","16.696965174129335","500","250","pz","76","1","0","52","","","58"
"","psychophysics","45","260753","0.0-45.0","6488e429e530a1949174c9f4","64de8047c0a20a8351ecea0f","","","","","null","","null","key","null","16.699372384937213","500","250","pz","45","1","0","48","","","39"
"","psychophysics","46","268763","0.0-46.0","6488e429e530a1949174c9f4","64de8047c0a20a8351ecea0f","","","","","null","","null","key","null","16.698956158663858","500","250","pz","79","1","0","24","","","59"
"","psychophysics","47","276769","0.0-47.0","6488e429e530a1949174c9f4","64de8047c0a20a8351ecea0f","","","","","null","","null","key","null","16.702008368200833","500","250","pz","53","1","0","22","","","40"
"","psychophysics","48","284789","0.0-48.0","6488e429e530a1949174c9f4","64de8047c0a20a8351ecea0f","","","","","null","","null","key","null","16.699037656903794","500","250","pz","31","1","0","24","","","28"
"","psychophysics","49","289407","0.0-49.0","6488e429e530a1949174c9f4","64de8047c0a20a8351ecea0f","","","","","4599",""," ","key"," ","16.699347826087024","500","250","pz","35","1","0","35","","","33"
"","psychophysics","50","292710","0.0-50.0","6488e429e530a1949174c9f4","64de8047c0a20a8351ecea0f","","","","","3297",""," ","key"," ","16.695329949238484","500","250","pz","42","1","0","50","","","38"
"","psychophysics","51","300717","0.0-51.0","6488e429e530a1949174c9f4","64de8047c0a20a8351ecea0f","","","","","null","","null","key","null","16.70129707112977","500","250","pz","43","1","0","44","","","34"
"","psychophysics","52","308729","0.0-52.0","6488e429e530a1949174c9f4","64de8047c0a20a8351ecea0f","","","","","null","","null","key","null","16.6987056367432","500","250","pz","52","1","0","42","","","42"
"","psychophysics","53","316733","0.0-53.0","6488e429e530a1949174c9f4","64de8047c0a20a8351ecea0f","","","","","null","","null","key","null","16.702008368200833","500","250","pz","41","1","0","59","","","37"
"","psychophysics","54","323092","0.0-54.0","6488e429e530a1949174c9f4","64de8047c0a20a8351ecea0f","","","","","6345",""," ","key"," ","16.700894736842173","500","250","pz","58","1","0","21","","","53"
"","psychophysics","55","328149","0.0-55.0","6488e429e530a1949174c9f4","64de8047c0a20a8351ecea0f","","","","","5052",""," ","key"," ","16.698675496688743","500","250","pz","59","1","0","26","","","54"
"","psychophysics","56","331825","0.0-56.0","6488e429e530a1949174c9f4","64de8047c0a20a8351ecea0f","","","","","3669",""," ","key"," ","16.702648401826504","500","250","pz","37","1","0","38","","","33"
"","psychophysics","57","336822","0.0-57.0","6488e429e530a1949174c9f4","64de8047c0a20a8351ecea0f","","","","","4992",""," ","key"," ","16.698255033557103","500","250","pz","64","1","0","34","","","55"
"","psychophysics","58","341852","0.0-58.0","6488e429e530a1949174c9f4","64de8047c0a20a8351ecea0f","","","","","5023",""," ","key"," ","16.70393333333331","500","250","pz","53","1","0","28","","","46"
"","psychophysics","59","342743","0.0-59.0","6488e429e530a1949174c9f4","64de8047c0a20a8351ecea0f","","","","","878",""," ","key"," ","16.704528301887276","500","250","inst","","","","","","",""
"","psychophysics","60","344231","0.0-60.0","6488e429e530a1949174c9f4","64de8047c0a20a8351ecea0f","","","","","1482",""," ","key"," ","16.689545454545375","500","250","instBr0","0","","","0","0","0","300"
"","psychophysics","61","350910","0.0-61.0","6488e429e530a1949174c9f4","64de8047c0a20a8351ecea0f","","","","","6673",""," ","key"," ","16.701654135338398","500","250","instBr1","4","","","-40","0","0","300"
"","psychophysics","62","361701","0.0-62.0","6488e429e530a1949174c9f4","64de8047c0a20a8351ecea0f","","","","","10785",""," ","key"," ","16.70037209302324","500","250","instBr3","18","2","","40","0","0","300"
"","psychophysics","63","362773","0.0-63.0","6488e429e530a1949174c9f4","64de8047c0a20a8351ecea0f","","","","","1068",""," ","key"," ","16.693650793650978","500","250","inst","","","","","","",""
"","psychophysics","64","370789","0.0-64.0","6488e429e530a1949174c9f4","64de8047c0a20a8351ecea0f","","","","","null","","null","key","null","16.701628392484256","500","250","br","19","2","0","-25","9","20","284"
"","psychophysics","65","372444","0.0-65.0","6488e429e530a1949174c9f4","64de8047c0a20a8351ecea0f","","","","","1650",""," ","key"," ","16.707959183673516","500","250","br","-2","2","0","-2","-5","-28","296"
"","psychophysics","66","375716","0.0-66.0","6488e429e530a1949174c9f4","64de8047c0a20a8351ecea0f","","","","","3260",""," ","key"," ","16.696000000000154","500","250","br","21","2","0","3","2","-6","201"
"","psychophysics","67","378355","0.0-67.0","6488e429e530a1949174c9f4","64de8047c0a20a8351ecea0f","","","","","2636",""," ","key"," ","16.70140127388532","500","250","br","32","2","0","18","-7","0","299"
"","psychophysics","68","381861","0.0-68.0","6488e429e530a1949174c9f4","64de8047c0a20a8351ecea0f","","","","","3501",""," ","key"," ","16.70210526315785","500","250","br","27","2","0","23","-5","11","266"
"","psychophysics","69","387703","0.0-69.0","6488e429e530a1949174c9f4","64de8047c0a20a8351ecea0f","","","","","5839",""," ","key"," ","16.700974212034424","500","250","br","23","2","0","2","22","-10","259"
"","psychophysics","70","392565","0.0-70.0","6488e429e530a1949174c9f4","64de8047c0a20a8351ecea0f","","","","","4858",""," ","key"," ","16.7","500","250","br","28","2","0","29","-8","11","260"
"","psychophysics","71","400634","0.0-71.0","6488e429e530a1949174c9f4","64de8047c0a20a8351ecea0f","","","","","null","","null","key","null","16.911386554621863","500","250","br","6","2","0","-21","-23","-13","223"
"","psychophysics","72","405400","0.0-72.0","6488e429e530a1949174c9f4","64de8047c0a20a8351ecea0f","","","","","4750",""," ","key"," ","16.817234042553267","500","250","br","18","2","0","1","-8","-29","211"
"","psychophysics","73","407299","0.0-73.0","6488e429e530a1949174c9f4","64de8047c0a20a8351ecea0f","","","","","1887",""," ","key"," ","16.9972972972974","500","250","br","20","2","0","8","-10","-12","274"
"","psychophysics","74","409084","0.0-74.0","6488e429e530a1949174c9f4","64de8047c0a20a8351ecea0f","","","","","1755",""," ","key"," ","16.85999999999989","500","250","br","22","2","0","18","7","-30","228"
"","psychophysics","75","413411","0.0-75.0","6488e429e530a1949174c9f4","64de8047c0a20a8351ecea0f","","","","","4325",""," ","key"," ","16.705658914728673","500","250","br","25","2","0","-15","-9","28","297"
"","psychophysics","76","416358","0.0-76.0","6488e429e530a1949174c9f4","64de8047c0a20a8351ecea0f","","","","","2932",""," ","key"," ","16.69909090909079","500","250","br","26","2","0","13","-23","-16","244"
"","psychophysics","77","421637","0.0-77.0","6488e429e530a1949174c9f4","64de8047c0a20a8351ecea0f","","","","","5270",""," ","key"," ","16.74898089171972","500","250","br","27","2","0","29","14","-24","222"
"","psychophysics","78","425794","0.0-78.0","6488e429e530a1949174c9f4","64de8047c0a20a8351ecea0f","","","","","4152",""," ","key"," ","16.70542510121477","500","250","br","25","2","0","-23","16","16","297"
"","psychophysics","79","426866","0.0-79.0","6488e429e530a1949174c9f4","64de8047c0a20a8351ecea0f","","","","","1049",""," ","key"," ","16.698437500000182","500","250","inst","","","","","","",""
"","psychophysics","80","428301","0.0-80.0","6488e429e530a1949174c9f4","64de8047c0a20a8351ecea0f","","","","","1430",""," ","key"," ","16.886190476190503","500","250","instZol0","0","","","0","0","0",""
"","psychophysics","81","440413","0.0-81.0","6488e429e530a1949174c9f4","64de8047c0a20a8351ecea0f","","","","","12106",""," ","key"," ","16.698287292817675","500","250","instZol1","-0.10000000000000003","","","-1.3","0","0",""
"","psychophysics","82","445022","0.0-82.0","6488e429e530a1949174c9f4","64de8047c0a20a8351ecea0f","","","","","4607",""," ","key"," ","16.70341818181819","500","250","instZol2","-1.6999999999999997","2","","2","0","0",""
"","psychophysics","83","446036","0.0-83.0","6488e429e530a1949174c9f4","64de8047c0a20a8351ecea0f","","","","","1011",""," ","key"," ","16.70066666666632","500","250","inst","","","","","","",""
"","psychophysics","84","448444","0.0-84.0","6488e429e530a1949174c9f4","64de8047c0a20a8351ecea0f","","","","","2403",""," ","key"," ","16.82464788732419","500","250","zol","-1.12","2","0","0.32","-20","18",""
"","psychophysics","85","455837","0.0-85.0","6488e429e530a1949174c9f4","64de8047c0a20a8351ecea0f","","","","","7386",""," ","key"," ","16.699455782312974","500","250","zol","-1.2","2","0","-0.2","12","30",""
"","psychophysics","86","460438","0.0-86.0","6488e429e530a1949174c9f4","64de8047c0a20a8351ecea0f","","","","","4556",""," ","key"," ","17.137686567164266","500","250","zol","-1.13","2","0","-0.67","13","-17",""
"","psychophysics","87","465412","0.0-87.0","6488e429e530a1949174c9f4","64de8047c0a20a8351ecea0f","","","","","4928",""," ","key"," ","16.69655405405403","500","250","zol","-0.9499999999999998","2","0","-0.75","4","-8",""
"","psychophysics","88","468843","0.0-88.0","6488e429e530a1949174c9f4","64de8047c0a20a8351ecea0f","","","","","3395",""," ","key"," ","16.704313725490447","500","250","zol","-0.7399999999999999","2","0","-0.66","6","21",""
"","psychophysics","89","471814","0.0-89.0","6488e429e530a1949174c9f4","64de8047c0a20a8351ecea0f","","","","","2925",""," ","key"," ","16.699886363636654","500","250","zol","-0.9500000000000001","2","0","0.45","14","30",""
"","psychophysics","90","475151","0.0-90.0","6488e429e530a1949174c9f4","64de8047c0a20a8351ecea0f","","","","","3284",""," ","key"," ","16.78060913705598","500","250","zol","-1.2700000000000002","2","0","0.67","20","26",""
"","psychophysics","91","478443","0.0-91.0","6488e429e530a1949174c9f4","64de8047c0a20a8351ecea0f","","","","","3258",""," ","key"," ","16.706734693877646","500","250","zol","-1.5700000000000005","2","0","0.67","22","5",""
"","psychophysics","92","484294","0.0-92.0","6488e429e530a1949174c9f4","64de8047c0a20a8351ecea0f","","","","","5813",""," ","key"," ","16.69759312320923","500","250","zol","-1.25","2","0","-0.55","9","16",""
"","psychophysics","93","488805","0.0-93.0","6488e429e530a1949174c9f4","64de8047c0a20a8351ecea0f","","","","","4474",""," ","key"," ","16.7028252788104","500","250","zol","-1.5900000000000003","2","0","0.49","2","-23",""
"","psychophysics","94","494307","0.0-94.0","6488e429e530a1949174c9f4","64de8047c0a20a8351ecea0f","","","","","5433",""," ","key"," ","16.70346504559271","500","250","zol","-1.8800000000000006","2","0","-0.32","-13","-12",""
"","psychophysics","95","500904","0.0-95.0","6488e429e530a1949174c9f4","64de8047c0a20a8351ecea0f","","","","","6561",""," ","key"," ","16.78469387755111","500","250","zol","-1.6000000000000003","2","0","-0.7","-29","20",""
"","psychophysics","96","504365","0.0-96.0","6488e429e530a1949174c9f4","64de8047c0a20a8351ecea0f","","","","","3426",""," ","key"," ","16.777658536585285","500","250","zol","-1.4000000000000001","2","0","0.3","28","-25",""
"","psychophysics","97","511539","0.0-97.0","6488e429e530a1949174c9f4","64de8047c0a20a8351ecea0f","","","","","7140",""," ","key"," ","16.859294117647085","500","250","zol","-1.23","2","0","-0.67","22","-25",""
"","psychophysics","98","517826","0.0-98.0","6488e429e530a1949174c9f4","64de8047c0a20a8351ecea0f","","","","","6273",""," ","key"," ","16.745614973261993","500","250","zol","-1.6200000000000006","2","0","-0.58","10","10",""
"","psychophysics","99","518687","0.0-99.0","6488e429e530a1949174c9f4","64de8047c0a20a8351ecea0f","","","","","827",""," ","key"," ","16.706799999999348","500","250","inst","","","","","","",""
"","psychophysics","100","520190","0.0-100.0","6488e429e530a1949174c9f4","64de8047c0a20a8351ecea0f","","","","","1484",""," ","key"," ","16.686741573033654","500","250","instEB0","40","1","","40","0","0","40"
"","psychophysics","101","524294","0.0-101.0","6488e429e530a1949174c9f4","64de8047c0a20a8351ecea0f","","","","","4100",""," ","key"," ","16.706448979592142","500","250","instEB1","28","1","","40","0","0","30"
"","psychophysics","102","533299","0.0-102.0","6488e429e530a1949174c9f4","64de8047c0a20a8351ecea0f","","","","","8995",""," ","key"," ","16.6995539033457","500","250","instEB2","38","1","","30","0","0","40"
"","psychophysics","103","543605","0.0-103.0","6488e429e530a1949174c9f4","64de8047c0a20a8351ecea0f","","","","","10283",""," ","key"," ","16.699610389610328","500","250","instEB3","36","1","","27","0","0","45"
"","psychophysics","104","554476","0.0-104.0","6488e429e530a1949174c9f4","64de8047c0a20a8351ecea0f","","","","","10852",""," ","key"," ","16.701692307692273","500","250","instEB4","25","1","","40","0","0","30"
"","psychophysics","105","555515","0.0-105.0","6488e429e530a1949174c9f4","64de8047c0a20a8351ecea0f","","","","","1035",""," ","key"," ","16.628196721312545","500","250","inst","","","","","","",""
"","psychophysics","106","563523","0.0-106.0","6488e429e530a1949174c9f4","64de8047c0a20a8351ecea0f","","","","","null","","null","key","null","16.697912317327862","500","250","eb","22","1","","50","0","0","26"
"","psychophysics","107","567549","0.0-107.0","6488e429e530a1949174c9f4","64de8047c0a20a8351ecea0f","","","","","4019",""," ","key"," ","16.699333333333197","500","250","eb","33","1","","34","0","0","47"
"","psychophysics","108","571252","0.0-108.0","6488e429e530a1949174c9f4","64de8047c0a20a8351ecea0f","","","","","3695",""," ","key"," ","16.694272727272686","500","250","eb","22","1","","34","0","0","28"
"","psychophysics","109","576318","0.0-109.0","6488e429e530a1949174c9f4","64de8047c0a20a8351ecea0f","","","","","5037",""," ","key"," ","16.704686468646926","500","250","eb","34","1","","26","0","0","47"
"","psychophysics","110","578689","0.0-110.0","6488e429e530a1949174c9f4","64de8047c0a20a8351ecea0f","","","","","2335",""," ","key"," ","16.695571428571462","500","250","eb","36","1","","39","0","0","52"
"","psychophysics","111","583068","0.0-111.0","6488e429e530a1949174c9f4","64de8047c0a20a8351ecea0f","","","","","4329",""," ","key"," ","16.701685823754843","500","250","eb","34","1","","47","0","0","45"
"","psychophysics","112","588260","0.0-112.0","6488e429e530a1949174c9f4","64de8047c0a20a8351ecea0f","","","","","5171",""," ","key"," ","16.69664516129058","500","250","eb","35","1","","27","0","0","44"
"","psychophysics","113","593201","0.0-113.0","6488e429e530a1949174c9f4","64de8047c0a20a8351ecea0f","","","","","4934",""," ","key"," ","16.706169491525646","500","250","eb","47","1","","30","0","0","53"
"","psychophysics","114","600106","0.0-114.0","6488e429e530a1949174c9f4","64de8047c0a20a8351ecea0f","","","","","6898",""," ","key"," ","16.698398058252405","500","250","eb","21","1","","54","0","0","28"
"","psychophysics","115","607098","0.0-115.0","6488e429e530a1949174c9f4","64de8047c0a20a8351ecea0f","","","","","6968",""," ","key"," ","16.70272727272725","500","250","eb","23","1","","49","0","0","28"
"","psychophysics","116","609874","0.0-116.0","6488e429e530a1949174c9f4","64de8047c0a20a8351ecea0f","","","","","2767",""," ","key"," ","16.69115151515174","500","250","eb","38","1","","45","0","0","49"
"","psychophysics","117","615081","0.0-117.0","6488e429e530a1949174c9f4","64de8047c0a20a8351ecea0f","","","","","5169",""," ","key"," ","16.756451612903227","500","250","eb","43","1","","44","0","0","53"
"","psychophysics","118","619524","0.0-118.0","6488e429e530a1949174c9f4","64de8047c0a20a8351ecea0f","","","","","4438",""," ","key"," ","16.701811320754647","500","250","eb","26","1","","34","0","0","31"
"","psychophysics","119","625355","0.0-119.0","6488e429e530a1949174c9f4","64de8047c0a20a8351ecea0f","","","","","5793",""," ","key"," ","16.70068965517232","500","250","eb","31","1","","24","0","0","39"
"","psychophysics","120","628909","0.0-120.0","6488e429e530a1949174c9f4","64de8047c0a20a8351ecea0f","","","","","3536",""," ","key"," ","16.695377358490763","500","250","eb","34","1","","33","0","0","45"
"","psychophysics","121","629859","0.0-121.0","6488e429e530a1949174c9f4","64de8047c0a20a8351ecea0f","","","","","929",""," ","key"," ","16.70321428571437","500","250","inst","","","","","","",""
"","psychophysics","122","634826","0.0-122.0","6488e429e530a1949174c9f4","64de8047c0a20a8351ecea0f","","","","","4960",""," ","key"," ","16.703040540540464","500","250","instZol1","0.10000000000000003","","","-1.3","0","0",""
"","psychophysics","123","645283","0.0-123.0","6488e429e530a1949174c9f4","64de8047c0a20a8351ecea0f","","","","","10418",""," ","key"," ","16.69993599999994","500","250","instZol2","1.7000000000000013","1","","2","0","0",""
"","psychophysics","124","646130","0.0-124.0","6488e429e530a1949174c9f4","64de8047c0a20a8351ecea0f","","","","","834",""," ","key"," ","16.701999999999533","500","250","inst","","","","","","",""
"","psychophysics","125","651124","0.0-125.0","6488e429e530a1949174c9f4","64de8047c0a20a8351ecea0f","","","","","4952",""," ","key"," ","16.699194630872437","500","250","zol","0.9099999999999999","1","1","0.69","-25","19",""
"","psychophysics","126","653930","0.0-126.0","6488e429e530a1949174c9f4","64de8047c0a20a8351ecea0f","","","","","2773",""," ","key"," ","16.700359281436903","500","250","zol","0.49","1","1","0.71","-7","9",""
"","psychophysics","127","660123","0.0-127.0","6488e429e530a1949174c9f4","64de8047c0a20a8351ecea0f","","","","","6143",""," ","key"," ","16.702432432432182","500","250","zol","1.8800000000000008","1","1","0.42","-16","-24",""
"","psychophysics","128","666137","0.0-128.0","6488e429e530a1949174c9f4","64de8047c0a20a8351ecea0f","","","","","5982",""," ","key"," ","16.699498607242326","500","250","zol","1.9300000000000006","1","1","0.67","-29","-18",""
"","psychophysics","129","672419","0.0-129.0","6488e429e530a1949174c9f4","64de8047c0a20a8351ecea0f","","","","","6248",""," ","key"," ","16.698826666666506","500","250","zol","1.8200000000000007","1","1","0.08","6","-22",""
"","psychophysics","130","680002","0.0-130.0","6488e429e530a1949174c9f4","64de8047c0a20a8351ecea0f","","","","","7533",""," ","key"," ","16.70353200882992","500","250","zol","2.040000000000001","1","1","0.16","2","-21",""
"","psychophysics","131","687086","0.0-131.0","6488e429e530a1949174c9f4","64de8047c0a20a8351ecea0f","","","","","7039",""," ","key"," ","16.737914691943182","500","250","zol","2.190000000000001","1","1","0.41","-14","16",""
"","psychophysics","132","691970","0.0-132.0","6488e429e530a1949174c9f4","64de8047c0a20a8351ecea0f","","","","","4858",""," ","key"," ","16.700410958903774","500","250","zol","2.130000000000001","1","1","-0.73","-15","5",""
"","psychophysics","133","696731","0.0-133.0","6488e429e530a1949174c9f4","64de8047c0a20a8351ecea0f","","","","","4728",""," ","key"," ","16.704647887323926","500","250","zol","1.7000000000000004","1","1","0.5","1","25",""
"","psychophysics","134","703131","0.0-134.0","6488e429e530a1949174c9f4","64de8047c0a20a8351ecea0f","","","","","6338",""," ","key"," ","16.740314960629764","500","250","zol","1.6700000000000004","1","1","0.63","-12","-13",""
"","psychophysics","135","708457","0.0-135.0","6488e429e530a1949174c9f4","64de8047c0a20a8351ecea0f","","","","","5278",""," ","key"," ","16.701446540880678","500","250","zol","1.5500000000000005","1","1","0.45","10","-1",""
"","psychophysics","136","712713","0.0-136.0","6488e429e530a1949174c9f4","64de8047c0a20a8351ecea0f","","","","","4226",""," ","key"," ","16.70637795275607","500","250","zol","1.5600000000000003","1","1","0.54","-23","1",""
"","psychophysics","137","715659","0.0-137.0","6488e429e530a1949174c9f4","64de8047c0a20a8351ecea0f","","","","","2937",""," ","key"," ","16.7","500","250","zol","1.9400000000000008","1","1","0.16","-30","-1",""
"","psychophysics","138","721833","0.0-138.0","6488e429e530a1949174c9f4","64de8047c0a20a8351ecea0f","","","","","6144",""," ","key"," ","16.69701897018989","500","250","zol","1.5900000000000003","1","1","0.31","-28","-18",""
"","psychophysics","139","727802","0.0-139.0","6488e429e530a1949174c9f4","64de8047c0a20a8351ecea0f","","","","","5926",""," ","key"," ","16.70387640449459","500","250","zol","1.7700000000000005","1","1","-0.07","23","18",""
"","psychophysics","140","728605","0.0-140.0","6488e429e530a1949174c9f4","64de8047c0a20a8351ecea0f","","","","","791",""," ","key"," ","16.666666666666668","500","250","inst","","","","","","",""
"","psychophysics","141","735115","0.0-141.0","6488e429e530a1949174c9f4","64de8047c0a20a8351ecea0f","","","","","6502",""," ","key"," ","16.701443298969156","500","250","instPog0","340","2","","370","0","0","340"
"","psychophysics","142","739363","0.0-142.0","6488e429e530a1949174c9f4","64de8047c0a20a8351ecea0f","","","","","4236",""," ","key"," ","16.704488188976615","500","250","instPog1","342","2","","370","0","0","340"
"","psychophysics","143","741651","0.0-143.0","6488e429e530a1949174c9f4","64de8047c0a20a8351ecea0f","","","","","2284",""," ","key"," ","16.69249999999952","500","250","instPog2","332","2","","340","0","0","340"
"","psychophysics","144","742836","0.0-144.0","6488e429e530a1949174c9f4","64de8047c0a20a8351ecea0f","","","","","1180",""," ","key"," ","16.720285714286312","500","250","inst","","","","","","",""
"","psychophysics","145","749805","0.0-145.0","6488e429e530a1949174c9f4","64de8047c0a20a8351ecea0f","","","","","6964",""," ","key"," ","16.698846153846368","500","250","pog","326","2","1","342","0","0","338"
"","psychophysics","146","755602","0.0-146.0","6488e429e530a1949174c9f4","64de8047c0a20a8351ecea0f","","","","","5750",""," ","key"," ","16.700231213872915","500","250","pog","296","2","1","388","0","0","306"
"","psychophysics","147","758593","0.0-147.0","6488e429e530a1949174c9f4","64de8047c0a20a8351ecea0f","","","","","2986",""," ","key"," ","16.697977528089837","500","250","pog","347","2","1","359","0","0","354"
"","psychophysics","148","764202","0.0-148.0","6488e429e530a1949174c9f4","64de8047c0a20a8351ecea0f","","","","","5593",""," ","key"," ","16.700955223880445","500","250","pog","376","2","1","360","0","0","378"
"","psychophysics","149","769668","0.0-149.0","6488e429e530a1949174c9f4","64de8047c0a20a8351ecea0f","","","","","5462",""," ","key"," ","16.70325153374236","500","250","pog","327","2","1","297","0","0","332"
"","psychophysics","150","774547","0.0-150.0","6488e429e530a1949174c9f4","64de8047c0a20a8351ecea0f","","","","","4865",""," ","key"," ","16.699726027397084","500","250","pog","352","2","1","282","0","0","373"
"","psychophysics","151","777161","0.0-151.0","6488e429e530a1949174c9f4","64de8047c0a20a8351ecea0f","","","","","2608",""," ","key"," ","16.692903225806603","500","250","pog","334","2","1","328","0","0","343"
"","psychophysics","152","780617","0.0-152.0","6488e429e530a1949174c9f4","64de8047c0a20a8351ecea0f","","","","","3450",""," ","key"," ","16.705242718446737","500","250","pog","347","2","1","325","0","0","353"
"","psychophysics","153","787293","0.0-153.0","6488e429e530a1949174c9f4","64de8047c0a20a8351ecea0f","","","","","6672",""," ","key"," ","16.70170426065158","500","250","pog","354","2","1","284","0","0","365"
"","psychophysics","154","791939","0.0-154.0","6488e429e530a1949174c9f4","64de8047c0a20a8351ecea0f","","","","","4640",""," ","key"," ","16.695306859205694","500","250","pog","309","2","1","385","0","0","309"
"","psychophysics","155","794604","0.0-155.0","6488e429e530a1949174c9f4","64de8047c0a20a8351ecea0f","","","","","2663",""," ","key"," ","16.703522012578528","500","250","pog","330","2","1","332","0","0","341"
"","psychophysics","156","798826","0.0-156.0","6488e429e530a1949174c9f4","64de8047c0a20a8351ecea0f","","","","","4215",""," ","key"," ","16.701115537848995","500","250","pog","365","2","1","387","0","0","371"
"","psychophysics","157","801188","0.0-157.0","6488e429e530a1949174c9f4","64de8047c0a20a8351ecea0f","","","","","2348",""," ","key"," ","16.708085106382747","500","250","pog","345","2","1","329","0","0","356"
"","psychophysics","158","803411","0.0-158.0","6488e429e530a1949174c9f4","64de8047c0a20a8351ecea0f","","","","","2219",""," ","key"," ","16.69090909090874","500","250","pog","317","2","1","323","0","0","328"
"","psychophysics","159","809507","0.0-159.0","6488e429e530a1949174c9f4","64de8047c0a20a8351ecea0f","","","","","6093",""," ","key"," ","16.700054945055125","500","250","pog","360","2","1","308","0","0","374"
"","psychophysics","160","810313","0.0-160.0","6488e429e530a1949174c9f4","64de8047c0a20a8351ecea0f","","","","","804",""," ","key"," ","16.710212765957547","500","250","inst","","","","","","",""
"","psychophysics","161","817658","0.0-161.0","6488e429e530a1949174c9f4","64de8047c0a20a8351ecea0f","","","","","7332",""," ","key"," ","16.69963553530755","500","250","instEB1","44","2","","30","0","0","40"
"","psychophysics","162","820681","0.0-162.0","6488e429e530a1949174c9f4","64de8047c0a20a8351ecea0f","","","","","3020",""," ","key"," ","16.70700000000005","500","250","instEB2","37","2","","40","0","0","30"
"","psychophysics","163","830401","0.0-163.0","6488e429e530a1949174c9f4","64de8047c0a20a8351ecea0f","","","","","9716",""," ","key"," ","16.698519793459695","500","250","instEB3","31","2","","45","0","0","27"
"","psychophysics","164","836395","0.0-164.0","6488e429e530a1949174c9f4","64de8047c0a20a8351ecea0f","","","","","5990",""," ","key"," ","16.704357541899533","500","250","instEB4","54","2","","30","0","0","40"
"","psychophysics","165","837200","0.0-165.0","6488e429e530a1949174c9f4","64de8047c0a20a8351ecea0f","","","","","802",""," ","key"," ","16.666808510637605","500","250","inst","","","","","","",""
"","psychophysics","166","843113","0.0-166.0","6488e429e530a1949174c9f4","64de8047c0a20a8351ecea0f","","","","","5898",""," ","key"," ","16.705495750707993","500","250","eb","48","2","","46","0","0","33"
"","psychophysics","167","849236","0.0-167.0","6488e429e530a1949174c9f4","64de8047c0a20a8351ecea0f","","","","","6105",""," ","key"," ","16.697814207650335","500","250","eb","53","2","","30","0","0","41"
"","psychophysics","168","851526","0.0-168.0","6488e429e530a1949174c9f4","64de8047c0a20a8351ecea0f","","","","","2282",""," ","key"," ","17.465384615384615","500","250","eb","58","2","","49","0","0","45"
"","psychophysics","169","855967","0.0-169.0","6488e429e530a1949174c9f4","64de8047c0a20a8351ecea0f","","","","","4399",""," ","key"," ","16.704166666666755","500","250","eb","32","2","","26","0","0","25"
"","psychophysics","170","861244","0.0-170.0","6488e429e530a1949174c9f4","64de8047c0a20a8351ecea0f","","","","","5249",""," ","key"," ","16.697206349206333","500","250","eb","43","2","","54","0","0","38"
"","psychophysics","171","865041","0.0-171.0","6488e429e530a1949174c9f4","64de8047c0a20a8351ecea0f","","","","","3790",""," ","key"," ","16.69345132743402","500","250","eb","40","2","","33","0","0","31"
"","psychophysics","172","868249","0.0-172.0","6488e429e530a1949174c9f4","64de8047c0a20a8351ecea0f","","","","","3189",""," ","key"," ","16.70712041884846","500","250","eb","37","2","","27","0","0","28"
"","psychophysics","173","872284","0.0-173.0","6488e429e530a1949174c9f4","64de8047c0a20a8351ecea0f","","","","","3999",""," ","key"," ","16.698257261410905","500","250","eb","63","2","","49","0","0","53"
"","psychophysics","174","880288","0.0-174.0","6488e429e530a1949174c9f4","64de8047c0a20a8351ecea0f","","","","","null","","null","key","null","16.698702928870254","500","250","eb","48","2","","47","0","0","34"
"","psychophysics","175","886477","0.0-175.0","6488e429e530a1949174c9f4","64de8047c0a20a8351ecea0f","","","","","6169",""," ","key"," ","16.703297297297222","500","250","eb","57","2","","25","0","0","50"
"","psychophysics","176","891424","0.0-176.0","6488e429e530a1949174c9f4","64de8047c0a20a8351ecea0f","","","","","4939",""," ","key"," ","16.683796610169793","500","250","eb","26","2","","45","0","0","24"
"","psychophysics","177","895013","0.0-177.0","6488e429e530a1949174c9f4","64de8047c0a20a8351ecea0f","","","","","3570",""," ","key"," ","16.700560747663747","500","250","eb","39","2","","45","0","0","34"
"","psychophysics","178","903019","0.0-178.0","6488e429e530a1949174c9f4","64de8047c0a20a8351ecea0f","","","","","null","","null","key","null","16.69941422594156","500","250","eb","50","2","","49","0","0","45"
"","psychophysics","179","907657","0.0-179.0","6488e429e530a1949174c9f4","64de8047c0a20a8351ecea0f","","","","","4599",""," ","key"," ","16.702454873646058","500","250","eb","57","2","","38","0","0","48"
"","psychophysics","180","910964","0.0-180.0","6488e429e530a1949174c9f4","64de8047c0a20a8351ecea0f","","","","","3299",""," ","key"," ","16.781734693877407","500","250","eb","57","2","","50","0","0","48"
"","psychophysics","181","911801","0.0-181.0","6488e429e530a1949174c9f4","64de8047c0a20a8351ecea0f","","","","","809",""," ","key"," ","16.707755102039485","500","250","inst","","","","","","",""
"","psychophysics","182","924124","0.0-182.0","6488e429e530a1949174c9f4","64de8047c0a20a8351ecea0f","","","","","12292",""," ","key"," ","16.700786974219785","500","250","instPz1","-45","2","","25","","","50"
"","psychophysics","183","931961","0.0-183.0","6488e429e530a1949174c9f4","64de8047c0a20a8351ecea0f","","","","","7819",""," ","key"," ","16.698931623931575","500","250","instPz2","-31","2","","20","","","35"
"","psychophysics","184","941425","0.0-184.0","6488e429e530a1949174c9f4","64de8047c0a20a8351ecea0f","","","","","9436",""," ","key"," ","16.699717314487494","500","250","instPz3","-81","2","","30","","","100"
"","psychophysics","185","941625","0.0-185.0","6488e429e530a1949174c9f4","64de8047c0a20a8351ecea0f","","","","","185",""," ","key"," ","16.834545454539526","500","250","instPz4","30","2","","30","","","100"
"","psychophysics","186","942890","0.0-186.0","6488e429e530a1949174c9f4","64de8047c0a20a8351ecea0f","","","","","1262",""," ","key"," ","16.69360000000025","500","250","inst","","","","","","",""
"","psychophysics","187","949268","0.0-187.0","6488e429e530a1949174c9f4","64de8047c0a20a8351ecea0f","","","","","6367",""," ","key"," ","16.698110236220423","500","250","pz","-16","2","1","59","","","21"
"","psychophysics","188","957274","0.0-188.0","6488e429e530a1949174c9f4","64de8047c0a20a8351ecea0f","","","","","null","","null","key","null","16.70221757322158","500","250","pz","-40","2","1","42","","","51"
"","psychophysics","189","961649","0.0-189.0","6488e429e530a1949174c9f4","64de8047c0a20a8351ecea0f","","","","","4371",""," ","key"," ","16.696015325670622","500","250","pz","-35","2","1","22","","","41"
"","psychophysics","190","967143","0.0-190.0","6488e429e530a1949174c9f4","64de8047c0a20a8351ecea0f","","","","","5487",""," ","key"," ","16.701219512195124","500","250","pz","-18","2","1","55","","","20"
"","psychophysics","191","974880","0.0-191.0","6488e429e530a1949174c9f4","64de8047c0a20a8351ecea0f","","","","","7723",""," ","key"," ","16.703246753246805","500","250","pz","-30","2","1","30","","","39"
"","psychophysics","192","980195","0.0-192.0","6488e429e530a1949174c9f4","64de8047c0a20a8351ecea0f","","","","","5269",""," ","key"," ","16.696825396825396","500","250","pz","-36","2","1","51","","","48"
"","psychophysics","193","985497","0.0-193.0","6488e429e530a1949174c9f4","64de8047c0a20a8351ecea0f","","","","","5258",""," ","key"," ","16.701708860759464","500","250","pz","-30","2","1","32","","","37"
"","psychophysics","194","992496","0.0-194.0","6488e429e530a1949174c9f4","64de8047c0a20a8351ecea0f","","","","","6977",""," ","key"," ","16.699377990430545","500","250","pz","-51","2","1","38","","","60"
"","psychophysics","195","999025","0.0-195.0","6488e429e530a1949174c9f4","64de8047c0a20a8351ecea0f","","","","","6496",""," ","key"," ","16.703589743589802","500","250","pz","-50","2","1","30","","","58"
"","psychophysics","196","1003628","0.0-196.0","6488e429e530a1949174c9f4","64de8047c0a20a8351ecea0f","","","","","4590",""," ","key"," ","16.701672727273014","500","250","pz","-20","2","1","25","","","23"
"","psychophysics","197","1010848","0.0-197.0","6488e429e530a1949174c9f4","64de8047c0a20a8351ecea0f","","","","","7213",""," ","key"," ","16.698468677494287","500","250","pz","-36","2","1","43","","","48"
"","psychophysics","198","1018154","0.0-198.0","6488e429e530a1949174c9f4","64de8047c0a20a8351ecea0f","","","","","7295",""," ","key"," ","16.700917431192607","500","250","pz","-35","2","1","35","","","40"
"","psychophysics","199","1023187","0.0-199.0","6488e429e530a1949174c9f4","64de8047c0a20a8351ecea0f","","","","","5008",""," ","key"," ","16.70006644518302","500","250","pz","-19","2","1","30","","","20"
"","psychophysics","200","1028736","0.0-200.0","6488e429e530a1949174c9f4","64de8047c0a20a8351ecea0f","","","","","5544",""," ","key"," ","16.701450151057557","500","250","pz","-43","2","1","21","","","54"
"","psychophysics","201","1034747","0.0-201.0","6488e429e530a1949174c9f4","64de8047c0a20a8351ecea0f","","","","","5979",""," ","key"," ","16.698662952646096","500","250","pz","-47","2","1","40","","","57"
"","psychophysics","202","1035433","0.0-202.0","6488e429e530a1949174c9f4","64de8047c0a20a8351ecea0f","","","","","680",""," ","key"," ","16.696999999997207","500","250","inst","","","","","","",""
"","psychophysics","203","1040865","0.0-203.0","6488e429e530a1949174c9f4","64de8047c0a20a8351ecea0f","","","","","5405",""," ","key"," ","16.701851851851565","500","250","instBr3","-13","1","","40","0","0","300"
"","psychophysics","204","1041632","0.0-204.0","6488e429e530a1949174c9f4","64de8047c0a20a8351ecea0f","","","","","744",""," ","key"," ","17.09181818181903","500","250","inst","","","","","","",""
"","psychophysics","205","1045936","0.0-205.0","6488e429e530a1949174c9f4","64de8047c0a20a8351ecea0f","","","","","4275",""," ","key"," ","16.699610894941816","500","250","br","-14","1","1","-5","-1","-7","269"
"","psychophysics","206","1050090","0.0-206.0","6488e429e530a1949174c9f4","64de8047c0a20a8351ecea0f","","","","","4149",""," ","key"," ","16.69782258064445","500","250","br","-11","1","1","-22","27","-2","219"
"","psychophysics","207","1052320","0.0-207.0","6488e429e530a1949174c9f4","64de8047c0a20a8351ecea0f","","","","","2225",""," ","key"," ","16.69757575757456","500","250","br","-9","1","1","-3","24","14","300"
"","psychophysics","208","1058632","0.0-208.0","6488e429e530a1949174c9f4","64de8047c0a20a8351ecea0f","","","","","6273",""," ","key"," ","16.70116710875292","500","250","br","-10","1","1","-5","-16","12","254"
"","psychophysics","209","1061601","0.0-209.0","6488e429e530a1949174c9f4","64de8047c0a20a8351ecea0f","","","","","2956",""," ","key"," ","16.709491525422834","500","250","br","-11","1","1","8","10","7","276"
"","psychophysics","210","1067400","0.0-210.0","6488e429e530a1949174c9f4","64de8047c0a20a8351ecea0f","","","","","5792",""," ","key"," ","16.695202312138836","500","250","br","-10","1","1","10","11","-5","229"
"","psychophysics","211","1071072","0.0-211.0","6488e429e530a1949174c9f4","64de8047c0a20a8351ecea0f","","","","","3647",""," ","key"," ","16.701735159817055","500","250","br","-17","1","1","-5","-25","-9","233"
"","psychophysics","212","1076830","0.0-212.0","6488e429e530a1949174c9f4","64de8047c0a20a8351ecea0f","","","","","5732",""," ","key"," ","16.701337209302352","500","250","br","-11","1","1","18","-11","30","282"
"","psychophysics","213","1081321","0.0-213.0","6488e429e530a1949174c9f4","64de8047c0a20a8351ecea0f","","","","","4488",""," ","key"," ","16.696119402985282","500","250","br","-16","1","1","-27","24","24","229"
"","psychophysics","214","1084849","0.0-214.0","6488e429e530a1949174c9f4","64de8047c0a20a8351ecea0f","","","","","3523",""," ","key"," ","16.704095238094617","500","250","br","-8","1","1","26","-26","7","244"
"","psychophysics","215","1089536","0.0-215.0","6488e429e530a1949174c9f4","64de8047c0a20a8351ecea0f","","","","","4666",""," ","key"," ","16.701571428571228","500","250","br","-12","1","1","19","22","-6","297"
"","psychophysics","216","1092410","0.0-216.0","6488e429e530a1949174c9f4","64de8047c0a20a8351ecea0f","","","","","2867",""," ","key"," ","16.70187134502935","500","250","br","-13","1","1","23","3","-13","220"
"","psychophysics","217","1096504","0.0-217.0","6488e429e530a1949174c9f4","64de8047c0a20a8351ecea0f","","","","","4090",""," ","key"," ","16.69663934426222","500","250","br","-9","1","1","-30","-24","-29","295"
"","psychophysics","218","1100184","0.0-218.0","6488e429e530a1949174c9f4","64de8047c0a20a8351ecea0f","","","","","3676",""," ","key"," ","16.70283105022797","500","250","br","-12","1","1","-11","-10","3","227"
"","psychophysics","219","1102304","0.0-219.0","6488e429e530a1949174c9f4","64de8047c0a20a8351ecea0f","","","","","2107",""," ","key"," ","16.698730158728605","500","250","br","-12","1","1","-3","-12","21","211"
