"success","trial_type","trial_index","time_elapsed","internal_node_id","pid","sid","timeout","failed_images","failed_audio","failed_video","rt","stimulus","response","response_type","key_press","avg_frame_time","center_x","center_y","task","resp","version","block","jitterX","jitterY","start","parA"
"true","fullscreen","0","3069","0.0-0.0","607a1916608816aafa36bdd7","64e50dd6662e71628227c6a2","","","","","","","","","","","","","","","","","","","",""
"true","preload","1","3400","0.0-1.0","607a1916608816aafa36bdd7","64e50dd6662e71628227c6a2","false","[]","[]","[]","","","","","","","","","","","","","","","",""
"","html-button-response","2","35639","0.0-2.0","607a1916608816aafa36bdd7","64e50dd6662e71628227c6a2","","","","","32227","Please Make Sure Your Audio Is On.","0","","","","","","","","","","","","",""
"","psychophysics","3","41661","0.0-3.0","607a1916608816aafa36bdd7","64e50dd6662e71628227c6a2","","","","","5967",""," ","key"," ","16.836540616246488","593.9130557912963","249.56522256530312","","","","","","","",""
"","psychophysics","4","44156","0.0-4.0","607a1916608816aafa36bdd7","64e50dd6662e71628227c6a2","","","","","2473",""," ","key"," ","16.876496598639463","499.5652277483158","249.56522256530312","inst","","","","","","",""
"","psychophysics","5","46622","0.0-5.0","607a1916608816aafa36bdd7","64e50dd6662e71628227c6a2","","","","","2431",""," ","key"," ","16.650013513513546","499.5652277483158","249.56522256530312","sample0","","","","","","",""
"","psychophysics","6","48913","0.0-6.0","607a1916608816aafa36bdd7","64e50dd6662e71628227c6a2","","","","","2286",""," ","key"," ","16.65","499.5652277483158","249.56522256530312","sample1","","","","","","",""
"","psychophysics","7","51582","0.0-7.0","607a1916608816aafa36bdd7","64e50dd6662e71628227c6a2","","","","","2619",""," ","key"," ","16.754635220125746","499.5652277483158","249.56522256530312","sample2","130","","","","","",""
"","psychophysics","8","54681","0.0-8.0","607a1916608816aafa36bdd7","64e50dd6662e71628227c6a2","","","","","3090",""," ","key"," ","16.649934782608675","499.5652277483158","249.56522256530312","sample3","70","","","","","",""
"","psychophysics","9","55781","0.0-9.0","607a1916608816aafa36bdd7","64e50dd6662e71628227c6a2","","","","","1066",""," ","key"," ","16.9062923076923","499.5652277483158","249.56522256530312","sample4","130","","","","","",""
"","psychophysics","10","58759","0.0-10.0","607a1916608816aafa36bdd7","64e50dd6662e71628227c6a2","","","","","2971",""," ","key"," ","16.650000000000023","499.5652277483158","249.56522256530312","sample5","","","","","","",""
"","psychophysics","11","60476","0.0-11.0","607a1916608816aafa36bdd7","64e50dd6662e71628227c6a2","","","","","1688",""," ","key"," ","16.64993137254907","499.5652277483158","249.56522256530312","sample6","450","","","","","",""
"","psychophysics","12","62314","0.0-12.0","607a1916608816aafa36bdd7","64e50dd6662e71628227c6a2","","","","","1831",""," ","key"," ","16.649908256880767","499.5652277483158","249.56522256530312","inst","","","","","","",""
"","psychophysics","13","63259","0.0-13.0","607a1916608816aafa36bdd7","64e50dd6662e71628227c6a2","","","","","902",""," ","key"," ","16.650035714285746","499.5652277483158","249.56522256530312","inst","","","","","","",""
"","psychophysics","14","63895","0.0-14.0","607a1916608816aafa36bdd7","64e50dd6662e71628227c6a2","","","","","631",""," ","key"," ","16.649864864864817","499.5652277483158","249.56522256530312","inst","","","","","","",""
"","psychophysics","15","64502","0.0-15.0","607a1916608816aafa36bdd7","64e50dd6662e71628227c6a2","","","","","578",""," ","key"," ","16.650285714285566","499.5652277483158","249.56522256530312","inst","","","","","","",""
"","psychophysics","16","65620","0.0-16.0","607a1916608816aafa36bdd7","64e50dd6662e71628227c6a2","","","","","1107",""," ","key"," ","16.650119402985144","499.5652277483158","249.56522256530312","inst","","","","","","",""
"","psychophysics","17","66673","0.0-17.0","607a1916608816aafa36bdd7","64e50dd6662e71628227c6a2","","","","","1007",""," ","key"," ","16.65025806451623","499.5652277483158","249.56522256530312","instBr0","0","","","0","0","0","300"
"","psychophysics","18","67218","0.0-18.0","607a1916608816aafa36bdd7","64e50dd6662e71628227c6a2","","","","","538",""," ","key"," ","16.649812499999825","499.5652277483158","249.56522256530312","instBr1","-40","","","0","0","-40","300"
"","psychophysics","19","67683","0.0-19.0","607a1916608816aafa36bdd7","64e50dd6662e71628227c6a2","","","","","417",""," ","key"," ","17.31603999999992","499.5652277483158","249.56522256530312","instBr3","40","2","","0","0","40","300"
"","psychophysics","20","68069","0.0-20.0","607a1916608816aafa36bdd7","64e50dd6662e71628227c6a2","","","","","375",""," ","key"," ","16.649869565217397","499.5652277483158","249.56522256530312","inst","","","","","","",""
"","psychophysics","21","68500","0.0-21.0","607a1916608816aafa36bdd7","64e50dd6662e71628227c6a2","","","","","372",""," ","key"," ","17.343083333333198","499.5652277483158","249.56522256530312","br","5","2","0","22","-24","5","264"
"","psychophysics","22","68876","0.0-22.0","607a1916608816aafa36bdd7","64e50dd6662e71628227c6a2","","","","","370",""," ","key"," ","16.650476190476358","499.5652277483158","249.56522256530312","br","5","2","0","3","11","5","274"
"","psychophysics","23","69216","0.0-23.0","607a1916608816aafa36bdd7","64e50dd6662e71628227c6a2","","","","","290",""," ","key"," ","17.526368421052833","499.5652277483158","249.56522256530312","br","-12","2","0","-18","-19","-12","297"
"","psychophysics","24","69465","0.0-24.0","607a1916608816aafa36bdd7","64e50dd6662e71628227c6a2","","","","","240",""," ","key"," ","16.649499999999534","499.5652277483158","249.56522256530312","br","8","2","0","9","-4","8","242"
"","psychophysics","25","69703","0.0-25.0","607a1916608816aafa36bdd7","64e50dd6662e71628227c6a2","","","","","194",""," ","key"," ","16.64976923076924","499.5652277483158","249.56522256530312","br","13","2","0","15","18","13","253"
"","psychophysics","26","70082","0.0-26.0","607a1916608816aafa36bdd7","64e50dd6662e71628227c6a2","","","","","367",""," ","key"," ","16.649761904762098","499.5652277483158","249.56522256530312","br","-19","2","0","-16","11","-19","286"
"","psychophysics","27","70284","0.0-27.0","607a1916608816aafa36bdd7","64e50dd6662e71628227c6a2","","","","","171",""," ","key"," ","18.164181818181532","499.5652277483158","249.56522256530312","br","-17","2","0","-17","5","-17","226"
"","psychophysics","28","70618","0.0-28.0","607a1916608816aafa36bdd7","64e50dd6662e71628227c6a2","","","","","327",""," ","key"," ","16.649947368421156","499.5652277483158","249.56522256530312","br","13","2","0","9","-30","13","252"
"","psychophysics","29","70867","0.0-29.0","607a1916608816aafa36bdd7","64e50dd6662e71628227c6a2","","","","","206",""," ","key"," ","16.64964285714294","499.5652277483158","249.56522256530312","br","-3","2","0","-16","-17","-3","283"
"","psychophysics","30","71066","0.0-30.0","607a1916608816aafa36bdd7","64e50dd6662e71628227c6a2","","","","","193",""," ","key"," ","16.6489999999996","499.5652277483158","249.56522256530312","br","0","2","0","27","-2","0","293"
"","psychophysics","31","71237","0.0-31.0","607a1916608816aafa36bdd7","64e50dd6662e71628227c6a2","","","","","141",""," ","key"," ","16.648333333332427","499.5652277483158","249.56522256530312","br","4","2","0","1","-24","4","207"
"","psychophysics","32","71587","0.0-32.0","607a1916608816aafa36bdd7","64e50dd6662e71628227c6a2","","","","","334",""," ","key"," ","16.650800000000164","499.5652277483158","249.56522256530312","br","19","2","0","-22","26","19","292"
"","psychophysics","33","71780","0.0-33.0","607a1916608816aafa36bdd7","64e50dd6662e71628227c6a2","","","","","149",""," ","key"," ","18.314599999999338","499.5652277483158","249.56522256530312","br","5","2","0","6","-4","5","284"
"","psychophysics","34","73884","0.0-34.0","607a1916608816aafa36bdd7","64e50dd6662e71628227c6a2","","","","","2098",""," ","key"," ","16.649967999999994","499.5652277483158","249.56522256530312","br","-9","2","0","10","30","-8","263"
"","psychophysics","35","74058","0.0-35.0","607a1916608816aafa36bdd7","64e50dd6662e71628227c6a2","","","","","135",""," ","key"," ","16.650777777778178","499.5652277483158","249.56522256530312","br","22","2","0","-15","1","22","236"
"","psychophysics","36","74228","0.0-36.0","607a1916608816aafa36bdd7","64e50dd6662e71628227c6a2","","","","","160",""," ","key"," ","16.65","499.5652277483158","249.56522256530312","inst","","","","","","",""
"","psychophysics","37","74368","0.0-37.0","607a1916608816aafa36bdd7","64e50dd6662e71628227c6a2","","","","","94",""," ","key"," ","16.649285714285465","499.5652277483158","249.56522256530312","instZol0","0","","","0","0","0",""
"","psychophysics","38","75010","0.0-38.0","607a1916608816aafa36bdd7","64e50dd6662e71628227c6a2","","","","","628",""," ","key"," ","16.649621621621428","499.5652277483158","249.56522256530312","instZol1","1.3","","","0","0","-1.3",""
"","psychophysics","39","75163","0.0-39.0","607a1916608816aafa36bdd7","64e50dd6662e71628227c6a2","","","","","129",""," ","key"," ","16.650777777778178","499.5652277483158","249.56522256530312","instZol2","-2","1","","0","0","2",""
"","psychophysics","40","75339","0.0-40.0","607a1916608816aafa36bdd7","64e50dd6662e71628227c6a2","","","","","162",""," ","key"," ","16.650000000000645","499.5652277483158","249.56522256530312","inst","","","","","","",""
"","psychophysics","41","75479","0.0-41.0","607a1916608816aafa36bdd7","64e50dd6662e71628227c6a2","","","","","98",""," ","key"," ","19.02871428571442","499.5652277483158","249.56522256530312","zol","-0.05","1","0","-24","-1","0.05",""
"","psychophysics","42","75561","0.0-42.0","607a1916608816aafa36bdd7","64e50dd6662e71628227c6a2","","","","","66",""," ","key"," ","16.64849999999933","499.5652277483158","249.56522256530312","zol","0.22","1","0","15","29","-0.22",""
"","psychophysics","43","75712","0.0-43.0","607a1916608816aafa36bdd7","64e50dd6662e71628227c6a2","","","","","101",""," ","key"," ","19.027428571427922","499.5652277483158","249.56522256530312","zol","-0.56","1","0","10","-6","0.56",""
"","psychophysics","44","75868","0.0-44.0","607a1916608816aafa36bdd7","64e50dd6662e71628227c6a2","","","","","136",""," ","key"," ","16.650374999999258","499.5652277483158","249.56522256530312","zol","0.74","1","0","23","27","-0.74",""
"","psychophysics","45","76030","0.0-45.0","607a1916608816aafa36bdd7","64e50dd6662e71628227c6a2","","","","","115",""," ","key"," ","18.72949999999946","499.5652277483158","249.56522256530312","zol","-0.11","1","0","13","0","0.11",""
"","psychophysics","46","76186","0.0-46.0","607a1916608816aafa36bdd7","64e50dd6662e71628227c6a2","","","","","136",""," ","key"," ","16.64887500000077","499.5652277483158","249.56522256530312","zol","0.71","1","0","6","8","-0.71",""
"","psychophysics","47","76326","0.0-47.0","607a1916608816aafa36bdd7","64e50dd6662e71628227c6a2","","","","","91",""," ","key"," ","19.02742857143","499.5652277483158","249.56522256530312","zol","-0.04","1","0","-20","17","0.04",""
"","psychophysics","48","76473","0.0-48.0","607a1916608816aafa36bdd7","64e50dd6662e71628227c6a2","","","","","131",""," ","key"," ","16.64875000000029","499.5652277483158","249.56522256530312","zol","-0.35","1","0","-10","26","0.35",""
"","psychophysics","49","76626","0.0-49.0","607a1916608816aafa36bdd7","64e50dd6662e71628227c6a2","","","","","103",""," ","key"," ","16.64799999999923","499.5652277483158","249.56522256530312","zol","0.07","1","0","1","-1","-0.07",""
"","psychophysics","50","76777","0.0-50.0","607a1916608816aafa36bdd7","64e50dd6662e71628227c6a2","","","","","132",""," ","key"," ","16.650499999999738","499.5652277483158","249.56522256530312","zol","-0.74","1","0","-11","0","0.74",""
"","psychophysics","51","76926","0.0-51.0","607a1916608816aafa36bdd7","64e50dd6662e71628227c6a2","","","","","95",""," ","key"," ","19.030428571429052","499.5652277483158","249.56522256530312","zol","-0.7","1","0","15","-4","0.7",""
"","psychophysics","52","77081","0.0-52.0","607a1916608816aafa36bdd7","64e50dd6662e71628227c6a2","","","","","136",""," ","key"," ","16.650250000000597","499.5652277483158","249.56522256530312","zol","0.65","1","0","-11","-24","-0.65",""
"","psychophysics","53","77215","0.0-53.0","607a1916608816aafa36bdd7","64e50dd6662e71628227c6a2","","","","","98",""," ","key"," ","16.648857142857327","499.5652277483158","249.56522256530312","zol","-0.39","1","0","5","-21","0.39",""
"","psychophysics","54","77368","0.0-54.0","607a1916608816aafa36bdd7","64e50dd6662e71628227c6a2","","","","","134",""," ","key"," ","16.649250000000393","499.5652277483158","249.56522256530312","zol","-0.51","1","0","4","23","0.51",""
"","psychophysics","55","77532","0.0-55.0","607a1916608816aafa36bdd7","64e50dd6662e71628227c6a2","","","","","126",""," ","key"," ","16.65055555555672","499.5652277483158","249.56522256530312","zol","-0.62","1","0","-16","23","0.62",""
"","psychophysics","56","77679","0.0-56.0","607a1916608816aafa36bdd7","64e50dd6662e71628227c6a2","","","","","136",""," ","key"," ","16.649500000001353","499.5652277483158","249.56522256530312","inst","","","","","","",""
"","psychophysics","57","77856","0.0-57.0","607a1916608816aafa36bdd7","64e50dd6662e71628227c6a2","","","","","128",""," ","key"," ","18.499888888888464","499.5652277483158","249.56522256530312","instPog0","370","2","","0","0","370","340"
"","psychophysics","58","78315","0.0-58.0","607a1916608816aafa36bdd7","64e50dd6662e71628227c6a2","","","","","452",""," ","key"," ","16.64976923076924","499.5652277483158","249.56522256530312","instPog1","370","2","","0","0","370","340"
"","psychophysics","59","78489","0.0-59.0","607a1916608816aafa36bdd7","64e50dd6662e71628227c6a2","","","","","147",""," ","key"," ","16.64979999999923","499.5652277483158","249.56522256530312","instPog2","340","2","","0","0","340","340"
"","psychophysics","60","78636","0.0-60.0","607a1916608816aafa36bdd7","64e50dd6662e71628227c6a2","","","","","141",""," ","key"," ","16.65028571428515","499.5652277483158","249.56522256530312","inst","","","","","","",""
"","psychophysics","61","78975","0.0-61.0","607a1916608816aafa36bdd7","64e50dd6662e71628227c6a2","","","","","302",""," ","key"," ","16.649599999999918","499.5652277483158","249.56522256530312","pog","363","2","0","0","0","363","341"
"","psychophysics","62","79119","0.0-62.0","607a1916608816aafa36bdd7","64e50dd6662e71628227c6a2","","","","","130",""," ","key"," ","16.65028571428515","499.5652277483158","249.56522256530312","pog","388","2","0","0","0","388","348"
"","psychophysics","63","79273","0.0-63.0","607a1916608816aafa36bdd7","64e50dd6662e71628227c6a2","","","","","124",""," ","key"," ","16.650000000000645","499.5652277483158","249.56522256530312","pog","374","2","0","0","0","374","344"
"","psychophysics","64","79443","0.0-64.0","607a1916608816aafa36bdd7","64e50dd6662e71628227c6a2","","","","","164",""," ","key"," ","16.649777777777572","499.5652277483158","249.56522256530312","pog","372","2","0","0","0","372","368"
"","psychophysics","65","79600","0.0-65.0","607a1916608816aafa36bdd7","64e50dd6662e71628227c6a2","","","","","131",""," ","key"," ","16.652374999999665","499.5652277483158","249.56522256530312","pog","383","2","0","0","0","383","364"
"","psychophysics","66","79774","0.0-66.0","607a1916608816aafa36bdd7","64e50dd6662e71628227c6a2","","","","","161",""," ","key"," ","16.64890000000014","499.5652277483158","249.56522256530312","pog","317","2","0","0","0","317","301"
"","psychophysics","67","79934","0.0-67.0","607a1916608816aafa36bdd7","64e50dd6662e71628227c6a2","","","","","132",""," ","key"," ","18.730874999999287","499.5652277483158","249.56522256530312","pog","359","2","0","0","0","359","300"
"","psychophysics","68","80102","0.0-68.0","607a1916608816aafa36bdd7","64e50dd6662e71628227c6a2","","","","","161",""," ","key"," ","16.649555555556113","499.5652277483158","249.56522256530312","pog","306","2","0","0","0","306","337"
"","psychophysics","69","80260","0.0-69.0","607a1916608816aafa36bdd7","64e50dd6662e71628227c6a2","","","","","113",""," ","key"," ","16.65124999999898","499.5652277483158","249.56522256530312","pog","296","2","0","0","0","296","313"
"","psychophysics","70","80424","0.0-70.0","607a1916608816aafa36bdd7","64e50dd6662e71628227c6a2","","","","","155",""," ","key"," ","16.649555555554496","499.5652277483158","249.56522256530312","pog","356","2","0","0","0","356","354"
"","psychophysics","71","80579","0.0-71.0","607a1916608816aafa36bdd7","64e50dd6662e71628227c6a2","","","","","127",""," ","key"," ","16.649749999998676","499.5652277483158","249.56522256530312","pog","298","2","0","0","0","298","342"
"","psychophysics","72","80739","0.0-72.0","607a1916608816aafa36bdd7","64e50dd6662e71628227c6a2","","","","","149",""," ","key"," ","16.650222222222105","499.5652277483158","249.56522256530312","pog","326","2","0","0","0","326","369"
"","psychophysics","73","80904","0.0-73.0","607a1916608816aafa36bdd7","64e50dd6662e71628227c6a2","","","","","141",""," ","key"," ","16.649666666666032","499.5652277483158","249.56522256530312","pog","342","2","0","0","0","342","345"
"","psychophysics","74","81072","0.0-74.0","607a1916608816aafa36bdd7","64e50dd6662e71628227c6a2","","","","","158",""," ","key"," ","16.650333333333645","499.5652277483158","249.56522256530312","pog","370","2","0","0","0","370","347"
"","psychophysics","75","81252","0.0-75.0","607a1916608816aafa36bdd7","64e50dd6662e71628227c6a2","","","","","154",""," ","key"," ","16.64990000000107","499.5652277483158","249.56522256530312","pog","304","2","0","0","0","304","347"
"","psychophysics","76","81409","0.0-76.0","607a1916608816aafa36bdd7","64e50dd6662e71628227c6a2","","","","","152",""," ","key"," ","16.6507500000007","499.5652277483158","249.56522256530312","inst","","","","","","",""
"","psychophysics","77","83382","0.0-77.0","607a1916608816aafa36bdd7","64e50dd6662e71628227c6a2","","","","","1930",""," ","key"," ","16.650008547008603","499.5652277483158","249.56522256530312","instEB0","40","1","","0","0","40","40"
"","psychophysics","78","84383","0.0-78.0","607a1916608816aafa36bdd7","64e50dd6662e71628227c6a2","","","","","985",""," ","key"," ","16.649864406779486","499.5652277483158","249.56522256530312","instEB1","40","1","","0","0","40","30"
"","psychophysics","79","84892","0.0-79.0","607a1916608816aafa36bdd7","64e50dd6662e71628227c6a2","","","","","457",""," ","key"," ","17.838607142857136","499.5652277483158","249.56522256530312","instEB2","30","1","","0","0","30","40"
"","psychophysics","80","85256","0.0-80.0","607a1916608816aafa36bdd7","64e50dd6662e71628227c6a2","","","","","347",""," ","key"," ","16.64990476190481","499.5652277483158","249.56522256530312","instEB3","27","1","","0","0","27","45"
"","psychophysics","81","85612","0.0-81.0","607a1916608816aafa36bdd7","64e50dd6662e71628227c6a2","","","","","325",""," ","key"," ","18.499722222222772","499.5652277483158","249.56522256530312","instEB4","40","1","","0","0","40","30"
"","psychophysics","82","88464","0.0-82.0","607a1916608816aafa36bdd7","64e50dd6662e71628227c6a2","","","","","2841",""," ","key"," ","16.650011695906443","499.5652277483158","249.56522256530312","inst","","","","","","",""
"","psychophysics","83","89966","0.0-83.0","607a1916608816aafa36bdd7","64e50dd6662e71628227c6a2","","","","","1435",""," ","key"," ","16.839204545454447","499.5652277483158","249.56522256530312","eb","52","1","","0","0","52","52"
"","psychophysics","84","90649","0.0-84.0","607a1916608816aafa36bdd7","64e50dd6662e71628227c6a2","","","","","667",""," ","key"," ","16.64965000000011","499.5652277483158","249.56522256530312","eb","48","1","","0","0","48","34"
"","psychophysics","85","91464","0.0-85.0","607a1916608816aafa36bdd7","64e50dd6662e71628227c6a2","","","","","760",""," ","key"," ","17.00397872340437","499.5652277483158","249.56522256530312","eb","28","1","","0","0","28","47"
"","psychophysics","86","92121","0.0-86.0","607a1916608816aafa36bdd7","64e50dd6662e71628227c6a2","","","","","651",""," ","key"," ","16.649736842105323","499.5652277483158","249.56522256530312","eb","26","1","","0","0","26","25"
"","psychophysics","87","97242","0.0-87.0","607a1916608816aafa36bdd7","64e50dd6662e71628227c6a2","","","","","5092",""," ","key"," ","16.64998371335504","499.5652277483158","249.56522256530312","eb","84","1","","0","0","50","32"
"","psychophysics","88","101261","0.0-88.0","607a1916608816aafa36bdd7","64e50dd6662e71628227c6a2","","","","","4009",""," ","key"," ","16.861699152542393","499.5652277483158","249.56522256530312","eb","75","1","","0","0","38","31"
"","psychophysics","89","104017","0.0-89.0","607a1916608816aafa36bdd7","64e50dd6662e71628227c6a2","","","","","2739",""," ","key"," ","16.64991515151509","499.5652277483158","249.56522256530312","eb","69","1","","0","0","39","38"
"","psychophysics","90","106869","0.0-90.0","607a1916608816aafa36bdd7","64e50dd6662e71628227c6a2","","","","","2812",""," ","key"," ","16.748443786982296","499.5652277483158","249.56522256530312","eb","63","1","","0","0","27","42"
"","psychophysics","91","109428","0.0-91.0","607a1916608816aafa36bdd7","64e50dd6662e71628227c6a2","","","","","2540",""," ","key"," ","16.649980392156863","499.5652277483158","249.56522256530312","eb","75","1","","0","0","43","41"
"","psychophysics","92","112179","0.0-92.0","607a1916608816aafa36bdd7","64e50dd6662e71628227c6a2","","","","","2723",""," ","key"," ","16.64995121951222","499.5652277483158","249.56522256530312","eb","59","1","","0","0","27","36"
"","psychophysics","93","115292","0.0-93.0","607a1916608816aafa36bdd7","64e50dd6662e71628227c6a2","","","","","3099",""," ","key"," ","16.649924731182868","499.5652277483158","249.56522256530312","eb","57","1","","0","0","24","37"
"","psychophysics","94","116697","0.0-94.0","607a1916608816aafa36bdd7","64e50dd6662e71628227c6a2","","","","","1373",""," ","key"," ","16.65003614457824","499.5652277483158","249.56522256530312","eb","62","1","","0","0","54","38"
"","psychophysics","95","119421","0.0-95.0","607a1916608816aafa36bdd7","64e50dd6662e71628227c6a2","","","","","2701",""," ","key"," ","16.64990184049076","499.5652277483158","249.56522256530312","eb","60","1","","0","0","29","31"
"","psychophysics","96","122151","0.0-96.0","607a1916608816aafa36bdd7","64e50dd6662e71628227c6a2","","","","","2705",""," ","key"," ","16.650049079754595","499.5652277483158","249.56522256530312","eb","78","1","","0","0","47","40"
"","psychophysics","97","124475","0.0-97.0","607a1916608816aafa36bdd7","64e50dd6662e71628227c6a2","","","","","2304",""," ","key"," ","16.6499275362319","499.5652277483158","249.56522256530312","eb","56","1","","0","0","31","25"
"","psychophysics","98","125346","0.0-98.0","607a1916608816aafa36bdd7","64e50dd6662e71628227c6a2","","","","","846",""," ","key"," ","16.65019230769226","499.5652277483158","249.56522256530312","inst","","","","","","",""
"","psychophysics","99","125880","0.0-99.0","607a1916608816aafa36bdd7","64e50dd6662e71628227c6a2","","","","","521",""," ","key"," ","16.650354838709443","499.5652277483158","249.56522256530312","instPzPre","50","0","","","","50","50"
"","psychophysics","100","126263","0.0-100.0","607a1916608816aafa36bdd7","64e50dd6662e71628227c6a2","","","","","319",""," ","key"," ","18.314549999999873","499.5652277483158","249.56522256530312","instPz0","50","1","","","","50","50"
"","psychophysics","101","126812","0.0-101.0","607a1916608816aafa36bdd7","64e50dd6662e71628227c6a2","","","","","534",""," ","key"," ","16.6496874999998","499.5652277483158","249.56522256530312","instPz1","25","1","","","","25","50"
"","psychophysics","102","127674","0.0-102.0","607a1916608816aafa36bdd7","64e50dd6662e71628227c6a2","","","","","834",""," ","key"," ","16.650254901960793","499.5652277483158","249.56522256530312","instPz2","35","1","","","","35","20"
"","psychophysics","103","128231","0.0-103.0","607a1916608816aafa36bdd7","64e50dd6662e71628227c6a2","","","","","529",""," ","key"," ","16.649906250000186","499.5652277483158","249.56522256530312","instPz3","100","1","","","","100","30"
"","psychophysics","104","128724","0.0-104.0","607a1916608816aafa36bdd7","64e50dd6662e71628227c6a2","","","","","452",""," ","key"," ","16.650034482758954","499.5652277483158","249.56522256530312","instPz4","100","1","","","","100","30"
"","psychophysics","105","129452","0.0-105.0","607a1916608816aafa36bdd7","64e50dd6662e71628227c6a2","","","","","725",""," ","key"," ","16.64985714285701","499.5652277483158","249.56522256530312","inst","","","","","","",""
"","psychophysics","106","130044","0.0-106.0","607a1916608816aafa36bdd7","64e50dd6662e71628227c6a2","","","","","575",""," ","key"," ","16.649828571428746","499.5652277483158","249.56522256530312","pz","36","1","0","","","36","55"
"","psychophysics","107","130232","0.0-107.0","607a1916608816aafa36bdd7","64e50dd6662e71628227c6a2","","","","","176",""," ","key"," ","16.650500000000466","499.5652277483158","249.56522256530312","pz","25","1","0","","","25","29"
"","psychophysics","108","130589","0.0-108.0","607a1916608816aafa36bdd7","64e50dd6662e71628227c6a2","","","","","291",""," ","key"," ","18.401947368421947","499.5652277483158","249.56522256530312","pz","47","1","0","","","47","28"
"","psychophysics","109","130741","0.0-109.0","607a1916608816aafa36bdd7","64e50dd6662e71628227c6a2","","","","","138",""," ","key"," ","16.649999999997817","499.5652277483158","249.56522256530312","pz","52","1","0","","","52","55"
"","psychophysics","110","133427","0.0-110.0","607a1916608816aafa36bdd7","64e50dd6662e71628227c6a2","","","","","2663",""," ","key"," ","16.65001250000005","499.5652277483158","249.56522256530312","pz","52","1","0","","","52","31"
"","psychophysics","111","133637","0.0-111.0","607a1916608816aafa36bdd7","64e50dd6662e71628227c6a2","","","","","200",""," ","key"," ","16.65033333333122","499.5652277483158","249.56522256530312","pz","45","1","0","","","45","57"
"","psychophysics","112","133818","0.0-112.0","607a1916608816aafa36bdd7","64e50dd6662e71628227c6a2","","","","","138",""," ","key"," ","16.651300000000628","499.5652277483158","249.56522256530312","pz","49","1","0","","","49","29"
"","psychophysics","113","133976","0.0-113.0","607a1916608816aafa36bdd7","64e50dd6662e71628227c6a2","","","","","152",""," ","key"," ","16.648624999997992","499.5652277483158","249.56522256530312","pz","39","1","0","","","39","35"
"","psychophysics","114","134121","0.0-114.0","607a1916608816aafa36bdd7","64e50dd6662e71628227c6a2","","","","","101",""," ","key"," ","16.650625000002037","499.5652277483158","249.56522256530312","pz","30","1","0","","","30","25"
"","psychophysics","115","134267","0.0-115.0","607a1916608816aafa36bdd7","64e50dd6662e71628227c6a2","","","","","131",""," ","key"," ","16.64971428571568","499.5652277483158","249.56522256530312","pz","33","1","0","","","33","31"
"","psychophysics","116","134417","0.0-116.0","607a1916608816aafa36bdd7","64e50dd6662e71628227c6a2","","","","","118",""," ","key"," ","18.732249999997293","499.5652277483158","249.56522256530312","pz","50","1","0","","","50","40"
"","psychophysics","117","134567","0.0-117.0","607a1916608816aafa36bdd7","64e50dd6662e71628227c6a2","","","","","142",""," ","key"," ","16.649499999999534","499.5652277483158","249.56522256530312","pz","54","1","0","","","54","56"
"","psychophysics","118","134698","0.0-118.0","607a1916608816aafa36bdd7","64e50dd6662e71628227c6a2","","","","","108",""," ","key"," ","16.647166666666937","499.5652277483158","249.56522256530312","pz","58","1","0","","","58","56"
"","psychophysics","119","134836","0.0-119.0","607a1916608816aafa36bdd7","64e50dd6662e71628227c6a2","","","","","127",""," ","key"," ","16.649499999999534","499.5652277483158","249.56522256530312","pz","48","1","0","","","48","24"
"","psychophysics","120","134999","0.0-120.0","607a1916608816aafa36bdd7","64e50dd6662e71628227c6a2","","","","","133",""," ","key"," ","16.650333333333645","499.5652277483158","249.56522256530312","pz","35","1","0","","","35","27"
"","psychophysics","121","135155","0.0-121.0","607a1916608816aafa36bdd7","64e50dd6662e71628227c6a2","","","","","152",""," ","key"," ","16.649499999999534","499.5652277483158","249.56522256530312","inst","","","","","","",""
"","psychophysics","122","135718","0.0-122.0","607a1916608816aafa36bdd7","64e50dd6662e71628227c6a2","","","","","521",""," ","key"," ","17.170031249999738","499.5652277483158","249.56522256530312","instPog0","190","1","","0","0","190","160"
"","psychophysics","123","135867","0.0-123.0","607a1916608816aafa36bdd7","64e50dd6662e71628227c6a2","","","","","144",""," ","key"," ","16.651874999999563","499.5652277483158","249.56522256530312","instPog1","190","1","","0","0","190","160"
"","psychophysics","124","136112","0.0-124.0","607a1916608816aafa36bdd7","64e50dd6662e71628227c6a2","","","","","214",""," ","key"," ","16.649846153846457","499.5652277483158","249.56522256530312","instPog2","160","1","","0","0","160","160"
"","psychophysics","125","136263","0.0-125.0","607a1916608816aafa36bdd7","64e50dd6662e71628227c6a2","","","","","141",""," ","key"," ","16.65022222222049","499.5652277483158","249.56522256530312","inst","","","","","","",""
"","psychophysics","126","136427","0.0-126.0","607a1916608816aafa36bdd7","64e50dd6662e71628227c6a2","","","","","139",""," ","key"," ","16.649375000000873","499.5652277483158","249.56522256530312","pog","206","1","1","0","0","206","152"
"","psychophysics","127","136581","0.0-127.0","607a1916608816aafa36bdd7","64e50dd6662e71628227c6a2","","","","","140",""," ","key"," ","16.649333333334653","499.5652277483158","249.56522256530312","pog","218","1","1","0","0","218","128"
"","psychophysics","128","136729","0.0-128.0","607a1916608816aafa36bdd7","64e50dd6662e71628227c6a2","","","","","113",""," ","key"," ","16.650142857139663","499.5652277483158","249.56522256530312","pog","141","1","1","0","0","141","154"
"","psychophysics","129","136885","0.0-129.0","607a1916608816aafa36bdd7","64e50dd6662e71628227c6a2","","","","","147",""," ","key"," ","16.64966666666765","499.5652277483158","249.56522256530312","pog","179","1","1","0","0","179","194"
"","psychophysics","130","137027","0.0-130.0","607a1916608816aafa36bdd7","64e50dd6662e71628227c6a2","","","","","108",""," ","key"," ","16.64799999999897","499.5652277483158","249.56522256530312","pog","196","1","1","0","0","196","131"
"","psychophysics","131","137172","0.0-131.0","607a1916608816aafa36bdd7","64e50dd6662e71628227c6a2","","","","","136",""," ","key"," ","16.647875000002387","499.5652277483158","249.56522256530312","pog","178","1","1","0","0","178","183"
"","psychophysics","132","137313","0.0-132.0","607a1916608816aafa36bdd7","64e50dd6662e71628227c6a2","","","","","111",""," ","key"," ","16.649749999996857","499.5652277483158","249.56522256530312","pog","186","1","1","0","0","186","176"
"","psychophysics","133","137468","0.0-133.0","607a1916608816aafa36bdd7","64e50dd6662e71628227c6a2","","","","","147",""," ","key"," ","16.649499999999534","499.5652277483158","249.56522256530312","pog","214","1","1","0","0","214","186"
"","psychophysics","134","137613","0.0-134.0","607a1916608816aafa36bdd7","64e50dd6662e71628227c6a2","","","","","100",""," ","key"," ","19.02742857143","499.5652277483158","249.56522256530312","pog","177","1","1","0","0","177","129"
"","psychophysics","135","137747","0.0-135.0","607a1916608816aafa36bdd7","64e50dd6662e71628227c6a2","","","","","125",""," ","key"," ","16.647285714284017","499.5652277483158","249.56522256530312","pog","100","1","1","0","0","100","166"
"","psychophysics","136","137898","0.0-136.0","607a1916608816aafa36bdd7","64e50dd6662e71628227c6a2","","","","","138",""," ","key"," ","16.650000000001455","499.5652277483158","249.56522256530312","pog","217","1","1","0","0","217","143"
"","psychophysics","137","138053","0.0-137.0","607a1916608816aafa36bdd7","64e50dd6662e71628227c6a2","","","","","149",""," ","key"," ","16.649124999999913","499.5652277483158","249.56522256530312","pog","143","1","1","0","0","143","153"
"","psychophysics","138","138211","0.0-138.0","607a1916608816aafa36bdd7","64e50dd6662e71628227c6a2","","","","","135",""," ","key"," ","16.65074999999706","499.5652277483158","249.56522256530312","pog","157","1","1","0","0","157","143"
"","psychophysics","139","138354","0.0-139.0","607a1916608816aafa36bdd7","64e50dd6662e71628227c6a2","","","","","131",""," ","key"," ","16.64824999999837","499.5652277483158","249.56522256530312","pog","136","1","1","0","0","136","162"
"","psychophysics","140","138511","0.0-140.0","607a1916608816aafa36bdd7","64e50dd6662e71628227c6a2","","","","","124",""," ","key"," ","16.6501111111138","499.5652277483158","249.56522256530312","pog","146","1","1","0","0","146","180"
"","psychophysics","141","139661","0.0-141.0","607a1916608816aafa36bdd7","64e50dd6662e71628227c6a2","","","","","1144",""," ","key"," ","16.64986764705913","499.5652277483158","249.56522256530312","inst","","","","","","",""
"","psychophysics","142","140114","0.0-142.0","607a1916608816aafa36bdd7","64e50dd6662e71628227c6a2","","","","","408",""," ","key"," ","16.649807692308407","499.5652277483158","249.56522256530312","instZol1","1.3","","","0","0","-1.3",""
"","psychophysics","143","141081","0.0-143.0","607a1916608816aafa36bdd7","64e50dd6662e71628227c6a2","","","","","952",""," ","key"," ","16.6500526315792","499.5652277483158","249.56522256530312","instZol2","-1.9","2","","0","0","2",""
"","psychophysics","144","141250","0.0-144.0","607a1916608816aafa36bdd7","64e50dd6662e71628227c6a2","","","","","142",""," ","key"," ","16.651222222222714","499.5652277483158","249.56522256530312","inst","","","","","","",""
"","psychophysics","145","141395","0.0-145.0","607a1916608816aafa36bdd7","64e50dd6662e71628227c6a2","","","","","126",""," ","key"," ","16.649624999998196","499.5652277483158","249.56522256530312","zol","-0.36","2","1","30","4","0.36",""
"","psychophysics","146","141565","0.0-146.0","607a1916608816aafa36bdd7","64e50dd6662e71628227c6a2","","","","","126",""," ","key"," ","16.649555555554496","499.5652277483158","249.56522256530312","zol","0.43","2","1","4","14","-0.43",""
"","psychophysics","147","141712","0.0-147.0","607a1916608816aafa36bdd7","64e50dd6662e71628227c6a2","","","","","131",""," ","key"," ","16.649874999999156","499.5652277483158","249.56522256530312","zol","-0.38","2","1","-7","24","0.38",""
"","psychophysics","148","141859","0.0-148.0","607a1916608816aafa36bdd7","64e50dd6662e71628227c6a2","","","","","88",""," ","key"," ","19.028857142859902","499.5652277483158","249.56522256530312","zol","-0.4","2","1","20","27","0.4",""
"","psychophysics","149","142000","0.0-149.0","607a1916608816aafa36bdd7","64e50dd6662e71628227c6a2","","","","","131",""," ","key"," ","16.64799999999897","499.5652277483158","249.56522256530312","zol","-0.46","2","1","-7","-11","0.46",""
"","psychophysics","150","143311","0.0-150.0","607a1916608816aafa36bdd7","64e50dd6662e71628227c6a2","","","","","1270",""," ","key"," ","16.650166666666525","499.5652277483158","249.56522256530312","zol","0.72","2","1","28","24","-0.52",""
"","psychophysics","151","143487","0.0-151.0","607a1916608816aafa36bdd7","64e50dd6662e71628227c6a2","","","","","159",""," ","key"," ","16.650000000000645","499.5652277483158","249.56522256530312","zol","0.53","2","1","11","0","-0.53",""
"","psychophysics","152","143621","0.0-152.0","607a1916608816aafa36bdd7","64e50dd6662e71628227c6a2","","","","","83",""," ","key"," ","19.42500000000291","499.5652277483158","249.56522256530312","zol","0.75","2","1","-19","-11","-0.75",""
"","psychophysics","153","143791","0.0-153.0","607a1916608816aafa36bdd7","64e50dd6662e71628227c6a2","","","","","159",""," ","key"," ","16.649600000001374","499.5652277483158","249.56522256530312","zol","0.48","2","1","-3","1","-0.48",""
"","psychophysics","154","143964","0.0-154.0","607a1916608816aafa36bdd7","64e50dd6662e71628227c6a2","","","","","137",""," ","key"," ","16.649222222224733","499.5652277483158","249.56522256530312","zol","-0.22","2","1","14","23","0.22",""
"","psychophysics","155","144113","0.0-155.0","607a1916608816aafa36bdd7","64e50dd6662e71628227c6a2","","","","","134",""," ","key"," ","16.648000000001048","499.5652277483158","249.56522256530312","zol","-0.75","2","1","24","28","0.75",""
"","psychophysics","156","144286","0.0-156.0","607a1916608816aafa36bdd7","64e50dd6662e71628227c6a2","","","","","133",""," ","key"," ","16.65144444444579","499.5652277483158","249.56522256530312","zol","0","2","1","29","-10","0",""
"","psychophysics","157","144428","0.0-157.0","607a1916608816aafa36bdd7","64e50dd6662e71628227c6a2","","","","","131",""," ","key"," ","16.64787499999875","499.5652277483158","249.56522256530312","zol","0.72","2","1","0","-26","-0.72",""
"","psychophysics","158","144587","0.0-158.0","607a1916608816aafa36bdd7","64e50dd6662e71628227c6a2","","","","","116",""," ","key"," ","16.651750000000902","499.5652277483158","249.56522256530312","zol","-0.38","2","1","27","-14","0.38",""
"","psychophysics","159","144735","0.0-159.0","607a1916608816aafa36bdd7","64e50dd6662e71628227c6a2","","","","","132",""," ","key"," ","16.649999999997817","499.5652277483158","249.56522256530312","zol","-0.56","2","1","-18","24","0.56",""
"","psychophysics","160","144882","0.0-160.0","607a1916608816aafa36bdd7","64e50dd6662e71628227c6a2","","","","","111",""," ","key"," ","16.650499999999738","499.5652277483158","249.56522256530312","inst","","","","","","",""
"","psychophysics","161","145328","0.0-161.0","607a1916608816aafa36bdd7","64e50dd6662e71628227c6a2","","","","","432",""," ","key"," ","16.6503461538467","499.5652277483158","249.56522256530312","instPz1","25","2","","","","25","50"
"","psychophysics","162","145491","0.0-162.0","607a1916608816aafa36bdd7","64e50dd6662e71628227c6a2","","","","","131",""," ","key"," ","16.65087499999936","499.5652277483158","249.56522256530312","instPz2","20","2","","","","20","35"
"","psychophysics","163","145660","0.0-163.0","607a1916608816aafa36bdd7","64e50dd6662e71628227c6a2","","","","","144",""," ","key"," ","16.649299999998767","499.5652277483158","249.56522256530312","instPz3","30","2","","","","30","100"
"","psychophysics","164","145825","0.0-164.0","607a1916608816aafa36bdd7","64e50dd6662e71628227c6a2","","","","","157",""," ","key"," ","16.64828571428578","499.5652277483158","249.56522256530312","instPz4","30","2","","","","30","100"
"","psychophysics","165","145957","0.0-165.0","607a1916608816aafa36bdd7","64e50dd6662e71628227c6a2","","","","","112",""," ","key"," ","18.731250000000728","499.5652277483158","249.56522256530312","inst","","","","","","",""
"","psychophysics","166","146112","0.0-166.0","607a1916608816aafa36bdd7","64e50dd6662e71628227c6a2","","","","","110",""," ","key"," ","16.650125000000116","499.5652277483158","249.56522256530312","pz","32","2","1","","","32","60"
"","psychophysics","167","146264","0.0-167.0","607a1916608816aafa36bdd7","64e50dd6662e71628227c6a2","","","","","142",""," ","key"," ","16.650249999998778","499.5652277483158","249.56522256530312","pz","58","2","1","","","58","58"
"","psychophysics","168","146412","0.0-168.0","607a1916608816aafa36bdd7","64e50dd6662e71628227c6a2","","","","","121",""," ","key"," ","16.649750000000495","499.5652277483158","249.56522256530312","pz","46","2","1","","","46","40"
"","psychophysics","169","146571","0.0-169.0","607a1916608816aafa36bdd7","64e50dd6662e71628227c6a2","","","","","146",""," ","key"," ","16.648555555555504","499.5652277483158","249.56522256530312","pz","46","2","1","","","46","56"
"","psychophysics","170","146739","0.0-170.0","607a1916608816aafa36bdd7","64e50dd6662e71628227c6a2","","","","","138",""," ","key"," ","16.6488888888885","499.5652277483158","249.56522256530312","pz","52","2","1","","","52","29"
"","psychophysics","171","146919","0.0-171.0","607a1916608816aafa36bdd7","64e50dd6662e71628227c6a2","","","","","173",""," ","key"," ","16.651444444442557","499.5652277483158","249.56522256530312","pz","59","2","1","","","59","39"
"","psychophysics","172","147077","0.0-172.0","607a1916608816aafa36bdd7","64e50dd6662e71628227c6a2","","","","","132",""," ","key"," ","16.649888888887492","499.5652277483158","249.56522256530312","pz","54","2","1","","","54","58"
"","psychophysics","173","148107","0.0-173.0","607a1916608816aafa36bdd7","64e50dd6662e71628227c6a2","","","","","1015",""," ","key"," ","16.649918032786715","499.5652277483158","249.56522256530312","pz","23","2","1","","","25","58"
"","psychophysics","174","148292","0.0-174.0","607a1916608816aafa36bdd7","64e50dd6662e71628227c6a2","","","","","151",""," ","key"," ","16.650599999999393","499.5652277483158","249.56522256530312","pz","41","2","1","","","41","36"
"","psychophysics","175","148453","0.0-175.0","607a1916608816aafa36bdd7","64e50dd6662e71628227c6a2","","","","","150",""," ","key"," ","16.651666666665633","499.5652277483158","249.56522256530312","pz","57","2","1","","","57","49"
"","psychophysics","176","148633","0.0-176.0","607a1916608816aafa36bdd7","64e50dd6662e71628227c6a2","","","","","146",""," ","key"," ","16.650000000000645","499.5652277483158","249.56522256530312","pz","60","2","1","","","60","27"
"","psychophysics","177","149121","0.0-177.0","607a1916608816aafa36bdd7","64e50dd6662e71628227c6a2","","","","","476",""," ","key"," ","16.650034482758453","499.5652277483158","249.56522256530312","pz","50","2","1","","","50","48"
"","psychophysics","178","149838","0.0-178.0","607a1916608816aafa36bdd7","64e50dd6662e71628227c6a2","","","","","683",""," ","key"," ","16.649666666667187","499.5652277483158","249.56522256530312","pz","33","2","1","","","32","38"
"","psychophysics","179","150854","0.0-179.0","607a1916608816aafa36bdd7","64e50dd6662e71628227c6a2","","","","","1009",""," ","key"," ","16.65026666666672","499.5652277483158","249.56522256530312","pz","39","2","1","","","39","31"
"","psychophysics","180","151016","0.0-180.0","607a1916608816aafa36bdd7","64e50dd6662e71628227c6a2","","","","","125",""," ","key"," ","16.64849999999933","499.5652277483158","249.56522256530312","pz","46","2","1","","","46","34"
"","psychophysics","181","151163","0.0-181.0","607a1916608816aafa36bdd7","64e50dd6662e71628227c6a2","","","","","134",""," ","key"," ","16.651499999999942","499.5652277483158","249.56522256530312","inst","","","","","","",""
"","psychophysics","182","151570","0.0-182.0","607a1916608816aafa36bdd7","64e50dd6662e71628227c6a2","","","","","379",""," ","key"," ","16.649666666666842","499.5652277483158","249.56522256530312","instBr3","40","1","","0","0","40","300"
"","psychophysics","183","151734","0.0-183.0","607a1916608816aafa36bdd7","64e50dd6662e71628227c6a2","","","","","152",""," ","key"," ","16.649555555554496","499.5652277483158","249.56522256530312","inst","","","","","","",""
"","psychophysics","184","151909","0.0-184.0","607a1916608816aafa36bdd7","64e50dd6662e71628227c6a2","","","","","127",""," ","key"," ","16.649333333334653","499.5652277483158","249.56522256530312","br","0","1","1","15","17","0","248"
"","psychophysics","185","152083","0.0-185.0","607a1916608816aafa36bdd7","64e50dd6662e71628227c6a2","","","","","159",""," ","key"," ","16.649899999998162","499.5652277483158","249.56522256530312","br","28","1","1","18","-8","28","295"
"","psychophysics","186","152209","0.0-186.0","607a1916608816aafa36bdd7","64e50dd6662e71628227c6a2","","","","","81",""," ","key"," ","16.649666666664416","499.5652277483158","249.56522256530312","br","19","1","1","-19","-13","19","235"
"","psychophysics","187","152359","0.0-187.0","607a1916608816aafa36bdd7","64e50dd6662e71628227c6a2","","","","","136",""," ","key"," ","16.65124999999898","499.5652277483158","249.56522256530312","br","4","1","1","14","6","4","234"
"","psychophysics","188","152513","0.0-188.0","607a1916608816aafa36bdd7","64e50dd6662e71628227c6a2","","","","","109",""," ","key"," ","19.028428571427607","499.5652277483158","249.56522256530312","br","9","1","1","-12","21","9","245"
"","psychophysics","189","152679","0.0-189.0","607a1916608816aafa36bdd7","64e50dd6662e71628227c6a2","","","","","155",""," ","key"," ","16.649111111111576","499.5652277483158","249.56522256530312","br","-29","1","1","-26","-7","-29","288"
"","psychophysics","190","152806","0.0-190.0","607a1916608816aafa36bdd7","64e50dd6662e71628227c6a2","","","","","94",""," ","key"," ","16.651142857141426","499.5652277483158","249.56522256530312","br","-13","1","1","9","26","-13","298"
"","psychophysics","191","152948","0.0-191.0","607a1916608816aafa36bdd7","64e50dd6662e71628227c6a2","","","","","132",""," ","key"," ","16.64887500000259","499.5652277483158","249.56522256530312","br","-10","1","1","-20","8","-10","244"
"","psychophysics","192","153103","0.0-192.0","607a1916608816aafa36bdd7","64e50dd6662e71628227c6a2","","","","","128",""," ","key"," ","16.65037499999744","499.5652277483158","249.56522256530312","br","29","1","1","-10","14","29","230"
"","psychophysics","193","153261","0.0-193.0","607a1916608816aafa36bdd7","64e50dd6662e71628227c6a2","","","","","146",""," ","key"," ","16.650625000002037","499.5652277483158","249.56522256530312","br","-11","1","1","-16","-27","-11","222"
"","psychophysics","194","153405","0.0-194.0","607a1916608816aafa36bdd7","64e50dd6662e71628227c6a2","","","","","115",""," ","key"," ","16.650249999998778","499.5652277483158","249.56522256530312","br","-25","1","1","12","2","-25","264"
"","psychophysics","195","153537","0.0-195.0","607a1916608816aafa36bdd7","64e50dd6662e71628227c6a2","","","","","118",""," ","key"," ","16.647285714284017","499.5652277483158","249.56522256530312","br","-25","1","1","24","-14","-25","280"
"","psychophysics","196","153688","0.0-196.0","607a1916608816aafa36bdd7","64e50dd6662e71628227c6a2","","","","","125",""," ","key"," ","16.650125000000116","499.5652277483158","249.56522256530312","br","1","1","1","5","-12","1","297"
"","psychophysics","197","153827","0.0-197.0","607a1916608816aafa36bdd7","64e50dd6662e71628227c6a2","","","","","125",""," ","key"," ","16.648857142859406","499.5652277483158","249.56522256530312","br","17","1","1","26","14","17","254"
"","psychophysics","198","153981","0.0-198.0","607a1916608816aafa36bdd7","64e50dd6662e71628227c6a2","","","","","129",""," ","key"," ","16.650888888889718","499.5652277483158","249.56522256530312","br","28","1","1","-4","8","28","261"
"","psychophysics","199","154132","0.0-199.0","607a1916608816aafa36bdd7","64e50dd6662e71628227c6a2","","","","","143",""," ","key"," ","16.647624999997788","499.5652277483158","249.56522256530312","inst","","","","","","",""
"","psychophysics","200","154285","0.0-200.0","607a1916608816aafa36bdd7","64e50dd6662e71628227c6a2","","","","","113",""," ","key"," ","16.65074999999706","499.5652277483158","249.56522256530312","instEB1","30","2","","0","0","30","40"
"","psychophysics","201","154445","0.0-201.0","607a1916608816aafa36bdd7","64e50dd6662e71628227c6a2","","","","","144",""," ","key"," ","16.649124999999913","499.5652277483158","249.56522256530312","instEB2","40","2","","0","0","40","30"
"","psychophysics","202","154600","0.0-202.0","607a1916608816aafa36bdd7","64e50dd6662e71628227c6a2","","","","","119",""," ","key"," ","18.73162500000035","499.5652277483158","249.56522256530312","instEB3","45","2","","0","0","45","27"
"","psychophysics","203","154749","0.0-203.0","607a1916608816aafa36bdd7","64e50dd6662e71628227c6a2","","","","","143",""," ","key"," ","16.64837500000067","499.5652277483158","249.56522256530312","instEB4","30","2","","0","0","30","40"
"","psychophysics","204","154893","0.0-204.0","607a1916608816aafa36bdd7","64e50dd6662e71628227c6a2","","","","","105",""," ","key"," ","16.650285714289307","499.5652277483158","249.56522256530312","inst","","","","","","",""
"","psychophysics","205","155038","0.0-205.0","607a1916608816aafa36bdd7","64e50dd6662e71628227c6a2","","","","","129",""," ","key"," ","16.648874999998952","499.5652277483158","249.56522256530312","eb","46","2","","0","0","46","27"
"","psychophysics","206","155185","0.0-206.0","607a1916608816aafa36bdd7","64e50dd6662e71628227c6a2","","","","","112",""," ","key"," ","16.650375000001077","499.5652277483158","249.56522256530312","eb","42","2","","0","0","42","28"
"","psychophysics","207","155337","0.0-207.0","607a1916608816aafa36bdd7","64e50dd6662e71628227c6a2","","","","","138",""," ","key"," ","16.64875000000029","499.5652277483158","249.56522256530312","eb","37","2","","0","0","37","36"
"","psychophysics","208","155492","0.0-208.0","607a1916608816aafa36bdd7","64e50dd6662e71628227c6a2","","","","","138",""," ","key"," ","16.65112500000032","499.5652277483158","249.56522256530312","eb","54","2","","0","0","54","35"
"","psychophysics","209","155640","0.0-209.0","607a1916608816aafa36bdd7","64e50dd6662e71628227c6a2","","","","","133",""," ","key"," ","16.64900000000125","499.5652277483158","249.56522256530312","eb","38","2","","0","0","38","36"
"","psychophysics","210","155789","0.0-210.0","607a1916608816aafa36bdd7","64e50dd6662e71628227c6a2","","","","","117",""," ","key"," ","16.650249999998778","499.5652277483158","249.56522256530312","eb","49","2","","0","0","49","43"
"","psychophysics","211","155947","0.0-211.0","607a1916608816aafa36bdd7","64e50dd6662e71628227c6a2","","","","","145",""," ","key"," ","16.650000000000645","499.5652277483158","249.56522256530312","eb","33","2","","0","0","33","26"
"","psychophysics","212","157181","0.0-212.0","607a1916608816aafa36bdd7","64e50dd6662e71628227c6a2","","","","","1180",""," ","key"," ","16.881458333333285","499.5652277483158","249.56522256530312","eb","34","2","","0","0","30","34"
"","psychophysics","213","157308","0.0-213.0","607a1916608816aafa36bdd7","64e50dd6662e71628227c6a2","","","","","120",""," ","key"," ","16.649499999999534","499.5652277483158","249.56522256530312","eb","41","2","","0","0","41","53"
"","psychophysics","214","157465","0.0-214.0","607a1916608816aafa36bdd7","64e50dd6662e71628227c6a2","","","","","111",""," ","key"," ","16.65011111111057","499.5652277483158","249.56522256530312","eb","35","2","","0","0","35","54"
"","psychophysics","215","157614","0.0-215.0","607a1916608816aafa36bdd7","64e50dd6662e71628227c6a2","","","","","131",""," ","key"," ","16.650125000000116","499.5652277483158","249.56522256530312","eb","47","2","","0","0","47","48"
"","psychophysics","216","157779","0.0-216.0","607a1916608816aafa36bdd7","64e50dd6662e71628227c6a2","","","","","127",""," ","key"," ","16.649888888887492","499.5652277483158","249.56522256530312","eb","30","2","","0","0","30","42"
"","psychophysics","217","157923","0.0-217.0","607a1916608816aafa36bdd7","64e50dd6662e71628227c6a2","","","","","135",""," ","key"," ","16.65028571428515","499.5652277483158","249.56522256530312","eb","47","2","","0","0","47","49"
"","psychophysics","218","158081","0.0-218.0","607a1916608816aafa36bdd7","64e50dd6662e71628227c6a2","","","","","118",""," ","key"," ","18.730999999999767","499.5652277483158","249.56522256530312","eb","27","2","","0","0","27","27"
"","psychophysics","219","158250","0.0-219.0","607a1916608816aafa36bdd7","64e50dd6662e71628227c6a2","","","","","153",""," ","key"," ","16.649777777777572","499.5652277483158","249.56522256530312","eb","36","2","","0","0","36","43"
