"success","trial_type","trial_index","time_elapsed","internal_node_id","pid","sid","timeout","failed_images","failed_audio","failed_video","rt","stimulus","response","response_type","key_press","avg_frame_time","center_x","center_y","task","resp","version","block","jitterX","jitterY","start","parA"
"true","fullscreen","0","2629","0.0-0.0","5d859977611c9700152f11a1","64de8df5112845dad1e3a5cd","","","","","","","","","","","","","","","","","","","",""
"true","preload","1","2759","0.0-1.0","5d859977611c9700152f11a1","64de8df5112845dad1e3a5cd","false","[]","[]","[]","","","","","","","","","","","","","","","",""
"","html-button-response","2","4404","0.0-2.0","5d859977611c9700152f11a1","64de8df5112845dad1e3a5cd","","","","","1644","Please Make Sure Your Audio Is On.","0","","","","","","","","","","","","",""
"","psychophysics","3","8431","0.0-3.0","5d859977611c9700152f11a1","64de8df5112845dad1e3a5cd","","","","","4022",""," ","key"," ","16.7368091286307","960","250","","","","","","","",""
"","psychophysics","4","10735","0.0-4.0","5d859977611c9700152f11a1","64de8df5112845dad1e3a5cd","","","","","2299",""," ","key"," ","16.667299270072995","500","250","inst","","","","","","",""
"","psychophysics","5","14503","0.0-5.0","5d859977611c9700152f11a1","64de8df5112845dad1e3a5cd","","","","","3765",""," ","key"," ","16.666946666666668","500","250","sample0","","","","","","",""
"","psychophysics","6","16495","0.0-6.0","5d859977611c9700152f11a1","64de8df5112845dad1e3a5cd","","","","","1988",""," ","key"," ","16.66708403361346","500","250","sample1","","","","","","",""
"","psychophysics","7","26383","0.0-7.0","5d859977611c9700152f11a1","64de8df5112845dad1e3a5cd","","","","","9884",""," ","key"," ","16.666940878378377","500","250","sample2","102","","","","","",""
"","psychophysics","8","32087","0.0-8.0","5d859977611c9700152f11a1","64de8df5112845dad1e3a5cd","","","","","5700",""," ","key"," ","16.666941348973605","500","250","sample3","98","","","","","",""
"","psychophysics","9","38511","0.0-9.0","5d859977611c9700152f11a1","64de8df5112845dad1e3a5cd","","","","","6419",""," ","key"," ","16.66681818181818","500","250","sample4","102","","","","","",""
"","psychophysics","10","44895","0.0-10.0","5d859977611c9700152f11a1","64de8df5112845dad1e3a5cd","","","","","6380",""," ","key"," ","16.666568062827228","500","250","sample5","","","","","","",""
"","psychophysics","11","57350","0.0-11.0","5d859977611c9700152f11a1","64de8df5112845dad1e3a5cd","","","","","12452",""," ","key"," ","16.666808310991954","500","250","sample6","502","","","","","",""
"","psychophysics","12","61207","0.0-12.0","5d859977611c9700152f11a1","64de8df5112845dad1e3a5cd","","","","","3853",""," ","key"," ","16.666686956521723","500","250","inst","","","","","","",""
"","psychophysics","13","64908","0.0-13.0","5d859977611c9700152f11a1","64de8df5112845dad1e3a5cd","","","","","3697",""," ","key"," ","16.6671081081081","500","250","inst","","","","","","",""
"","psychophysics","14","74431","0.0-14.0","5d859977611c9700152f11a1","64de8df5112845dad1e3a5cd","","","","","9522",""," ","key"," ","16.66688245614034","500","250","inst","","","","","","",""
"","psychophysics","15","75958","0.0-15.0","5d859977611c9700152f11a1","64de8df5112845dad1e3a5cd","","","","","1525",""," ","key"," ","16.66796703296707","500","250","inst","","","","","","",""
"","psychophysics","16","78422","0.0-16.0","5d859977611c9700152f11a1","64de8df5112845dad1e3a5cd","","","","","2462",""," ","key"," ","16.667349315068424","500","250","inst","","","","","","",""
"","psychophysics","17","81966","0.0-17.0","5d859977611c9700152f11a1","64de8df5112845dad1e3a5cd","","","","","3539",""," ","key"," ","16.666797169811343","500","250","instZol0","0","","","0","0","0",""
"","psychophysics","18","90534","0.0-18.0","5d859977611c9700152f11a1","64de8df5112845dad1e3a5cd","","","","","8565",""," ","key"," ","16.666922027290436","500","250","instZol1","0.20000000000000004","","","0","0","-1.3",""
"","psychophysics","19","103838","0.0-19.0","5d859977611c9700152f11a1","64de8df5112845dad1e3a5cd","","","","","13295",""," ","key"," ","16.666878293600995","500","250","instZol2","0.9000000000000006","1","","0","0","2",""
"","psychophysics","20","105958","0.0-20.0","5d859977611c9700152f11a1","64de8df5112845dad1e3a5cd","","","","","2118",""," ","key"," ","16.666307086614168","500","250","inst","","","","","","",""
"","psychophysics","21","109390","0.0-21.0","5d859977611c9700152f11a1","64de8df5112845dad1e3a5cd","","","","","3423",""," ","key"," ","16.666872549019615","500","250","zol","1.05","1","0","6","4","0.45",""
"","psychophysics","22","111934","0.0-22.0","5d859977611c9700152f11a1","64de8df5112845dad1e3a5cd","","","","","2536",""," ","key"," ","16.66770394736848","500","250","zol","1.3","1","0","22","14","-0.4",""
"","psychophysics","23","116686","0.0-23.0","5d859977611c9700152f11a1","64de8df5112845dad1e3a5cd","","","","","4747",""," ","key"," ","16.66688028169014","500","250","zol","1.2400000000000002","1","0","-21","-26","-0.04",""
"","psychophysics","24","121486","0.0-24.0","5d859977611c9700152f11a1","64de8df5112845dad1e3a5cd","","","","","4790",""," ","key"," ","16.66688501742163","500","250","zol","1.5100000000000005","1","0","24","-3","0.09",""
"","psychophysics","25","126374","0.0-25.0","5d859977611c9700152f11a1","64de8df5112845dad1e3a5cd","","","","","4881",""," ","key"," ","16.66708561643837","500","250","zol","1.29","1","0","29","24","-0.19",""
"","psychophysics","26","131559","0.0-26.0","5d859977611c9700152f11a1","64de8df5112845dad1e3a5cd","","","","","5179",""," ","key"," ","16.666819935691297","500","250","zol","1.26","1","0","14","-7","-0.06",""
"","psychophysics","27","137134","0.0-27.0","5d859977611c9700152f11a1","64de8df5112845dad1e3a5cd","","","","","5571",""," ","key"," ","16.667399399399418","500","250","zol","0.57","1","0","20","-11","0.23",""
"","psychophysics","28","139622","0.0-28.0","5d859977611c9700152f11a1","64de8df5112845dad1e3a5cd","","","","","2483",""," ","key"," ","16.667155405405413","500","250","zol","1.03","1","0","3","17","-0.73",""
"","psychophysics","29","144318","0.0-29.0","5d859977611c9700152f11a1","64de8df5112845dad1e3a5cd","","","","","4690",""," ","key"," ","16.667309608540908","500","250","zol","0.62","1","0","30","17","-0.12",""
"","psychophysics","30","151454","0.0-30.0","5d859977611c9700152f11a1","64de8df5112845dad1e3a5cd","","","","","7126",""," ","key"," ","16.667009367681487","500","250","zol","1.0999999999999999","1","0","4","12","0.7",""
"","psychophysics","31","153613","0.0-31.0","5d859977611c9700152f11a1","64de8df5112845dad1e3a5cd","","","","","2150",""," ","key"," ","16.665581395348955","500","250","zol","1.2500000000000002","1","0","-13","-8","-0.45",""
"","psychophysics","32","157535","0.0-32.0","5d859977611c9700152f11a1","64de8df5112845dad1e3a5cd","","","","","3920",""," ","key"," ","16.666893162393222","500","250","zol","0.3","1","0","-23","24","0.7",""
"","psychophysics","33","160070","0.0-33.0","5d859977611c9700152f11a1","64de8df5112845dad1e3a5cd","","","","","2527",""," ","key"," ","16.666841059602643","500","250","zol","0.9299999999999999","1","0","20","18","0.07",""
"","psychophysics","34","161854","0.0-34.0","5d859977611c9700152f11a1","64de8df5112845dad1e3a5cd","","","","","1775",""," ","key"," ","16.664745283018764","500","250","zol","0.6599999999999999","1","0","22","-1","0.04",""
"","psychophysics","35","164838","0.0-35.0","5d859977611c9700152f11a1","64de8df5112845dad1e3a5cd","","","","","2976",""," ","key"," ","16.66708988764044","500","250","zol","0.84","1","0","21","6","0.16",""
"","psychophysics","36","166078","0.0-36.0","5d859977611c9700152f11a1","64de8df5112845dad1e3a5cd","","","","","1238",""," ","key"," ","16.66624324324319","500","250","inst","","","","","","",""
"","psychophysics","37","167823","0.0-37.0","5d859977611c9700152f11a1","64de8df5112845dad1e3a5cd","","","","","1741",""," ","key"," ","16.665359223301035","500","250","instPzPre","50","0","","","","50","50"
"","psychophysics","38","170230","0.0-38.0","5d859977611c9700152f11a1","64de8df5112845dad1e3a5cd","","","","","2399",""," ","key"," ","16.66686805555562","500","250","instPz0","61","2","","","","50","50"
"","psychophysics","39","178439","0.0-39.0","5d859977611c9700152f11a1","64de8df5112845dad1e3a5cd","","","","","8206",""," ","key"," ","16.66697963340121","500","250","instPz1","43","2","","","","25","50"
"","psychophysics","40","182591","0.0-40.0","5d859977611c9700152f11a1","64de8df5112845dad1e3a5cd","","","","","4146",""," ","key"," ","16.666842741935397","500","250","instPz2","31","2","","","","20","35"
"","psychophysics","41","187407","0.0-41.0","5d859977611c9700152f11a1","64de8df5112845dad1e3a5cd","","","","","4809",""," ","key"," ","16.66670138888892","500","250","instPz3","98","2","","","","30","100"
"","psychophysics","42","195446","0.0-42.0","5d859977611c9700152f11a1","64de8df5112845dad1e3a5cd","","","","","8034",""," ","key"," ","16.66669709543568","500","250","instPz4","80","2","","","","30","100"
"","psychophysics","43","196943","0.0-43.0","5d859977611c9700152f11a1","64de8df5112845dad1e3a5cd","","","","","1494",""," ","key"," ","16.666213483146127","500","250","inst","","","","","","",""
"","psychophysics","44","199919","0.0-44.0","5d859977611c9700152f11a1","64de8df5112845dad1e3a5cd","","","","","2971",""," ","key"," ","16.66663841807907","500","250","pz","38","2","0","","","42","47"
"","psychophysics","45","203567","0.0-45.0","5d859977611c9700152f11a1","64de8df5112845dad1e3a5cd","","","","","3645",""," ","key"," ","16.667688073394547","500","250","pz","37","2","0","","","24","54"
"","psychophysics","46","208703","0.0-46.0","5d859977611c9700152f11a1","64de8df5112845dad1e3a5cd","","","","","5133",""," ","key"," ","16.66683387622157","500","250","pz","31","2","0","","","45","44"
"","psychophysics","47","210277","0.0-47.0","5d859977611c9700152f11a1","64de8df5112845dad1e3a5cd","","","","","1570",""," ","key"," ","16.666574468085372","500","250","pz","29","2","0","","","24","43"
"","psychophysics","48","211871","0.0-48.0","5d859977611c9700152f11a1","64de8df5112845dad1e3a5cd","","","","","1593",""," ","key"," ","16.666319148936072","500","250","pz","44","2","0","","","39","59"
"","psychophysics","49","215871","0.0-49.0","5d859977611c9700152f11a1","64de8df5112845dad1e3a5cd","","","","","3996",""," ","key"," ","16.666941422594164","500","250","pz","21","2","0","","","27","28"
"","psychophysics","50","218087","0.0-50.0","5d859977611c9700152f11a1","64de8df5112845dad1e3a5cd","","","","","2212",""," ","key"," ","16.666136363636312","500","250","pz","30","2","0","","","33","41"
"","psychophysics","51","219751","0.0-51.0","5d859977611c9700152f11a1","64de8df5112845dad1e3a5cd","","","","","1661",""," ","key"," ","16.667595959596003","500","250","pz","37","2","0","","","32","56"
"","psychophysics","52","222991","0.0-52.0","5d859977611c9700152f11a1","64de8df5112845dad1e3a5cd","","","","","3237",""," ","key"," ","16.667191709844616","500","250","pz","17","2","0","","","40","20"
"","psychophysics","53","226039","0.0-53.0","5d859977611c9700152f11a1","64de8df5112845dad1e3a5cd","","","","","3043",""," ","key"," ","16.667324175824223","500","250","pz","38","2","0","","","27","49"
"","psychophysics","54","228173","0.0-54.0","5d859977611c9700152f11a1","64de8df5112845dad1e3a5cd","","","","","2131",""," ","key"," ","16.667078740157343","500","250","pz","44","2","0","","","36","59"
"","psychophysics","55","231311","0.0-55.0","5d859977611c9700152f11a1","64de8df5112845dad1e3a5cd","","","","","3136",""," ","key"," ","16.666893617021376","500","250","pz","39","2","0","","","55","49"
"","psychophysics","56","234446","0.0-56.0","5d859977611c9700152f11a1","64de8df5112845dad1e3a5cd","","","","","3132",""," ","key"," ","16.666310160427685","500","250","pz","31","2","0","","","20","52"
"","psychophysics","57","238446","0.0-57.0","5d859977611c9700152f11a1","64de8df5112845dad1e3a5cd","","","","","3997",""," ","key"," ","16.66628033472807","500","250","pz","20","2","0","","","41","25"
"","psychophysics","58","242143","0.0-58.0","5d859977611c9700152f11a1","64de8df5112845dad1e3a5cd","","","","","3693",""," ","key"," ","16.666497737556572","500","250","pz","32","2","0","","","59","48"
"","psychophysics","59","242742","0.0-59.0","5d859977611c9700152f11a1","64de8df5112845dad1e3a5cd","","","","","597",""," ","key"," ","16.666705882353092","500","250","inst","","","","","","",""
"","psychophysics","60","246006","0.0-60.0","5d859977611c9700152f11a1","64de8df5112845dad1e3a5cd","","","","","3259",""," ","key"," ","16.667348717948727","500","250","instBr0","0","","","0","0","0","300"
"","psychophysics","61","253727","0.0-61.0","5d859977611c9700152f11a1","64de8df5112845dad1e3a5cd","","","","","7714",""," ","key"," ","16.66693736501077","500","250","instBr1","1","","","0","0","-40","300"
"","psychophysics","62","260094","0.0-62.0","5d859977611c9700152f11a1","64de8df5112845dad1e3a5cd","","","","","6364",""," ","key"," ","16.66733070866141","500","250","instBr3","22","2","","0","0","40","300"
"","psychophysics","63","261078","0.0-63.0","5d859977611c9700152f11a1","64de8df5112845dad1e3a5cd","","","","","981",""," ","key"," ","16.666482758620486","500","250","inst","","","","","","",""
"","psychophysics","64","265638","0.0-64.0","5d859977611c9700152f11a1","64de8df5112845dad1e3a5cd","","","","","4556",""," ","key"," ","16.66707720588238","500","250","br","21","2","0","23","-20","24","281"
"","psychophysics","65","272342","0.0-65.0","5d859977611c9700152f11a1","64de8df5112845dad1e3a5cd","","","","","6698",""," ","key"," ","16.66700748129669","500","250","br","20","2","0","25","-25","-29","229"
"","psychophysics","66","276742","0.0-66.0","5d859977611c9700152f11a1","64de8df5112845dad1e3a5cd","","","","","4394",""," ","key"," ","16.666825095057035","500","250","br","19","2","0","-7","-26","24","270"
"","psychophysics","67","282118","0.0-67.0","5d859977611c9700152f11a1","64de8df5112845dad1e3a5cd","","","","","5370",""," ","key"," ","16.66676708074523","500","250","br","24","2","0","10","23","4","278"
"","psychophysics","68","284350","0.0-68.0","5d859977611c9700152f11a1","64de8df5112845dad1e3a5cd","","","","","2227",""," ","key"," ","16.66731578947388","500","250","br","22","2","0","26","-17","28","237"
"","psychophysics","69","288846","0.0-69.0","5d859977611c9700152f11a1","64de8df5112845dad1e3a5cd","","","","","4493",""," ","key"," ","16.667141263940557","500","250","br","18","2","0","-30","-8","4","201"
"","psychophysics","70","293614","0.0-70.0","5d859977611c9700152f11a1","64de8df5112845dad1e3a5cd","","","","","4764",""," ","key"," ","16.667301754385903","500","250","br","23","2","0","-3","26","-18","247"
"","psychophysics","71","295566","0.0-71.0","5d859977611c9700152f11a1","64de8df5112845dad1e3a5cd","","","","","1949",""," ","key"," ","16.666672413793375","500","250","br","19","2","0","-1","4","26","252"
"","psychophysics","72","302311","0.0-72.0","5d859977611c9700152f11a1","64de8df5112845dad1e3a5cd","","","","","6741",""," ","key"," ","16.666980198019854","500","250","br","26","2","0","-22","-11","-2","294"
"","psychophysics","73","304767","0.0-73.0","5d859977611c9700152f11a1","64de8df5112845dad1e3a5cd","","","","","2452",""," ","key"," ","16.667363013699013","500","250","br","25","2","0","12","-4","13","269"
"","psychophysics","74","307031","0.0-74.0","5d859977611c9700152f11a1","64de8df5112845dad1e3a5cd","","","","","2260",""," ","key"," ","16.66682222222228","500","250","br","26","2","0","8","25","11","223"
"","psychophysics","75","310798","0.0-75.0","5d859977611c9700152f11a1","64de8df5112845dad1e3a5cd","","","","","3765",""," ","key"," ","16.66684444444435","500","250","br","18","2","0","6","-3","-13","248"
"","psychophysics","76","314614","0.0-76.0","5d859977611c9700152f11a1","64de8df5112845dad1e3a5cd","","","","","3812",""," ","key"," ","16.667820175438752","500","250","br","18","2","0","-13","-7","-20","266"
"","psychophysics","77","317495","0.0-77.0","5d859977611c9700152f11a1","64de8df5112845dad1e3a5cd","","","","","2877",""," ","key"," ","16.667418604651346","500","250","br","22","2","0","-2","-2","-14","284"
"","psychophysics","78","319327","0.0-78.0","5d859977611c9700152f11a1","64de8df5112845dad1e3a5cd","","","","","1828",""," ","key"," ","16.667462962962517","500","250","br","19","2","0","-16","28","6","216"
"","psychophysics","79","320055","0.0-79.0","5d859977611c9700152f11a1","64de8df5112845dad1e3a5cd","","","","","723",""," ","key"," ","16.668255813953163","500","250","inst","","","","","","",""
"","psychophysics","80","327711","0.0-80.0","5d859977611c9700152f11a1","64de8df5112845dad1e3a5cd","","","","","7654",""," ","key"," ","16.66687581699338","500","250","instPog0","340","2","","0","0","370","340"
"","psychophysics","81","333214","0.0-81.0","5d859977611c9700152f11a1","64de8df5112845dad1e3a5cd","","","","","5500",""," ","key"," ","16.666471124619974","500","250","instPog1","326","2","","0","0","370","340"
"","psychophysics","82","336798","0.0-82.0","5d859977611c9700152f11a1","64de8df5112845dad1e3a5cd","","","","","3582",""," ","key"," ","16.66684112149545","500","250","instPog2","334","2","","0","0","340","340"
"","psychophysics","83","337367","0.0-83.0","5d859977611c9700152f11a1","64de8df5112845dad1e3a5cd","","","","","566",""," ","key"," ","16.66806060606155","500","250","inst","","","","","","",""
"","psychophysics","84","340237","0.0-84.0","5d859977611c9700152f11a1","64de8df5112845dad1e3a5cd","","","","","2867",""," ","key"," ","16.66639181286572","500","250","pog","343","2","0","0","0","331","370"
"","psychophysics","85","342886","0.0-85.0","5d859977611c9700152f11a1","64de8df5112845dad1e3a5cd","","","","","2648",""," ","key"," ","16.66837974683539","500","250","pog","342","2","0","0","0","392","349"
"","psychophysics","86","345999","0.0-86.0","5d859977611c9700152f11a1","64de8df5112845dad1e3a5cd","","","","","3110",""," ","key"," ","16.667241935483656","500","250","pog","289","2","0","0","0","295","308"
"","psychophysics","87","347814","0.0-87.0","5d859977611c9700152f11a1","64de8df5112845dad1e3a5cd","","","","","1813",""," ","key"," ","16.66714814814784","500","250","pog","315","2","0","0","0","321","333"
"","psychophysics","88","350351","0.0-88.0","5d859977611c9700152f11a1","64de8df5112845dad1e3a5cd","","","","","2534",""," ","key"," ","16.66663576158948","500","250","pog","283","2","0","0","0","315","301"
"","psychophysics","89","352014","0.0-89.0","5d859977611c9700152f11a1","64de8df5112845dad1e3a5cd","","","","","1660",""," ","key"," ","16.6656565656568","500","250","pog","340","2","0","0","0","326","373"
"","psychophysics","90","353765","0.0-90.0","5d859977611c9700152f11a1","64de8df5112845dad1e3a5cd","","","","","1748",""," ","key"," ","16.665932692307532","500","250","pog","344","2","0","0","0","332","366"
"","psychophysics","91","356325","0.0-91.0","5d859977611c9700152f11a1","64de8df5112845dad1e3a5cd","","","","","2559",""," ","key"," ","16.66651973684202","500","250","pog","337","2","0","0","0","319","366"
"","psychophysics","92","363054","0.0-92.0","5d859977611c9700152f11a1","64de8df5112845dad1e3a5cd","","","","","6726",""," ","key"," ","16.6672506203474","500","250","pog","353","2","0","0","0","293","378"
"","psychophysics","93","365806","0.0-93.0","5d859977611c9700152f11a1","64de8df5112845dad1e3a5cd","","","","","2749",""," ","key"," ","16.66698780487804","500","250","pog","303","2","0","0","0","329","315"
"","psychophysics","94","368806","0.0-94.0","5d859977611c9700152f11a1","64de8df5112845dad1e3a5cd","","","","","2993",""," ","key"," ","16.66645251396639","500","250","pog","284","2","0","0","0","336","301"
"","psychophysics","95","372694","0.0-95.0","5d859977611c9700152f11a1","64de8df5112845dad1e3a5cd","","","","","3886",""," ","key"," ","16.666802575107255","500","250","pog","319","2","0","0","0","363","340"
"","psychophysics","96","377814","0.0-96.0","5d859977611c9700152f11a1","64de8df5112845dad1e3a5cd","","","","","5117",""," ","key"," ","16.66715032679734","500","250","pog","329","2","0","0","0","359","347"
"","psychophysics","97","381598","0.0-97.0","5d859977611c9700152f11a1","64de8df5112845dad1e3a5cd","","","","","3780",""," ","key"," ","16.666672566371705","500","250","pog","332","2","0","0","0","300","367"
"","psychophysics","98","384606","0.0-98.0","5d859977611c9700152f11a1","64de8df5112845dad1e3a5cd","","","","","3005",""," ","key"," ","16.667122905027817","500","250","pog","310","2","0","0","0","348","340"
"","psychophysics","99","385110","0.0-99.0","5d859977611c9700152f11a1","64de8df5112845dad1e3a5cd","","","","","501",""," ","key"," ","16.667413793104814","500","250","inst","","","","","","",""
"","psychophysics","100","386982","0.0-100.0","5d859977611c9700152f11a1","64de8df5112845dad1e3a5cd","","","","","1868",""," ","key"," ","16.66700000000024","500","250","instEB0","40","1","","0","0","40","40"
"","psychophysics","101","392294","0.0-101.0","5d859977611c9700152f11a1","64de8df5112845dad1e3a5cd","","","","","5310",""," ","key"," ","16.66682704402527","500","250","instEB1","31","1","","0","0","40","30"
"","psychophysics","102","397286","0.0-102.0","5d859977611c9700152f11a1","64de8df5112845dad1e3a5cd","","","","","4988",""," ","key"," ","16.666573825503438","500","250","instEB2","38","1","","0","0","30","40"
"","psychophysics","103","400638","0.0-103.0","5d859977611c9700152f11a1","64de8df5112845dad1e3a5cd","","","","","3348",""," ","key"," ","16.667035000000034","500","250","instEB3","38","1","","0","0","27","45"
"","psychophysics","104","404814","0.0-104.0","5d859977611c9700152f11a1","64de8df5112845dad1e3a5cd","","","","","4172",""," ","key"," ","16.667199999999955","500","250","instEB4","26","1","","0","0","40","30"
"","psychophysics","105","405549","0.0-105.0","5d859977611c9700152f11a1","64de8df5112845dad1e3a5cd","","","","","732",""," ","key"," ","16.66609302325564","500","250","inst","","","","","","",""
"","psychophysics","106","409350","0.0-106.0","5d859977611c9700152f11a1","64de8df5112845dad1e3a5cd","","","","","3799",""," ","key"," ","16.666872246696055","500","250","eb","32","1","","0","0","47","36"
"","psychophysics","107","411278","0.0-107.0","5d859977611c9700152f11a1","64de8df5112845dad1e3a5cd","","","","","1924",""," ","key"," ","16.666043478261134","500","250","eb","35","1","","0","0","31","42"
"","psychophysics","108","413029","0.0-108.0","5d859977611c9700152f11a1","64de8df5112845dad1e3a5cd","","","","","1748",""," ","key"," ","16.666769230769066","500","250","eb","34","1","","0","0","38","40"
"","psychophysics","109","416334","0.0-109.0","5d859977611c9700152f11a1","64de8df5112845dad1e3a5cd","","","","","3303",""," ","key"," ","16.667015228426404","500","250","eb","33","1","","0","0","42","39"
"","psychophysics","110","419062","0.0-110.0","5d859977611c9700152f11a1","64de8df5112845dad1e3a5cd","","","","","2722",""," ","key"," ","16.667245398772998","500","250","eb","30","1","","0","0","30","34"
"","psychophysics","111","421350","0.0-111.0","5d859977611c9700152f11a1","64de8df5112845dad1e3a5cd","","","","","2284",""," ","key"," ","16.667279411764707","500","250","eb","41","1","","0","0","52","45"
"","psychophysics","112","423495","0.0-112.0","5d859977611c9700152f11a1","64de8df5112845dad1e3a5cd","","","","","2141",""," ","key"," ","16.666835937499854","500","250","eb","36","1","","0","0","48","43"
"","psychophysics","113","425190","0.0-113.0","5d859977611c9700152f11a1","64de8df5112845dad1e3a5cd","","","","","1691",""," ","key"," ","16.666969999999857","500","250","eb","36","1","","0","0","28","44"
"","psychophysics","114","426717","0.0-114.0","5d859977611c9700152f11a1","64de8df5112845dad1e3a5cd","","","","","1521",""," ","key"," ","16.665076923076892","500","250","eb","22","1","","0","0","30","37"
"","psychophysics","115","428854","0.0-115.0","5d859977611c9700152f11a1","64de8df5112845dad1e3a5cd","","","","","2136",""," ","key"," ","16.66601574803129","500","250","eb","30","1","","0","0","41","39"
"","psychophysics","116","430999","0.0-116.0","5d859977611c9700152f11a1","64de8df5112845dad1e3a5cd","","","","","2140",""," ","key"," ","16.66690625000001","500","250","eb","30","1","","0","0","31","44"
"","psychophysics","117","433478","0.0-117.0","5d859977611c9700152f11a1","64de8df5112845dad1e3a5cd","","","","","2476",""," ","key"," ","16.66672972972958","500","250","eb","30","1","","0","0","31","37"
"","psychophysics","118","434727","0.0-118.0","5d859977611c9700152f11a1","64de8df5112845dad1e3a5cd","","","","","1245",""," ","key"," ","16.666547945205423","500","250","eb","30","1","","0","0","29","36"
"","psychophysics","119","437622","0.0-119.0","5d859977611c9700152f11a1","64de8df5112845dad1e3a5cd","","","","","2890",""," ","key"," ","16.666832369942327","500","250","eb","27","1","","0","0","52","30"
"","psychophysics","120","440566","0.0-120.0","5d859977611c9700152f11a1","64de8df5112845dad1e3a5cd","","","","","2939",""," ","key"," ","16.66706249999995","500","250","eb","22","1","","0","0","44","26"
"","psychophysics","121","441079","0.0-121.0","5d859977611c9700152f11a1","64de8df5112845dad1e3a5cd","","","","","510",""," ","key"," ","16.666800000000514","500","250","inst","","","","","","",""
"","psychophysics","122","445071","0.0-122.0","5d859977611c9700152f11a1","64de8df5112845dad1e3a5cd","","","","","3989",""," ","key"," ","16.667021008403317","500","250","instZol1","0.4","","","0","0","-1.3",""
"","psychophysics","123","447973","0.0-123.0","5d859977611c9700152f11a1","64de8df5112845dad1e3a5cd","","","","","2897",""," ","key"," ","16.666820809248474","500","250","instZol2","-2","2","","0","0","2",""
"","psychophysics","124","448621","0.0-124.0","5d859977611c9700152f11a1","64de8df5112845dad1e3a5cd","","","","","647",""," ","key"," ","16.66718421052639","500","250","inst","","","","","","",""
"","psychophysics","125","453518","0.0-125.0","5d859977611c9700152f11a1","64de8df5112845dad1e3a5cd","","","","","4894",""," ","key"," ","16.667529010238944","500","250","zol","-0.6599999999999999","2","1","-8","-17","-0.64",""
"","psychophysics","126","456694","0.0-126.0","5d859977611c9700152f11a1","64de8df5112845dad1e3a5cd","","","","","3170",""," ","key"," ","16.666825396825235","500","250","zol","-0.7699999999999999","2","1","16","4","0.07",""
"","psychophysics","127","459254","0.0-127.0","5d859977611c9700152f11a1","64de8df5112845dad1e3a5cd","","","","","2552",""," ","key"," ","16.667176470588103","500","250","zol","-0.7499999999999999","2","1","28","-17","-0.25",""
"","psychophysics","128","462006","0.0-128.0","5d859977611c9700152f11a1","64de8df5112845dad1e3a5cd","","","","","2747",""," ","key"," ","16.66697560975622","500","250","zol","-1.4100000000000004","2","1","-2","-1","0.41",""
"","psychophysics","129","466158","0.0-129.0","5d859977611c9700152f11a1","64de8df5112845dad1e3a5cd","","","","","4143",""," ","key"," ","16.66719758064503","500","250","zol","-0.63","2","1","0","7","-0.57",""
"","psychophysics","130","468133","0.0-130.0","5d859977611c9700152f11a1","64de8df5112845dad1e3a5cd","","","","","1969",""," ","key"," ","16.66627966101682","500","250","zol","-1.6200000000000006","2","1","13","-26","0.62",""
"","psychophysics","131","470566","0.0-131.0","5d859977611c9700152f11a1","64de8df5112845dad1e3a5cd","","","","","2429",""," ","key"," ","16.66720000000004","500","250","zol","-0.9699999999999999","2","1","-4","16","-0.53",""
"","psychophysics","132","473318","0.0-132.0","5d859977611c9700152f11a1","64de8df5112845dad1e3a5cd","","","","","2746",""," ","key"," ","16.666859756097505","500","250","zol","-1.1400000000000001","2","1","-21","-13","0.14",""
"","psychophysics","133","475614","0.0-133.0","5d859977611c9700152f11a1","64de8df5112845dad1e3a5cd","","","","","2289",""," ","key"," ","16.666664233576952","500","250","zol","-1.3800000000000001","2","1","13","3","0.28",""
"","psychophysics","134","477926","0.0-134.0","5d859977611c9700152f11a1","64de8df5112845dad1e3a5cd","","","","","2306",""," ","key"," ","16.666598540146147","500","250","zol","-1.7800000000000005","2","1","-25","-30","0.08",""
"","psychophysics","135","481141","0.0-135.0","5d859977611c9700152f11a1","64de8df5112845dad1e3a5cd","","","","","3210",""," ","key"," ","16.667427083333376","500","250","zol","-1.6600000000000006","2","1","-24","23","0.66",""
"","psychophysics","136","486462","0.0-136.0","5d859977611c9700152f11a1","64de8df5112845dad1e3a5cd","","","","","5313",""," ","key"," ","16.666692789968614","500","250","zol","-0.8399999999999999","2","1","-17","9","-0.66",""
"","psychophysics","137","488862","0.0-137.0","5d859977611c9700152f11a1","64de8df5112845dad1e3a5cd","","","","","2393",""," ","key"," ","16.66569230769243","500","250","zol","-1.4300000000000004","2","1","-27","-15","0.63",""
"","psychophysics","138","491342","0.0-138.0","5d859977611c9700152f11a1","64de8df5112845dad1e3a5cd","","","","","2475",""," ","key"," ","16.666938775510456","500","250","zol","-1.4800000000000002","2","1","-14","-17","0.38",""
"","psychophysics","139","493254","0.0-139.0","5d859977611c9700152f11a1","64de8df5112845dad1e3a5cd","","","","","1904",""," ","key"," ","16.66743859649113","500","250","zol","-1.6700000000000004","2","1","14","30","0.57",""
"","psychophysics","140","493902","0.0-140.0","5d859977611c9700152f11a1","64de8df5112845dad1e3a5cd","","","","","645",""," ","key"," ","16.666868421053024","500","250","inst","","","","","","",""
"","psychophysics","141","498397","0.0-141.0","5d859977611c9700152f11a1","64de8df5112845dad1e3a5cd","","","","","4492",""," ","key"," ","16.66659851301116","500","250","instBr3","-14","1","","0","0","40","300"
"","psychophysics","142","499174","0.0-142.0","5d859977611c9700152f11a1","64de8df5112845dad1e3a5cd","","","","","776",""," ","key"," ","16.666666666666668","500","250","inst","","","","","","",""
"","psychophysics","143","502286","0.0-143.0","5d859977611c9700152f11a1","64de8df5112845dad1e3a5cd","","","","","3106",""," ","key"," ","16.66729032258085","500","250","br","-20","1","1","2","-22","2","266"
"","psychophysics","144","503862","0.0-144.0","5d859977611c9700152f11a1","64de8df5112845dad1e3a5cd","","","","","1573",""," ","key"," ","16.66688297872377","500","250","br","-18","1","1","16","27","-7","253"
"","psychophysics","145","505982","0.0-145.0","5d859977611c9700152f11a1","64de8df5112845dad1e3a5cd","","","","","2116",""," ","key"," ","16.666825396825544","500","250","br","-13","1","1","-18","-17","-23","276"
"","psychophysics","146","507806","0.0-146.0","5d859977611c9700152f11a1","64de8df5112845dad1e3a5cd","","","","","1821",""," ","key"," ","16.666833333333702","500","250","br","-5","1","1","-11","25","-12","293"
"","psychophysics","147","510230","0.0-147.0","5d859977611c9700152f11a1","64de8df5112845dad1e3a5cd","","","","","2420",""," ","key"," ","16.666213793103616","500","250","br","-8","1","1","5","-20","-9","238"
"","psychophysics","148","512990","0.0-148.0","5d859977611c9700152f11a1","64de8df5112845dad1e3a5cd","","","","","2757",""," ","key"," ","16.66673170731697","500","250","br","-9","1","1","6","-3","-4","228"
"","psychophysics","149","516846","0.0-149.0","5d859977611c9700152f11a1","64de8df5112845dad1e3a5cd","","","","","3852",""," ","key"," ","16.667346320346347","500","250","br","-17","1","1","-14","0","6","207"
"","psychophysics","150","519398","0.0-150.0","5d859977611c9700152f11a1","64de8df5112845dad1e3a5cd","","","","","2548",""," ","key"," ","16.667105263157666","500","250","br","-11","1","1","16","8","-17","273"
"","psychophysics","151","522822","0.0-151.0","5d859977611c9700152f11a1","64de8df5112845dad1e3a5cd","","","","","3421",""," ","key"," ","16.666823529411797","500","250","br","-13","1","1","12","-22","12","251"
"","psychophysics","152","525750","0.0-152.0","5d859977611c9700152f11a1","64de8df5112845dad1e3a5cd","","","","","2925",""," ","key"," ","16.666337142857124","500","250","br","-14","1","1","17","-5","11","217"
"","psychophysics","153","528246","0.0-153.0","5d859977611c9700152f11a1","64de8df5112845dad1e3a5cd","","","","","2493",""," ","key"," ","16.667161073825547","500","250","br","-24","1","1","12","-6","-19","277"
"","psychophysics","154","530926","0.0-154.0","5d859977611c9700152f11a1","64de8df5112845dad1e3a5cd","","","","","2677",""," ","key"," ","16.66681761006347","500","250","br","-16","1","1","-24","4","19","286"
"","psychophysics","155","533574","0.0-155.0","5d859977611c9700152f11a1","64de8df5112845dad1e3a5cd","","","","","2642",""," ","key"," ","16.667253164556822","500","250","br","-15","1","1","18","-23","-21","202"
"","psychophysics","156","537063","0.0-156.0","5d859977611c9700152f11a1","64de8df5112845dad1e3a5cd","","","","","3480",""," ","key"," ","16.667334928229657","500","250","br","-11","1","1","0","2","30","274"
"","psychophysics","157","538246","0.0-157.0","5d859977611c9700152f11a1","64de8df5112845dad1e3a5cd","","","","","1179",""," ","key"," ","16.667557142856197","500","250","br","-9","1","1","-5","15","0","263"
"","psychophysics","158","538870","0.0-158.0","5d859977611c9700152f11a1","64de8df5112845dad1e3a5cd","","","","","622",""," ","key"," ","16.664194444446668","500","250","inst","","","","","","",""
"","psychophysics","159","545286","0.0-159.0","5d859977611c9700152f11a1","64de8df5112845dad1e3a5cd","","","","","6414",""," ","key"," ","16.666638020833187","500","250","instPog0","160","1","","0","0","190","160"
"","psychophysics","160","548974","0.0-160.0","5d859977611c9700152f11a1","64de8df5112845dad1e3a5cd","","","","","3686",""," ","key"," ","16.666836363636488","500","250","instPog1","172","1","","0","0","190","160"
"","psychophysics","161","551238","0.0-161.0","5d859977611c9700152f11a1","64de8df5112845dad1e3a5cd","","","","","2262",""," ","key"," ","16.666903703703753","500","250","instPog2","162","1","","0","0","160","160"
"","psychophysics","162","552446","0.0-162.0","5d859977611c9700152f11a1","64de8df5112845dad1e3a5cd","","","","","1206",""," ","key"," ","16.664777777778607","500","250","inst","","","","","","",""
"","psychophysics","163","556630","0.0-163.0","5d859977611c9700152f11a1","64de8df5112845dad1e3a5cd","","","","","4180",""," ","key"," ","16.667247999999674","500","250","pog","153","1","1","0","0","113","151"
"","psychophysics","164","559302","0.0-164.0","5d859977611c9700152f11a1","64de8df5112845dad1e3a5cd","","","","","2669",""," ","key"," ","16.666710691823795","500","250","pog","158","1","1","0","0","114","156"
"","psychophysics","165","563485","0.0-165.0","5d859977611c9700152f11a1","64de8df5112845dad1e3a5cd","","","","","4180",""," ","key"," ","16.66596799999988","500","250","pog","132","1","1","0","0","158","120"
"","psychophysics","166","566894","0.0-166.0","5d859977611c9700152f11a1","64de8df5112845dad1e3a5cd","","","","","3408",""," ","key"," ","16.667014778325026","500","250","pog","185","1","1","0","0","137","173"
"","psychophysics","167","572293","0.0-167.0","5d859977611c9700152f11a1","64de8df5112845dad1e3a5cd","","","","","5393",""," ","key"," ","16.667191950464478","500","250","pog","209","1","1","0","0","139","200"
"","psychophysics","168","576486","0.0-168.0","5d859977611c9700152f11a1","64de8df5112845dad1e3a5cd","","","","","4192",""," ","key"," ","16.66756972111576","500","250","pog","185","1","1","0","0","109","180"
"","psychophysics","169","579566","0.0-169.0","5d859977611c9700152f11a1","64de8df5112845dad1e3a5cd","","","","","3077",""," ","key"," ","16.667336956521943","500","250","pog","173","1","1","0","0","125","164"
"","psychophysics","170","581750","0.0-170.0","5d859977611c9700152f11a1","64de8df5112845dad1e3a5cd","","","","","2181",""," ","key"," ","16.666800000000066","500","250","pog","172","1","1","0","0","152","149"
"","psychophysics","171","583894","0.0-171.0","5d859977611c9700152f11a1","64de8df5112845dad1e3a5cd","","","","","2142",""," ","key"," ","16.666960629921473","500","250","pog","177","1","1","0","0","153","158"
"","psychophysics","172","586318","0.0-172.0","5d859977611c9700152f11a1","64de8df5112845dad1e3a5cd","","","","","2419",""," ","key"," ","16.66701379310388","500","250","pog","168","1","1","0","0","210","146"
"","psychophysics","173","588182","0.0-173.0","5d859977611c9700152f11a1","64de8df5112845dad1e3a5cd","","","","","1860",""," ","key"," ","16.66767567567536","500","250","pog","191","1","1","0","0","185","176"
"","psychophysics","174","590726","0.0-174.0","5d859977611c9700152f11a1","64de8df5112845dad1e3a5cd","","","","","2542",""," ","key"," ","16.66711258278105","500","250","pog","187","1","1","0","0","133","185"
"","psychophysics","175","594406","0.0-175.0","5d859977611c9700152f11a1","64de8df5112845dad1e3a5cd","","","","","3675",""," ","key"," ","16.666613636363763","500","250","pog","207","1","1","0","0","119","195"
"","psychophysics","176","596422","0.0-176.0","5d859977611c9700152f11a1","64de8df5112845dad1e3a5cd","","","","","2014",""," ","key"," ","16.666716666667103","500","250","pog","206","1","1","0","0","154","188"
"","psychophysics","177","600254","0.0-177.0","5d859977611c9700152f11a1","64de8df5112845dad1e3a5cd","","","","","3830",""," ","key"," ","16.666484716157207","500","250","pog","145","1","1","0","0","173","122"
"","psychophysics","178","600974","0.0-178.0","5d859977611c9700152f11a1","64de8df5112845dad1e3a5cd","","","","","717",""," ","key"," ","16.66769047618921","500","250","inst","","","","","","",""
"","psychophysics","179","605718","0.0-179.0","5d859977611c9700152f11a1","64de8df5112845dad1e3a5cd","","","","","4742",""," ","key"," ","16.667338028168928","500","250","instEB1","38","2","","0","0","30","40"
"","psychophysics","180","607655","0.0-180.0","5d859977611c9700152f11a1","64de8df5112845dad1e3a5cd","","","","","1933",""," ","key"," ","16.666999999999636","500","250","instEB2","33","2","","0","0","40","30"
"","psychophysics","181","611382","0.0-181.0","5d859977611c9700152f11a1","64de8df5112845dad1e3a5cd","","","","","3724",""," ","key"," ","16.66689237668137","500","250","instEB3","37","2","","0","0","45","27"
"","psychophysics","182","614310","0.0-182.0","5d859977611c9700152f11a1","64de8df5112845dad1e3a5cd","","","","","2925",""," ","key"," ","16.666706896551627","500","250","instEB4","48","2","","0","0","30","40"
"","psychophysics","183","615014","0.0-183.0","5d859977611c9700152f11a1","64de8df5112845dad1e3a5cd","","","","","699",""," ","key"," ","16.666166666667863","500","250","inst","","","","","","",""
"","psychophysics","184","618758","0.0-184.0","5d859977611c9700152f11a1","64de8df5112845dad1e3a5cd","","","","","3740",""," ","key"," ","16.666591928251226","500","250","eb","50","2","","0","0","33","44"
"","psychophysics","185","621150","0.0-185.0","5d859977611c9700152f11a1","64de8df5112845dad1e3a5cd","","","","","2388",""," ","key"," ","16.66753146853184","500","250","eb","54","2","","0","0","45","51"
"","psychophysics","186","623198","0.0-186.0","5d859977611c9700152f11a1","64de8df5112845dad1e3a5cd","","","","","2044",""," ","key"," ","16.665721311475355","500","250","eb","33","2","","0","0","35","25"
"","psychophysics","187","624822","0.0-187.0","5d859977611c9700152f11a1","64de8df5112845dad1e3a5cd","","","","","1620",""," ","key"," ","16.666593750000175","500","250","eb","33","2","","0","0","25","33"
"","psychophysics","188","626398","0.0-188.0","5d859977611c9700152f11a1","64de8df5112845dad1e3a5cd","","","","","1572",""," ","key"," ","16.665638297871794","500","250","eb","47","2","","0","0","37","49"
"","psychophysics","189","628782","0.0-189.0","5d859977611c9700152f11a1","64de8df5112845dad1e3a5cd","","","","","2380",""," ","key"," ","16.667704225351386","500","250","eb","53","2","","0","0","38","44"
"","psychophysics","190","630758","0.0-190.0","5d859977611c9700152f11a1","64de8df5112845dad1e3a5cd","","","","","1973",""," ","key"," ","16.666991452991955","500","250","eb","49","2","","0","0","42","41"
"","psychophysics","191","632540","0.0-191.0","5d859977611c9700152f11a1","64de8df5112845dad1e3a5cd","","","","","1779",""," ","key"," ","16.665575471697903","500","250","eb","29","2","","0","0","25","25"
"","psychophysics","192","633565","0.0-192.0","5d859977611c9700152f11a1","64de8df5112845dad1e3a5cd","","","","","1023",""," ","key"," ","16.667278688525034","500","250","eb","29","2","","0","0","29","24"
"","psychophysics","193","636486","0.0-193.0","5d859977611c9700152f11a1","64de8df5112845dad1e3a5cd","","","","","2920",""," ","key"," ","16.666741379310547","500","250","eb","42","2","","0","0","42","34"
"","psychophysics","194","638517","0.0-194.0","5d859977611c9700152f11a1","64de8df5112845dad1e3a5cd","","","","","2027",""," ","key"," ","16.666867768594972","500","250","eb","51","2","","0","0","51","36"
"","psychophysics","195","640710","0.0-195.0","5d859977611c9700152f11a1","64de8df5112845dad1e3a5cd","","","","","2192",""," ","key"," ","16.66706153846149","500","250","eb","36","2","","0","0","37","28"
"","psychophysics","196","642870","0.0-196.0","5d859977611c9700152f11a1","64de8df5112845dad1e3a5cd","","","","","2147",""," ","key"," ","16.667403100774976","500","250","eb","50","2","","0","0","42","44"
"","psychophysics","197","645047","0.0-197.0","5d859977611c9700152f11a1","64de8df5112845dad1e3a5cd","","","","","2173",""," ","key"," ","16.666776923076785","500","250","eb","34","2","","0","0","46","25"
"","psychophysics","198","647982","0.0-198.0","5d859977611c9700152f11a1","64de8df5112845dad1e3a5cd","","","","","2931",""," ","key"," ","16.666382857143347","500","250","eb","53","2","","0","0","46","43"
"","psychophysics","199","648606","0.0-199.0","5d859977611c9700152f11a1","64de8df5112845dad1e3a5cd","","","","","622",""," ","key"," ","16.66708333333372","500","250","inst","","","","","","",""
"","psychophysics","200","654342","0.0-200.0","5d859977611c9700152f11a1","64de8df5112845dad1e3a5cd","","","","","5733",""," ","key"," ","16.667049562682074","500","250","instPz1","46","1","","","","25","50"
"","psychophysics","201","657773","0.0-201.0","5d859977611c9700152f11a1","64de8df5112845dad1e3a5cd","","","","","3428",""," ","key"," ","16.66683414634147","500","250","instPz2","24","1","","","","35","20"
"","psychophysics","202","662326","0.0-202.0","5d859977611c9700152f11a1","64de8df5112845dad1e3a5cd","","","","","4551",""," ","key"," ","16.66716544117662","500","250","instPz3","54","1","","","","100","30"
"","psychophysics","203","664910","0.0-203.0","5d859977611c9700152f11a1","64de8df5112845dad1e3a5cd","","","","","2578",""," ","key"," ","16.66627272727216","500","250","instPz4","49","1","","","","100","30"
"","psychophysics","204","665614","0.0-204.0","5d859977611c9700152f11a1","64de8df5112845dad1e3a5cd","","","","","702",""," ","key"," ","16.665976190476655","500","250","inst","","","","","","",""
"","psychophysics","205","667230","0.0-205.0","5d859977611c9700152f11a1","64de8df5112845dad1e3a5cd","","","","","1606",""," ","key"," ","16.667875000000397","500","250","pz","26","1","1","","","25","20"
"","psychophysics","206","669774","0.0-206.0","5d859977611c9700152f11a1","64de8df5112845dad1e3a5cd","","","","","2540",""," ","key"," ","16.66651655629197","500","250","pz","58","1","1","","","40","55"
"","psychophysics","207","671750","0.0-207.0","5d859977611c9700152f11a1","64de8df5112845dad1e3a5cd","","","","","1972",""," ","key"," ","16.667271186440782","500","250","pz","46","1","1","","","42","36"
"","psychophysics","208","673804","0.0-208.0","5d859977611c9700152f11a1","64de8df5112845dad1e3a5cd","","","","","2051",""," ","key"," ","16.665803278688546","500","250","pz","40","1","1","","","26","36"
"","psychophysics","209","676397","0.0-209.0","5d859977611c9700152f11a1","64de8df5112845dad1e3a5cd","","","","","2592",""," ","key"," ","16.668199999999977","500","250","pz","77","1","1","","","60","60"
"","psychophysics","210","678782","0.0-210.0","5d859977611c9700152f11a1","64de8df5112845dad1e3a5cd","","","","","2381",""," ","key"," ","16.66676056337982","500","250","pz","53","1","1","","","42","55"
"","psychophysics","211","680534","0.0-211.0","5d859977611c9700152f11a1","64de8df5112845dad1e3a5cd","","","","","1749",""," ","key"," ","16.668778846154545","500","250","pz","62","1","1","","","54","52"
"","psychophysics","212","681973","0.0-212.0","5d859977611c9700152f11a1","64de8df5112845dad1e3a5cd","","","","","1436",""," ","key"," ","16.666600000000944","500","250","pz","45","1","1","","","35","33"
"","psychophysics","213","683206","0.0-213.0","5d859977611c9700152f11a1","64de8df5112845dad1e3a5cd","","","","","1232",""," ","key"," ","16.668808219177738","500","250","pz","33","1","1","","","27","22"
"","psychophysics","214","684614","0.0-214.0","5d859977611c9700152f11a1","64de8df5112845dad1e3a5cd","","","","","1404",""," ","key"," ","16.667000000000588","500","250","pz","43","1","1","","","33","34"
"","psychophysics","215","688981","0.0-215.0","5d859977611c9700152f11a1","64de8df5112845dad1e3a5cd","","","","","4364",""," ","key"," ","16.666835249042123","500","250","pz","74","1","1","","","52","54"
"","psychophysics","216","692326","0.0-216.0","5d859977611c9700152f11a1","64de8df5112845dad1e3a5cd","","","","","3341",""," ","key"," ","16.667894472361628","500","250","pz","69","1","1","","","41","54"
"","psychophysics","217","695702","0.0-217.0","5d859977611c9700152f11a1","64de8df5112845dad1e3a5cd","","","","","3371",""," ","key"," ","16.66678712871283","500","250","pz","56","1","1","","","20","45"
"","psychophysics","218","698613","0.0-218.0","5d859977611c9700152f11a1","64de8df5112845dad1e3a5cd","","","","","2907",""," ","key"," ","16.666137931034793","500","250","pz","47","1","1","","","58","36"
"","psychophysics","219","702774","0.0-219.0","5d859977611c9700152f11a1","64de8df5112845dad1e3a5cd","","","","","4160",""," ","key"," ","16.66747983870934","500","250","pz","42","1","1","","","40","30"
