"success","trial_type","trial_index","time_elapsed","internal_node_id","pid","sid","timeout","failed_images","failed_audio","failed_video","rt","stimulus","response","response_type","key_press","avg_frame_time","center_x","center_y","task","resp","version","block","jitterX","jitterY","start","parA"
"true","fullscreen","0","3327","0.0-0.0","55a5f19bfdf99b28b5340d00","64e50290df62995c3043a679","","","","","","","","","","","","","","","","","","","",""
"true","preload","1","3460","0.0-1.0","55a5f19bfdf99b28b5340d00","64e50290df62995c3043a679","false","[]","[]","[]","","","","","","","","","","","","","","","",""
"","html-button-response","2","18135","0.0-2.0","55a5f19bfdf99b28b5340d00","64e50290df62995c3043a679","","","","","14671","Please Make Sure Your Audio Is On.","0","","","","","","","","","","","","",""
"","psychophysics","3","23843","0.0-3.0","55a5f19bfdf99b28b5340d00","64e50290df62995c3043a679","","","","","5678",""," ","key"," ","16.710447368421047","768","250","","","","","","","",""
"","psychophysics","4","28320","0.0-4.0","55a5f19bfdf99b28b5340d00","64e50290df62995c3043a679","","","","","4472",""," ","key"," ","16.66309363295881","500","250","inst","","","","","","",""
"","psychophysics","5","33333","0.0-5.0","55a5f19bfdf99b28b5340d00","64e50290df62995c3043a679","","","","","4988",""," ","key"," ","16.66237333333333","500","250","sample0","","","","","","",""
"","psychophysics","6","35899","0.0-6.0","55a5f19bfdf99b28b5340d00","64e50290df62995c3043a679","","","","","2563",""," ","key"," ","16.662078431372564","500","250","sample1","","","","","","",""
"","psychophysics","7","139488","0.0-7.0","55a5f19bfdf99b28b5340d00","64e50290df62995c3043a679","","","","","103576",""," ","key"," ","16.66227831402831","500","250","sample2","100","","","","","",""
"","psychophysics","8","152068","0.0-8.0","55a5f19bfdf99b28b5340d00","64e50290df62995c3043a679","","","","","12571",""," ","key"," ","16.662653846153813","500","250","sample3","100","","","","","",""
"","psychophysics","9","159908","0.0-9.0","55a5f19bfdf99b28b5340d00","64e50290df62995c3043a679","","","","","7824",""," ","key"," ","16.6625553191489","500","250","sample4","98","","","","","",""
"","psychophysics","10","173291","0.0-10.0","55a5f19bfdf99b28b5340d00","64e50290df62995c3043a679","","","","","13375",""," ","key"," ","16.66225685785537","500","250","sample5","","","","","","",""
"","psychophysics","11","186341","0.0-11.0","55a5f19bfdf99b28b5340d00","64e50290df62995c3043a679","","","","","13045",""," ","key"," ","16.66222506393864","500","250","sample6","502","","","","","",""
"","psychophysics","12","194968","0.0-12.0","55a5f19bfdf99b28b5340d00","64e50290df62995c3043a679","","","","","8624",""," ","key"," ","16.66234429400387","500","250","inst","","","","","","",""
"","psychophysics","13","1987316","0.0-13.0","55a5f19bfdf99b28b5340d00","64e50290df62995c3043a679","","","","","1792346",""," ","key"," ","16.662400819954073","500","250","inst","","","","","","",""
"","psychophysics","14","2008761","0.0-14.0","55a5f19bfdf99b28b5340d00","64e50290df62995c3043a679","","","","","21424",""," ","key"," ","19.11488314005351","500","250","inst","","","","","","",""
"","psychophysics","15","2010479","0.0-15.0","55a5f19bfdf99b28b5340d00","64e50290df62995c3043a679","","","","","1705",""," ","key"," ","16.66206862745286","500","250","inst","","","","","","",""
"","psychophysics","16","2011982","0.0-16.0","55a5f19bfdf99b28b5340d00","64e50290df62995c3043a679","","","","","1492",""," ","key"," ","16.66185555555599","500","250","inst","","","","","","",""
"","psychophysics","17","2015091","0.0-17.0","55a5f19bfdf99b28b5340d00","64e50290df62995c3043a679","","","","","3103",""," ","key"," ","16.661837837837535","500","250","instZol0","0","","","0","0","0",""
"","psychophysics","18","2036295","0.0-18.0","55a5f19bfdf99b28b5340d00","64e50290df62995c3043a679","","","","","21176",""," ","key"," ","16.66204952830196","500","250","instZol1","0.10000000000000003","","","0","0","-1.3",""
"","psychophysics","19","2054692","0.0-19.0","55a5f19bfdf99b28b5340d00","64e50290df62995c3043a679","","","","","18378",""," ","key"," ","16.662256572982812","500","250","instZol2","-1.0999999999999992","2","","0","0","2",""
"","psychophysics","20","2056657","0.0-20.0","55a5f19bfdf99b28b5340d00","64e50290df62995c3043a679","","","","","1961",""," ","key"," ","16.66228205128374","500","250","inst","","","","","","",""
"","psychophysics","21","2064675","0.0-21.0","55a5f19bfdf99b28b5340d00","64e50290df62995c3043a679","","","","","null","","null","key","null","16.662604166666764","500","250","zol","-0.42999999999999994","2","0","26","-26","-0.67",""
"","psychophysics","22","2071167","0.0-22.0","55a5f19bfdf99b28b5340d00","64e50290df62995c3043a679","","","","","6486",""," ","key"," ","16.663125964010298","500","250","zol","-0.7799999999999999","2","0","21","-1","0.38",""
"","psychophysics","23","2079179","0.0-23.0","55a5f19bfdf99b28b5340d00","64e50290df62995c3043a679","","","","","null","","null","key","null","16.66202505219228","500","250","zol","-0.42000000000000004","2","0","-28","-24","0.02",""
"","psychophysics","24","2086896","0.0-24.0","55a5f19bfdf99b28b5340d00","64e50290df62995c3043a679","","","","","7695",""," ","key"," ","16.66235853131754","500","250","zol","-0.36","2","0","-28","-10","-0.14",""
"","psychophysics","25","2094908","0.0-25.0","55a5f19bfdf99b28b5340d00","64e50290df62995c3043a679","","","","","null","","null","key","null","16.662271398747155","500","250","zol","-0.32000000000000006","2","0","29","-6","-0.18",""
"","psychophysics","26","2102919","0.0-26.0","55a5f19bfdf99b28b5340d00","64e50290df62995c3043a679","","","","","null","","null","key","null","16.662231250000573","500","250","zol","-0.14","2","0","20","1","-0.36",""
"","psychophysics","27","2110474","0.0-27.0","55a5f19bfdf99b28b5340d00","64e50290df62995c3043a679","","","","","7533",""," ","key"," ","16.66213024282524","500","250","zol","-0.3499999999999999","2","0","-3","4","-0.55",""
"","psychophysics","28","2118490","0.0-28.0","55a5f19bfdf99b28b5340d00","64e50290df62995c3043a679","","","","","null","","null","key","null","16.66208541666662","500","250","zol","-0.58","2","0","15","-25","0.48",""
"","psychophysics","29","2126496","0.0-29.0","55a5f19bfdf99b28b5340d00","64e50290df62995c3043a679","","","","","null","","null","key","null","16.662248434238368","500","250","zol","-0.7999999999999999","2","0","14","-6","0.2",""
"","psychophysics","30","2134507","0.0-30.0","55a5f19bfdf99b28b5340d00","64e50290df62995c3043a679","","","","","null","","null","key","null","16.662318749999393","500","250","zol","-0.45999999999999996","2","0","-18","-17","-0.04",""
"","psychophysics","31","2142520","0.0-31.0","55a5f19bfdf99b28b5340d00","64e50290df62995c3043a679","","","","","null","","null","key","null","16.66158749999983","500","250","zol","-0.6699999999999999","2","0","-11","17","-0.23",""
"","psychophysics","32","2149363","0.0-32.0","55a5f19bfdf99b28b5340d00","64e50290df62995c3043a679","","","","","6837",""," ","key"," ","16.662329268291955","500","250","zol","-0.44999999999999996","2","0","-23","25","-0.55",""
"","psychophysics","33","2157375","0.0-33.0","55a5f19bfdf99b28b5340d00","64e50290df62995c3043a679","","","","","null","","null","key","null","16.66259707724345","500","250","zol","-0.45000000000000007","2","0","4","-4","0.75",""
"","psychophysics","34","2163687","0.0-34.0","55a5f19bfdf99b28b5340d00","64e50290df62995c3043a679","","","","","6289",""," ","key"," ","16.662436507936697","500","250","zol","-0.24000000000000007","2","0","-7","-24","0.04",""
"","psychophysics","35","2170673","0.0-35.0","55a5f19bfdf99b28b5340d00","64e50290df62995c3043a679","","","","","6968",""," ","key"," ","16.662377088305124","500","250","zol","-0.36","2","0","-4","-18","-0.14",""
"","psychophysics","36","2172506","0.0-36.0","55a5f19bfdf99b28b5340d00","64e50290df62995c3043a679","","","","","1828",""," ","key"," ","16.660660550459674","500","250","inst","","","","","","",""
"","psychophysics","37","2175521","0.0-37.0","55a5f19bfdf99b28b5340d00","64e50290df62995c3043a679","","","","","3010",""," ","key"," ","16.66232402234822","500","250","instPzPre","50","0","","","","50","50"
"","psychophysics","38","2179171","0.0-38.0","55a5f19bfdf99b28b5340d00","64e50290df62995c3043a679","","","","","3636",""," ","key"," ","16.662242009132232","500","250","instPz0","50","2","","","","50","50"
"","psychophysics","39","2192268","0.0-39.0","55a5f19bfdf99b28b5340d00","64e50290df62995c3043a679","","","","","13091",""," ","key"," ","16.662271337579508","500","250","instPz1","48","2","","","","25","50"
"","psychophysics","40","2204952","0.0-40.0","55a5f19bfdf99b28b5340d00","64e50290df62995c3043a679","","","","","12680",""," ","key"," ","16.662222368420885","500","250","instPz2","34","2","","","","20","35"
"","psychophysics","41","2217213","0.0-41.0","55a5f19bfdf99b28b5340d00","64e50290df62995c3043a679","","","","","12242",""," ","key"," ","16.66242312925177","500","250","instPz3","30","2","","","","30","100"
"","psychophysics","42","2247672","0.0-42.0","55a5f19bfdf99b28b5340d00","64e50290df62995c3043a679","","","","","30452",""," ","key"," ","16.662248494800387","500","250","instPz4","103","2","","","","30","100"
"","psychophysics","43","2249149","0.0-43.0","55a5f19bfdf99b28b5340d00","64e50290df62995c3043a679","","","","","1472",""," ","key"," ","16.661816091956464","500","250","inst","","","","","","",""
"","psychophysics","44","2255901","0.0-44.0","55a5f19bfdf99b28b5340d00","64e50290df62995c3043a679","","","","","6746",""," ","key"," ","16.663000000000324","500","250","pz","26","2","0","","","27","26"
"","psychophysics","45","2260228","0.0-45.0","55a5f19bfdf99b28b5340d00","64e50290df62995c3043a679","","","","","4320",""," ","key"," ","16.66223643410792","500","250","pz","41","2","0","","","50","44"
"","psychophysics","46","2265951","0.0-46.0","55a5f19bfdf99b28b5340d00","64e50290df62995c3043a679","","","","","5710",""," ","key"," ","16.66278717201203","500","250","pz","43","2","0","","","55","46"
"","psychophysics","47","2273957","0.0-47.0","55a5f19bfdf99b28b5340d00","64e50290df62995c3043a679","","","","","null","","null","key","null","16.662256784968484","500","250","pz","29","2","0","","","60","28"
"","psychophysics","48","2281965","0.0-48.0","55a5f19bfdf99b28b5340d00","64e50290df62995c3043a679","","","","","null","","null","key","null","16.662537500000326","500","250","pz","49","2","0","","","51","50"
"","psychophysics","49","2288830","0.0-49.0","55a5f19bfdf99b28b5340d00","64e50290df62995c3043a679","","","","","6859",""," ","key"," ","16.662343065693992","500","250","pz","42","2","0","","","40","42"
"","psychophysics","50","2294675","0.0-50.0","55a5f19bfdf99b28b5340d00","64e50290df62995c3043a679","","","","","5838",""," ","key"," ","16.662497142856676","500","250","pz","52","2","0","","","42","53"
"","psychophysics","51","2300223","0.0-51.0","55a5f19bfdf99b28b5340d00","64e50290df62995c3043a679","","","","","5542",""," ","key"," ","16.662530120481815","500","250","pz","39","2","0","","","54","39"
"","psychophysics","52","2305957","0.0-52.0","55a5f19bfdf99b28b5340d00","64e50290df62995c3043a679","","","","","5726",""," ","key"," ","16.662239067054166","500","250","pz","34","2","0","","","54","33"
"","psychophysics","53","2313303","0.0-53.0","55a5f19bfdf99b28b5340d00","64e50290df62995c3043a679","","","","","7339",""," ","key"," ","16.662115909090392","500","250","pz","61","2","0","","","30","59"
"","psychophysics","54","2316228","0.0-54.0","55a5f19bfdf99b28b5340d00","64e50290df62995c3043a679","","","","","2918",""," ","key"," ","16.662097701149854","500","250","pz","31","2","0","","","41","31"
"","psychophysics","55","2319604","0.0-55.0","55a5f19bfdf99b28b5340d00","64e50290df62995c3043a679","","","","","3366",""," ","key"," ","16.663034653466305","500","250","pz","34","2","0","","","48","32"
"","psychophysics","56","2325661","0.0-56.0","55a5f19bfdf99b28b5340d00","64e50290df62995c3043a679","","","","","6049",""," ","key"," ","16.66248066298334","500","250","pz","60","2","0","","","52","58"
"","psychophysics","57","2331398","0.0-57.0","55a5f19bfdf99b28b5340d00","64e50290df62995c3043a679","","","","","5726",""," ","key"," ","16.662511627907257","500","250","pz","49","2","0","","","28","52"
"","psychophysics","58","2335571","0.0-58.0","55a5f19bfdf99b28b5340d00","64e50290df62995c3043a679","","","","","4168",""," ","key"," ","16.662261044176436","500","250","pz","42","2","0","","","22","42"
"","psychophysics","59","2336522","0.0-59.0","55a5f19bfdf99b28b5340d00","64e50290df62995c3043a679","","","","","937",""," ","key"," ","16.662071428569366","500","250","inst","","","","","","",""
"","psychophysics","60","2338223","0.0-60.0","55a5f19bfdf99b28b5340d00","64e50290df62995c3043a679","","","","","1691",""," ","key"," ","16.65946534653609","500","250","instEB0","40","1","","0","0","40","40"
"","psychophysics","61","2347409","0.0-61.0","55a5f19bfdf99b28b5340d00","64e50290df62995c3043a679","","","","","9180",""," ","key"," ","16.662731397459233","500","250","instEB1","29","1","","0","0","40","30"
"","psychophysics","62","2357161","0.0-62.0","55a5f19bfdf99b28b5340d00","64e50290df62995c3043a679","","","","","9745",""," ","key"," ","16.662291095891092","500","250","instEB2","42","1","","0","0","30","40"
"","psychophysics","63","2366320","0.0-63.0","55a5f19bfdf99b28b5340d00","64e50290df62995c3043a679","","","","","9153",""," ","key"," ","16.662457194899417","500","250","instEB3","44","1","","0","0","27","45"
"","psychophysics","64","2371888","0.0-64.0","55a5f19bfdf99b28b5340d00","64e50290df62995c3043a679","","","","","5564",""," ","key"," ","16.66204804804892","500","250","instEB4","29","1","","0","0","40","30"
"","psychophysics","65","2372922","0.0-65.0","55a5f19bfdf99b28b5340d00","64e50290df62995c3043a679","","","","","1031",""," ","key"," ","16.662081967214824","500","250","inst","","","","","","",""
"","psychophysics","66","2376450","0.0-66.0","55a5f19bfdf99b28b5340d00","64e50290df62995c3043a679","","","","","3520",""," ","key"," ","16.66153080568768","500","250","eb","38","1","","0","0","27","37"
"","psychophysics","67","2380043","0.0-67.0","55a5f19bfdf99b28b5340d00","64e50290df62995c3043a679","","","","","3588",""," ","key"," ","16.66204205607543","500","250","eb","36","1","","0","0","32","36"
"","psychophysics","68","2386505","0.0-68.0","55a5f19bfdf99b28b5340d00","64e50290df62995c3043a679","","","","","6449",""," ","key"," ","16.662560723513817","500","250","eb","29","1","","0","0","40","28"
"","psychophysics","69","2390306","0.0-69.0","55a5f19bfdf99b28b5340d00","64e50290df62995c3043a679","","","","","3797",""," ","key"," ","16.662440528635692","500","250","eb","34","1","","0","0","25","33"
"","psychophysics","70","2396266","0.0-70.0","55a5f19bfdf99b28b5340d00","64e50290df62995c3043a679","","","","","5948",""," ","key"," ","16.662526610643923","500","250","eb","37","1","","0","0","40","39"
"","psychophysics","71","2399460","0.0-71.0","55a5f19bfdf99b28b5340d00","64e50290df62995c3043a679","","","","","3187",""," ","key"," ","16.662384210526945","500","250","eb","25","1","","0","0","26","26"
"","psychophysics","72","2404843","0.0-72.0","55a5f19bfdf99b28b5340d00","64e50290df62995c3043a679","","","","","5376",""," ","key"," ","16.66157275541821","500","250","eb","33","1","","0","0","54","35"
"","psychophysics","73","2405761","0.0-73.0","55a5f19bfdf99b28b5340d00","64e50290df62995c3043a679","","","","","913",""," ","key"," ","16.661499999998206","500","250","eb","33","1","","0","0","33","34"
"","psychophysics","74","2410342","0.0-74.0","55a5f19bfdf99b28b5340d00","64e50290df62995c3043a679","","","","","4577",""," ","key"," ","16.662927007299242","500","250","eb","40","1","","0","0","26","40"
"","psychophysics","75","2414590","0.0-75.0","55a5f19bfdf99b28b5340d00","64e50290df62995c3043a679","","","","","4245",""," ","key"," ","16.66242687747052","500","250","eb","25","1","","0","0","28","25"
"","psychophysics","76","2419004","0.0-76.0","55a5f19bfdf99b28b5340d00","64e50290df62995c3043a679","","","","","4405",""," ","key"," ","16.661659090908483","500","250","eb","42","1","","0","0","26","42"
"","psychophysics","77","2422489","0.0-77.0","55a5f19bfdf99b28b5340d00","64e50290df62995c3043a679","","","","","3478",""," ","key"," ","16.662985645934192","500","250","eb","47","1","","0","0","51","50"
"","psychophysics","78","2427471","0.0-78.0","55a5f19bfdf99b28b5340d00","64e50290df62995c3043a679","","","","","4973",""," ","key"," ","16.662232323231407","500","250","eb","38","1","","0","0","45","41"
"","psychophysics","79","2430238","0.0-79.0","55a5f19bfdf99b28b5340d00","64e50290df62995c3043a679","","","","","2756",""," ","key"," ","16.663578313253595","500","250","eb","40","1","","0","0","29","40"
"","psychophysics","80","2433846","0.0-80.0","55a5f19bfdf99b28b5340d00","64e50290df62995c3043a679","","","","","3601",""," ","key"," ","16.662293023254374","500","250","eb","44","1","","0","0","29","43"
"","psychophysics","81","2434657","0.0-81.0","55a5f19bfdf99b28b5340d00","64e50290df62995c3043a679","","","","","802",""," ","key"," ","16.66856250000031","500","250","inst","","","","","","",""
"","psychophysics","82","2443885","0.0-82.0","55a5f19bfdf99b28b5340d00","64e50290df62995c3043a679","","","","","9223",""," ","key"," ","16.66241410488236","500","250","instPog0","160","1","","0","0","190","160"
"","psychophysics","83","2454545","0.0-83.0","55a5f19bfdf99b28b5340d00","64e50290df62995c3043a679","","","","","10657",""," ","key"," ","16.66229153605","500","250","instPog1","164","1","","0","0","190","160"
"","psychophysics","84","2462526","0.0-84.0","55a5f19bfdf99b28b5340d00","64e50290df62995c3043a679","","","","","7967",""," ","key"," ","16.662403765690772","500","250","instPog2","168","1","","0","0","160","160"
"","psychophysics","85","2463312","0.0-85.0","55a5f19bfdf99b28b5340d00","64e50290df62995c3043a679","","","","","778",""," ","key"," ","16.662255319152425","500","250","inst","","","","","","",""
"","psychophysics","86","2467497","0.0-86.0","55a5f19bfdf99b28b5340d00","64e50290df62995c3043a679","","","","","4179",""," ","key"," ","16.662240000000224","500","250","pog","184","1","0","0","0","214","165"
"","psychophysics","87","2475502","0.0-87.0","55a5f19bfdf99b28b5340d00","64e50290df62995c3043a679","","","","","null","","null","key","null","16.662325678497265","500","250","pog","145","1","0","0","0","185","120"
"","psychophysics","88","2480376","0.0-88.0","55a5f19bfdf99b28b5340d00","64e50290df62995c3043a679","","","","","4863",""," ","key"," ","16.662640410958637","500","250","pog","148","1","0","0","0","124","133"
"","psychophysics","89","2484867","0.0-89.0","55a5f19bfdf99b28b5340d00","64e50290df62995c3043a679","","","","","4485",""," ","key"," ","16.662149253732235","500","250","pog","157","1","0","0","0","151","142"
"","psychophysics","90","2489895","0.0-90.0","55a5f19bfdf99b28b5340d00","64e50290df62995c3043a679","","","","","5016",""," ","key"," ","16.662837209302214","500","250","pog","195","1","0","0","0","175","184"
"","psychophysics","91","2494237","0.0-91.0","55a5f19bfdf99b28b5340d00","64e50290df62995c3043a679","","","","","4335",""," ","key"," ","16.662426923077483","500","250","pog","184","1","0","0","0","128","166"
"","psychophysics","92","2500473","0.0-92.0","55a5f19bfdf99b28b5340d00","64e50290df62995c3043a679","","","","","6231",""," ","key"," ","16.662887399464385","500","250","pog","211","1","0","0","0","117","197"
"","psychophysics","93","2502801","0.0-93.0","55a5f19bfdf99b28b5340d00","64e50290df62995c3043a679","","","","","2322",""," ","key"," ","16.661992805755343","500","250","pog","214","1","0","0","0","188","196"
"","psychophysics","94","2505826","0.0-94.0","55a5f19bfdf99b28b5340d00","64e50290df62995c3043a679","","","","","3020",""," ","key"," ","16.66214444444308","500","250","pog","188","1","0","0","0","150","174"
"","psychophysics","95","2511822","0.0-95.0","55a5f19bfdf99b28b5340d00","64e50290df62995c3043a679","","","","","5984",""," ","key"," ","16.662693593315105","500","250","pog","145","1","0","0","0","219","124"
"","psychophysics","96","2514883","0.0-96.0","55a5f19bfdf99b28b5340d00","64e50290df62995c3043a679","","","","","3056",""," ","key"," ","16.662830601092633","500","250","pog","210","1","0","0","0","136","190"
"","psychophysics","97","2518843","0.0-97.0","55a5f19bfdf99b28b5340d00","64e50290df62995c3043a679","","","","","3954",""," ","key"," ","16.662233050847505","500","250","pog","161","1","0","0","0","195","139"
"","psychophysics","98","2521391","0.0-98.0","55a5f19bfdf99b28b5340d00","64e50290df62995c3043a679","","","","","2537",""," ","key"," ","16.663144736841787","500","250","pog","165","1","0","0","0","105","147"
"","psychophysics","99","2525230","0.0-99.0","55a5f19bfdf99b28b5340d00","64e50290df62995c3043a679","","","","","3831",""," ","key"," ","16.663460869564798","500","250","pog","178","1","0","0","0","150","159"
"","psychophysics","100","2527753","0.0-100.0","55a5f19bfdf99b28b5340d00","64e50290df62995c3043a679","","","","","2518",""," ","key"," ","16.662280000001193","500","250","pog","181","1","0","0","0","145","165"
"","psychophysics","101","2528490","0.0-101.0","55a5f19bfdf99b28b5340d00","64e50290df62995c3043a679","","","","","733",""," ","key"," ","16.66374418605119","500","250","inst","","","","","","",""
"","psychophysics","102","2531066","0.0-102.0","55a5f19bfdf99b28b5340d00","64e50290df62995c3043a679","","","","","2562",""," ","key"," ","16.662668831168688","500","250","instBr0","0","","","0","0","0","300"
"","psychophysics","103","2536427","0.0-103.0","55a5f19bfdf99b28b5340d00","64e50290df62995c3043a679","","","","","5353",""," ","key"," ","16.66210280373733","500","250","instBr1","4","","","0","0","-40","300"
"","psychophysics","104","2540468","0.0-104.0","55a5f19bfdf99b28b5340d00","64e50290df62995c3043a679","","","","","4037",""," ","key"," ","16.66216182572713","500","250","instBr3","-11","1","","0","0","40","300"
"","psychophysics","105","2541175","0.0-105.0","55a5f19bfdf99b28b5340d00","64e50290df62995c3043a679","","","","","697",""," ","key"," ","16.659904761905118","500","250","inst","","","","","","",""
"","psychophysics","106","2547067","0.0-106.0","55a5f19bfdf99b28b5340d00","64e50290df62995c3043a679","","","","","5885",""," ","key"," ","16.66236931818077","500","250","br","-10","1","0","29","4","-13","239"
"","psychophysics","107","2549839","0.0-107.0","55a5f19bfdf99b28b5340d00","64e50290df62995c3043a679","","","","","2760",""," ","key"," ","16.662024096383835","500","250","br","-10","1","0","-16","-25","-7","203"
"","psychophysics","108","2553522","0.0-108.0","55a5f19bfdf99b28b5340d00","64e50290df62995c3043a679","","","","","3676",""," ","key"," ","16.662495454546825","500","250","br","-8","1","0","0","-16","-9","201"
"","psychophysics","109","2557639","0.0-109.0","55a5f19bfdf99b28b5340d00","64e50290df62995c3043a679","","","","","4110",""," ","key"," ","16.662227642275695","500","250","br","-7","1","0","24","19","11","249"
"","psychophysics","110","2560904","0.0-110.0","55a5f19bfdf99b28b5340d00","64e50290df62995c3043a679","","","","","3258",""," ","key"," ","16.662579487180576","500","250","br","-6","1","0","7","-7","29","220"
"","psychophysics","111","2563117","0.0-111.0","55a5f19bfdf99b28b5340d00","64e50290df62995c3043a679","","","","","2206",""," ","key"," ","16.6617099236633","500","250","br","-8","1","0","-24","-16","8","227"
"","psychophysics","112","2566609","0.0-112.0","55a5f19bfdf99b28b5340d00","64e50290df62995c3043a679","","","","","3482",""," ","key"," ","16.662239234451132","500","250","br","-6","1","0","9","24","-2","209"
"","psychophysics","113","2569977","0.0-113.0","55a5f19bfdf99b28b5340d00","64e50290df62995c3043a679","","","","","3355",""," ","key"," ","16.66274626865816","500","250","br","-11","1","0","20","-6","8","228"
"","psychophysics","114","2574737","0.0-114.0","55a5f19bfdf99b28b5340d00","64e50290df62995c3043a679","","","","","4747",""," ","key"," ","16.662487719297868","500","250","br","-10","1","0","-13","-29","29","239"
"","psychophysics","115","2577043","0.0-115.0","55a5f19bfdf99b28b5340d00","64e50290df62995c3043a679","","","","","2299",""," ","key"," ","16.662510948904863","500","250","br","-8","1","0","-12","-11","-6","249"
"","psychophysics","116","2581273","0.0-116.0","55a5f19bfdf99b28b5340d00","64e50290df62995c3043a679","","","","","4219",""," ","key"," ","16.662505928853992","500","250","br","-6","1","0","-21","19","-12","283"
"","psychophysics","117","2583811","0.0-117.0","55a5f19bfdf99b28b5340d00","64e50290df62995c3043a679","","","","","2526",""," ","key"," ","16.662615894040844","500","250","br","-6","1","0","-16","-29","8","273"
"","psychophysics","118","2585648","0.0-118.0","55a5f19bfdf99b28b5340d00","64e50290df62995c3043a679","","","","","1827",""," ","key"," ","16.663663636363875","500","250","br","-6","1","0","-4","21","12","284"
"","psychophysics","119","2587860","0.0-119.0","55a5f19bfdf99b28b5340d00","64e50290df62995c3043a679","","","","","2206",""," ","key"," ","16.662221374043497","500","250","br","-13","1","0","-13","14","1","285"
"","psychophysics","120","2591321","0.0-120.0","55a5f19bfdf99b28b5340d00","64e50290df62995c3043a679","","","","","3451",""," ","key"," ","16.662164251207585","500","250","br","-7","1","0","16","-7","24","237"
"","psychophysics","121","2592051","0.0-121.0","55a5f19bfdf99b28b5340d00","64e50290df62995c3043a679","","","","","717",""," ","key"," ","16.663790697675893","500","250","inst","","","","","","",""
"","psychophysics","122","2602309","0.0-122.0","55a5f19bfdf99b28b5340d00","64e50290df62995c3043a679","","","","","10243",""," ","key"," ","16.662466666666504","500","250","instPz1","56","1","","","","25","50"
"","psychophysics","123","2608064","0.0-123.0","55a5f19bfdf99b28b5340d00","64e50290df62995c3043a679","","","","","5750",""," ","key"," ","16.662430232558616","500","250","instPz2","22","1","","","","35","20"
"","psychophysics","124","2616507","0.0-124.0","55a5f19bfdf99b28b5340d00","64e50290df62995c3043a679","","","","","8427",""," ","key"," ","16.66220750988152","500","250","instPz3","32","1","","","","100","30"
"","psychophysics","125","2622461","0.0-125.0","55a5f19bfdf99b28b5340d00","64e50290df62995c3043a679","","","","","5948",""," ","key"," ","16.662674157303403","500","250","instPz4","34","1","","","","100","30"
"","psychophysics","126","2623510","0.0-126.0","55a5f19bfdf99b28b5340d00","64e50290df62995c3043a679","","","","","1045",""," ","key"," ","16.662516129030397","500","250","inst","","","","","","",""
"","psychophysics","127","2626229","0.0-127.0","55a5f19bfdf99b28b5340d00","64e50290df62995c3043a679","","","","","2710",""," ","key"," ","16.664462962963928","500","250","pz","51","1","1","","","46","45"
"","psychophysics","128","2631642","0.0-128.0","55a5f19bfdf99b28b5340d00","64e50290df62995c3043a679","","","","","5402",""," ","key"," ","16.66259259259311","500","250","pz","27","1","1","","","60","22"
"","psychophysics","129","2636305","0.0-129.0","55a5f19bfdf99b28b5340d00","64e50290df62995c3043a679","","","","","4651",""," ","key"," ","16.662358422938894","500","250","pz","59","1","1","","","59","49"
"","psychophysics","130","2641167","0.0-130.0","55a5f19bfdf99b28b5340d00","64e50290df62995c3043a679","","","","","4855",""," ","key"," ","16.662312714776657","500","250","pz","42","1","1","","","23","39"
"","psychophysics","131","2646236","0.0-131.0","55a5f19bfdf99b28b5340d00","64e50290df62995c3043a679","","","","","5063",""," ","key"," ","16.662290429043285","500","250","pz","50","1","1","","","58","44"
"","psychophysics","132","2649763","0.0-132.0","55a5f19bfdf99b28b5340d00","64e50290df62995c3043a679","","","","","3514",""," ","key"," ","16.662369668247592","500","250","pz","61","1","1","","","44","57"
"","psychophysics","133","2652926","0.0-133.0","55a5f19bfdf99b28b5340d00","64e50290df62995c3043a679","","","","","3156",""," ","key"," ","16.66257446808394","500","250","pz","59","1","1","","","41","50"
"","psychophysics","134","2657283","0.0-134.0","55a5f19bfdf99b28b5340d00","64e50290df62995c3043a679","","","","","4347",""," ","key"," ","16.66181609195468","500","250","pz","53","1","1","","","26","49"
"","psychophysics","135","2665067","0.0-135.0","55a5f19bfdf99b28b5340d00","64e50290df62995c3043a679","","","","","7772",""," ","key"," ","16.662246781116544","500","250","pz","26","1","1","","","42","25"
"","psychophysics","136","2670615","0.0-136.0","55a5f19bfdf99b28b5340d00","64e50290df62995c3043a679","","","","","5536",""," ","key"," ","16.66269879518161","500","250","pz","34","1","1","","","57","30"
"","psychophysics","137","2676223","0.0-137.0","55a5f19bfdf99b28b5340d00","64e50290df62995c3043a679","","","","","5594",""," ","key"," ","16.662497023810698","500","250","pz","25","1","1","","","23","22"
"","psychophysics","138","2679403","0.0-138.0","55a5f19bfdf99b28b5340d00","64e50290df62995c3043a679","","","","","3174",""," ","key"," ","16.663058201058043","500","250","pz","59","1","1","","","47","51"
"","psychophysics","139","2682906","0.0-139.0","55a5f19bfdf99b28b5340d00","64e50290df62995c3043a679","","","","","3492",""," ","key"," ","16.66250476190554","500","250","pz","22","1","1","","","25","20"
"","psychophysics","140","2686950","0.0-140.0","55a5f19bfdf99b28b5340d00","64e50290df62995c3043a679","","","","","4037",""," ","key"," ","16.66215767634886","500","250","pz","26","1","1","","","20","25"
"","psychophysics","141","2690941","0.0-141.0","55a5f19bfdf99b28b5340d00","64e50290df62995c3043a679","","","","","3981",""," ","key"," ","16.662556485354777","500","250","pz","53","1","1","","","39","47"
"","psychophysics","142","2691683","0.0-142.0","55a5f19bfdf99b28b5340d00","64e50290df62995c3043a679","","","","","737",""," ","key"," ","16.662363636360336","500","250","inst","","","","","","",""
"","psychophysics","143","2696511","0.0-143.0","55a5f19bfdf99b28b5340d00","64e50290df62995c3043a679","","","","","4824",""," ","key"," ","16.662222222221317","500","250","instEB1","41","2","","0","0","30","40"
"","psychophysics","144","2701170","0.0-144.0","55a5f19bfdf99b28b5340d00","64e50290df62995c3043a679","","","","","4646",""," ","key"," ","16.66134767025195","500","250","instEB2","31","2","","0","0","40","30"
"","psychophysics","145","2709929","0.0-145.0","55a5f19bfdf99b28b5340d00","64e50290df62995c3043a679","","","","","8756",""," ","key"," ","16.662462857142977","500","250","instEB3","28","2","","0","0","45","27"
"","psychophysics","146","2717357","0.0-146.0","55a5f19bfdf99b28b5340d00","64e50290df62995c3043a679","","","","","7424",""," ","key"," ","16.662594594595205","500","250","instEB4","43","2","","0","0","30","40"
"","psychophysics","147","2718086","0.0-147.0","55a5f19bfdf99b28b5340d00","64e50290df62995c3043a679","","","","","717",""," ","key"," ","16.664139534877396","500","250","inst","","","","","","",""
"","psychophysics","148","2721409","0.0-148.0","55a5f19bfdf99b28b5340d00","64e50290df62995c3043a679","","","","","3310",""," ","key"," ","16.746510101011907","500","250","eb","39","2","","0","0","25","34"
"","psychophysics","149","2725654","0.0-149.0","55a5f19bfdf99b28b5340d00","64e50290df62995c3043a679","","","","","4241",""," ","key"," ","16.662000000000134","500","250","eb","40","2","","0","0","53","39"
"","psychophysics","150","2729915","0.0-150.0","55a5f19bfdf99b28b5340d00","64e50290df62995c3043a679","","","","","4252",""," ","key"," ","16.663454901962083","500","250","eb","39","2","","0","0","52","37"
"","psychophysics","151","2733292","0.0-151.0","55a5f19bfdf99b28b5340d00","64e50290df62995c3043a679","","","","","3373",""," ","key"," ","16.662099009900732","500","250","eb","30","2","","0","0","25","27"
"","psychophysics","152","2737749","0.0-152.0","55a5f19bfdf99b28b5340d00","64e50290df62995c3043a679","","","","","4453",""," ","key"," ","16.662917293231807","500","250","eb","50","2","","0","0","41","49"
"","psychophysics","153","2743155","0.0-153.0","55a5f19bfdf99b28b5340d00","64e50290df62995c3043a679","","","","","5398",""," ","key"," ","16.663046296295008","500","250","eb","32","2","","0","0","52","31"
"","psychophysics","154","2748847","0.0-154.0","55a5f19bfdf99b28b5340d00","64e50290df62995c3043a679","","","","","5687",""," ","key"," ","16.662650000001303","500","250","eb","26","2","","0","0","39","24"
"","psychophysics","155","2754738","0.0-155.0","55a5f19bfdf99b28b5340d00","64e50290df62995c3043a679","","","","","5879",""," ","key"," ","16.662441926346116","500","250","eb","42","2","","0","0","47","39"
"","psychophysics","156","2757708","0.0-156.0","55a5f19bfdf99b28b5340d00","64e50290df62995c3043a679","","","","","2963",""," ","key"," ","16.66220903954874","500","250","eb","34","2","","0","0","43","32"
"","psychophysics","157","2761887","0.0-157.0","55a5f19bfdf99b28b5340d00","64e50290df62995c3043a679","","","","","4176",""," ","key"," ","16.66320399999991","500","250","eb","45","2","","0","0","36","43"
"","psychophysics","158","2765499","0.0-158.0","55a5f19bfdf99b28b5340d00","64e50290df62995c3043a679","","","","","3608",""," ","key"," ","16.662018518517637","500","250","eb","48","2","","0","0","30","43"
"","psychophysics","159","2769496","0.0-159.0","55a5f19bfdf99b28b5340d00","64e50290df62995c3043a679","","","","","3990",""," ","key"," ","16.66176150627746","500","250","eb","52","2","","0","0","43","49"
"","psychophysics","160","2773178","0.0-160.0","55a5f19bfdf99b28b5340d00","64e50290df62995c3043a679","","","","","3675",""," ","key"," ","16.661222727272914","500","250","eb","44","2","","0","0","30","39"
"","psychophysics","161","2776488","0.0-161.0","55a5f19bfdf99b28b5340d00","64e50290df62995c3043a679","","","","","3305",""," ","key"," ","16.663309644671337","500","250","eb","41","2","","0","0","31","39"
"","psychophysics","162","2779833","0.0-162.0","55a5f19bfdf99b28b5340d00","64e50290df62995c3043a679","","","","","3334",""," ","key"," ","16.661739999998826","500","250","eb","35","2","","0","0","39","34"
"","psychophysics","163","2780519","0.0-163.0","55a5f19bfdf99b28b5340d00","64e50290df62995c3043a679","","","","","683",""," ","key"," ","16.669325000001116","500","250","inst","","","","","","",""
"","psychophysics","164","2785596","0.0-164.0","55a5f19bfdf99b28b5340d00","64e50290df62995c3043a679","","","","","5055",""," ","key"," ","16.662960526315914","500","250","instBr3","20","2","","0","0","40","300"
"","psychophysics","165","2786251","0.0-165.0","55a5f19bfdf99b28b5340d00","64e50290df62995c3043a679","","","","","650",""," ","key"," ","16.662105263161816","500","250","inst","","","","","","",""
"","psychophysics","166","2789575","0.0-166.0","55a5f19bfdf99b28b5340d00","64e50290df62995c3043a679","","","","","3311",""," ","key"," ","16.66280904522484","500","250","br","18","2","1","11","-13","-3","273"
"","psychophysics","167","2790176","0.0-167.0","55a5f19bfdf99b28b5340d00","64e50290df62995c3043a679","","","","","595",""," ","key"," ","16.66377142858026","500","250","br","29","2","1","5","-17","29","296"
"","psychophysics","168","2792870","0.0-168.0","55a5f19bfdf99b28b5340d00","64e50290df62995c3043a679","","","","","2688",""," ","key"," ","16.662549999999463","500","250","br","15","2","1","-25","-13","-28","261"
"","psychophysics","169","2795022","0.0-169.0","55a5f19bfdf99b28b5340d00","64e50290df62995c3043a679","","","","","2138",""," ","key"," ","16.66158914728841","500","250","br","18","2","1","20","26","23","242"
"","psychophysics","170","2800502","0.0-170.0","55a5f19bfdf99b28b5340d00","64e50290df62995c3043a679","","","","","5476",""," ","key"," ","16.661446483180622","500","250","br","13","2","1","-18","5","30","214"
"","psychophysics","171","2804762","0.0-171.0","55a5f19bfdf99b28b5340d00","64e50290df62995c3043a679","","","","","4249",""," ","key"," ","16.662305882352168","500","250","br","14","2","1","-23","19","-26","239"
"","psychophysics","172","2808409","0.0-172.0","55a5f19bfdf99b28b5340d00","64e50290df62995c3043a679","","","","","3635",""," ","key"," ","16.663279816512564","500","250","br","12","2","1","-30","19","-27","225"
"","psychophysics","173","2810864","0.0-173.0","55a5f19bfdf99b28b5340d00","64e50290df62995c3043a679","","","","","2448",""," ","key"," ","16.663287671235047","500","250","br","12","2","1","29","5","-12","227"
"","psychophysics","174","2812675","0.0-174.0","55a5f19bfdf99b28b5340d00","64e50290df62995c3043a679","","","","","1783",""," ","key"," ","16.661527777780538","500","250","br","15","2","1","4","-14","-4","212"
"","psychophysics","175","2815575","0.0-175.0","55a5f19bfdf99b28b5340d00","64e50290df62995c3043a679","","","","","2894",""," ","key"," ","16.663202312137027","500","250","br","13","2","1","-4","-15","-30","267"
"","psychophysics","176","2818167","0.0-176.0","55a5f19bfdf99b28b5340d00","64e50290df62995c3043a679","","","","","2586",""," ","key"," ","16.662733766235192","500","250","br","13","2","1","-22","-5","25","247"
"","psychophysics","177","2822500","0.0-177.0","55a5f19bfdf99b28b5340d00","64e50290df62995c3043a679","","","","","4323",""," ","key"," ","16.662630769230713","500","250","br","12","2","1","9","-10","28","222"
"","psychophysics","178","2825456","0.0-178.0","55a5f19bfdf99b28b5340d00","64e50290df62995c3043a679","","","","","2949",""," ","key"," ","16.662494318181416","500","250","br","11","2","1","-6","-16","26","231"
"","psychophysics","179","2828536","0.0-179.0","55a5f19bfdf99b28b5340d00","64e50290df62995c3043a679","","","","","3073",""," ","key"," ","16.661918478261214","500","250","br","20","2","1","-9","7","-24","281"
"","psychophysics","180","2831081","0.0-180.0","55a5f19bfdf99b28b5340d00","64e50290df62995c3043a679","","","","","2537",""," ","key"," ","16.661967105262814","500","250","br","13","2","1","11","25","-18","266"
"","psychophysics","181","2831782","0.0-181.0","55a5f19bfdf99b28b5340d00","64e50290df62995c3043a679","","","","","697",""," ","key"," ","16.661975609751916","500","250","inst","","","","","","",""
"","psychophysics","182","2836750","0.0-182.0","55a5f19bfdf99b28b5340d00","64e50290df62995c3043a679","","","","","4963",""," ","key"," ","16.66226936026981","500","250","instPog0","340","2","","0","0","370","340"
"","psychophysics","183","2840617","0.0-183.0","55a5f19bfdf99b28b5340d00","64e50290df62995c3043a679","","","","","3864",""," ","key"," ","16.662406926406184","500","250","instPog1","338","2","","0","0","370","340"
"","psychophysics","184","2842621","0.0-184.0","55a5f19bfdf99b28b5340d00","64e50290df62995c3043a679","","","","","1999",""," ","key"," ","16.66221008403618","500","250","instPog2","318","2","","0","0","340","340"
"","psychophysics","185","2843261","0.0-185.0","55a5f19bfdf99b28b5340d00","64e50290df62995c3043a679","","","","","629",""," ","key"," ","16.660631578942564","500","250","inst","","","","","","",""
"","psychophysics","186","2846276","0.0-186.0","55a5f19bfdf99b28b5340d00","64e50290df62995c3043a679","","","","","3009",""," ","key"," ","16.66224444444395","500","250","pog","315","2","1","0","0","289","339"
"","psychophysics","187","2849343","0.0-187.0","55a5f19bfdf99b28b5340d00","64e50290df62995c3043a679","","","","","3061",""," ","key"," ","16.662693989071283","500","250","pog","293","2","1","0","0","379","307"
"","psychophysics","188","2852843","0.0-188.0","55a5f19bfdf99b28b5340d00","64e50290df62995c3043a679","","","","","3494",""," ","key"," ","16.662009569377368","500","250","pog","312","2","1","0","0","314","331"
"","psychophysics","189","2855646","0.0-189.0","55a5f19bfdf99b28b5340d00","64e50290df62995c3043a679","","","","","2798",""," ","key"," ","16.662233532933396","500","250","pog","303","2","1","0","0","365","309"
"","psychophysics","190","2857789","0.0-190.0","55a5f19bfdf99b28b5340d00","64e50290df62995c3043a679","","","","","2137",""," ","key"," ","16.662554687500233","500","250","pog","289","2","1","0","0","293","304"
"","psychophysics","191","2860578","0.0-191.0","55a5f19bfdf99b28b5340d00","64e50290df62995c3043a679","","","","","2783",""," ","key"," ","16.662253012050346","500","250","pog","309","2","1","0","0","353","327"
"","psychophysics","192","2863850","0.0-192.0","55a5f19bfdf99b28b5340d00","64e50290df62995c3043a679","","","","","3267",""," ","key"," ","16.66216410256397","500","250","pog","298","2","1","0","0","390","303"
"","psychophysics","193","2870832","0.0-193.0","55a5f19bfdf99b28b5340d00","64e50290df62995c3043a679","","","","","6969",""," ","key"," ","16.662662679426436","500","250","pog","316","2","1","0","0","282","338"
"","psychophysics","194","2873280","0.0-194.0","55a5f19bfdf99b28b5340d00","64e50290df62995c3043a679","","","","","2436",""," ","key"," ","16.663143835614168","500","250","pog","357","2","1","0","0","329","380"
"","psychophysics","195","2876228","0.0-195.0","55a5f19bfdf99b28b5340d00","64e50290df62995c3043a679","","","","","2937",""," ","key"," ","16.6623522727274","500","250","pog","304","2","1","0","0","352","318"
"","psychophysics","196","2878553","0.0-196.0","55a5f19bfdf99b28b5340d00","64e50290df62995c3043a679","","","","","2313",""," ","key"," ","16.662654676260225","500","250","pog","354","2","1","0","0","382","371"
"","psychophysics","197","2879957","0.0-197.0","55a5f19bfdf99b28b5340d00","64e50290df62995c3043a679","","","","","1399",""," ","key"," ","16.66057831324996","500","250","pog","349","2","1","0","0","343","374"
"","psychophysics","198","2882001","0.0-198.0","55a5f19bfdf99b28b5340d00","64e50290df62995c3043a679","","","","","2038",""," ","key"," ","16.66285245901844","500","250","pog","325","2","1","0","0","333","335"
"","psychophysics","199","2884201","0.0-199.0","55a5f19bfdf99b28b5340d00","64e50290df62995c3043a679","","","","","2194",""," ","key"," ","16.662230769229623","500","250","pog","361","2","1","0","0","365","371"
"","psychophysics","200","2886552","0.0-200.0","55a5f19bfdf99b28b5340d00","64e50290df62995c3043a679","","","","","2343",""," ","key"," ","16.662446808509184","500","250","pog","312","2","1","0","0","318","325"
"","psychophysics","201","2887201","0.0-201.0","55a5f19bfdf99b28b5340d00","64e50290df62995c3043a679","","","","","646",""," ","key"," ","16.663263157892384","500","250","inst","","","","","","",""
"","psychophysics","202","2900764","0.0-202.0","55a5f19bfdf99b28b5340d00","64e50290df62995c3043a679","","","","","13558",""," ","key"," ","16.66223616236168","500","250","instZol1","2.7755575615628914e-17","","","0","0","-1.3",""
"","psychophysics","203","2910411","0.0-203.0","55a5f19bfdf99b28b5340d00","64e50290df62995c3043a679","","","","","9637",""," ","key"," ","16.662458477508775","500","250","instZol2","0.30000000000000066","1","","0","0","2",""
"","psychophysics","204","2911116","0.0-204.0","55a5f19bfdf99b28b5340d00","64e50290df62995c3043a679","","","","","701",""," ","key"," ","16.66226829268129","500","250","inst","","","","","","",""
"","psychophysics","205","2916183","0.0-205.0","55a5f19bfdf99b28b5340d00","64e50290df62995c3043a679","","","","","5050",""," ","key"," ","16.662372937292265","500","250","zol","0.29000000000000004","1","1","-3","14","0.31",""
"","psychophysics","206","2916243","0.0-206.0","55a5f19bfdf99b28b5340d00","64e50290df62995c3043a679","","","","","40",""," ","key"," ","16.666000000045944","500","250","zol","-0.24","1","1","-26","19","0.24",""
"","psychophysics","207","2922092","0.0-207.0","55a5f19bfdf99b28b5340d00","64e50290df62995c3043a679","","","","","5839",""," ","key"," ","16.662362857142995","500","250","zol","0.31000000000000005","1","1","27","-24","-0.21",""
"","psychophysics","208","2928785","0.0-208.0","55a5f19bfdf99b28b5340d00","64e50290df62995c3043a679","","","","","6675",""," ","key"," ","16.661822499999545","500","250","zol","0.19000000000000003","1","1","-6","22","-0.29",""
"","psychophysics","209","2931496","0.0-209.0","55a5f19bfdf99b28b5340d00","64e50290df62995c3043a679","","","","","2703",""," ","key"," ","16.66352469135754","500","250","zol","0.19","1","1","-8","24","-0.09",""
"","psychophysics","210","2936876","0.0-210.0","55a5f19bfdf99b28b5340d00","64e50290df62995c3043a679","","","","","5363",""," ","key"," ","16.662431677018137","500","250","zol","0.10000000000000003","1","1","-7","-9","-0.4",""
"","psychophysics","211","2939287","0.0-211.0","55a5f19bfdf99b28b5340d00","64e50290df62995c3043a679","","","","","2393",""," ","key"," ","16.663055555555427","500","250","zol","0.32000000000000006","1","1","-24","-6","-0.22",""
"","psychophysics","212","2946130","0.0-212.0","55a5f19bfdf99b28b5340d00","64e50290df62995c3043a679","","","","","6831",""," ","key"," ","16.662596577016778","500","250","zol","0.30000000000000004","1","1","25","-23","-0.7",""
"","psychophysics","213","2951253","0.0-213.0","55a5f19bfdf99b28b5340d00","64e50290df62995c3043a679","","","","","5105",""," ","key"," ","16.662794788274002","500","250","zol","0.3","1","1","7","-30","0.4",""
"","psychophysics","214","2959082","0.0-214.0","55a5f19bfdf99b28b5340d00","64e50290df62995c3043a679","","","","","7809",""," ","key"," ","16.66057569296387","500","250","zol","0.29000000000000004","1","1","-3","18","-0.69",""
"","psychophysics","215","2967029","0.0-215.0","55a5f19bfdf99b28b5340d00","64e50290df62995c3043a679","","","","","7936",""," ","key"," ","16.66250420168058","500","250","zol","0.0500000000000001","1","1","-12","-19","-0.45",""
"","psychophysics","216","2971433","0.0-216.0","55a5f19bfdf99b28b5340d00","64e50290df62995c3043a679","","","","","4385",""," ","key"," ","16.661551330798083","500","250","zol","0.08000000000000002","1","1","-22","27","-0.38",""
"","psychophysics","217","2975927","0.0-217.0","55a5f19bfdf99b28b5340d00","64e50290df62995c3043a679","","","","","4489",""," ","key"," ","16.661869888476073","500","250","zol","0.20000000000000004","1","1","-29","-5","-0.5",""
"","psychophysics","218","2978727","0.0-218.0","55a5f19bfdf99b28b5340d00","64e50290df62995c3043a679","","","","","2795",""," ","key"," ","16.66411377245304","500","250","zol","0.10999999999999999","1","1","-22","-8","-0.31",""
"","psychophysics","219","2984692","0.0-219.0","55a5f19bfdf99b28b5340d00","64e50290df62995c3043a679","","","","","5955",""," ","key"," ","16.66286554621762","500","250","zol","-0.04000000000000001","1","1","19","-21","-0.26",""
