"success","trial_type","trial_index","time_elapsed","internal_node_id","pid","sid","timeout","failed_images","failed_audio","failed_video","rt","stimulus","response","response_type","key_press","avg_frame_time","center_x","center_y","task","resp","version","block","start","jitterX","jitterY","parA"
"true","fullscreen","0","3285","0.0-0.0","6306a238f129633597d98c9e","64de7992700b3953c5be259b","","","","","","","","","","","","","","","","","","","",""
"true","preload","1","3386","0.0-1.0","6306a238f129633597d98c9e","64de7992700b3953c5be259b","false","[]","[]","[]","","","","","","","","","","","","","","","",""
"","html-button-response","2","5150","0.0-2.0","6306a238f129633597d98c9e","64de7992700b3953c5be259b","","","","","1763","Please Make Sure Your Audio Is On.","0","","","","","","","","","","","","",""
"","psychophysics","3","14625","0.0-3.0","6306a238f129633597d98c9e","64de7992700b3953c5be259b","","","","","9443",""," ","key"," ","16.695341549295776","720","250","","","","","","","",""
"","psychophysics","4","17833","0.0-4.0","6306a238f129633597d98c9e","64de7992700b3953c5be259b","","","","","3207",""," ","key"," ","16.753715789473674","500","250","inst","","","","","","",""
"","psychophysics","5","23096","0.0-5.0","6306a238f129633597d98c9e","64de7992700b3953c5be259b","","","","","5261",""," ","key"," ","16.666000000000004","500","250","sample0","","","","","","",""
"","psychophysics","6","26004","0.0-6.0","6306a238f129633597d98c9e","64de7992700b3953c5be259b","","","","","2906",""," ","key"," ","16.66599999999999","500","250","sample1","","","","","","",""
"","psychophysics","7","44493","0.0-7.0","6306a238f129633597d98c9e","64de7992700b3953c5be259b","","","","","18488",""," ","key"," ","16.665999999999997","500","250","sample2","100","","","","","",""
"","psychophysics","8","53456","0.0-8.0","6306a238f129633597d98c9e","64de7992700b3953c5be259b","","","","","8960",""," ","key"," ","16.666","500","250","sample3","100","","","","","",""
"","psychophysics","9","63058","0.0-9.0","6306a238f129633597d98c9e","64de7992700b3953c5be259b","","","","","9601",""," ","key"," ","16.666000000000007","500","250","sample4","100","","","","","",""
"","psychophysics","10","67184","0.0-10.0","6306a238f129633597d98c9e","64de7992700b3953c5be259b","","","","","4124",""," ","key"," ","16.666","500","250","sample5","","","","","","",""
"","psychophysics","11","76998","0.0-11.0","6306a238f129633597d98c9e","64de7992700b3953c5be259b","","","","","9812",""," ","key"," ","16.665999999999993","500","250","sample6","500","","","","","",""
"","psychophysics","12","80665","0.0-12.0","6306a238f129633597d98c9e","64de7992700b3953c5be259b","","","","","3665",""," ","key"," ","16.665999999999965","500","250","inst","","","","","","",""
"","psychophysics","13","84573","0.0-13.0","6306a238f129633597d98c9e","64de7992700b3953c5be259b","","","","","3906",""," ","key"," ","16.66599999999999","500","250","inst","","","","","","",""
"","psychophysics","14","88624","0.0-14.0","6306a238f129633597d98c9e","64de7992700b3953c5be259b","","","","","4049",""," ","key"," ","16.665999999999965","500","250","inst","","","","","","",""
"","psychophysics","15","91365","0.0-15.0","6306a238f129633597d98c9e","64de7992700b3953c5be259b","","","","","2738",""," ","key"," ","16.66600000000003","500","250","inst","","","","","","",""
"","psychophysics","16","94371","0.0-16.0","6306a238f129633597d98c9e","64de7992700b3953c5be259b","","","","","3002",""," ","key"," ","16.666000000000025","500","250","inst","","","","","","",""
"","psychophysics","17","106338","0.0-17.0","6306a238f129633597d98c9e","64de7992700b3953c5be259b","","","","","11958",""," ","key"," ","16.665999999999997","500","250","instPog0","160","1","","190","0","0","160"
"","psychophysics","18","114116","0.0-18.0","6306a238f129633597d98c9e","64de7992700b3953c5be259b","","","","","7775",""," ","key"," ","16.666","500","250","instPog1","166","1","","190","0","0","160"
"","psychophysics","19","122570","0.0-19.0","6306a238f129633597d98c9e","64de7992700b3953c5be259b","","","","","8452",""," ","key"," ","16.665999999999997","500","250","instPog2","192","1","","160","0","0","160"
"","psychophysics","20","124751","0.0-20.0","6306a238f129633597d98c9e","64de7992700b3953c5be259b","","","","","2179",""," ","key"," ","16.666000000000015","500","250","inst","","","","","","",""
"","psychophysics","21","131516","0.0-21.0","6306a238f129633597d98c9e","64de7992700b3953c5be259b","","","","","6763",""," ","key"," ","16.66599999999999","500","250","pog","198","1","0","100","0","0","167"
"","psychophysics","22","137667","0.0-22.0","6306a238f129633597d98c9e","64de7992700b3953c5be259b","","","","","6148",""," ","key"," ","16.66600000000005","500","250","pog","211","1","0","155","0","0","180"
"","psychophysics","23","140166","0.0-23.0","6306a238f129633597d98c9e","64de7992700b3953c5be259b","","","","","2497",""," ","key"," ","16.66599999999998","500","250","pog","170","1","0","172","0","0","148"
"","psychophysics","24","145417","0.0-24.0","6306a238f129633597d98c9e","64de7992700b3953c5be259b","","","","","5238",""," ","key"," ","16.666000000000032","500","250","pog","190","1","0","206","0","0","154"
"","psychophysics","25","150986","0.0-25.0","6306a238f129633597d98c9e","64de7992700b3953c5be259b","","","","","5566",""," ","key"," ","16.665999999999972","500","250","pog","172","1","0","106","0","0","143"
"","psychophysics","26","157129","0.0-26.0","6306a238f129633597d98c9e","64de7992700b3953c5be259b","","","","","6141",""," ","key"," ","16.66599999999997","500","250","pog","171","1","0","195","0","0","140"
"","psychophysics","27","162571","0.0-27.0","6306a238f129633597d98c9e","64de7992700b3953c5be259b","","","","","5439",""," ","key"," ","16.666000000000036","500","250","pog","187","1","0","125","0","0","163"
"","psychophysics","28","166648","0.0-28.0","6306a238f129633597d98c9e","64de7992700b3953c5be259b","","","","","4074",""," ","key"," ","16.666000000000064","500","250","pog","156","1","0","158","0","0","129"
"","psychophysics","29","171588","0.0-29.0","6306a238f129633597d98c9e","64de7992700b3953c5be259b","","","","","4938",""," ","key"," ","16.666000000000004","500","250","pog","155","1","0","111","0","0","125"
"","psychophysics","30","174866","0.0-30.0","6306a238f129633597d98c9e","64de7992700b3953c5be259b","","","","","3275",""," ","key"," ","16.665999999999965","500","250","pog","141","1","0","105","0","0","120"
"","psychophysics","31","181295","0.0-31.0","6306a238f129633597d98c9e","64de7992700b3953c5be259b","","","","","6427",""," ","key"," ","16.75302872062664","500","250","pog","209","1","0","129","0","0","190"
"","psychophysics","32","184165","0.0-32.0","6306a238f129633597d98c9e","64de7992700b3953c5be259b","","","","","2867",""," ","key"," ","16.665999999999993","500","250","pog","209","1","0","199","0","0","194"
"","psychophysics","33","189714","0.0-33.0","6306a238f129633597d98c9e","64de7992700b3953c5be259b","","","","","5547",""," ","key"," ","16.665999999999983","500","250","pog","190","1","0","208","0","0","163"
"","psychophysics","34","197720","0.0-34.0","6306a238f129633597d98c9e","64de7992700b3953c5be259b","","","","","null","","null","key","null","16.66599999999999","500","250","pog","160","1","0","214","0","0","135"
"","psychophysics","35","197937","0.0-35.0","6306a238f129633597d98c9e","64de7992700b3953c5be259b","","","","","215",""," ","key"," ","16.665999999999865","500","250","pog","145","1","0","145","0","0","127"
"","psychophysics","36","199761","0.0-36.0","6306a238f129633597d98c9e","64de7992700b3953c5be259b","","","","","1817",""," ","key"," ","16.66600000000011","500","250","inst","","","","","","",""
"","psychophysics","37","201577","0.0-37.0","6306a238f129633597d98c9e","64de7992700b3953c5be259b","","","","","1813",""," ","key"," ","16.665999999999865","500","250","instPzPre","50","0","","50","","","50"
"","psychophysics","38","204350","0.0-38.0","6306a238f129633597d98c9e","64de7992700b3953c5be259b","","","","","2770",""," ","key"," ","16.666000000000086","500","250","instPz0","50","2","","50","","","50"
"","psychophysics","39","214334","0.0-39.0","6306a238f129633597d98c9e","64de7992700b3953c5be259b","","","","","9982",""," ","key"," ","16.66599999999997","500","250","instPz1","49","2","","25","","","50"
"","psychophysics","40","217726","0.0-40.0","6306a238f129633597d98c9e","64de7992700b3953c5be259b","","","","","3390",""," ","key"," ","16.665999999999876","500","250","instPz2","34","2","","20","","","35"
"","psychophysics","41","223572","0.0-41.0","6306a238f129633597d98c9e","64de7992700b3953c5be259b","","","","","5841",""," ","key"," ","16.666000000000025","500","250","instPz3","30","2","","30","","","100"
"","psychophysics","42","232345","0.0-42.0","6306a238f129633597d98c9e","64de7992700b3953c5be259b","","","","","8769",""," ","key"," ","16.66600000000004","500","250","instPz4","71","2","","30","","","100"
"","psychophysics","43","233476","0.0-43.0","6306a238f129633597d98c9e","64de7992700b3953c5be259b","","","","","1129",""," ","key"," ","16.666000000000047","500","250","inst","","","","","","",""
"","psychophysics","44","237138","0.0-44.0","6306a238f129633597d98c9e","64de7992700b3953c5be259b","","","","","3658",""," ","key"," ","16.665999999999976","500","250","pz","34","2","0","32","","","41"
"","psychophysics","45","243374","0.0-45.0","6306a238f129633597d98c9e","64de7992700b3953c5be259b","","","","","6224",""," ","key"," ","16.666000000000015","500","250","pz","44","2","0","39","","","54"
"","psychophysics","46","248246","0.0-46.0","6306a238f129633597d98c9e","64de7992700b3953c5be259b","","","","","4868",""," ","key"," ","16.66599999999993","500","250","pz","32","2","0","37","","","40"
"","psychophysics","47","254837","0.0-47.0","6306a238f129633597d98c9e","64de7992700b3953c5be259b","","","","","6588",""," ","key"," ","16.66599999999995","500","250","pz","36","2","0","60","","","40"
"","psychophysics","48","259801","0.0-48.0","6306a238f129633597d98c9e","64de7992700b3953c5be259b","","","","","4960",""," ","key"," ","16.665999999999986","500","250","pz","35","2","0","60","","","39"
"","psychophysics","49","264378","0.0-49.0","6306a238f129633597d98c9e","64de7992700b3953c5be259b","","","","","4573",""," ","key"," ","16.66599999999999","500","250","pz","33","2","0","21","","","42"
"","psychophysics","50","267362","0.0-50.0","6306a238f129633597d98c9e","64de7992700b3953c5be259b","","","","","2981",""," ","key"," ","16.666000000000054","500","250","pz","32","2","0","29","","","41"
"","psychophysics","51","273272","0.0-51.0","6306a238f129633597d98c9e","64de7992700b3953c5be259b","","","","","5907",""," ","key"," ","16.71321246458914","500","250","pz","17","2","0","33","","","21"
"","psychophysics","52","276694","0.0-52.0","6306a238f129633597d98c9e","64de7992700b3953c5be259b","","","","","3419",""," ","key"," ","16.666000000000007","500","250","pz","32","2","0","24","","","41"
"","psychophysics","53","283694","0.0-53.0","6306a238f129633597d98c9e","64de7992700b3953c5be259b","","","","","6997",""," ","key"," ","16.666000000000007","500","250","pz","29","2","0","56","","","33"
"","psychophysics","54","289991","0.0-54.0","6306a238f129633597d98c9e","64de7992700b3953c5be259b","","","","","6294",""," ","key"," ","16.665999999999986","500","250","pz","45","2","0","27","","","60"
"","psychophysics","55","292319","0.0-55.0","6306a238f129633597d98c9e","64de7992700b3953c5be259b","","","","","2325",""," ","key"," ","16.66599999999997","500","250","pz","28","2","0","24","","","29"
"","psychophysics","56","297428","0.0-56.0","6306a238f129633597d98c9e","64de7992700b3953c5be259b","","","","","5096",""," ","key"," ","16.666000000000103","500","250","pz","47","2","0","32","","","59"
"","psychophysics","57","301447","0.0-57.0","6306a238f129633597d98c9e","64de7992700b3953c5be259b","","","","","4016",""," ","key"," ","16.666000000000107","500","250","pz","47","2","0","52","","","55"
"","psychophysics","58","304661","0.0-58.0","6306a238f129633597d98c9e","64de7992700b3953c5be259b","","","","","3211",""," ","key"," ","16.666000000000167","500","250","pz","39","2","0","44","","","48"
"","psychophysics","59","307498","0.0-59.0","6306a238f129633597d98c9e","64de7992700b3953c5be259b","","","","","2834",""," ","key"," ","16.66600000000002","500","250","inst","","","","","","",""
"","psychophysics","60","312477","0.0-60.0","6306a238f129633597d98c9e","64de7992700b3953c5be259b","","","","","4976",""," ","key"," ","16.66599999999998","500","250","instBr0","0","","","0","0","0","300"
"","psychophysics","61","321046","0.0-61.0","6306a238f129633597d98c9e","64de7992700b3953c5be259b","","","","","8567",""," ","key"," ","16.665999999999993","500","250","instBr1","-2","","","-40","0","0","300"
"","psychophysics","62","331363","0.0-62.0","6306a238f129633597d98c9e","64de7992700b3953c5be259b","","","","","10315",""," ","key"," ","16.665999999999983","500","250","instBr3","22","2","","40","0","0","300"
"","psychophysics","63","333276","0.0-63.0","6306a238f129633597d98c9e","64de7992700b3953c5be259b","","","","","1911",""," ","key"," ","16.665999999999993","500","250","inst","","","","","","",""
"","psychophysics","64","339006","0.0-64.0","6306a238f129633597d98c9e","64de7992700b3953c5be259b","","","","","5727",""," ","key"," ","16.666000000000068","500","250","br","21","2","0","27","18","13","281"
"","psychophysics","65","342784","0.0-65.0","6306a238f129633597d98c9e","64de7992700b3953c5be259b","","","","","3775",""," ","key"," ","16.740401785714443","500","250","br","21","2","0","18","7","30","266"
"","psychophysics","66","349142","0.0-66.0","6306a238f129633597d98c9e","64de7992700b3953c5be259b","","","","","6354",""," ","key"," ","16.666000000000114","500","250","br","23","2","0","-18","-30","21","260"
"","psychophysics","67","353318","0.0-67.0","6306a238f129633597d98c9e","64de7992700b3953c5be259b","","","","","4173",""," ","key"," ","16.666","500","250","br","18","2","0","-13","0","-14","289"
"","psychophysics","68","358339","0.0-68.0","6306a238f129633597d98c9e","64de7992700b3953c5be259b","","","","","5017",""," ","key"," ","16.66599999999996","500","250","br","17","2","0","-22","-10","-30","257"
"","psychophysics","69","361261","0.0-69.0","6306a238f129633597d98c9e","64de7992700b3953c5be259b","","","","","2919",""," ","key"," ","16.666000000000114","500","250","br","19","2","0","28","14","10","252"
"","psychophysics","70","363991","0.0-70.0","6306a238f129633597d98c9e","64de7992700b3953c5be259b","","","","","2728",""," ","key"," ","16.66599999999976","500","250","br","20","2","0","18","-13","1","250"
"","psychophysics","71","368484","0.0-71.0","6306a238f129633597d98c9e","64de7992700b3953c5be259b","","","","","4490",""," ","key"," ","16.665999999999926","500","250","br","14","2","0","-7","3","-20","233"
"","psychophysics","72","372468","0.0-72.0","6306a238f129633597d98c9e","64de7992700b3953c5be259b","","","","","3980",""," ","key"," ","16.665999999999883","500","250","br","16","2","0","-9","13","-11","242"
"","psychophysics","73","375487","0.0-73.0","6306a238f129633597d98c9e","64de7992700b3953c5be259b","","","","","3015",""," ","key"," ","16.666000000000025","500","250","br","21","2","0","5","23","1","232"
"","psychophysics","74","380008","0.0-74.0","6306a238f129633597d98c9e","64de7992700b3953c5be259b","","","","","4518",""," ","key"," ","16.666000000000025","500","250","br","15","2","0","-17","-16","-4","237"
"","psychophysics","75","382914","0.0-75.0","6306a238f129633597d98c9e","64de7992700b3953c5be259b","","","","","2903",""," ","key"," ","16.66599999999996","500","250","br","19","2","0","24","9","15","215"
"","psychophysics","76","387321","0.0-76.0","6306a238f129633597d98c9e","64de7992700b3953c5be259b","","","","","4403",""," ","key"," ","16.666000000000086","500","250","br","12","2","0","-5","14","17","270"
"","psychophysics","77","390891","0.0-77.0","6306a238f129633597d98c9e","64de7992700b3953c5be259b","","","","","3567",""," ","key"," ","16.666000000000036","500","250","br","19","2","0","11","-9","-28","251"
"","psychophysics","78","394227","0.0-78.0","6306a238f129633597d98c9e","64de7992700b3953c5be259b","","","","","3333",""," ","key"," ","16.665999999999926","500","250","br","16","2","0","18","-4","-27","266"
"","psychophysics","79","395485","0.0-79.0","6306a238f129633597d98c9e","64de7992700b3953c5be259b","","","","","1256",""," ","key"," ","16.66599999999938","500","250","inst","","","","","","",""
"","psychophysics","80","398507","0.0-80.0","6306a238f129633597d98c9e","64de7992700b3953c5be259b","","","","","3019",""," ","key"," ","16.666000000000025","500","250","instZol0","0","","","0","0","0",""
"","psychophysics","81","410315","0.0-81.0","6306a238f129633597d98c9e","64de7992700b3953c5be259b","","","","","11806",""," ","key"," ","16.66600000000007","500","250","instZol1","-1.942890293094024e-16","","","-1.3","0","0",""
"","psychophysics","82","423684","0.0-82.0","6306a238f129633597d98c9e","64de7992700b3953c5be259b","","","","","13357",""," ","key"," ","16.666000000000018","500","250","instZol2","-0.6999999999999993","2","","2","0","0",""
"","psychophysics","83","424992","0.0-83.0","6306a238f129633597d98c9e","64de7992700b3953c5be259b","","","","","1306",""," ","key"," ","16.666000000000086","500","250","inst","","","","","","",""
"","psychophysics","84","432995","0.0-84.0","6306a238f129633597d98c9e","64de7992700b3953c5be259b","","","","","null","","null","key","null","16.665999999999986","500","250","zol","-1.2100000000000002","2","0","-0.69","28","-4",""
"","psychophysics","85","433052","0.0-85.0","6306a238f129633597d98c9e","64de7992700b3953c5be259b","","","","","54",""," ","key"," ","16.66599999999744","500","250","zol","-0.07","2","0","0.07","-25","17",""
"","psychophysics","86","437607","0.0-86.0","6306a238f129633597d98c9e","64de7992700b3953c5be259b","","","","","4553",""," ","key"," ","16.666000000000007","500","250","zol","-0.47999999999999987","2","0","-0.62","-4","-20",""
"","psychophysics","87","442268","0.0-87.0","6306a238f129633597d98c9e","64de7992700b3953c5be259b","","","","","4656",""," ","key"," ","16.665999999999837","500","250","zol","-1.0899999999999999","2","0","-0.01","-5","0",""
"","psychophysics","88","446204","0.0-88.0","6306a238f129633597d98c9e","64de7992700b3953c5be259b","","","","","3932",""," ","key"," ","16.66600000000004","500","250","zol","-1.18","2","0","0.28","-10","0",""
"","psychophysics","89","448781","0.0-89.0","6306a238f129633597d98c9e","64de7992700b3953c5be259b","","","","","2573",""," ","key"," ","16.666000000000086","500","250","zol","-1.1300000000000001","2","0","0.73","-6","29",""
"","psychophysics","90","452570","0.0-90.0","6306a238f129633597d98c9e","64de7992700b3953c5be259b","","","","","3785",""," ","key"," ","16.666000000000015","500","250","zol","-0.5800000000000001","2","0","-0.42","8","14",""
"","psychophysics","91","455874","0.0-91.0","6306a238f129633597d98c9e","64de7992700b3953c5be259b","","","","","3299",""," ","key"," ","16.66599999999995","500","250","zol","-1.1800000000000002","2","0","0.68","-10","-19",""
"","psychophysics","92","458871","0.0-92.0","6306a238f129633597d98c9e","64de7992700b3953c5be259b","","","","","2992",""," ","key"," ","16.665999999999876","500","250","zol","-0.74","2","0","0.44","-2","-20",""
"","psychophysics","93","461953","0.0-93.0","6306a238f129633597d98c9e","64de7992700b3953c5be259b","","","","","3079",""," ","key"," ","16.66599999999997","500","250","zol","-0.7699999999999999","2","0","0.37","16","-7",""
"","psychophysics","94","466239","0.0-94.0","6306a238f129633597d98c9e","64de7992700b3953c5be259b","","","","","4280",""," ","key"," ","16.66599999999994","500","250","zol","-0.59","2","0","-0.31","13","-21",""
"","psychophysics","95","469538","0.0-95.0","6306a238f129633597d98c9e","64de7992700b3953c5be259b","","","","","3294",""," ","key"," ","16.66599999999995","500","250","zol","-1.19","2","0","0.69","15","-25",""
"","psychophysics","96","474574","0.0-96.0","6306a238f129633597d98c9e","64de7992700b3953c5be259b","","","","","5023",""," ","key"," ","16.66600000000005","500","250","zol","-1.1400000000000001","2","0","-0.26","-7","27",""
"","psychophysics","97","477218","0.0-97.0","6306a238f129633597d98c9e","64de7992700b3953c5be259b","","","","","2639",""," ","key"," ","16.666000000000018","500","250","zol","-0.7799999999999999","2","0","0.58","26","-27",""
"","psychophysics","98","479445","0.0-98.0","6306a238f129633597d98c9e","64de7992700b3953c5be259b","","","","","2223",""," ","key"," ","16.665999999999848","500","250","zol","-0.9599999999999999","2","0","0.26","-25","-30",""
"","psychophysics","99","480471","0.0-99.0","6306a238f129633597d98c9e","64de7992700b3953c5be259b","","","","","1024",""," ","key"," ","16.66599999999938","500","250","inst","","","","","","",""
"","psychophysics","100","482839","0.0-100.0","6306a238f129633597d98c9e","64de7992700b3953c5be259b","","","","","2366",""," ","key"," ","16.66600000000012","500","250","instEB0","40","2","","40","0","0","40"
"","psychophysics","101","489889","0.0-101.0","6306a238f129633597d98c9e","64de7992700b3953c5be259b","","","","","7037",""," ","key"," ","16.66600000000006","500","250","instEB1","42","2","","30","0","0","40"
"","psychophysics","102","493386","0.0-102.0","6306a238f129633597d98c9e","64de7992700b3953c5be259b","","","","","3491",""," ","key"," ","16.666000000000086","500","250","instEB2","40","2","","40","0","0","30"
"","psychophysics","103","493648","0.0-103.0","6306a238f129633597d98c9e","64de7992700b3953c5be259b","","","","","260",""," ","key"," ","16.666000000003258","500","250","instEB3","45","2","","45","0","0","27"
"","psychophysics","104","508528","0.0-104.0","6306a238f129633597d98c9e","64de7992700b3953c5be259b","","","","","14877",""," ","key"," ","16.665999999999983","500","250","instEB4","50","2","","30","0","0","40"
"","psychophysics","105","509991","0.0-105.0","6306a238f129633597d98c9e","64de7992700b3953c5be259b","","","","","1461",""," ","key"," ","16.66599999999978","500","250","inst","","","","","","",""
"","psychophysics","106","513629","0.0-106.0","6306a238f129633597d98c9e","64de7992700b3953c5be259b","","","","","3627",""," ","key"," ","16.665999999999986","500","250","eb","47","2","","47","0","0","39"
"","psychophysics","107","521634","0.0-107.0","6306a238f129633597d98c9e","64de7992700b3953c5be259b","","","","","null","","null","key","null","16.66600000000005","500","250","eb","47","2","","24","0","0","47"
"","psychophysics","108","525067","0.0-108.0","6306a238f129633597d98c9e","64de7992700b3953c5be259b","","","","","3431",""," ","key"," ","16.666000000000135","500","250","eb","45","2","","38","0","0","37"
"","psychophysics","109","528525","0.0-109.0","6306a238f129633597d98c9e","64de7992700b3953c5be259b","","","","","3454",""," ","key"," ","16.66599999999983","500","250","eb","47","2","","36","0","0","38"
"","psychophysics","110","534251","0.0-110.0","6306a238f129633597d98c9e","64de7992700b3953c5be259b","","","","","5723",""," ","key"," ","16.665999999999993","500","250","eb","32","2","","43","0","0","24"
"","psychophysics","111","540786","0.0-111.0","6306a238f129633597d98c9e","64de7992700b3953c5be259b","","","","","6528",""," ","key"," ","16.665999999999894","500","250","eb","53","2","","27","0","0","47"
"","psychophysics","112","544427","0.0-112.0","6306a238f129633597d98c9e","64de7992700b3953c5be259b","","","","","3636",""," ","key"," ","16.666000000000377","500","250","eb","33","2","","25","0","0","27"
"","psychophysics","113","548879","0.0-113.0","6306a238f129633597d98c9e","64de7992700b3953c5be259b","","","","","4448",""," ","key"," ","16.665999999999848","500","250","eb","53","2","","35","0","0","51"
"","psychophysics","114","551163","0.0-114.0","6306a238f129633597d98c9e","64de7992700b3953c5be259b","","","","","2280",""," ","key"," ","16.66599999999915","500","250","eb","37","2","","31","0","0","33"
"","psychophysics","115","554292","0.0-115.0","6306a238f129633597d98c9e","64de7992700b3953c5be259b","","","","","3126",""," ","key"," ","16.666000000000086","500","250","eb","35","2","","37","0","0","28"
"","psychophysics","116","556793","0.0-116.0","6306a238f129633597d98c9e","64de7992700b3953c5be259b","","","","","2498",""," ","key"," ","16.66599999999959","500","250","eb","40","2","","36","0","0","36"
"","psychophysics","117","559920","0.0-117.0","6306a238f129633597d98c9e","64de7992700b3953c5be259b","","","","","3124",""," ","key"," ","16.66599999999963","500","250","eb","44","2","","47","0","0","39"
"","psychophysics","118","565546","0.0-118.0","6306a238f129633597d98c9e","64de7992700b3953c5be259b","","","","","5621",""," ","key"," ","16.66599999999977","500","250","eb","38","2","","51","0","0","28"
"","psychophysics","119","568668","0.0-119.0","6306a238f129633597d98c9e","64de7992700b3953c5be259b","","","","","3118",""," ","key"," ","16.66599999999963","500","250","eb","54","2","","49","0","0","44"
"","psychophysics","120","571788","0.0-120.0","6306a238f129633597d98c9e","64de7992700b3953c5be259b","","","","","3117",""," ","key"," ","16.666000000000086","500","250","eb","43","2","","46","0","0","33"
"","psychophysics","121","572922","0.0-121.0","6306a238f129633597d98c9e","64de7992700b3953c5be259b","","","","","1133",""," ","key"," ","16.66599999999961","500","250","inst","","","","","","",""
"","psychophysics","122","583585","0.0-122.0","6306a238f129633597d98c9e","64de7992700b3953c5be259b","","","","","10659",""," ","key"," ","16.666000000000036","500","250","instPz1","49","1","","25","","","50"
"","psychophysics","123","589977","0.0-123.0","6306a238f129633597d98c9e","64de7992700b3953c5be259b","","","","","6391",""," ","key"," ","16.66600000000003","500","250","instPz2","20","1","","35","","","20"
"","psychophysics","124","593192","0.0-124.0","6306a238f129633597d98c9e","64de7992700b3953c5be259b","","","","","3213",""," ","key"," ","16.665999999999865","500","250","instPz3","107","1","","100","","","30"
"","psychophysics","125","595059","0.0-125.0","6306a238f129633597d98c9e","64de7992700b3953c5be259b","","","","","1865",""," ","key"," ","16.665999999999798","500","250","instPz4","100","1","","100","","","30"
"","psychophysics","126","596494","0.0-126.0","6306a238f129633597d98c9e","64de7992700b3953c5be259b","","","","","1434",""," ","key"," ","16.665999999999837","500","250","inst","","","","","","",""
"","psychophysics","127","604500","0.0-127.0","6306a238f129633597d98c9e","64de7992700b3953c5be259b","","","","","null","","null","key","null","16.66599999999993","500","250","pz","22","1","1","23","","","57"
"","psychophysics","128","607339","0.0-128.0","6306a238f129633597d98c9e","64de7992700b3953c5be259b","","","","","2838",""," ","key"," ","16.665999999999837","500","250","pz","65","1","1","57","","","54"
"","psychophysics","129","610248","0.0-129.0","6306a238f129633597d98c9e","64de7992700b3953c5be259b","","","","","2907",""," ","key"," ","16.66599999999996","500","250","pz","35","1","1","31","","","25"
"","psychophysics","130","616820","0.0-130.0","6306a238f129633597d98c9e","64de7992700b3953c5be259b","","","","","6569",""," ","key"," ","16.751030612244847","500","250","pz","28","1","1","50","","","21"
"","psychophysics","131","619269","0.0-131.0","6306a238f129633597d98c9e","64de7992700b3953c5be259b","","","","","2446",""," ","key"," ","16.66600000000023","500","250","pz","40","1","1","45","","","35"
"","psychophysics","132","622309","0.0-132.0","6306a238f129633597d98c9e","64de7992700b3953c5be259b","","","","","3037",""," ","key"," ","16.666000000000494","500","250","pz","63","1","1","56","","","58"
"","psychophysics","133","624207","0.0-133.0","6306a238f129633597d98c9e","64de7992700b3953c5be259b","","","","","1895",""," ","key"," ","16.66600000000027","500","250","pz","57","1","1","57","","","48"
"","psychophysics","134","629333","0.0-134.0","6306a238f129633597d98c9e","64de7992700b3953c5be259b","","","","","5124",""," ","key"," ","16.66599999999981","500","250","pz","37","1","1","51","","","27"
"","psychophysics","135","635300","0.0-135.0","6306a238f129633597d98c9e","64de7992700b3953c5be259b","","","","","5964",""," ","key"," ","16.665999999999965","500","250","pz","50","1","1","27","","","46"
"","psychophysics","136","637530","0.0-136.0","6306a238f129633597d98c9e","64de7992700b3953c5be259b","","","","","2228",""," ","key"," ","16.666000000000086","500","250","pz","46","1","1","40","","","37"
"","psychophysics","137","643548","0.0-137.0","6306a238f129633597d98c9e","64de7992700b3953c5be259b","","","","","6011",""," ","key"," ","16.665999999999936","500","250","pz","73","1","1","22","","","60"
"","psychophysics","138","647732","0.0-138.0","6306a238f129633597d98c9e","64de7992700b3953c5be259b","","","","","4182",""," ","key"," ","16.666","500","250","pz","64","1","1","35","","","56"
"","psychophysics","139","649978","0.0-139.0","6306a238f129633597d98c9e","64de7992700b3953c5be259b","","","","","2244",""," ","key"," ","16.665999999999848","500","250","pz","43","1","1","48","","","35"
"","psychophysics","140","656248","0.0-140.0","6306a238f129633597d98c9e","64de7992700b3953c5be259b","","","","","6263",""," ","key"," ","16.666000000000224","500","250","pz","75","1","1","22","","","60"
"","psychophysics","141","658250","0.0-141.0","6306a238f129633597d98c9e","64de7992700b3953c5be259b","","","","","2000",""," ","key"," ","16.66599999999964","500","250","pz","48","1","1","52","","","42"
"","psychophysics","142","659648","0.0-142.0","6306a238f129633597d98c9e","64de7992700b3953c5be259b","","","","","1397",""," ","key"," ","16.66599999999919","500","250","inst","","","","","","",""
"","psychophysics","143","668006","0.0-143.0","6306a238f129633597d98c9e","64de7992700b3953c5be259b","","","","","8356",""," ","key"," ","16.666","500","250","instZol1","-1.942890293094024e-16","","","-1.3","0","0",""
"","psychophysics","144","675484","0.0-144.0","6306a238f129633597d98c9e","64de7992700b3953c5be259b","","","","","7477",""," ","key"," ","16.666000000000036","500","250","instZol2","0.9000000000000006","1","","2","0","0",""
"","psychophysics","145","676502","0.0-145.0","6306a238f129633597d98c9e","64de7992700b3953c5be259b","","","","","1017",""," ","key"," ","16.66599999999938","500","250","inst","","","","","","",""
"","psychophysics","146","679105","0.0-146.0","6306a238f129633597d98c9e","64de7992700b3953c5be259b","","","","","2601",""," ","key"," ","16.66600000000063","500","250","zol","1.03","1","1","-0.43","22","21",""
"","psychophysics","147","681762","0.0-147.0","6306a238f129633597d98c9e","64de7992700b3953c5be259b","","","","","2654",""," ","key"," ","16.66599999999982","500","250","zol","1.1500000000000001","1","1","-0.75","23","5",""
"","psychophysics","148","685468","0.0-148.0","6306a238f129633597d98c9e","64de7992700b3953c5be259b","","","","","3704",""," ","key"," ","16.66600000000047","500","250","zol","0.71","1","1","0.49","-10","-23",""
"","psychophysics","149","687163","0.0-149.0","6306a238f129633597d98c9e","64de7992700b3953c5be259b","","","","","1691",""," ","key"," ","16.665999999999766","500","250","zol","1.0899999999999999","1","1","-0.59","-17","-22",""
"","psychophysics","150","689154","0.0-150.0","6306a238f129633597d98c9e","64de7992700b3953c5be259b","","","","","1987",""," ","key"," ","16.66600000000062","500","250","zol","1.12","1","1","-0.52","17","-2",""
"","psychophysics","151","691486","0.0-151.0","6306a238f129633597d98c9e","64de7992700b3953c5be259b","","","","","2329",""," ","key"," ","16.66600000000016","500","250","zol","0.9999999999999999","1","1","-0.3","21","2",""
"","psychophysics","152","695983","0.0-152.0","6306a238f129633597d98c9e","64de7992700b3953c5be259b","","","","","4494",""," ","key"," ","16.728186567164105","500","250","zol","1.3300000000000003","1","1","0.17","-9","-25",""
"","psychophysics","153","698002","0.0-153.0","6306a238f129633597d98c9e","64de7992700b3953c5be259b","","","","","2015",""," ","key"," ","16.66600000000035","500","250","zol","1.1400000000000001","1","1","-0.74","27","-29",""
"","psychophysics","154","701104","0.0-154.0","6306a238f129633597d98c9e","64de7992700b3953c5be259b","","","","","3099",""," ","key"," ","16.666000000000427","500","250","zol","0.9999999999999999","1","1","0","30","-15",""
"","psychophysics","155","703501","0.0-155.0","6306a238f129633597d98c9e","64de7992700b3953c5be259b","","","","","2393",""," ","key"," ","16.666000000000086","500","250","zol","0.6","1","1","0.3","12","-11",""
"","psychophysics","156","705257","0.0-156.0","6306a238f129633597d98c9e","64de7992700b3953c5be259b","","","","","1752",""," ","key"," ","16.665999999999677","500","250","zol","0.8799999999999999","1","1","-0.58","-5","-1",""
"","psychophysics","157","708713","0.0-157.0","6306a238f129633597d98c9e","64de7992700b3953c5be259b","","","","","3452",""," ","key"," ","16.66599999999983","500","250","zol","0.6100000000000001","1","1","-0.71","-8","-6",""
"","psychophysics","158","711532","0.0-158.0","6306a238f129633597d98c9e","64de7992700b3953c5be259b","","","","","2815",""," ","key"," ","16.66600000000021","500","250","zol","1.12","1","1","-0.42","28","28",""
"","psychophysics","159","715387","0.0-159.0","6306a238f129633597d98c9e","64de7992700b3953c5be259b","","","","","3851",""," ","key"," ","16.666000000000224","500","250","zol","0.9799999999999999","1","1","0.22","-9","-16",""
"","psychophysics","160","718150","0.0-160.0","6306a238f129633597d98c9e","64de7992700b3953c5be259b","","","","","2759",""," ","key"," ","16.666000000000086","500","250","zol","0.82","1","1","0.08","18","-2",""
"","psychophysics","161","719511","0.0-161.0","6306a238f129633597d98c9e","64de7992700b3953c5be259b","","","","","1359",""," ","key"," ","16.665999999999954","500","250","inst","","","","","","",""
"","psychophysics","162","728462","0.0-162.0","6306a238f129633597d98c9e","64de7992700b3953c5be259b","","","","","8948",""," ","key"," ","16.665999999999826","500","250","instPog0","340","2","","370","0","0","340"
"","psychophysics","163","733717","0.0-163.0","6306a238f129633597d98c9e","64de7992700b3953c5be259b","","","","","5253",""," ","key"," ","16.665999999999848","500","250","instPog1","352","2","","370","0","0","340"
"","psychophysics","164","736932","0.0-164.0","6306a238f129633597d98c9e","64de7992700b3953c5be259b","","","","","3213",""," ","key"," ","16.665999999999865","500","250","instPog2","330","2","","340","0","0","340"
"","psychophysics","165","737882","0.0-165.0","6306a238f129633597d98c9e","64de7992700b3953c5be259b","","","","","940",""," ","key"," ","16.665999999999517","500","250","inst","","","","","","",""
"","psychophysics","166","741111","0.0-166.0","6306a238f129633597d98c9e","64de7992700b3953c5be259b","","","","","3226",""," ","key"," ","16.666000000000302","500","250","pog","291","2","1","283","0","0","311"
"","psychophysics","167","746130","0.0-167.0","6306a238f129633597d98c9e","64de7992700b3953c5be259b","","","","","5017",""," ","key"," ","16.666000000000157","500","250","pog","351","2","1","395","0","0","366"
"","psychophysics","168","748550","0.0-168.0","6306a238f129633597d98c9e","64de7992700b3953c5be259b","","","","","2416",""," ","key"," ","16.665999999999865","500","250","pog","362","2","1","376","0","0","373"
"","psychophysics","169","751550","0.0-169.0","6306a238f129633597d98c9e","64de7992700b3953c5be259b","","","","","2999",""," ","key"," ","16.666000000000203","500","250","pog","348","2","1","382","0","0","357"
"","psychophysics","170","754683","0.0-170.0","6306a238f129633597d98c9e","64de7992700b3953c5be259b","","","","","3121",""," ","key"," ","16.666000000000086","500","250","pog","291","2","1","295","0","0","312"
"","psychophysics","171","758883","0.0-171.0","6306a238f129633597d98c9e","64de7992700b3953c5be259b","","","","","4197",""," ","key"," ","16.666000000000338","500","250","pog","323","2","1","361","0","0","330"
"","psychophysics","172","761040","0.0-172.0","6306a238f129633597d98c9e","64de7992700b3953c5be259b","","","","","2155",""," ","key"," ","16.666000000000167","500","250","pog","287","2","1","299","0","0","307"
"","psychophysics","173","764810","0.0-173.0","6306a238f129633597d98c9e","64de7992700b3953c5be259b","","","","","3766",""," ","key"," ","16.66600000000027","500","250","pog","326","2","1","370","0","0","343"
"","psychophysics","174","768698","0.0-174.0","6306a238f129633597d98c9e","64de7992700b3953c5be259b","","","","","3885",""," ","key"," ","16.665999999999947","500","250","pog","337","2","1","315","0","0","363"
"","psychophysics","175","773492","0.0-175.0","6306a238f129633597d98c9e","64de7992700b3953c5be259b","","","","","4792",""," ","key"," ","16.666000000000086","500","250","pog","310","2","1","348","0","0","335"
"","psychophysics","176","779380","0.0-176.0","6306a238f129633597d98c9e","64de7992700b3953c5be259b","","","","","5884",""," ","key"," ","16.665999999999993","500","250","pog","341","2","1","293","0","0","370"
"","psychophysics","177","785219","0.0-177.0","6306a238f129633597d98c9e","64de7992700b3953c5be259b","","","","","5837",""," ","key"," ","16.66599999999969","500","250","pog","298","2","1","390","0","0","315"
"","psychophysics","178","791330","0.0-178.0","6306a238f129633597d98c9e","64de7992700b3953c5be259b","","","","","6108",""," ","key"," ","16.665999999999823","500","250","pog","287","2","1","395","0","0","301"
"","psychophysics","179","794022","0.0-179.0","6306a238f129633597d98c9e","64de7992700b3953c5be259b","","","","","2689",""," ","key"," ","16.66599999999962","500","250","pog","356","2","1","388","0","0","377"
"","psychophysics","180","799531","0.0-180.0","6306a238f129633597d98c9e","64de7992700b3953c5be259b","","","","","5506",""," ","key"," ","16.666000000000086","500","250","pog","313","2","1","399","0","0","314"
"","psychophysics","181","800916","0.0-181.0","6306a238f129633597d98c9e","64de7992700b3953c5be259b","","","","","1383",""," ","key"," ","16.666000000000988","500","250","inst","","","","","","",""
"","psychophysics","182","808625","0.0-182.0","6306a238f129633597d98c9e","64de7992700b3953c5be259b","","","","","7706",""," ","key"," ","16.666000000000086","500","250","instBr3","-13","1","","40","0","0","300"
"","psychophysics","183","809780","0.0-183.0","6306a238f129633597d98c9e","64de7992700b3953c5be259b","","","","","1152",""," ","key"," ","16.66599999999915","500","250","inst","","","","","","",""
"","psychophysics","184","812297","0.0-184.0","6306a238f129633597d98c9e","64de7992700b3953c5be259b","","","","","2513",""," ","key"," ","16.66599999999938","500","250","br","-9","1","1","3","16","-11","230"
"","psychophysics","185","814033","0.0-185.0","6306a238f129633597d98c9e","64de7992700b3953c5be259b","","","","","1725",""," ","key"," ","16.665999999999983","500","250","br","-12","1","1","-6","-23","15","266"
"","psychophysics","186","817046","0.0-186.0","6306a238f129633597d98c9e","64de7992700b3953c5be259b","","","","","3010",""," ","key"," ","16.666000000000025","500","250","br","-4","1","1","8","14","23","221"
"","psychophysics","187","823087","0.0-187.0","6306a238f129633597d98c9e","64de7992700b3953c5be259b","","","","","6045",""," ","key"," ","16.66600000000017","500","250","br","-17","1","1","-29","6","1","285"
"","psychophysics","188","828741","0.0-188.0","6306a238f129633597d98c9e","64de7992700b3953c5be259b","","","","","5657",""," ","key"," ","16.66600000000002","500","250","br","-8","1","1","22","8","-11","280"
"","psychophysics","189","832361","0.0-189.0","6306a238f129633597d98c9e","64de7992700b3953c5be259b","","","","","3618",""," ","key"," ","16.665999999999986","500","250","br","-7","1","1","8","-13","3","295"
"","psychophysics","190","835975","0.0-190.0","6306a238f129633597d98c9e","64de7992700b3953c5be259b","","","","","3614",""," ","key"," ","16.666000000000135","500","250","br","-12","1","1","1","-15","-23","204"
"","psychophysics","191","838942","0.0-191.0","6306a238f129633597d98c9e","64de7992700b3953c5be259b","","","","","2966",""," ","key"," ","16.665999999999904","500","250","br","-8","1","1","11","-9","3","215"
"","psychophysics","192","843005","0.0-192.0","6306a238f129633597d98c9e","64de7992700b3953c5be259b","","","","","4061",""," ","key"," ","16.665999999999954","500","250","br","-10","1","1","26","9","-2","274"
"","psychophysics","193","846237","0.0-193.0","6306a238f129633597d98c9e","64de7992700b3953c5be259b","","","","","3230",""," ","key"," ","16.666000000000302","500","250","br","-16","1","1","11","16","-12","254"
"","psychophysics","194","848339","0.0-194.0","6306a238f129633597d98c9e","64de7992700b3953c5be259b","","","","","2099",""," ","key"," ","16.666","500","250","br","-14","1","1","-19","-1","17","294"
"","psychophysics","195","851633","0.0-195.0","6306a238f129633597d98c9e","64de7992700b3953c5be259b","","","","","3292",""," ","key"," ","16.666000000000246","500","250","br","-11","1","1","1","-12","18","289"
"","psychophysics","196","856018","0.0-196.0","6306a238f129633597d98c9e","64de7992700b3953c5be259b","","","","","4383",""," ","key"," ","16.665999999999883","500","250","br","-7","1","1","18","-9","-30","232"
"","psychophysics","197","859600","0.0-197.0","6306a238f129633597d98c9e","64de7992700b3953c5be259b","","","","","3579",""," ","key"," ","16.665999999999887","500","250","br","-15","1","1","-26","18","-9","224"
"","psychophysics","198","864603","0.0-198.0","6306a238f129633597d98c9e","64de7992700b3953c5be259b","","","","","5001",""," ","key"," ","16.666000000000263","500","250","br","-8","1","1","22","-8","-10","268"
"","psychophysics","199","866792","0.0-199.0","6306a238f129633597d98c9e","64de7992700b3953c5be259b","","","","","2188",""," ","key"," ","16.665999999999677","500","250","inst","","","","","","",""
"","psychophysics","200","876037","0.0-200.0","6306a238f129633597d98c9e","64de7992700b3953c5be259b","","","","","9232",""," ","key"," ","16.666000000000064","500","250","instEB1","31","1","","40","0","0","30"
"","psychophysics","201","881999","0.0-201.0","6306a238f129633597d98c9e","64de7992700b3953c5be259b","","","","","5960",""," ","key"," ","16.66600000000029","500","250","instEB2","35","1","","30","0","0","40"
"","psychophysics","202","889655","0.0-202.0","6306a238f129633597d98c9e","64de7992700b3953c5be259b","","","","","7653",""," ","key"," ","16.665999999999855","500","250","instEB3","37","1","","27","0","0","45"
"","psychophysics","203","900421","0.0-203.0","6306a238f129633597d98c9e","64de7992700b3953c5be259b","","","","","10764",""," ","key"," ","16.665999999999922","500","250","instEB4","25","1","","40","0","0","30"
"","psychophysics","204","901414","0.0-204.0","6306a238f129633597d98c9e","64de7992700b3953c5be259b","","","","","991",""," ","key"," ","16.665999999999904","500","250","inst","","","","","","",""
"","psychophysics","205","907368","0.0-205.0","6306a238f129633597d98c9e","64de7992700b3953c5be259b","","","","","5943",""," ","key"," ","16.665999999999727","500","250","eb","31","1","","52","0","0","37"
"","psychophysics","206","910796","0.0-206.0","6306a238f129633597d98c9e","64de7992700b3953c5be259b","","","","","3425",""," ","key"," ","16.666000000000135","500","250","eb","29","1","","41","0","0","34"
"","psychophysics","207","913705","0.0-207.0","6306a238f129633597d98c9e","64de7992700b3953c5be259b","","","","","2897",""," ","key"," ","16.66599999999996","500","250","eb","36","1","","45","0","0","43"
"","psychophysics","208","916665","0.0-208.0","6306a238f129633597d98c9e","64de7992700b3953c5be259b","","","","","2954",""," ","key"," ","16.665999999999904","500","250","eb","36","1","","29","0","0","49"
"","psychophysics","209","920609","0.0-209.0","6306a238f129633597d98c9e","64de7992700b3953c5be259b","","","","","3931",""," ","key"," ","16.665999999999904","500","250","eb","24","1","","42","0","0","27"
"","psychophysics","210","925614","0.0-210.0","6306a238f129633597d98c9e","64de7992700b3953c5be259b","","","","","5002",""," ","key"," ","16.665999999999872","500","250","eb","38","1","","52","0","0","46"
"","psychophysics","211","929377","0.0-211.0","6306a238f129633597d98c9e","64de7992700b3953c5be259b","","","","","3760",""," ","key"," ","16.665999999999897","500","250","eb","40","1","","48","0","0","42"
"","psychophysics","212","935687","0.0-212.0","6306a238f129633597d98c9e","64de7992700b3953c5be259b","","","","","6307",""," ","key"," ","16.666000000000142","500","250","eb","23","1","","53","0","0","24"
"","psychophysics","213","940066","0.0-213.0","6306a238f129633597d98c9e","64de7992700b3953c5be259b","","","","","4373",""," ","key"," ","16.665999999999883","500","250","eb","32","1","","51","0","0","36"
"","psychophysics","214","944782","0.0-214.0","6306a238f129633597d98c9e","64de7992700b3953c5be259b","","","","","4714",""," ","key"," ","16.66600000000012","500","250","eb","31","1","","46","0","0","36"
"","psychophysics","215","948521","0.0-215.0","6306a238f129633597d98c9e","64de7992700b3953c5be259b","","","","","3736",""," ","key"," ","16.666000000000178","500","250","eb","27","1","","34","0","0","30"
"","psychophysics","216","951242","0.0-216.0","6306a238f129633597d98c9e","64de7992700b3953c5be259b","","","","","2714",""," ","key"," ","16.666000000000473","500","250","eb","26","1","","31","0","0","30"
"","psychophysics","217","954947","0.0-217.0","6306a238f129633597d98c9e","64de7992700b3953c5be259b","","","","","3702",""," ","key"," ","16.66599999999994","500","250","eb","44","1","","41","0","0","53"
"","psychophysics","218","958792","0.0-218.0","6306a238f129633597d98c9e","64de7992700b3953c5be259b","","","","","3843",""," ","key"," ","16.666000000000224","500","250","eb","24","1","","43","0","0","29"
"","psychophysics","219","962006","0.0-219.0","6306a238f129633597d98c9e","64de7992700b3953c5be259b","","","","","3212",""," ","key"," ","16.665999999999865","500","250","eb","33","1","","45","0","0","41"
