"success","trial_type","trial_index","time_elapsed","internal_node_id","pid","sid","timeout","failed_images","failed_audio","failed_video","rt","stimulus","response","response_type","key_press","avg_frame_time","center_x","center_y","task","resp","version","block","start","jitterX","jitterY","parA"
"true","fullscreen","0","4808","0.0-0.0","5ea63ad9c8854764e110b128","64de62ee503ff1ad59e9e240","","","","","","","","","","","","","","","","","","","",""
"true","preload","1","5263","0.0-1.0","5ea63ad9c8854764e110b128","64de62ee503ff1ad59e9e240","false","[]","[]","[]","","","","","","","","","","","","","","","",""
"","html-button-response","2","12233","0.0-2.0","5ea63ad9c8854764e110b128","64de62ee503ff1ad59e9e240","","","","","6970","Please Make Sure Your Audio Is On.","0","","","","","","","","","","","","",""
"","psychophysics","3","22303","0.0-3.0","5ea63ad9c8854764e110b128","64de62ee503ff1ad59e9e240","","","","","10065",""," ","key"," ","32.950819672131146","896","250","","","","","","","",""
"","psychophysics","4","28558","0.0-4.0","5ea63ad9c8854764e110b128","64de62ee503ff1ad59e9e240","","","","","6252",""," ","key"," ","33.32795698924731","500","250","inst","","","","","","",""
"","psychophysics","5","34061","0.0-5.0","5ea63ad9c8854764e110b128","64de62ee503ff1ad59e9e240","","","","","5499",""," ","key"," ","33.33536585365854","500","250","sample0","","","","","","",""
"","psychophysics","6","38332","0.0-6.0","5ea63ad9c8854764e110b128","64de62ee503ff1ad59e9e240","","","","","4269",""," ","key"," ","33.338582677165356","500","250","sample1","","","","","","",""
"","psychophysics","7","57730","0.0-7.0","5ea63ad9c8854764e110b128","64de62ee503ff1ad59e9e240","","","","","19396",""," ","key"," ","33.33390705679862","500","250","sample2","100","","","","","",""
"","psychophysics","8","70303","0.0-8.0","5ea63ad9c8854764e110b128","64de62ee503ff1ad59e9e240","","","","","12571",""," ","key"," ","33.3342175066313","500","250","sample3","102","","","","","",""
"","psychophysics","9","95846","0.0-9.0","5ea63ad9c8854764e110b128","64de62ee503ff1ad59e9e240","","","","","25540",""," ","key"," ","33.333333333333336","500","250","sample4","98","","","","","",""
"","psychophysics","10","103984","0.0-10.0","5ea63ad9c8854764e110b128","64de62ee503ff1ad59e9e240","","","","","8135",""," ","key"," ","33.32921810699588","500","250","sample5","","","","","","",""
"","psychophysics","11","118845","0.0-11.0","5ea63ad9c8854764e110b128","64de62ee503ff1ad59e9e240","","","","","14858",""," ","key"," ","33.332584269662924","500","250","sample6","500","","","","","",""
"","psychophysics","12","129216","0.0-12.0","5ea63ad9c8854764e110b128","64de62ee503ff1ad59e9e240","","","","","10369",""," ","key"," ","33.33548387096774","500","250","inst","","","","","","",""
"","psychophysics","13","137227","0.0-13.0","5ea63ad9c8854764e110b128","64de62ee503ff1ad59e9e240","","","","","8008",""," ","key"," ","33.33054393305439","500","250","inst","","","","","","",""
"","psychophysics","14","146579","0.0-14.0","5ea63ad9c8854764e110b128","64de62ee503ff1ad59e9e240","","","","","9349",""," ","key"," ","33.332142857142856","500","250","inst","","","","","","",""
"","psychophysics","15","150523","0.0-15.0","5ea63ad9c8854764e110b128","64de62ee503ff1ad59e9e240","","","","","3942",""," ","key"," ","33.34188034188034","500","250","inst","","","","","","",""
"","psychophysics","16","155428","0.0-16.0","5ea63ad9c8854764e110b128","64de62ee503ff1ad59e9e240","","","","","4903",""," ","key"," ","33.342465753424655","500","250","inst","","","","","","",""
"","psychophysics","17","160787","0.0-17.0","5ea63ad9c8854764e110b128","64de62ee503ff1ad59e9e240","","","","","5357",""," ","key"," ","33.33125","500","250","instEB0","40","1","","40","0","0","40"
"","psychophysics","18","184252","0.0-18.0","5ea63ad9c8854764e110b128","64de62ee503ff1ad59e9e240","","","","","23463",""," ","key"," ","33.33428165007113","500","250","instEB1","31","1","","40","0","0","30"
"","psychophysics","19","204313","0.0-19.0","5ea63ad9c8854764e110b128","64de62ee503ff1ad59e9e240","","","","","20058",""," ","key"," ","33.33444259567388","500","250","instEB2","37","1","","30","0","0","40"
"","psychophysics","20","223307","0.0-20.0","5ea63ad9c8854764e110b128","64de62ee503ff1ad59e9e240","","","","","18991",""," ","key"," ","33.333919156414765","500","250","instEB3","42","1","","27","0","0","45"
"","psychophysics","21","238061","0.0-21.0","5ea63ad9c8854764e110b128","64de62ee503ff1ad59e9e240","","","","","14751",""," ","key"," ","33.33560090702948","500","250","instEB4","29","1","","40","0","0","30"
"","psychophysics","22","245540","0.0-22.0","5ea63ad9c8854764e110b128","64de62ee503ff1ad59e9e240","","","","","7477",""," ","key"," ","33.330357142857146","500","250","inst","","","","","","",""
"","psychophysics","23","251359","0.0-23.0","5ea63ad9c8854764e110b128","64de62ee503ff1ad59e9e240","","","","","5816",""," ","key"," ","33.335260115606935","500","250","eb","37","1","","29","0","0","41"
"","psychophysics","24","259201","0.0-24.0","5ea63ad9c8854764e110b128","64de62ee503ff1ad59e9e240","","","","","7839",""," ","key"," ","33.18723404255319","500","250","eb","25","1","","30","0","0","28"
"","psychophysics","25","267071","0.0-25.0","5ea63ad9c8854764e110b128","64de62ee503ff1ad59e9e240","","","","","7866",""," ","key"," ","33.04201680672269","500","250","eb","40","1","","35","0","0","45"
"","psychophysics","26","275075","0.0-26.0","5ea63ad9c8854764e110b128","64de62ee503ff1ad59e9e240","","","","","null","","null","key","null","33.170124481327804","500","250","eb","23","1","","45","0","0","24"
"","psychophysics","27","275332","0.0-27.0","5ea63ad9c8854764e110b128","64de62ee503ff1ad59e9e240","","","","","240",""," ","key"," ","31.285714285714285","500","250","eb","37","1","","37","0","0","49"
"","psychophysics","28","280008","0.0-28.0","5ea63ad9c8854764e110b128","64de62ee503ff1ad59e9e240","","","","","4673",""," ","key"," ","33.32857142857143","500","250","eb","37","1","","44","0","0","42"
"","psychophysics","29","284112","0.0-29.0","5ea63ad9c8854764e110b128","64de62ee503ff1ad59e9e240","","","","","4102",""," ","key"," ","33.32786885245902","500","250","eb","33","1","","43","0","0","32"
"","psychophysics","30","289055","0.0-30.0","5ea63ad9c8854764e110b128","64de62ee503ff1ad59e9e240","","","","","4939",""," ","key"," ","33.333333333333336","500","250","eb","41","1","","51","0","0","41"
"","psychophysics","31","293502","0.0-31.0","5ea63ad9c8854764e110b128","64de62ee503ff1ad59e9e240","","","","","4444",""," ","key"," ","33.333333333333336","500","250","eb","31","1","","35","0","0","32"
"","psychophysics","32","300015","0.0-32.0","5ea63ad9c8854764e110b128","64de62ee503ff1ad59e9e240","","","","","6510",""," ","key"," ","33.32820512820513","500","250","eb","42","1","","26","0","0","46"
"","psychophysics","33","307656","0.0-33.0","5ea63ad9c8854764e110b128","64de62ee503ff1ad59e9e240","","","","","7638",""," ","key"," ","33.22707423580786","500","250","eb","23","1","","45","0","0","25"
"","psychophysics","34","311285","0.0-34.0","5ea63ad9c8854764e110b128","64de62ee503ff1ad59e9e240","","","","","3616",""," ","key"," ","33.03669724770642","500","250","eb","24","1","","24","0","0","28"
"","psychophysics","35","319289","0.0-35.0","5ea63ad9c8854764e110b128","64de62ee503ff1ad59e9e240","","","","","null","","null","key","null","33.19166666666667","500","250","eb","47","1","","41","0","0","50"
"","psychophysics","36","325683","0.0-36.0","5ea63ad9c8854764e110b128","64de62ee503ff1ad59e9e240","","","","","6390",""," ","key"," ","33.208333333333336","500","250","eb","44","1","","32","0","0","49"
"","psychophysics","37","333686","0.0-37.0","5ea63ad9c8854764e110b128","64de62ee503ff1ad59e9e240","","","","","null","","null","key","null","33.19166666666667","500","250","eb","51","1","","31","0","0","54"
"","psychophysics","38","339864","0.0-38.0","5ea63ad9c8854764e110b128","64de62ee503ff1ad59e9e240","","","","","6159",""," ","key"," ","33.1945945945946","500","250","inst","","","","","","",""
"","psychophysics","39","344663","0.0-39.0","5ea63ad9c8854764e110b128","64de62ee503ff1ad59e9e240","","","","","4796",""," ","key"," ","33.32867132867133","500","250","instPzPre","50","0","","50","","","50"
"","psychophysics","40","352465","0.0-40.0","5ea63ad9c8854764e110b128","64de62ee503ff1ad59e9e240","","","","","7799",""," ","key"," ","33.33476394849785","500","250","instPz0","50","1","","50","","","50"
"","psychophysics","41","366578","0.0-41.0","5ea63ad9c8854764e110b128","64de62ee503ff1ad59e9e240","","","","","14111",""," ","key"," ","33.335697399527184","500","250","instPz1","49","1","","25","","","50"
"","psychophysics","42","378607","0.0-42.0","5ea63ad9c8854764e110b128","64de62ee503ff1ad59e9e240","","","","","12026",""," ","key"," ","33.330555555555556","500","250","instPz2","20","1","","35","","","20"
"","psychophysics","43","401866","0.0-43.0","5ea63ad9c8854764e110b128","64de62ee503ff1ad59e9e240","","","","","23256",""," ","key"," ","33.33477011494253","500","250","instPz3","100","1","","100","","","30"
"","psychophysics","44","418739","0.0-44.0","5ea63ad9c8854764e110b128","64de62ee503ff1ad59e9e240","","","","","16869",""," ","key"," ","33.33201581027668","500","250","instPz4","71","1","","100","","","30"
"","psychophysics","45","422551","0.0-45.0","5ea63ad9c8854764e110b128","64de62ee503ff1ad59e9e240","","","","","3810",""," ","key"," ","33.336283185840706","500","250","inst","","","","","","",""
"","psychophysics","46","427888","0.0-46.0","5ea63ad9c8854764e110b128","64de62ee503ff1ad59e9e240","","","","","5334",""," ","key"," ","33.339622641509436","500","250","pz","53","1","0","45","","","23"
"","psychophysics","47","435890","0.0-47.0","5ea63ad9c8854764e110b128","64de62ee503ff1ad59e9e240","","","","","null","","null","key","null","33.12033195020747","500","250","pz","32","1","0","23","","","38"
"","psychophysics","48","443893","0.0-48.0","5ea63ad9c8854764e110b128","64de62ee503ff1ad59e9e240","","","","","null","","null","key","null","33.2","500","250","pz","29","1","0","21","","","29"
"","psychophysics","49","451903","0.0-49.0","5ea63ad9c8854764e110b128","64de62ee503ff1ad59e9e240","","","","","null","","null","key","null","33.058091286307054","500","250","pz","32","1","0","28","","","45"
"","psychophysics","50","454452","0.0-50.0","5ea63ad9c8854764e110b128","64de62ee503ff1ad59e9e240","","","","","2544",""," ","key"," ","32.84415584415584","500","250","pz","59","1","0","59","","","41"
"","psychophysics","51","462456","0.0-51.0","5ea63ad9c8854764e110b128","64de62ee503ff1ad59e9e240","","","","","null","","null","key","null","33.19583333333333","500","250","pz","57","1","0","50","","","41"
"","psychophysics","52","470459","0.0-52.0","5ea63ad9c8854764e110b128","64de62ee503ff1ad59e9e240","","","","","null","","null","key","null","33.09958506224066","500","250","pz","56","1","0","36","","","49"
"","psychophysics","53","471293","0.0-53.0","5ea63ad9c8854764e110b128","64de62ee503ff1ad59e9e240","","","","","829",""," ","key"," ","32.28","500","250","pz","35","1","0","35","","","24"
"","psychophysics","54","479297","0.0-54.0","5ea63ad9c8854764e110b128","64de62ee503ff1ad59e9e240","","","","","null","","null","key","null","33.19166666666667","500","250","pz","39","1","0","29","","","44"
"","psychophysics","55","481228","0.0-55.0","5ea63ad9c8854764e110b128","64de62ee503ff1ad59e9e240","","","","","1919",""," ","key"," ","32.810344827586206","500","250","pz","59","1","0","58","","","45"
"","psychophysics","56","489233","0.0-56.0","5ea63ad9c8854764e110b128","64de62ee503ff1ad59e9e240","","","","","null","","null","key","null","33.1875","500","250","pz","65","1","0","48","","","57"
"","psychophysics","57","497236","0.0-57.0","5ea63ad9c8854764e110b128","64de62ee503ff1ad59e9e240","","","","","null","","null","key","null","33.06224066390042","500","250","pz","41","1","0","22","","","48"
"","psychophysics","58","505242","0.0-58.0","5ea63ad9c8854764e110b128","64de62ee503ff1ad59e9e240","","","","","null","","null","key","null","33.03719008264463","500","250","pz","77","1","0","56","","","50"
"","psychophysics","59","513244","0.0-59.0","5ea63ad9c8854764e110b128","64de62ee503ff1ad59e9e240","","","","","null","","null","key","null","33.16597510373444","500","250","pz","75","1","0","59","","","36"
"","psychophysics","60","521246","0.0-60.0","5ea63ad9c8854764e110b128","64de62ee503ff1ad59e9e240","","","","","null","","null","key","null","33.15767634854772","500","250","pz","70","1","0","41","","","53"
"","psychophysics","61","524079","0.0-61.0","5ea63ad9c8854764e110b128","64de62ee503ff1ad59e9e240","","","","","2815",""," ","key"," ","33.11764705882353","500","250","inst","","","","","","",""
"","psychophysics","62","528856","0.0-62.0","5ea63ad9c8854764e110b128","64de62ee503ff1ad59e9e240","","","","","4774",""," ","key"," ","33.32394366197183","500","250","instBr0","0","","","0","0","0","300"
"","psychophysics","63","541910","0.0-63.0","5ea63ad9c8854764e110b128","64de62ee503ff1ad59e9e240","","","","","13053",""," ","key"," ","33.332480818414325","500","250","instBr1","-8","","","-40","0","0","300"
"","psychophysics","64","559178","0.0-64.0","5ea63ad9c8854764e110b128","64de62ee503ff1ad59e9e240","","","","","17265",""," ","key"," ","33.332688588007734","500","250","instBr3","19","2","","40","0","0","300"
"","psychophysics","65","562493","0.0-65.0","5ea63ad9c8854764e110b128","64de62ee503ff1ad59e9e240","","","","","3312",""," ","key"," ","33.326530612244895","500","250","inst","","","","","","",""
"","psychophysics","66","569020","0.0-66.0","5ea63ad9c8854764e110b128","64de62ee503ff1ad59e9e240","","","","","6524",""," ","key"," ","33.32820512820513","500","250","br","16","2","0","-8","5","13","200"
"","psychophysics","67","573866","0.0-67.0","5ea63ad9c8854764e110b128","64de62ee503ff1ad59e9e240","","","","","4843",""," ","key"," ","33.333333333333336","500","250","br","12","2","0","-12","-24","-19","209"
"","psychophysics","68","580362","0.0-68.0","5ea63ad9c8854764e110b128","64de62ee503ff1ad59e9e240","","","","","6493",""," ","key"," ","33.329896907216494","500","250","br","15","2","0","29","25","-25","217"
"","psychophysics","69","588364","0.0-69.0","5ea63ad9c8854764e110b128","64de62ee503ff1ad59e9e240","","","","","null","","null","key","null","33.19166666666667","500","250","br","19","2","0","-26","30","24","294"
"","psychophysics","70","588759","0.0-70.0","5ea63ad9c8854764e110b128","64de62ee503ff1ad59e9e240","","","","","391",""," ","key"," ","30.833333333333332","500","250","br","-18","2","0","-18","-7","-1","299"
"","psychophysics","71","592808","0.0-71.0","5ea63ad9c8854764e110b128","64de62ee503ff1ad59e9e240","","","","","4046",""," ","key"," ","33.33057851239669","500","250","br","24","2","0","10","-28","-23","238"
"","psychophysics","72","600466","0.0-72.0","5ea63ad9c8854764e110b128","64de62ee503ff1ad59e9e240","","","","","7655",""," ","key"," ","33.209606986899566","500","250","br","19","2","0","-22","-29","16","271"
"","psychophysics","73","605863","0.0-73.0","5ea63ad9c8854764e110b128","64de62ee503ff1ad59e9e240","","","","","5393",""," ","key"," ","33.135802469135804","500","250","br","19","2","0","-13","29","-15","292"
"","psychophysics","74","611282","0.0-74.0","5ea63ad9c8854764e110b128","64de62ee503ff1ad59e9e240","","","","","5417",""," ","key"," ","33.333333333333336","500","250","br","9","2","0","-24","-18","20","287"
"","psychophysics","75","615428","0.0-75.0","5ea63ad9c8854764e110b128","64de62ee503ff1ad59e9e240","","","","","4141",""," ","key"," ","33.34146341463415","500","250","br","20","2","0","1","-18","19","291"
"","psychophysics","76","619900","0.0-76.0","5ea63ad9c8854764e110b128","64de62ee503ff1ad59e9e240","","","","","4469",""," ","key"," ","33.338345864661655","500","250","br","10","2","0","-12","25","-30","200"
"","psychophysics","77","624951","0.0-77.0","5ea63ad9c8854764e110b128","64de62ee503ff1ad59e9e240","","","","","5048",""," ","key"," ","33.33774834437086","500","250","br","14","2","0","8","18","-18","276"
"","psychophysics","78","631682","0.0-78.0","5ea63ad9c8854764e110b128","64de62ee503ff1ad59e9e240","","","","","6730",""," ","key"," ","33.333333333333336","500","250","br","16","2","0","-14","-26","-9","242"
"","psychophysics","79","635896","0.0-79.0","5ea63ad9c8854764e110b128","64de62ee503ff1ad59e9e240","","","","","4210",""," ","key"," ","33.344","500","250","br","18","2","0","2","23","-23","283"
"","psychophysics","80","642379","0.0-80.0","5ea63ad9c8854764e110b128","64de62ee503ff1ad59e9e240","","","","","6480",""," ","key"," ","33.33505154639175","500","250","br","11","2","0","-29","29","-26","285"
"","psychophysics","81","645972","0.0-81.0","5ea63ad9c8854764e110b128","64de62ee503ff1ad59e9e240","","","","","3591",""," ","key"," ","33.33644859813084","500","250","inst","","","","","","",""
"","psychophysics","82","676106","0.0-82.0","5ea63ad9c8854764e110b128","64de62ee503ff1ad59e9e240","","","","","30131",""," ","key"," ","33.333333333333336","500","250","instPog0","160","1","","190","0","0","160"
"","psychophysics","83","684231","0.0-83.0","5ea63ad9c8854764e110b128","64de62ee503ff1ad59e9e240","","","","","8123",""," ","key"," ","33.33471074380165","500","250","instPog1","176","1","","190","0","0","160"
"","psychophysics","84","699921","0.0-84.0","5ea63ad9c8854764e110b128","64de62ee503ff1ad59e9e240","","","","","15687",""," ","key"," ","33.33404255319149","500","250","instPog2","186","1","","160","0","0","160"
"","psychophysics","85","703132","0.0-85.0","5ea63ad9c8854764e110b128","64de62ee503ff1ad59e9e240","","","","","3209",""," ","key"," ","33.33684210526316","500","250","inst","","","","","","",""
"","psychophysics","86","710592","0.0-86.0","5ea63ad9c8854764e110b128","64de62ee503ff1ad59e9e240","","","","","7457",""," ","key"," ","33.336322869955154","500","250","pog","235","1","0","163","0","0","199"
"","psychophysics","87","718594","0.0-87.0","5ea63ad9c8854764e110b128","64de62ee503ff1ad59e9e240","","","","","null","","null","key","null","33.1875","500","250","pog","207","1","0","143","0","0","173"
"","psychophysics","88","718670","0.0-88.0","5ea63ad9c8854764e110b128","64de62ee503ff1ad59e9e240","","","","","59",""," ","key"," ","18.5","500","250","pog","211","1","0","211","0","0","197"
"","psychophysics","89","725470","0.0-89.0","5ea63ad9c8854764e110b128","64de62ee503ff1ad59e9e240","","","","","6798",""," ","key"," ","33.330049261083744","500","250","pog","174","1","0","152","0","0","141"
"","psychophysics","90","731981","0.0-90.0","5ea63ad9c8854764e110b128","64de62ee503ff1ad59e9e240","","","","","6506",""," ","key"," ","33.31794871794872","500","250","pog","181","1","0","125","0","0","145"
"","psychophysics","91","739983","0.0-91.0","5ea63ad9c8854764e110b128","64de62ee503ff1ad59e9e240","","","","","null","","null","key","null","33.19583333333333","500","250","pog","238","1","0","132","0","0","195"
"","psychophysics","92","746468","0.0-92.0","5ea63ad9c8854764e110b128","64de62ee503ff1ad59e9e240","","","","","6481",""," ","key"," ","33.25257731958763","500","250","pog","194","1","0","168","0","0","162"
"","psychophysics","93","751855","0.0-93.0","5ea63ad9c8854764e110b128","64de62ee503ff1ad59e9e240","","","","","5385",""," ","key"," ","33.32919254658385","500","250","pog","184","1","0","188","0","0","153"
"","psychophysics","94","757690","0.0-94.0","5ea63ad9c8854764e110b128","64de62ee503ff1ad59e9e240","","","","","5831",""," ","key"," ","33.333333333333336","500","250","pog","194","1","0","176","0","0","159"
"","psychophysics","95","763508","0.0-95.0","5ea63ad9c8854764e110b128","64de62ee503ff1ad59e9e240","","","","","5815",""," ","key"," ","33.333333333333336","500","250","pog","233","1","0","165","0","0","192"
"","psychophysics","96","771510","0.0-96.0","5ea63ad9c8854764e110b128","64de62ee503ff1ad59e9e240","","","","","null","","null","key","null","33.19166666666667","500","250","pog","169","1","0","135","0","0","134"
"","psychophysics","97","777232","0.0-97.0","5ea63ad9c8854764e110b128","64de62ee503ff1ad59e9e240","","","","","5719",""," ","key"," ","33.292397660818715","500","250","pog","182","1","0","104","0","0","148"
"","psychophysics","98","785236","0.0-98.0","5ea63ad9c8854764e110b128","64de62ee503ff1ad59e9e240","","","","","null","","null","key","null","33.2","500","250","pog","198","1","0","198","0","0","165"
"","psychophysics","99","790579","0.0-99.0","5ea63ad9c8854764e110b128","64de62ee503ff1ad59e9e240","","","","","5326",""," ","key"," ","33.12422360248447","500","250","pog","208","1","0","142","0","0","172"
"","psychophysics","100","795224","0.0-100.0","5ea63ad9c8854764e110b128","64de62ee503ff1ad59e9e240","","","","","4642",""," ","key"," ","33.333333333333336","500","250","pog","160","1","0","116","0","0","124"
"","psychophysics","101","798162","0.0-101.0","5ea63ad9c8854764e110b128","64de62ee503ff1ad59e9e240","","","","","2937",""," ","key"," ","33.333333333333336","500","250","inst","","","","","","",""
"","psychophysics","102","803713","0.0-102.0","5ea63ad9c8854764e110b128","64de62ee503ff1ad59e9e240","","","","","5546",""," ","key"," ","33.325301204819276","500","250","instZol0","0","","","0","0","0",""
"","psychophysics","103","829530","0.0-103.0","5ea63ad9c8854764e110b128","64de62ee503ff1ad59e9e240","","","","","25815",""," ","key"," ","33.33376455368693","500","250","instZol1","-0.19999999999999998","","","-1.3","0","0",""
"","psychophysics","104","849010","0.0-104.0","5ea63ad9c8854764e110b128","64de62ee503ff1ad59e9e240","","","","","19478",""," ","key"," ","33.332191780821915","500","250","instZol2","1.300000000000001","1","","2","0","0",""
"","psychophysics","105","851401","0.0-105.0","5ea63ad9c8854764e110b128","64de62ee503ff1ad59e9e240","","","","","2388",""," ","key"," ","33.32857142857143","500","250","inst","","","","","","",""
"","psychophysics","106","859404","0.0-106.0","5ea63ad9c8854764e110b128","64de62ee503ff1ad59e9e240","","","","","null","","null","key","null","33.19166666666667","500","250","zol","0.94","1","0","0.16","0","-14",""
"","psychophysics","107","859675","0.0-107.0","5ea63ad9c8854764e110b128","64de62ee503ff1ad59e9e240","","","","","266",""," ","key"," ","29.333333333333332","500","250","zol","-0.11","1","0","0.11","-10","22",""
"","psychophysics","108","867677","0.0-108.0","5ea63ad9c8854764e110b128","64de62ee503ff1ad59e9e240","","","","","null","","null","key","null","33.19583333333333","500","250","zol","1.7700000000000005","1","0","0.13","-18","4",""
"","psychophysics","109","875683","0.0-109.0","5ea63ad9c8854764e110b128","64de62ee503ff1ad59e9e240","","","","","null","","null","key","null","33.14522821576764","500","250","zol","1.6600000000000006","1","0","-0.46","-5","-3",""
"","psychophysics","110","882174","0.0-110.0","5ea63ad9c8854764e110b128","64de62ee503ff1ad59e9e240","","","","","6488",""," ","key"," ","33.261538461538464","500","250","zol","1.2","1","0","0.2","-5","0",""
"","psychophysics","111","888178","0.0-111.0","5ea63ad9c8854764e110b128","64de62ee503ff1ad59e9e240","","","","","6000",""," ","key"," ","33.33519553072626","500","250","zol","1.0799999999999998","1","0","-0.38","26","-24",""
"","psychophysics","112","894229","0.0-112.0","5ea63ad9c8854764e110b128","64de62ee503ff1ad59e9e240","","","","","6047",""," ","key"," ","33.333333333333336","500","250","zol","1.6700000000000004","1","0","0.23","2","-12",""
"","psychophysics","113","900141","0.0-113.0","5ea63ad9c8854764e110b128","64de62ee503ff1ad59e9e240","","","","","5909",""," ","key"," ","33.333333333333336","500","250","zol","0.95","1","0","0.35","28","-8",""
"","psychophysics","114","905443","0.0-114.0","5ea63ad9c8854764e110b128","64de62ee503ff1ad59e9e240","","","","","5298",""," ","key"," ","33.322784810126585","500","250","zol","1.5400000000000003","1","0","-0.24","-27","-2",""
"","psychophysics","115","910622","0.0-115.0","5ea63ad9c8854764e110b128","64de62ee503ff1ad59e9e240","","","","","5176",""," ","key"," ","33.33116883116883","500","250","zol","1.3100000000000003","1","0","-0.11","5","-28",""
"","psychophysics","116","915542","0.0-116.0","5ea63ad9c8854764e110b128","64de62ee503ff1ad59e9e240","","","","","4915",""," ","key"," ","33.326530612244895","500","250","zol","1.27","1","0","-0.37","10","14",""
"","psychophysics","117","920199","0.0-117.0","5ea63ad9c8854764e110b128","64de62ee503ff1ad59e9e240","","","","","4653",""," ","key"," ","33.333333333333336","500","250","zol","1.4300000000000004","1","0","0.07","-1","-17",""
"","psychophysics","118","924476","0.0-118.0","5ea63ad9c8854764e110b128","64de62ee503ff1ad59e9e240","","","","","4274",""," ","key"," ","33.328125","500","250","zol","1.28","1","0","0.72","-26","-21",""
"","psychophysics","119","929026","0.0-119.0","5ea63ad9c8854764e110b128","64de62ee503ff1ad59e9e240","","","","","4546",""," ","key"," ","33.333333333333336","500","250","zol","1.4000000000000001","1","0","-0.5","19","6",""
"","psychophysics","120","934694","0.0-120.0","5ea63ad9c8854764e110b128","64de62ee503ff1ad59e9e240","","","","","5666",""," ","key"," ","33.33136094674556","500","250","zol","1.3","1","0","0","23","-29",""
"","psychophysics","121","937278","0.0-121.0","5ea63ad9c8854764e110b128","64de62ee503ff1ad59e9e240","","","","","2582",""," ","key"," ","33.33766233766234","500","250","inst","","","","","","",""
"","psychophysics","122","949156","0.0-122.0","5ea63ad9c8854764e110b128","64de62ee503ff1ad59e9e240","","","","","11875",""," ","key"," ","33.33802816901409","500","250","instZol1","-0.19999999999999998","","","-1.3","0","0",""
"","psychophysics","123","971734","0.0-123.0","5ea63ad9c8854764e110b128","64de62ee503ff1ad59e9e240","","","","","22574",""," ","key"," ","33.332840236686394","500","250","instZol2","-0.8999999999999991","2","","2","0","0",""
"","psychophysics","124","973537","0.0-124.0","5ea63ad9c8854764e110b128","64de62ee503ff1ad59e9e240","","","","","1800",""," ","key"," ","33.339622641509436","500","250","inst","","","","","","",""
"","psychophysics","125","981540","0.0-125.0","5ea63ad9c8854764e110b128","64de62ee503ff1ad59e9e240","","","","","null","","null","key","null","33.190871369294605","500","250","zol","-1.8300000000000007","2","1","-0.07","-16","17",""
"","psychophysics","126","989544","0.0-126.0","5ea63ad9c8854764e110b128","64de62ee503ff1ad59e9e240","","","","","null","","null","key","null","33.17427385892116","500","250","zol","-0.94","2","1","0.14","-16","8",""
"","psychophysics","127","997548","0.0-127.0","5ea63ad9c8854764e110b128","64de62ee503ff1ad59e9e240","","","","","null","","null","key","null","33.16182572614108","500","250","zol","-2.6600000000000015","2","1","-0.44","13","27",""
"","psychophysics","128","1005504","0.0-128.0","5ea63ad9c8854764e110b128","64de62ee503ff1ad59e9e240","","","","","7940",""," ","key"," ","33.13389121338912","500","250","zol","-1.5500000000000005","2","1","-0.05","4","24",""
"","psychophysics","129","1008345","0.0-129.0","5ea63ad9c8854764e110b128","64de62ee503ff1ad59e9e240","","","","","2837",""," ","key"," ","32.93023255813954","500","250","zol","-1.4000000000000001","2","1","0.7","-20","25",""
"","psychophysics","130","1012685","0.0-130.0","5ea63ad9c8854764e110b128","64de62ee503ff1ad59e9e240","","","","","4336",""," ","key"," ","33.333333333333336","500","250","zol","-1.5100000000000005","2","1","0.01","-26","-12",""
"","psychophysics","131","1019286","0.0-131.0","5ea63ad9c8854764e110b128","64de62ee503ff1ad59e9e240","","","","","6596",""," ","key"," ","33.33502538071066","500","250","zol","-1.4100000000000004","2","1","0.51","-13","-12",""
"","psychophysics","132","1027288","0.0-132.0","5ea63ad9c8854764e110b128","64de62ee503ff1ad59e9e240","","","","","null","","null","key","null","33.19166666666667","500","250","zol","-1.6600000000000004","2","1","0.36","-26","25",""
"","psychophysics","133","1032408","0.0-133.0","5ea63ad9c8854764e110b128","64de62ee503ff1ad59e9e240","","","","","5115",""," ","key"," ","33.20779220779221","500","250","zol","-1.7100000000000006","2","1","0.11","11","10",""
"","psychophysics","134","1038069","0.0-134.0","5ea63ad9c8854764e110b128","64de62ee503ff1ad59e9e240","","","","","5658",""," ","key"," ","33.339285714285715","500","250","zol","-1.8600000000000005","2","1","0.16","3","19",""
"","psychophysics","135","1044707","0.0-135.0","5ea63ad9c8854764e110b128","64de62ee503ff1ad59e9e240","","","","","6634",""," ","key"," ","33.33165829145729","500","250","zol","-1.18","2","1","-0.62","24","-2",""
"","psychophysics","136","1049998","0.0-136.0","5ea63ad9c8854764e110b128","64de62ee503ff1ad59e9e240","","","","","5287",""," ","key"," ","33.3312101910828","500","250","zol","-1.9800000000000006","2","1","0.48","-3","-18",""
"","psychophysics","137","1054698","0.0-137.0","5ea63ad9c8854764e110b128","64de62ee503ff1ad59e9e240","","","","","4695",""," ","key"," ","33.33571428571429","500","250","zol","-1.4600000000000004","2","1","0.46","1","7",""
"","psychophysics","138","1059539","0.0-138.0","5ea63ad9c8854764e110b128","64de62ee503ff1ad59e9e240","","","","","4839",""," ","key"," ","33.333333333333336","500","250","zol","-1.6800000000000004","2","1","0.28","1","21",""
"","psychophysics","139","1065029","0.0-139.0","5ea63ad9c8854764e110b128","64de62ee503ff1ad59e9e240","","","","","5485",""," ","key"," ","33.31707317073171","500","250","zol","-1.8000000000000005","2","1","0.3","-15","3",""
"","psychophysics","140","1068556","0.0-140.0","5ea63ad9c8854764e110b128","64de62ee503ff1ad59e9e240","","","","","3524",""," ","key"," ","33.333333333333336","500","250","inst","","","","","","",""
"","psychophysics","141","1086008","0.0-141.0","5ea63ad9c8854764e110b128","64de62ee503ff1ad59e9e240","","","","","17450",""," ","key"," ","33.330783938814534","500","250","instPz1","42","2","","25","","","50"
"","psychophysics","142","1093968","0.0-142.0","5ea63ad9c8854764e110b128","64de62ee503ff1ad59e9e240","","","","","7957",""," ","key"," ","33.333333333333336","500","250","instPz2","29","2","","20","","","35"
"","psychophysics","143","1105880","0.0-143.0","5ea63ad9c8854764e110b128","64de62ee503ff1ad59e9e240","","","","","11907",""," ","key"," ","33.333333333333336","500","250","instPz3","40","2","","30","","","100"
"","psychophysics","144","1118919","0.0-144.0","5ea63ad9c8854764e110b128","64de62ee503ff1ad59e9e240","","","","","13037",""," ","key"," ","33.33589743589744","500","250","instPz4","44","2","","30","","","100"
"","psychophysics","145","1121023","0.0-145.0","5ea63ad9c8854764e110b128","64de62ee503ff1ad59e9e240","","","","","2101",""," ","key"," ","33.33870967741935","500","250","inst","","","","","","",""
"","psychophysics","146","1129025","0.0-146.0","5ea63ad9c8854764e110b128","64de62ee503ff1ad59e9e240","","","","","null","","null","key","null","33.19166666666667","500","250","pz","31","2","1","56","","","50"
"","psychophysics","147","1134846","0.0-147.0","5ea63ad9c8854764e110b128","64de62ee503ff1ad59e9e240","","","","","5804",""," ","key"," ","33.2","500","250","pz","25","2","1","21","","","51"
"","psychophysics","148","1141539","0.0-148.0","5ea63ad9c8854764e110b128","64de62ee503ff1ad59e9e240","","","","","6691",""," ","key"," ","33.33165829145729","500","250","pz","26","2","1","43","","","41"
"","psychophysics","149","1147409","0.0-149.0","5ea63ad9c8854764e110b128","64de62ee503ff1ad59e9e240","","","","","5867",""," ","key"," ","33.32954545454545","500","250","pz","20","2","1","35","","","24"
"","psychophysics","150","1155412","0.0-150.0","5ea63ad9c8854764e110b128","64de62ee503ff1ad59e9e240","","","","","null","","null","key","null","33.1875","500","250","pz","24","2","1","60","","","45"
"","psychophysics","151","1162346","0.0-151.0","5ea63ad9c8854764e110b128","64de62ee503ff1ad59e9e240","","","","","6930",""," ","key"," ","33.29807692307692","500","250","pz","20","2","1","57","","","32"
"","psychophysics","152","1169568","0.0-152.0","5ea63ad9c8854764e110b128","64de62ee503ff1ad59e9e240","","","","","7217",""," ","key"," ","33.334883720930236","500","250","pz","25","2","1","56","","","46"
"","psychophysics","153","1175359","0.0-153.0","5ea63ad9c8854764e110b128","64de62ee503ff1ad59e9e240","","","","","5789",""," ","key"," ","33.335260115606935","500","250","pz","17","2","1","39","","","27"
"","psychophysics","154","1179694","0.0-154.0","5ea63ad9c8854764e110b128","64de62ee503ff1ad59e9e240","","","","","4332",""," ","key"," ","33.34108527131783","500","250","pz","21","2","1","40","","","31"
"","psychophysics","155","1184288","0.0-155.0","5ea63ad9c8854764e110b128","64de62ee503ff1ad59e9e240","","","","","4591",""," ","key"," ","33.32846715328467","500","250","pz","16","2","1","20","","","28"
"","psychophysics","156","1188680","0.0-156.0","5ea63ad9c8854764e110b128","64de62ee503ff1ad59e9e240","","","","","4387",""," ","key"," ","33.32824427480916","500","250","pz","22","2","1","33","","","42"
"","psychophysics","157","1192328","0.0-157.0","5ea63ad9c8854764e110b128","64de62ee503ff1ad59e9e240","","","","","3644",""," ","key"," ","33.333333333333336","500","250","pz","12","2","1","21","","","20"
"","psychophysics","158","1195660","0.0-158.0","5ea63ad9c8854764e110b128","64de62ee503ff1ad59e9e240","","","","","3329",""," ","key"," ","33.333333333333336","500","250","pz","19","2","1","28","","","37"
"","psychophysics","159","1202140","0.0-159.0","5ea63ad9c8854764e110b128","64de62ee503ff1ad59e9e240","","","","","6478",""," ","key"," ","33.33678756476684","500","250","pz","14","2","1","33","","","25"
"","psychophysics","160","1209143","0.0-160.0","5ea63ad9c8854764e110b128","64de62ee503ff1ad59e9e240","","","","","6999",""," ","key"," ","33.319047619047616","500","250","pz","13","2","1","45","","","25"
"","psychophysics","161","1211406","0.0-161.0","5ea63ad9c8854764e110b128","64de62ee503ff1ad59e9e240","","","","","2262",""," ","key"," ","33.333333333333336","500","250","inst","","","","","","",""
"","psychophysics","162","1223180","0.0-162.0","5ea63ad9c8854764e110b128","64de62ee503ff1ad59e9e240","","","","","11771",""," ","key"," ","33.331444759206796","500","250","instBr3","-19","1","","40","0","0","300"
"","psychophysics","163","1226494","0.0-163.0","5ea63ad9c8854764e110b128","64de62ee503ff1ad59e9e240","","","","","3312",""," ","key"," ","33.33673469387755","500","250","inst","","","","","","",""
"","psychophysics","164","1231129","0.0-164.0","5ea63ad9c8854764e110b128","64de62ee503ff1ad59e9e240","","","","","4631",""," ","key"," ","33.34057971014493","500","250","br","-15","1","1","-5","-18","22","279"
"","psychophysics","165","1234260","0.0-165.0","5ea63ad9c8854764e110b128","64de62ee503ff1ad59e9e240","","","","","3127",""," ","key"," ","33.333333333333336","500","250","br","-19","1","1","-11","-8","9","204"
"","psychophysics","166","1240282","0.0-166.0","5ea63ad9c8854764e110b128","64de62ee503ff1ad59e9e240","","","","","6019",""," ","key"," ","33.333333333333336","500","250","br","-18","1","1","-12","2","-7","234"
"","psychophysics","167","1248285","0.0-167.0","5ea63ad9c8854764e110b128","64de62ee503ff1ad59e9e240","","","","","null","","null","key","null","33.19166666666667","500","250","br","-19","1","1","23","6","9","235"
"","psychophysics","168","1248546","0.0-168.0","5ea63ad9c8854764e110b128","64de62ee503ff1ad59e9e240","","","","","246",""," ","key"," ","31.5","500","250","br","13","1","1","13","21","22","258"
"","psychophysics","169","1252070","0.0-169.0","5ea63ad9c8854764e110b128","64de62ee503ff1ad59e9e240","","","","","3521",""," ","key"," ","33.32692307692308","500","250","br","-15","1","1","3","19","2","244"
"","psychophysics","170","1257754","0.0-170.0","5ea63ad9c8854764e110b128","64de62ee503ff1ad59e9e240","","","","","5682",""," ","key"," ","33.32941176470588","500","250","br","-20","1","1","10","-6","-2","245"
"","psychophysics","171","1263582","0.0-171.0","5ea63ad9c8854764e110b128","64de62ee503ff1ad59e9e240","","","","","5825",""," ","key"," ","33.327586206896555","500","250","br","-18","1","1","-28","13","-8","288"
"","psychophysics","172","1270055","0.0-172.0","5ea63ad9c8854764e110b128","64de62ee503ff1ad59e9e240","","","","","6470",""," ","key"," ","33.33160621761658","500","250","br","-16","1","1","-29","-1","-26","300"
"","psychophysics","173","1277497","0.0-173.0","5ea63ad9c8854764e110b128","64de62ee503ff1ad59e9e240","","","","","7439",""," ","key"," ","33.333333333333336","500","250","br","-18","1","1","16","-14","-16","244"
"","psychophysics","174","1282828","0.0-174.0","5ea63ad9c8854764e110b128","64de62ee503ff1ad59e9e240","","","","","5329",""," ","key"," ","33.333333333333336","500","250","br","-19","1","1","8","-11","2","254"
"","psychophysics","175","1287883","0.0-175.0","5ea63ad9c8854764e110b128","64de62ee503ff1ad59e9e240","","","","","5053",""," ","key"," ","33.33112582781457","500","250","br","-18","1","1","-28","29","-26","297"
"","psychophysics","176","1292289","0.0-176.0","5ea63ad9c8854764e110b128","64de62ee503ff1ad59e9e240","","","","","4401",""," ","key"," ","33.33587786259542","500","250","br","-20","1","1","-12","-8","4","274"
"","psychophysics","177","1298376","0.0-177.0","5ea63ad9c8854764e110b128","64de62ee503ff1ad59e9e240","","","","","6083",""," ","key"," ","33.32967032967033","500","250","br","-21","1","1","11","-12","-6","281"
"","psychophysics","178","1303465","0.0-178.0","5ea63ad9c8854764e110b128","64de62ee503ff1ad59e9e240","","","","","5087",""," ","key"," ","33.33774834437086","500","250","br","-19","1","1","17","-5","26","200"
"","psychophysics","179","1305607","0.0-179.0","5ea63ad9c8854764e110b128","64de62ee503ff1ad59e9e240","","","","","2140",""," ","key"," ","33.333333333333336","500","250","inst","","","","","","",""
"","psychophysics","180","1314677","0.0-180.0","5ea63ad9c8854764e110b128","64de62ee503ff1ad59e9e240","","","","","9067",""," ","key"," ","33.3235294117647","500","250","instEB1","38","2","","30","0","0","40"
"","psychophysics","181","1319226","0.0-181.0","5ea63ad9c8854764e110b128","64de62ee503ff1ad59e9e240","","","","","4546",""," ","key"," ","33.333333333333336","500","250","instEB2","32","2","","40","0","0","30"
"","psychophysics","182","1340293","0.0-182.0","5ea63ad9c8854764e110b128","64de62ee503ff1ad59e9e240","","","","","21065",""," ","key"," ","33.33438985736925","500","250","instEB3","30","2","","45","0","0","27"
"","psychophysics","183","1345758","0.0-183.0","5ea63ad9c8854764e110b128","64de62ee503ff1ad59e9e240","","","","","5463",""," ","key"," ","33.331288343558285","500","250","instEB4","44","2","","30","0","0","40"
"","psychophysics","184","1347584","0.0-184.0","5ea63ad9c8854764e110b128","64de62ee503ff1ad59e9e240","","","","","1823",""," ","key"," ","33.333333333333336","500","250","inst","","","","","","",""
"","psychophysics","185","1353525","0.0-185.0","5ea63ad9c8854764e110b128","64de62ee503ff1ad59e9e240","","","","","5939",""," ","key"," ","33.333333333333336","500","250","eb","55","2","","27","0","0","50"
"","psychophysics","186","1358151","0.0-186.0","5ea63ad9c8854764e110b128","64de62ee503ff1ad59e9e240","","","","","4623",""," ","key"," ","33.333333333333336","500","250","eb","53","2","","48","0","0","49"
"","psychophysics","187","1362818","0.0-187.0","5ea63ad9c8854764e110b128","64de62ee503ff1ad59e9e240","","","","","4665",""," ","key"," ","33.33812949640288","500","250","eb","41","2","","35","0","0","40"
"","psychophysics","188","1368089","0.0-188.0","5ea63ad9c8854764e110b128","64de62ee503ff1ad59e9e240","","","","","5269",""," ","key"," ","33.3312101910828","500","250","eb","44","2","","49","0","0","41"
"","psychophysics","189","1373590","0.0-189.0","5ea63ad9c8854764e110b128","64de62ee503ff1ad59e9e240","","","","","5497",""," ","key"," ","33.33536585365854","500","250","eb","51","2","","52","0","0","52"
"","psychophysics","190","1377618","0.0-190.0","5ea63ad9c8854764e110b128","64de62ee503ff1ad59e9e240","","","","","4024",""," ","key"," ","33.333333333333336","500","250","eb","42","2","","42","0","0","36"
"","psychophysics","191","1384405","0.0-191.0","5ea63ad9c8854764e110b128","64de62ee503ff1ad59e9e240","","","","","6783",""," ","key"," ","33.34158415841584","500","250","eb","27","2","","35","0","0","25"
"","psychophysics","192","1391975","0.0-192.0","5ea63ad9c8854764e110b128","64de62ee503ff1ad59e9e240","","","","","7565",""," ","key"," ","33.33185840707964","500","250","eb","52","2","","48","0","0","48"
"","psychophysics","193","1398191","0.0-193.0","5ea63ad9c8854764e110b128","64de62ee503ff1ad59e9e240","","","","","6212",""," ","key"," ","33.344086021505376","500","250","eb","52","2","","41","0","0","52"
"","psychophysics","194","1405705","0.0-194.0","5ea63ad9c8854764e110b128","64de62ee503ff1ad59e9e240","","","","","7509",""," ","key"," ","33.330357142857146","500","250","eb","34","2","","40","0","0","32"
"","psychophysics","195","1410845","0.0-195.0","5ea63ad9c8854764e110b128","64de62ee503ff1ad59e9e240","","","","","5136",""," ","key"," ","33.333333333333336","500","250","eb","39","2","","33","0","0","36"
"","psychophysics","196","1418848","0.0-196.0","5ea63ad9c8854764e110b128","64de62ee503ff1ad59e9e240","","","","","null","","null","key","null","33.190871369294605","500","250","eb","40","2","","54","0","0","39"
"","psychophysics","197","1423861","0.0-197.0","5ea63ad9c8854764e110b128","64de62ee503ff1ad59e9e240","","","","","5009",""," ","key"," ","33.306666666666665","500","250","eb","45","2","","42","0","0","43"
"","psychophysics","198","1431357","0.0-198.0","5ea63ad9c8854764e110b128","64de62ee503ff1ad59e9e240","","","","","7491",""," ","key"," ","33.330357142857146","500","250","eb","52","2","","40","0","0","51"
"","psychophysics","199","1438598","0.0-199.0","5ea63ad9c8854764e110b128","64de62ee503ff1ad59e9e240","","","","","7238",""," ","key"," ","33.33796296296296","500","250","eb","25","2","","27","0","0","24"
"","psychophysics","200","1440283","0.0-200.0","5ea63ad9c8854764e110b128","64de62ee503ff1ad59e9e240","","","","","1683",""," ","key"," ","33.32","500","250","inst","","","","","","",""
"","psychophysics","201","1449187","0.0-201.0","5ea63ad9c8854764e110b128","64de62ee503ff1ad59e9e240","","","","","8901",""," ","key"," ","33.330827067669176","500","250","instPog0","340","2","","370","0","0","340"
"","psychophysics","202","1455190","0.0-202.0","5ea63ad9c8854764e110b128","64de62ee503ff1ad59e9e240","","","","","6000",""," ","key"," ","33.32960893854749","500","250","instPog1","346","2","","370","0","0","340"
"","psychophysics","203","1461381","0.0-203.0","5ea63ad9c8854764e110b128","64de62ee503ff1ad59e9e240","","","","","6188",""," ","key"," ","33.33152173913044","500","250","instPog2","322","2","","340","0","0","340"
"","psychophysics","204","1463187","0.0-204.0","5ea63ad9c8854764e110b128","64de62ee503ff1ad59e9e240","","","","","1805",""," ","key"," ","33.333333333333336","500","250","inst","","","","","","",""
"","psychophysics","205","1467561","0.0-205.0","5ea63ad9c8854764e110b128","64de62ee503ff1ad59e9e240","","","","","4371",""," ","key"," ","33.33846153846154","500","250","pog","297","2","1","289","0","0","321"
"","psychophysics","206","1471504","0.0-206.0","5ea63ad9c8854764e110b128","64de62ee503ff1ad59e9e240","","","","","3942",""," ","key"," ","33.333333333333336","500","250","pog","304","2","1","298","0","0","319"
"","psychophysics","207","1479506","0.0-207.0","5ea63ad9c8854764e110b128","64de62ee503ff1ad59e9e240","","","","","null","","null","key","null","33.19166666666667","500","250","pog","313","2","1","393","0","0","327"
"","psychophysics","208","1484572","0.0-208.0","5ea63ad9c8854764e110b128","64de62ee503ff1ad59e9e240","","","","","5051",""," ","key"," ","33.151315789473685","500","250","pog","348","2","1","344","0","0","365"
"","psychophysics","209","1488676","0.0-209.0","5ea63ad9c8854764e110b128","64de62ee503ff1ad59e9e240","","","","","4101",""," ","key"," ","33.32786885245902","500","250","pog","313","2","1","323","0","0","332"
"","psychophysics","210","1493993","0.0-210.0","5ea63ad9c8854764e110b128","64de62ee503ff1ad59e9e240","","","","","5315",""," ","key"," ","33.339622641509436","500","250","pog","309","2","1","303","0","0","329"
"","psychophysics","211","1500303","0.0-211.0","5ea63ad9c8854764e110b128","64de62ee503ff1ad59e9e240","","","","","6307",""," ","key"," ","33.329787234042556","500","250","pog","346","2","1","310","0","0","372"
"","psychophysics","212","1506442","0.0-212.0","5ea63ad9c8854764e110b128","64de62ee503ff1ad59e9e240","","","","","6137",""," ","key"," ","33.333333333333336","500","250","pog","295","2","1","345","0","0","318"
"","psychophysics","213","1510142","0.0-213.0","5ea63ad9c8854764e110b128","64de62ee503ff1ad59e9e240","","","","","3697",""," ","key"," ","33.336363636363636","500","250","pog","306","2","1","294","0","0","336"
"","psychophysics","214","1518143","0.0-214.0","5ea63ad9c8854764e110b128","64de62ee503ff1ad59e9e240","","","","","null","","null","key","null","33.1875","500","250","pog","285","2","1","379","0","0","304"
"","psychophysics","215","1521117","0.0-215.0","5ea63ad9c8854764e110b128","64de62ee503ff1ad59e9e240","","","","","2960",""," ","key"," ","32.977777777777774","500","250","pog","333","2","1","327","0","0","355"
"","psychophysics","216","1524615","0.0-216.0","5ea63ad9c8854764e110b128","64de62ee503ff1ad59e9e240","","","","","3494",""," ","key"," ","33.33009708737864","500","250","pog","314","2","1","324","0","0","333"
"","psychophysics","217","1531794","0.0-217.0","5ea63ad9c8854764e110b128","64de62ee503ff1ad59e9e240","","","","","7176",""," ","key"," ","33.325581395348834","500","250","pog","275","2","1","385","0","0","305"
"","psychophysics","218","1534747","0.0-218.0","5ea63ad9c8854764e110b128","64de62ee503ff1ad59e9e240","","","","","2951",""," ","key"," ","33.333333333333336","500","250","pog","343","2","1","349","0","0","361"
"","psychophysics","219","1539901","0.0-219.0","5ea63ad9c8854764e110b128","64de62ee503ff1ad59e9e240","","","","","5150",""," ","key"," ","33.324675324675326","500","250","pog","299","2","1","357","0","0","323"
