"success","trial_type","trial_index","time_elapsed","internal_node_id","pid","sid","timeout","failed_images","failed_audio","failed_video","rt","stimulus","response","response_type","key_press","avg_frame_time","center_x","center_y","task","resp","version","block","jitterX","jitterY","start","parA"
"true","fullscreen","0","2891","0.0-0.0","5f4d3cb5fdda0b2c403fb801","64e506cc51f2940f68db9f28","","","","","","","","","","","","","","","","","","","",""
"true","preload","1","2944","0.0-1.0","5f4d3cb5fdda0b2c403fb801","64e506cc51f2940f68db9f28","false","[]","[]","[]","","","","","","","","","","","","","","","",""
"","html-button-response","2","5443","0.0-2.0","5f4d3cb5fdda0b2c403fb801","64e506cc51f2940f68db9f28","","","","","2499","Please Make Sure Your Audio Is On.","0","","","","","","","","","","","","",""
"","psychophysics","3","12111","0.0-3.0","5f4d3cb5fdda0b2c403fb801","64e506cc51f2940f68db9f28","","","","","6661",""," ","key"," ","16.7484648241206","768","250","","","","","","","",""
"","psychophysics","4","19557","0.0-4.0","5f4d3cb5fdda0b2c403fb801","64e506cc51f2940f68db9f28","","","","","7442",""," ","key"," ","16.664486547085204","500","250","inst","","","","","","",""
"","psychophysics","5","23092","0.0-5.0","5f4d3cb5fdda0b2c403fb801","64e506cc51f2940f68db9f28","","","","","3533",""," ","key"," ","16.664355450236968","500","250","sample0","","","","","","",""
"","psychophysics","6","93453","0.0-6.0","5f4d3cb5fdda0b2c403fb801","64e506cc51f2940f68db9f28","","","","","70359",""," ","key"," ","16.67236288219957","500","250","sample1","","","","","","",""
"","psychophysics","7","481284","0.0-7.0","5f4d3cb5fdda0b2c403fb801","64e506cc51f2940f68db9f28","","","","","387831",""," ","key"," ","16.673114660361136","500","250","sample2","100","","","","","",""
"","psychophysics","8","501056","0.0-8.0","5f4d3cb5fdda0b2c403fb801","64e506cc51f2940f68db9f28","","","","","19769",""," ","key"," ","16.664540084388218","500","250","sample3","100","","","","","",""
"","psychophysics","9","524648","0.0-9.0","5f4d3cb5fdda0b2c403fb801","64e506cc51f2940f68db9f28","","","","","23587",""," ","key"," ","16.66466925795048","500","250","sample4","100","","","","","",""
"","psychophysics","10","529752","0.0-10.0","5f4d3cb5fdda0b2c403fb801","64e506cc51f2940f68db9f28","","","","","5102",""," ","key"," ","16.664659016393507","500","250","sample5","","","","","","",""
"","psychophysics","11","552657","0.0-11.0","5f4d3cb5fdda0b2c403fb801","64e506cc51f2940f68db9f28","","","","","22899",""," ","key"," ","16.66447379912661","500","250","sample6","500","","","","","",""
"","psychophysics","12","556137","0.0-12.0","5f4d3cb5fdda0b2c403fb801","64e506cc51f2940f68db9f28","","","","","3477",""," ","key"," ","16.665447115384897","500","250","inst","","","","","","",""
"","psychophysics","13","564090","0.0-13.0","5f4d3cb5fdda0b2c403fb801","64e506cc51f2940f68db9f28","","","","","7951",""," ","key"," ","16.66489705882361","500","250","inst","","","","","","",""
"","psychophysics","14","568344","0.0-14.0","5f4d3cb5fdda0b2c403fb801","64e506cc51f2940f68db9f28","","","","","4250",""," ","key"," ","16.730422924901266","500","250","inst","","","","","","",""
"","psychophysics","15","569344","0.0-15.0","5f4d3cb5fdda0b2c403fb801","64e506cc51f2940f68db9f28","","","","","997",""," ","key"," ","16.66479661016946","500","250","inst","","","","","","",""
"","psychophysics","16","570417","0.0-16.0","5f4d3cb5fdda0b2c403fb801","64e506cc51f2940f68db9f28","","","","","1071",""," ","key"," ","16.66435937499955","500","250","inst","","","","","","",""
"","psychophysics","17","580512","0.0-17.0","5f4d3cb5fdda0b2c403fb801","64e506cc51f2940f68db9f28","","","","","10093",""," ","key"," ","16.692144278606985","500","250","instBr0","0","","","0","0","0","300"
"","psychophysics","18","610223","0.0-18.0","5f4d3cb5fdda0b2c403fb801","64e506cc51f2940f68db9f28","","","","","29708",""," ","key"," ","16.664586980920312","500","250","instBr1","2","","","0","0","-40","300"
"","psychophysics","19","634711","0.0-19.0","5f4d3cb5fdda0b2c403fb801","64e506cc51f2940f68db9f28","","","","","24476",""," ","key"," ","16.664712049012895","500","250","instBr3","19","2","","0","0","40","300"
"","psychophysics","20","638376","0.0-20.0","5f4d3cb5fdda0b2c403fb801","64e506cc51f2940f68db9f28","","","","","3663",""," ","key"," ","16.664570776255562","500","250","inst","","","","","","",""
"","psychophysics","21","646380","0.0-21.0","5f4d3cb5fdda0b2c403fb801","64e506cc51f2940f68db9f28","","","","","null","","null","key","null","16.66462630480173","500","250","br","15","2","0","16","-22","7","205"
"","psychophysics","22","646400","0.0-22.0","5f4d3cb5fdda0b2c403fb801","64e506cc51f2940f68db9f28","","","","","17",""," ","key"," ","NaN","500","250","br","6","2","0","27","-2","6","268"
"","psychophysics","23","654296","0.0-23.0","5f4d3cb5fdda0b2c403fb801","64e506cc51f2940f68db9f28","","","","","7895",""," ","key"," ","16.66475898520081","500","250","br","17","2","0","-22","-2","-19","270"
"","psychophysics","24","661192","0.0-24.0","5f4d3cb5fdda0b2c403fb801","64e506cc51f2940f68db9f28","","","","","6875",""," ","key"," ","16.66446489104116","500","250","br","17","2","0","18","-12","-10","203"
"","psychophysics","25","665815","0.0-25.0","5f4d3cb5fdda0b2c403fb801","64e506cc51f2940f68db9f28","","","","","4621",""," ","key"," ","16.664717391304134","500","250","br","17","2","0","9","-20","16","212"
"","psychophysics","26","672199","0.0-26.0","5f4d3cb5fdda0b2c403fb801","64e506cc51f2940f68db9f28","","","","","6371",""," ","key"," ","16.664523560209417","500","250","br","16","2","0","23","-10","-27","295"
"","psychophysics","27","679824","0.0-27.0","5f4d3cb5fdda0b2c403fb801","64e506cc51f2940f68db9f28","","","","","7617",""," ","key"," ","16.66457768052529","500","250","br","13","2","0","-15","-15","-16","218"
"","psychophysics","28","685721","0.0-28.0","5f4d3cb5fdda0b2c403fb801","64e506cc51f2940f68db9f28","","","","","5895",""," ","key"," ","16.664507082152966","500","250","br","20","2","0","9","10","20","269"
"","psychophysics","29","691919","0.0-29.0","5f4d3cb5fdda0b2c403fb801","64e506cc51f2940f68db9f28","","","","","6195",""," ","key"," ","16.664668463611715","500","250","br","17","2","0","-2","0","1","246"
"","psychophysics","30","695792","0.0-30.0","5f4d3cb5fdda0b2c403fb801","64e506cc51f2940f68db9f28","","","","","3871",""," ","key"," ","16.66460606060646","500","250","br","14","2","0","0","12","13","248"
"","psychophysics","31","702751","0.0-31.0","5f4d3cb5fdda0b2c403fb801","64e506cc51f2940f68db9f28","","","","","6957",""," ","key"," ","16.66464748201452","500","250","br","14","2","0","-20","17","0","267"
"","psychophysics","32","710754","0.0-32.0","5f4d3cb5fdda0b2c403fb801","64e506cc51f2940f68db9f28","","","","","null","","null","key","null","16.66451983298525","500","250","br","18","2","0","-28","3","-30","240"
"","psychophysics","33","710791","0.0-33.0","5f4d3cb5fdda0b2c403fb801","64e506cc51f2940f68db9f28","","","","","24",""," ","key"," ","16.614000000059605","500","250","br","-5","2","0","11","-14","-5","269"
"","psychophysics","34","715776","0.0-34.0","5f4d3cb5fdda0b2c403fb801","64e506cc51f2940f68db9f28","","","","","4983",""," ","key"," ","16.664352348993138","500","250","br","16","2","0","9","-3","-5","254"
"","psychophysics","35","721503","0.0-35.0","5f4d3cb5fdda0b2c403fb801","64e506cc51f2940f68db9f28","","","","","5715",""," ","key"," ","16.664708454810484","500","250","br","15","2","0","-11","-15","-10","252"
"","psychophysics","36","873551","0.0-36.0","5f4d3cb5fdda0b2c403fb801","64e506cc51f2940f68db9f28","","","","","152047",""," ","key"," ","16.6718270643711","500","250","inst","","","","","","",""
"","psychophysics","37","877943","0.0-37.0","5f4d3cb5fdda0b2c403fb801","64e506cc51f2940f68db9f28","","","","","4389",""," ","key"," ","16.664536121672732","500","250","instEB0","40","1","","0","0","40","40"
"","psychophysics","38","900904","0.0-38.0","5f4d3cb5fdda0b2c403fb801","64e506cc51f2940f68db9f28","","","","","22959",""," ","key"," ","16.66465406976745","500","250","instEB1","29","1","","0","0","40","30"
"","psychophysics","39","924911","0.0-39.0","5f4d3cb5fdda0b2c403fb801","64e506cc51f2940f68db9f28","","","","","23996",""," ","key"," ","16.676306462821376","500","250","instEB2","39","1","","0","0","30","40"
"","psychophysics","40","954478","0.0-40.0","5f4d3cb5fdda0b2c403fb801","64e506cc51f2940f68db9f28","","","","","29566",""," ","key"," ","16.66452002256064","500","250","instEB3","42","1","","0","0","27","45"
"","psychophysics","41","977598","0.0-41.0","5f4d3cb5fdda0b2c403fb801","64e506cc51f2940f68db9f28","","","","","23116",""," ","key"," ","16.676568542568493","500","250","instEB4","27","1","","0","0","40","30"
"","psychophysics","42","981599","0.0-42.0","5f4d3cb5fdda0b2c403fb801","64e506cc51f2940f68db9f28","","","","","3999",""," ","key"," ","16.664677824267812","500","250","inst","","","","","","",""
"","psychophysics","43","989602","0.0-43.0","5f4d3cb5fdda0b2c403fb801","64e506cc51f2940f68db9f28","","","","","null","","null","key","null","16.66436325678493","500","250","eb","40","1","","0","0","26","47"
"","psychophysics","44","989686","0.0-44.0","5f4d3cb5fdda0b2c403fb801","64e506cc51f2940f68db9f28","","","","","81",""," ","key"," ","16.671000000002095","500","250","eb","33","1","","0","0","33","32"
"","psychophysics","45","995327","0.0-45.0","5f4d3cb5fdda0b2c403fb801","64e506cc51f2940f68db9f28","","","","","5638",""," ","key"," ","16.664540059347043","500","250","eb","36","1","","0","0","50","41"
"","psychophysics","46","1000662","0.0-46.0","5f4d3cb5fdda0b2c403fb801","64e506cc51f2940f68db9f28","","","","","5317",""," ","key"," ","16.665287499999977","500","250","eb","27","1","","0","0","39","28"
"","psychophysics","47","1008343","0.0-47.0","5f4d3cb5fdda0b2c403fb801","64e506cc51f2940f68db9f28","","","","","7678",""," ","key"," ","16.701021786492564","500","250","eb","45","1","","0","0","26","52"
"","psychophysics","48","1013774","0.0-48.0","5f4d3cb5fdda0b2c403fb801","64e506cc51f2940f68db9f28","","","","","5426",""," ","key"," ","16.665504615384584","500","250","eb","36","1","","0","0","47","40"
"","psychophysics","49","1018422","0.0-49.0","5f4d3cb5fdda0b2c403fb801","64e506cc51f2940f68db9f28","","","","","4645",""," ","key"," ","16.664226618705136","500","250","eb","35","1","","0","0","28","39"
"","psychophysics","50","1025055","0.0-50.0","5f4d3cb5fdda0b2c403fb801","64e506cc51f2940f68db9f28","","","","","6630",""," ","key"," ","16.664294710327397","500","250","eb","41","1","","0","0","44","46"
"","psychophysics","51","1030317","0.0-51.0","5f4d3cb5fdda0b2c403fb801","64e506cc51f2940f68db9f28","","","","","5260",""," ","key"," ","16.663777070063624","500","250","eb","34","1","","0","0","33","38"
"","psychophysics","52","1037958","0.0-52.0","5f4d3cb5fdda0b2c403fb801","64e506cc51f2940f68db9f28","","","","","7639",""," ","key"," ","16.66463100436671","500","250","eb","33","1","","0","0","54","36"
"","psychophysics","53","1045055","0.0-53.0","5f4d3cb5fdda0b2c403fb801","64e506cc51f2940f68db9f28","","","","","7094",""," ","key"," ","16.66489411764696","500","250","eb","24","1","","0","0","43","25"
"","psychophysics","54","1052925","0.0-54.0","5f4d3cb5fdda0b2c403fb801","64e506cc51f2940f68db9f28","","","","","7868",""," ","key"," ","16.664530785562768","500","250","eb","33","1","","0","0","42","39"
"","psychophysics","55","1058061","0.0-55.0","5f4d3cb5fdda0b2c403fb801","64e506cc51f2940f68db9f28","","","","","5134",""," ","key"," ","16.66488273615694","500","250","eb","25","1","","0","0","31","27"
"","psychophysics","56","1064574","0.0-56.0","5f4d3cb5fdda0b2c403fb801","64e506cc51f2940f68db9f28","","","","","6511",""," ","key"," ","16.664930769231002","500","250","eb","27","1","","0","0","39","28"
"","psychophysics","57","1068886","0.0-57.0","5f4d3cb5fdda0b2c403fb801","64e506cc51f2940f68db9f28","","","","","4310",""," ","key"," ","16.665143410852107","500","250","eb","46","1","","0","0","46","47"
"","psychophysics","58","1114734","0.0-58.0","5f4d3cb5fdda0b2c403fb801","64e506cc51f2940f68db9f28","","","","","45847",""," ","key"," ","16.67666885007271","500","250","inst","","","","","","",""
"","psychophysics","59","1116877","0.0-59.0","5f4d3cb5fdda0b2c403fb801","64e506cc51f2940f68db9f28","","","","","2142",""," ","key"," ","16.929261904762363","500","250","instPzPre","50","0","","","","50","50"
"","psychophysics","60","1120326","0.0-60.0","5f4d3cb5fdda0b2c403fb801","64e506cc51f2940f68db9f28","","","","","3447",""," ","key"," ","16.665752427184557","500","250","instPz0","50","1","","","","50","50"
"","psychophysics","61","1140837","0.0-61.0","5f4d3cb5fdda0b2c403fb801","64e506cc51f2940f68db9f28","","","","","20509",""," ","key"," ","16.664449145646874","500","250","instPz1","48","1","","","","25","50"
"","psychophysics","62","1150102","0.0-62.0","5f4d3cb5fdda0b2c403fb801","64e506cc51f2940f68db9f28","","","","","9253",""," ","key"," ","16.66467567567571","500","250","instPz2","21","1","","","","35","20"
"","psychophysics","63","1161542","0.0-63.0","5f4d3cb5fdda0b2c403fb801","64e506cc51f2940f68db9f28","","","","","11434",""," ","key"," ","16.664609329446094","500","250","instPz3","100","1","","","","100","30"
"","psychophysics","64","1196525","0.0-64.0","5f4d3cb5fdda0b2c403fb801","64e506cc51f2940f68db9f28","","","","","34981",""," ","key"," ","16.66458770257396","500","250","instPz4","36","1","","","","100","30"
"","psychophysics","65","1198222","0.0-65.0","5f4d3cb5fdda0b2c403fb801","64e506cc51f2940f68db9f28","","","","","1695",""," ","key"," ","16.665950495048914","500","250","inst","","","","","","",""
"","psychophysics","66","1202382","0.0-66.0","5f4d3cb5fdda0b2c403fb801","64e506cc51f2940f68db9f28","","","","","4159",""," ","key"," ","16.66597991967929","500","250","pz","32","1","0","","","44","24"
"","psychophysics","67","1210317","0.0-67.0","5f4d3cb5fdda0b2c403fb801","64e506cc51f2940f68db9f28","","","","","7933",""," ","key"," ","16.699662447257168","500","250","pz","29","1","0","","","48","21"
"","psychophysics","68","1216766","0.0-68.0","5f4d3cb5fdda0b2c403fb801","64e506cc51f2940f68db9f28","","","","","6446",""," ","key"," ","16.66457772020726","500","250","pz","31","1","0","","","53","20"
"","psychophysics","69","1221800","0.0-69.0","5f4d3cb5fdda0b2c403fb801","64e506cc51f2940f68db9f28","","","","","5033",""," ","key"," ","16.66436544850475","500","250","pz","29","1","0","","","25","23"
"","psychophysics","70","1226158","0.0-70.0","5f4d3cb5fdda0b2c403fb801","64e506cc51f2940f68db9f28","","","","","4354",""," ","key"," ","16.66459999999945","500","250","pz","31","1","0","","","22","24"
"","psychophysics","71","1229097","0.0-71.0","5f4d3cb5fdda0b2c403fb801","64e506cc51f2940f68db9f28","","","","","2930",""," ","key"," ","16.664704545455276","500","250","pz","49","1","0","","","49","34"
"","psychophysics","72","1233837","0.0-72.0","5f4d3cb5fdda0b2c403fb801","64e506cc51f2940f68db9f28","","","","","4736",""," ","key"," ","16.665127208480257","500","250","pz","46","1","0","","","31","38"
"","psychophysics","73","1239180","0.0-73.0","5f4d3cb5fdda0b2c403fb801","64e506cc51f2940f68db9f28","","","","","5343",""," ","key"," ","16.664418750000188","500","250","pz","35","1","0","","","52","25"
"","psychophysics","74","1246397","0.0-74.0","5f4d3cb5fdda0b2c403fb801","64e506cc51f2940f68db9f28","","","","","7215",""," ","key"," ","16.664902777778074","500","250","pz","28","1","0","","","44","22"
"","psychophysics","75","1252069","0.0-75.0","5f4d3cb5fdda0b2c403fb801","64e506cc51f2940f68db9f28","","","","","5668",""," ","key"," ","16.664707964602144","500","250","pz","40","1","0","","","32","31"
"","psychophysics","76","1259012","0.0-76.0","5f4d3cb5fdda0b2c403fb801","64e506cc51f2940f68db9f28","","","","","6942",""," ","key"," ","16.664442307692436","500","250","pz","67","1","0","","","20","48"
"","psychophysics","77","1266517","0.0-77.0","5f4d3cb5fdda0b2c403fb801","64e506cc51f2940f68db9f28","","","","","7503",""," ","key"," ","16.664899777282415","500","250","pz","58","1","0","","","30","49"
"","psychophysics","78","1272846","0.0-78.0","5f4d3cb5fdda0b2c403fb801","64e506cc51f2940f68db9f28","","","","","6325",""," ","key"," ","16.664633245382454","500","250","pz","87","1","0","","","56","57"
"","psychophysics","79","1280037","0.0-79.0","5f4d3cb5fdda0b2c403fb801","64e506cc51f2940f68db9f28","","","","","7190",""," ","key"," ","16.66490719257584","500","250","pz","64","1","0","","","26","54"
"","psychophysics","80","1287638","0.0-80.0","5f4d3cb5fdda0b2c403fb801","64e506cc51f2940f68db9f28","","","","","7599",""," ","key"," ","16.66446153846119","500","250","pz","52","1","0","","","32","45"
"","psychophysics","81","1290893","0.0-81.0","5f4d3cb5fdda0b2c403fb801","64e506cc51f2940f68db9f28","","","","","3252",""," ","key"," ","16.66459793814448","500","250","inst","","","","","","",""
"","psychophysics","82","1308701","0.0-82.0","5f4d3cb5fdda0b2c403fb801","64e506cc51f2940f68db9f28","","","","","17805",""," ","key"," ","16.664903558052515","500","250","instPog0","160","1","","0","0","190","160"
"","psychophysics","83","1332325","0.0-83.0","5f4d3cb5fdda0b2c403fb801","64e506cc51f2940f68db9f28","","","","","23623",""," ","key"," ","16.66449646892649","500","250","instPog1","160","1","","0","0","190","160"
"","psychophysics","84","1348212","0.0-84.0","5f4d3cb5fdda0b2c403fb801","64e506cc51f2940f68db9f28","","","","","15885",""," ","key"," ","16.66460020986341","500","250","instPog2","156","1","","0","0","160","160"
"","psychophysics","85","1350676","0.0-85.0","5f4d3cb5fdda0b2c403fb801","64e506cc51f2940f68db9f28","","","","","2463",""," ","key"," ","16.669082191782326","500","250","inst","","","","","","",""
"","psychophysics","86","1356780","0.0-86.0","5f4d3cb5fdda0b2c403fb801","64e506cc51f2940f68db9f28","","","","","6099",""," ","key"," ","16.664991803278973","500","250","pog","126","1","0","0","0","100","122"
"","psychophysics","87","1362388","0.0-87.0","5f4d3cb5fdda0b2c403fb801","64e506cc51f2940f68db9f28","","","","","5606",""," ","key"," ","16.664444776119165","500","250","pog","150","1","0","0","0","120","147"
"","psychophysics","88","1369445","0.0-88.0","5f4d3cb5fdda0b2c403fb801","64e506cc51f2940f68db9f28","","","","","7056",""," ","key"," ","16.66463356974026","500","250","pog","130","1","0","0","0","218","128"
"","psychophysics","89","1376652","0.0-89.0","5f4d3cb5fdda0b2c403fb801","64e506cc51f2940f68db9f28","","","","","7202",""," ","key"," ","16.664932714616924","500","250","pog","184","1","0","0","0","154","184"
"","psychophysics","90","1383020","0.0-90.0","5f4d3cb5fdda0b2c403fb801","64e506cc51f2940f68db9f28","","","","","6367",""," ","key"," ","16.664745406823947","500","250","pog","133","1","0","0","0","201","131"
"","psychophysics","91","1388333","0.0-91.0","5f4d3cb5fdda0b2c403fb801","64e506cc51f2940f68db9f28","","","","","5311",""," ","key"," ","16.71746056782352","500","250","pog","181","1","0","0","0","209","178"
"","psychophysics","92","1396076","0.0-92.0","5f4d3cb5fdda0b2c403fb801","64e506cc51f2940f68db9f28","","","","","7742",""," ","key"," ","16.664965517241367","500","250","pog","172","1","0","0","0","140","166"
"","psychophysics","93","1402205","0.0-93.0","5f4d3cb5fdda0b2c403fb801","64e506cc51f2940f68db9f28","","","","","6127",""," ","key"," ","16.71011202185748","500","250","pog","165","1","0","0","0","207","166"
"","psychophysics","94","1408604","0.0-94.0","5f4d3cb5fdda0b2c403fb801","64e506cc51f2940f68db9f28","","","","","6397",""," ","key"," ","16.664561357702354","500","250","pog","140","1","0","0","0","220","140"
"","psychophysics","95","1415412","0.0-95.0","5f4d3cb5fdda0b2c403fb801","64e506cc51f2940f68db9f28","","","","","6806",""," ","key"," ","16.66426535626514","500","250","pog","140","1","0","0","0","178","144"
"","psychophysics","96","1419108","0.0-96.0","5f4d3cb5fdda0b2c403fb801","64e506cc51f2940f68db9f28","","","","","3695",""," ","key"," ","16.663932126696007","500","250","pog","139","1","0","0","0","101","133"
"","psychophysics","97","1426660","0.0-97.0","5f4d3cb5fdda0b2c403fb801","64e506cc51f2940f68db9f28","","","","","7551",""," ","key"," ","16.6645951327431","500","250","pog","176","1","0","0","0","110","173"
"","psychophysics","98","1431844","0.0-98.0","5f4d3cb5fdda0b2c403fb801","64e506cc51f2940f68db9f28","","","","","5182",""," ","key"," ","16.664293548386663","500","250","pog","146","1","0","0","0","128","139"
"","psychophysics","99","1437117","0.0-99.0","5f4d3cb5fdda0b2c403fb801","64e506cc51f2940f68db9f28","","","","","5272",""," ","key"," ","16.664227848101106","500","250","pog","150","1","0","0","0","132","143"
"","psychophysics","100","1442484","0.0-100.0","5f4d3cb5fdda0b2c403fb801","64e506cc51f2940f68db9f28","","","","","5363",""," ","key"," ","16.664707165108442","500","250","pog","155","1","0","0","0","201","152"
"","psychophysics","101","1446861","0.0-101.0","5f4d3cb5fdda0b2c403fb801","64e506cc51f2940f68db9f28","","","","","4374",""," ","key"," ","16.66448275862044","500","250","inst","","","","","","",""
"","psychophysics","102","1450021","0.0-102.0","5f4d3cb5fdda0b2c403fb801","64e506cc51f2940f68db9f28","","","","","3137",""," ","key"," ","16.753760638297535","500","250","instZol0","0","","","0","0","0",""
"","psychophysics","103","1489724","0.0-103.0","5f4d3cb5fdda0b2c403fb801","64e506cc51f2940f68db9f28","","","","","39702",""," ","key"," ","16.67145546218488","500","250","instZol1","0.09999999999999981","","","0","0","-1.3",""
"","psychophysics","104","1515612","0.0-104.0","5f4d3cb5fdda0b2c403fb801","64e506cc51f2940f68db9f28","","","","","25881",""," ","key"," ","16.664585318737792","500","250","instZol2","0.4000000000000007","1","","0","0","2",""
"","psychophysics","105","1516533","0.0-105.0","5f4d3cb5fdda0b2c403fb801","64e506cc51f2940f68db9f28","","","","","920",""," ","key"," ","16.66455555555445","500","250","inst","","","","","","",""
"","psychophysics","106","1524538","0.0-106.0","5f4d3cb5fdda0b2c403fb801","64e506cc51f2940f68db9f28","","","","","null","","null","key","null","16.664317327765904","500","250","zol","0.35","1","0","13","15","0.25",""
"","psychophysics","107","1524789","0.0-107.0","5f4d3cb5fdda0b2c403fb801","64e506cc51f2940f68db9f28","","","","","229",""," ","key"," ","16.664666666664804","500","250","zol","0.52","1","0","-27","21","-0.52",""
"","psychophysics","108","1530516","0.0-108.0","5f4d3cb5fdda0b2c403fb801","64e506cc51f2940f68db9f28","","","","","5724",""," ","key"," ","16.66480116959054","500","250","zol","0.9199999999999999","1","0","-5","-12","-0.02",""
"","psychophysics","109","1535629","0.0-109.0","5f4d3cb5fdda0b2c403fb801","64e506cc51f2940f68db9f28","","","","","5100",""," ","key"," ","16.664506535948213","500","250","zol","0.9499999999999998","1","0","-18","-21","-0.15",""
"","psychophysics","110","1539891","0.0-110.0","5f4d3cb5fdda0b2c403fb801","64e506cc51f2940f68db9f28","","","","","4261",""," ","key"," ","16.66514117647072","500","250","zol","0.8899999999999999","1","0","21","-27","-0.39",""
"","psychophysics","111","1544659","0.0-111.0","5f4d3cb5fdda0b2c403fb801","64e506cc51f2940f68db9f28","","","","","4766",""," ","key"," ","16.664621052632043","500","250","zol","0.26000000000000006","1","0","20","-15","0.24",""
"","psychophysics","112","1550484","0.0-112.0","5f4d3cb5fdda0b2c403fb801","64e506cc51f2940f68db9f28","","","","","5819",""," ","key"," ","16.664152298850574","500","250","zol","0.41000000000000003","1","0","18","-27","-0.11",""
"","psychophysics","113","1556861","0.0-113.0","5f4d3cb5fdda0b2c403fb801","64e506cc51f2940f68db9f28","","","","","6373",""," ","key"," ","16.664761780104747","500","250","zol","0.9099999999999999","1","0","5","26","-0.51",""
"","psychophysics","114","1562869","0.0-114.0","5f4d3cb5fdda0b2c403fb801","64e506cc51f2940f68db9f28","","","","","6000",""," ","key"," ","16.664941666666547","500","250","zol","0.83","1","0","-5","5","-0.63",""
"","psychophysics","115","1568595","0.0-115.0","5f4d3cb5fdda0b2c403fb801","64e506cc51f2940f68db9f28","","","","","5719",""," ","key"," ","16.665175438596464","500","250","zol","1.05","1","0","23","-26","0.35",""
"","psychophysics","116","1575275","0.0-116.0","5f4d3cb5fdda0b2c403fb801","64e506cc51f2940f68db9f28","","","","","6677",""," ","key"," ","16.664332500000018","500","250","zol","1.03","1","0","5","-25","-0.53",""
"","psychophysics","117","1580603","0.0-117.0","5f4d3cb5fdda0b2c403fb801","64e506cc51f2940f68db9f28","","","","","5326",""," ","key"," ","16.66505642633208","500","250","zol","0.48","1","0","14","-16","0.72",""
"","psychophysics","118","1585195","0.0-118.0","5f4d3cb5fdda0b2c403fb801","64e506cc51f2940f68db9f28","","","","","4590",""," ","key"," ","16.66526642335786","500","250","zol","0.38","1","0","-22","-10","-0.28",""
"","psychophysics","119","1589661","0.0-119.0","5f4d3cb5fdda0b2c403fb801","64e506cc51f2940f68db9f28","","","","","4460",""," ","key"," ","16.664962546817073","500","250","zol","0.7899999999999999","1","0","14","-1","-0.59",""
"","psychophysics","120","1597664","0.0-120.0","5f4d3cb5fdda0b2c403fb801","64e506cc51f2940f68db9f28","","","","","null","","null","key","null","16.664474999999705","500","250","zol","1.27","1","0","21","-10","-0.27",""
"","psychophysics","121","1597731","0.0-121.0","5f4d3cb5fdda0b2c403fb801","64e506cc51f2940f68db9f28","","","","","65",""," ","key"," ","16.657666666666046","500","250","inst","","","","","","",""
"","psychophysics","122","1622076","0.0-122.0","5f4d3cb5fdda0b2c403fb801","64e506cc51f2940f68db9f28","","","","","24344",""," ","key"," ","16.66452671232879","500","250","instZol1","-0.10000000000000003","","","0","0","-1.3",""
"","psychophysics","123","1637884","0.0-123.0","5f4d3cb5fdda0b2c403fb801","64e506cc51f2940f68db9f28","","","","","15806",""," ","key"," ","16.6821236786468","500","250","instZol2","-0.7999999999999993","2","","0","0","2",""
"","psychophysics","124","1639827","0.0-124.0","5f4d3cb5fdda0b2c403fb801","64e506cc51f2940f68db9f28","","","","","1942",""," ","key"," ","16.664879310344233","500","250","inst","","","","","","",""
"","psychophysics","125","1647831","0.0-125.0","5f4d3cb5fdda0b2c403fb801","64e506cc51f2940f68db9f28","","","","","null","","null","key","null","16.664507306889593","500","250","zol","-1.5600000000000003","2","1","-8","0","0.26",""
"","psychophysics","126","1648004","0.0-126.0","5f4d3cb5fdda0b2c403fb801","64e506cc51f2940f68db9f28","","","","","170",""," ","key"," ","16.672444444434305","500","250","zol","-0.16","2","1","-29","-30","0.16",""
"","psychophysics","127","1655908","0.0-127.0","5f4d3cb5fdda0b2c403fb801","64e506cc51f2940f68db9f28","","","","","7899",""," ","key"," ","16.664510548522966","500","250","zol","0.83","2","1","-1","13","0.67",""
"","psychophysics","128","1661355","0.0-128.0","5f4d3cb5fdda0b2c403fb801","64e506cc51f2940f68db9f28","","","","","5443",""," ","key"," ","16.664588957055088","500","250","zol","-0.9600000000000001","2","1","2","16","0.56",""
"","psychophysics","129","1667395","0.0-129.0","5f4d3cb5fdda0b2c403fb801","64e506cc51f2940f68db9f28","","","","","6037",""," ","key"," ","16.66452354570616","500","250","zol","-0.7799999999999999","2","1","-12","23","0.58",""
"","psychophysics","130","1673372","0.0-130.0","5f4d3cb5fdda0b2c403fb801","64e506cc51f2940f68db9f28","","","","","5974",""," ","key"," ","16.664589385474724","500","250","zol","-0.7999999999999999","2","1","-5","12","0.6",""
"","psychophysics","131","1681363","0.0-131.0","5f4d3cb5fdda0b2c403fb801","64e506cc51f2940f68db9f28","","","","","7989",""," ","key"," ","16.66452510460235","500","250","zol","-0.6","2","1","17","15","0",""
"","psychophysics","132","1689300","0.0-132.0","5f4d3cb5fdda0b2c403fb801","64e506cc51f2940f68db9f28","","","","","7934",""," ","key"," ","16.664592436974587","500","250","zol","-1.37","2","1","11","-29","0.67",""
"","psychophysics","133","1696787","0.0-133.0","5f4d3cb5fdda0b2c403fb801","64e506cc51f2940f68db9f28","","","","","7483",""," ","key"," ","16.664669642857397","500","250","zol","-0.9400000000000001","2","1","22","-27","0.74",""
"","psychophysics","134","1703851","0.0-134.0","5f4d3cb5fdda0b2c403fb801","64e506cc51f2940f68db9f28","","","","","7058",""," ","key"," ","16.664758865248157","500","250","zol","-1.1500000000000001","2","1","-12","0","-0.35",""
"","psychophysics","135","1711854","0.0-135.0","5f4d3cb5fdda0b2c403fb801","64e506cc51f2940f68db9f28","","","","","null","","null","key","null","16.66437160751553","500","250","zol","-0.5400000000000001","2","1","2","26","-0.26",""
"","psychophysics","136","1712003","0.0-136.0","5f4d3cb5fdda0b2c403fb801","64e506cc51f2940f68db9f28","","","","","145",""," ","key"," ","16.684874999977183","500","250","zol","-0.41","2","1","6","-21","0.41",""
"","psychophysics","137","1716083","0.0-137.0","5f4d3cb5fdda0b2c403fb801","64e506cc51f2940f68db9f28","","","","","4079",""," ","key"," ","16.664147540983233","500","250","zol","-0.85","2","1","0","-27","0.25",""
"","psychophysics","138","1719867","0.0-138.0","5f4d3cb5fdda0b2c403fb801","64e506cc51f2940f68db9f28","","","","","3781",""," ","key"," ","16.66556194690221","500","250","zol","-0.15","2","1","-26","4","0.15",""
"","psychophysics","139","1725947","0.0-139.0","5f4d3cb5fdda0b2c403fb801","64e506cc51f2940f68db9f28","","","","","6078",""," ","key"," ","16.664469780219378","500","250","zol","-0.58","2","1","-11","14","-0.32",""
"","psychophysics","140","1741340","0.0-140.0","5f4d3cb5fdda0b2c403fb801","64e506cc51f2940f68db9f28","","","","","15392",""," ","key"," ","16.664681127982533","500","250","inst","","","","","","",""
"","psychophysics","141","1751027","0.0-141.0","5f4d3cb5fdda0b2c403fb801","64e506cc51f2940f68db9f28","","","","","9661",""," ","key"," ","16.664814113597217","500","250","instBr3","-9","1","","0","0","40","300"
"","psychophysics","142","1752915","0.0-142.0","5f4d3cb5fdda0b2c403fb801","64e506cc51f2940f68db9f28","","","","","1887",""," ","key"," ","16.66600892857033","500","250","inst","","","","","","",""
"","psychophysics","143","1756698","0.0-143.0","5f4d3cb5fdda0b2c403fb801","64e506cc51f2940f68db9f28","","","","","3782",""," ","key"," ","16.665252212389678","500","250","br","-7","1","1","-18","3","8","202"
"","psychophysics","144","1761043","0.0-144.0","5f4d3cb5fdda0b2c403fb801","64e506cc51f2940f68db9f28","","","","","4343",""," ","key"," ","16.66456153846095","500","250","br","-13","1","1","-8","19","17","283"
"","psychophysics","145","1765603","0.0-145.0","5f4d3cb5fdda0b2c403fb801","64e506cc51f2940f68db9f28","","","","","4558",""," ","key"," ","16.66444117647017","500","250","br","-7","1","1","-12","18","22","217"
"","psychophysics","146","1769267","0.0-146.0","5f4d3cb5fdda0b2c403fb801","64e506cc51f2940f68db9f28","","","","","3662",""," ","key"," ","16.664867579909338","500","250","br","-10","1","1","-10","12","6","293"
"","psychophysics","147","1772835","0.0-147.0","5f4d3cb5fdda0b2c403fb801","64e506cc51f2940f68db9f28","","","","","3566",""," ","key"," ","16.66536619718309","500","250","br","-12","1","1","-12","24","-1","232"
"","psychophysics","148","1777746","0.0-148.0","5f4d3cb5fdda0b2c403fb801","64e506cc51f2940f68db9f28","","","","","4910",""," ","key"," ","16.722494880546442","500","250","br","-9","1","1","15","-12","26","206"
"","psychophysics","149","1781674","0.0-149.0","5f4d3cb5fdda0b2c403fb801","64e506cc51f2940f68db9f28","","","","","3926",""," ","key"," ","16.665463829786574","500","250","br","-10","1","1","2","-26","6","282"
"","psychophysics","150","1785155","0.0-150.0","5f4d3cb5fdda0b2c403fb801","64e506cc51f2940f68db9f28","","","","","3480",""," ","key"," ","16.665485576922386","500","250","br","-12","1","1","27","12","-13","239"
"","psychophysics","151","1791930","0.0-151.0","5f4d3cb5fdda0b2c403fb801","64e506cc51f2940f68db9f28","","","","","6772",""," ","key"," ","16.664437037037203","500","250","br","-18","1","1","11","21","22","300"
"","psychophysics","152","1796602","0.0-152.0","5f4d3cb5fdda0b2c403fb801","64e506cc51f2940f68db9f28","","","","","4669",""," ","key"," ","16.66483571428606","500","250","br","-10","1","1","9","7","-19","261"
"","psychophysics","153","1800914","0.0-153.0","5f4d3cb5fdda0b2c403fb801","64e506cc51f2940f68db9f28","","","","","4310",""," ","key"," ","16.664778210116726","500","250","br","-13","1","1","-15","-20","25","260"
"","psychophysics","154","1804802","0.0-154.0","5f4d3cb5fdda0b2c403fb801","64e506cc51f2940f68db9f28","","","","","3886",""," ","key"," ","16.66475107296182","500","250","br","-13","1","1","-6","-10","-27","214"
"","psychophysics","155","1809285","0.0-155.0","5f4d3cb5fdda0b2c403fb801","64e506cc51f2940f68db9f28","","","","","4482",""," ","key"," ","16.66461940298514","500","250","br","-12","1","1","-9","-27","10","232"
"","psychophysics","156","1814074","0.0-156.0","5f4d3cb5fdda0b2c403fb801","64e506cc51f2940f68db9f28","","","","","4778",""," ","key"," ","16.665041958042128","500","250","br","-14","1","1","18","27","28","240"
"","psychophysics","157","1818804","0.0-157.0","5f4d3cb5fdda0b2c403fb801","64e506cc51f2940f68db9f28","","","","","4728",""," ","key"," ","16.66471024735028","500","250","br","-11","1","1","-6","-11","23","215"
"","psychophysics","158","1820850","0.0-158.0","5f4d3cb5fdda0b2c403fb801","64e506cc51f2940f68db9f28","","","","","2044",""," ","key"," ","16.664532786885992","500","250","inst","","","","","","",""
"","psychophysics","159","1827586","0.0-159.0","5f4d3cb5fdda0b2c403fb801","64e506cc51f2940f68db9f28","","","","","6735",""," ","key"," ","16.66490818858586","500","250","instEB1","38","2","","0","0","30","40"
"","psychophysics","160","1836251","0.0-160.0","5f4d3cb5fdda0b2c403fb801","64e506cc51f2940f68db9f28","","","","","8663",""," ","key"," ","16.664564547206137","500","250","instEB2","32","2","","0","0","40","30"
"","psychophysics","161","1846474","0.0-161.0","5f4d3cb5fdda0b2c403fb801","64e506cc51f2940f68db9f28","","","","","10217",""," ","key"," ","16.664795751633957","500","250","instEB3","29","2","","0","0","45","27"
"","psychophysics","162","1854395","0.0-162.0","5f4d3cb5fdda0b2c403fb801","64e506cc51f2940f68db9f28","","","","","7919",""," ","key"," ","16.664559999999934","500","250","instEB4","43","2","","0","0","30","40"
"","psychophysics","163","1855307","0.0-163.0","5f4d3cb5fdda0b2c403fb801","64e506cc51f2940f68db9f28","","","","","901",""," ","key"," ","16.664566037737114","500","250","inst","","","","","","",""
"","psychophysics","164","1859019","0.0-164.0","5f4d3cb5fdda0b2c403fb801","64e506cc51f2940f68db9f28","","","","","3710",""," ","key"," ","16.664621621622025","500","250","eb","45","2","","0","0","46","42"
"","psychophysics","165","1864210","0.0-165.0","5f4d3cb5fdda0b2c403fb801","64e506cc51f2940f68db9f28","","","","","5189",""," ","key"," ","16.664337620578582","500","250","eb","46","2","","0","0","30","41"
"","psychophysics","166","1869700","0.0-166.0","5f4d3cb5fdda0b2c403fb801","64e506cc51f2940f68db9f28","","","","","5488",""," ","key"," ","16.6643292682924","500","250","eb","53","2","","0","0","26","51"
"","psychophysics","167","1875610","0.0-167.0","5f4d3cb5fdda0b2c403fb801","64e506cc51f2940f68db9f28","","","","","5905",""," ","key"," ","16.664951977400914","500","250","eb","37","2","","0","0","35","34"
"","psychophysics","168","1883586","0.0-168.0","5f4d3cb5fdda0b2c403fb801","64e506cc51f2940f68db9f28","","","","","7974",""," ","key"," ","16.664570230607968","500","250","eb","30","2","","0","0","51","26"
"","psychophysics","169","1891590","0.0-169.0","5f4d3cb5fdda0b2c403fb801","64e506cc51f2940f68db9f28","","","","","null","","null","key","null","16.66461249999993","500","250","eb","49","2","","0","0","25","47"
"","psychophysics","170","1891738","0.0-170.0","5f4d3cb5fdda0b2c403fb801","64e506cc51f2940f68db9f28","","","","","135",""," ","key"," ","16.683571428559453","500","250","eb","54","2","","0","0","54","41"
"","psychophysics","171","1899010","0.0-171.0","5f4d3cb5fdda0b2c403fb801","64e506cc51f2940f68db9f28","","","","","7267",""," ","key"," ","16.664474770642492","500","250","eb","34","2","","0","0","45","30"
"","psychophysics","172","1904545","0.0-172.0","5f4d3cb5fdda0b2c403fb801","64e506cc51f2940f68db9f28","","","","","5533",""," ","key"," ","16.664861027190035","500","250","eb","26","2","","0","0","38","24"
"","psychophysics","173","1910392","0.0-173.0","5f4d3cb5fdda0b2c403fb801","64e506cc51f2940f68db9f28","","","","","5845",""," ","key"," ","16.664597142856966","500","250","eb","35","2","","0","0","46","33"
"","psychophysics","174","1914354","0.0-174.0","5f4d3cb5fdda0b2c403fb801","64e506cc51f2940f68db9f28","","","","","3958",""," ","key"," ","16.66573839662459","500","250","eb","30","2","","0","0","25","28"
"","psychophysics","175","1918106","0.0-175.0","5f4d3cb5fdda0b2c403fb801","64e506cc51f2940f68db9f28","","","","","3749",""," ","key"," ","16.663629464285414","500","250","eb","39","2","","0","0","45","34"
"","psychophysics","176","1920505","0.0-176.0","5f4d3cb5fdda0b2c403fb801","64e506cc51f2940f68db9f28","","","","","2398",""," ","key"," ","16.66346153846154","500","250","eb","45","2","","0","0","45","44"
"","psychophysics","177","1922545","0.0-177.0","5f4d3cb5fdda0b2c403fb801","64e506cc51f2940f68db9f28","","","","","2038",""," ","key"," ","16.664041322313466","500","250","eb","49","2","","0","0","47","48"
"","psychophysics","178","1928285","0.0-178.0","5f4d3cb5fdda0b2c403fb801","64e506cc51f2940f68db9f28","","","","","5738",""," ","key"," ","16.665169096209716","500","250","eb","45","2","","0","0","31","41"
"","psychophysics","179","1929418","0.0-179.0","5f4d3cb5fdda0b2c403fb801","64e506cc51f2940f68db9f28","","","","","1109",""," ","key"," ","16.66072058823535","500","250","inst","","","","","","",""
"","psychophysics","180","1946817","0.0-180.0","5f4d3cb5fdda0b2c403fb801","64e506cc51f2940f68db9f28","","","","","17397",""," ","key"," ","16.664464046020946","500","250","instPz1","44","2","","","","25","50"
"","psychophysics","181","1950539","0.0-181.0","5f4d3cb5fdda0b2c403fb801","64e506cc51f2940f68db9f28","","","","","3719",""," ","key"," ","16.665779279279608","500","250","instPz2","30","2","","","","20","35"
"","psychophysics","182","1962050","0.0-182.0","5f4d3cb5fdda0b2c403fb801","64e506cc51f2940f68db9f28","","","","","11510",""," ","key"," ","16.664513043478212","500","250","instPz3","70","2","","","","30","100"
"","psychophysics","183","1971817","0.0-183.0","5f4d3cb5fdda0b2c403fb801","64e506cc51f2940f68db9f28","","","","","9765",""," ","key"," ","16.6647794871798","500","250","instPz4","65","2","","","","30","100"
"","psychophysics","184","1973523","0.0-184.0","5f4d3cb5fdda0b2c403fb801","64e506cc51f2940f68db9f28","","","","","1704",""," ","key"," ","16.665396039604698","500","250","inst","","","","","","",""
"","psychophysics","185","1977393","0.0-185.0","5f4d3cb5fdda0b2c403fb801","64e506cc51f2940f68db9f28","","","","","3861",""," ","key"," ","16.664324675324814","500","250","pz","30","2","1","","","44","37"
"","psychophysics","186","1980700","0.0-186.0","5f4d3cb5fdda0b2c403fb801","64e506cc51f2940f68db9f28","","","","","3294",""," ","key"," ","16.665015151514908","500","250","pz","30","2","1","","","26","48"
"","psychophysics","187","1984219","0.0-187.0","5f4d3cb5fdda0b2c403fb801","64e506cc51f2940f68db9f28","","","","","3515",""," ","key"," ","16.664499999999645","500","250","pz","31","2","1","","","29","54"
"","psychophysics","188","1987946","0.0-188.0","5f4d3cb5fdda0b2c403fb801","64e506cc51f2940f68db9f28","","","","","3723",""," ","key"," ","16.664197309417734","500","250","pz","22","2","1","","","52","26"
"","psychophysics","189","1989746","0.0-189.0","5f4d3cb5fdda0b2c403fb801","64e506cc51f2940f68db9f28","","","","","1798",""," ","key"," ","16.821198113205543","500","250","pz","26","2","1","","","27","46"
"","psychophysics","190","1995178","0.0-190.0","5f4d3cb5fdda0b2c403fb801","64e506cc51f2940f68db9f28","","","","","5429",""," ","key"," ","16.66480923076948","500","250","pz","36","2","1","","","48","59"
"","psychophysics","191","1998521","0.0-191.0","5f4d3cb5fdda0b2c403fb801","64e506cc51f2940f68db9f28","","","","","3342",""," ","key"," ","16.66322613065365","500","250","pz","30","2","1","","","31","42"
"","psychophysics","192","2002233","0.0-192.0","5f4d3cb5fdda0b2c403fb801","64e506cc51f2940f68db9f28","","","","","3710",""," ","key"," ","16.66646396396325","500","250","pz","26","2","1","","","20","43"
"","psychophysics","193","2005153","0.0-193.0","5f4d3cb5fdda0b2c403fb801","64e506cc51f2940f68db9f28","","","","","2919",""," ","key"," ","16.66445402298845","500","250","pz","34","2","1","","","33","55"
"","psychophysics","194","2009468","0.0-194.0","5f4d3cb5fdda0b2c403fb801","64e506cc51f2940f68db9f28","","","","","4313",""," ","key"," ","16.664744186047248","500","250","pz","21","2","1","","","53","25"
"","psychophysics","195","2012642","0.0-195.0","5f4d3cb5fdda0b2c403fb801","64e506cc51f2940f68db9f28","","","","","3172",""," ","key"," ","16.662763157893757","500","250","pz","21","2","1","","","29","25"
"","psychophysics","196","2016860","0.0-196.0","5f4d3cb5fdda0b2c403fb801","64e506cc51f2940f68db9f28","","","","","4215",""," ","key"," ","16.66601587301545","500","250","pz","29","2","1","","","40","42"
"","psychophysics","197","2020017","0.0-197.0","5f4d3cb5fdda0b2c403fb801","64e506cc51f2940f68db9f28","","","","","3154",""," ","key"," ","16.66437765957535","500","250","pz","30","2","1","","","47","50"
"","psychophysics","198","2023714","0.0-198.0","5f4d3cb5fdda0b2c403fb801","64e506cc51f2940f68db9f28","","","","","3696",""," ","key"," ","16.664900452489608","500","250","pz","29","2","1","","","22","55"
"","psychophysics","199","2025553","0.0-199.0","5f4d3cb5fdda0b2c403fb801","64e506cc51f2940f68db9f28","","","","","1836",""," ","key"," ","16.664458715596126","500","250","pz","29","2","1","","","29","36"
"","psychophysics","200","2026425","0.0-200.0","5f4d3cb5fdda0b2c403fb801","64e506cc51f2940f68db9f28","","","","","871",""," ","key"," ","16.66355769230554","500","250","inst","","","","","","",""
"","psychophysics","201","2038161","0.0-201.0","5f4d3cb5fdda0b2c403fb801","64e506cc51f2940f68db9f28","","","","","11735",""," ","key"," ","16.664600284494906","500","250","instPog0","340","2","","0","0","370","340"
"","psychophysics","202","2059490","0.0-202.0","5f4d3cb5fdda0b2c403fb801","64e506cc51f2940f68db9f28","","","","","21326",""," ","key"," ","16.730036106750294","500","250","instPog1","340","2","","0","0","370","340"
"","psychophysics","203","2065242","0.0-203.0","5f4d3cb5fdda0b2c403fb801","64e506cc51f2940f68db9f28","","","","","5751",""," ","key"," ","16.66470348837225","500","250","instPog2","338","2","","0","0","340","340"
"","psychophysics","204","2069193","0.0-204.0","5f4d3cb5fdda0b2c403fb801","64e506cc51f2940f68db9f28","","","","","3948",""," ","key"," ","16.66456779661012","500","250","inst","","","","","","",""
"","psychophysics","205","2075841","0.0-205.0","5f4d3cb5fdda0b2c403fb801","64e506cc51f2940f68db9f28","","","","","6646",""," ","key"," ","16.66469095477392","500","250","pog","350","2","1","0","0","308","360"
"","psychophysics","206","2081369","0.0-206.0","5f4d3cb5fdda0b2c403fb801","64e506cc51f2940f68db9f28","","","","","5527",""," ","key"," ","16.664516616314426","500","250","pog","357","2","1","0","0","307","366"
"","psychophysics","207","2086049","0.0-207.0","5f4d3cb5fdda0b2c403fb801","64e506cc51f2940f68db9f28","","","","","4679",""," ","key"," ","16.664042857142963","500","250","pog","345","2","1","0","0","389","353"
"","psychophysics","208","2089545","0.0-208.0","5f4d3cb5fdda0b2c403fb801","64e506cc51f2940f68db9f28","","","","","3495",""," ","key"," ","16.665322115383997","500","250","pog","315","2","1","0","0","293","322"
"","psychophysics","209","2095370","0.0-209.0","5f4d3cb5fdda0b2c403fb801","64e506cc51f2940f68db9f28","","","","","5820",""," ","key"," ","16.66422063037206","500","250","pog","316","2","1","0","0","384","326"
"","psychophysics","210","2100201","0.0-210.0","5f4d3cb5fdda0b2c403fb801","64e506cc51f2940f68db9f28","","","","","4830",""," ","key"," ","16.664435986158757","500","250","pog","358","2","1","0","0","296","367"
"","psychophysics","211","2103570","0.0-211.0","5f4d3cb5fdda0b2c403fb801","64e506cc51f2940f68db9f28","","","","","3368",""," ","key"," ","16.665029850746713","500","250","pog","296","2","1","0","0","300","307"
"","psychophysics","212","2108218","0.0-212.0","5f4d3cb5fdda0b2c403fb801","64e506cc51f2940f68db9f28","","","","","4643",""," ","key"," ","16.78520652173809","500","250","pog","312","2","1","0","0","370","318"
"","psychophysics","213","2113194","0.0-213.0","5f4d3cb5fdda0b2c403fb801","64e506cc51f2940f68db9f28","","","","","4975",""," ","key"," ","16.664795302012436","500","250","pog","368","2","1","0","0","300","380"
"","psychophysics","214","2118306","0.0-214.0","5f4d3cb5fdda0b2c403fb801","64e506cc51f2940f68db9f28","","","","","5110",""," ","key"," ","16.664609836066354","500","250","pog","302","2","1","0","0","314","314"
"","psychophysics","215","2123417","0.0-215.0","5f4d3cb5fdda0b2c403fb801","64e506cc51f2940f68db9f28","","","","","5109",""," ","key"," ","16.664594771241575","500","250","pog","362","2","1","0","0","394","371"
"","psychophysics","216","2125242","0.0-216.0","5f4d3cb5fdda0b2c403fb801","64e506cc51f2940f68db9f28","","","","","1824",""," ","key"," ","16.664750000000588","500","250","pog","365","2","1","0","0","371","376"
"","psychophysics","217","2131977","0.0-217.0","5f4d3cb5fdda0b2c403fb801","64e506cc51f2940f68db9f28","","","","","6732",""," ","key"," ","16.664128712870614","500","250","pog","310","2","1","0","0","368","323"
"","psychophysics","218","2136770","0.0-218.0","5f4d3cb5fdda0b2c403fb801","64e506cc51f2940f68db9f28","","","","","4790",""," ","key"," ","16.6648286713297","500","250","pog","309","2","1","0","0","329","327"
"","psychophysics","219","2141067","0.0-219.0","5f4d3cb5fdda0b2c403fb801","64e506cc51f2940f68db9f28","","","","","4296",""," ","key"," ","16.66448249027372","500","250","pog","352","2","1","0","0","368","368"
