"success","trial_type","trial_index","time_elapsed","internal_node_id","pid","sid","timeout","failed_images","failed_audio","failed_video","rt","stimulus","response","response_type","key_press","avg_frame_time","center_x","center_y","task","resp","version","block","jitterX","jitterY","start","parA"
"true","fullscreen","0","3694","0.0-0.0","62d6bb8e4013eafa3dfd8fc2","64de83eb4e9e13119084c167","","","","","","","","","","","","","","","","","","","",""
"true","preload","1","3794","0.0-1.0","62d6bb8e4013eafa3dfd8fc2","64de83eb4e9e13119084c167","false","[]","[]","[]","","","","","","","","","","","","","","","",""
"","html-button-response","2","5766","0.0-2.0","62d6bb8e4013eafa3dfd8fc2","64de83eb4e9e13119084c167","","","","","1971","Please Make Sure Your Audio Is On.","0","","","","","","","","","","","","",""
"","psychophysics","3","9332","0.0-3.0","62d6bb8e4013eafa3dfd8fc2","64de83eb4e9e13119084c167","","","","","3562",""," ","key"," ","6.94440545808967","960","250","","","","","","","",""
"","psychophysics","4","12616","0.0-4.0","62d6bb8e4013eafa3dfd8fc2","64de83eb4e9e13119084c167","","","","","3283",""," ","key"," ","6.944387711864407","500","250","inst","","","","","","",""
"","psychophysics","5","17021","0.0-5.0","62d6bb8e4013eafa3dfd8fc2","64de83eb4e9e13119084c167","","","","","4404",""," ","key"," ","6.944411671924289","500","250","sample0","","","","","","",""
"","psychophysics","6","21171","0.0-6.0","62d6bb8e4013eafa3dfd8fc2","64de83eb4e9e13119084c167","","","","","4149",""," ","key"," ","6.944426174496646","500","250","sample1","","","","","","",""
"","psychophysics","7","31620","0.0-7.0","62d6bb8e4013eafa3dfd8fc2","64de83eb4e9e13119084c167","","","","","10448",""," ","key"," ","6.944388962765958","500","250","sample2","100","","","","","",""
"","psychophysics","8","38263","0.0-8.0","62d6bb8e4013eafa3dfd8fc2","64de83eb4e9e13119084c167","","","","","6642",""," ","key"," ","6.94435497382199","500","250","sample3","100","","","","","",""
"","psychophysics","9","43838","0.0-9.0","62d6bb8e4013eafa3dfd8fc2","64de83eb4e9e13119084c167","","","","","5573",""," ","key"," ","6.944413965087279","500","250","sample4","100","","","","","",""
"","psychophysics","10","47969","0.0-10.0","62d6bb8e4013eafa3dfd8fc2","64de83eb4e9e13119084c167","","","","","4130",""," ","key"," ","6.944604377104379","500","250","sample5","","","","","","",""
"","psychophysics","11","64402","0.0-11.0","62d6bb8e4013eafa3dfd8fc2","64de83eb4e9e13119084c167","","","","","16432",""," ","key"," ","6.944368287526429","500","250","sample6","500","","","","","",""
"","psychophysics","12","70481","0.0-12.0","62d6bb8e4013eafa3dfd8fc2","64de83eb4e9e13119084c167","","","","","6077",""," ","key"," ","6.944561142857137","500","250","inst","","","","","","",""
"","psychophysics","13","78801","0.0-13.0","62d6bb8e4013eafa3dfd8fc2","64de83eb4e9e13119084c167","","","","","8320",""," ","key"," ","6.94431829573935","500","250","inst","","","","","","",""
"","psychophysics","14","85350","0.0-14.0","62d6bb8e4013eafa3dfd8fc2","64de83eb4e9e13119084c167","","","","","6548",""," ","key"," ","6.944484076433119","500","250","inst","","","","","","",""
"","psychophysics","15","89026","0.0-15.0","62d6bb8e4013eafa3dfd8fc2","64de83eb4e9e13119084c167","","","","","3676",""," ","key"," ","6.944179924242428","500","250","inst","","","","","","",""
"","psychophysics","16","92974","0.0-16.0","62d6bb8e4013eafa3dfd8fc2","64de83eb4e9e13119084c167","","","","","3946",""," ","key"," ","6.944380281690159","500","250","inst","","","","","","",""
"","psychophysics","17","98245","0.0-17.0","62d6bb8e4013eafa3dfd8fc2","64de83eb4e9e13119084c167","","","","","5269",""," ","key"," ","6.95357463672391","500","250","instBr0","0","","","0","0","0","300"
"","psychophysics","18","104752","0.0-18.0","62d6bb8e4013eafa3dfd8fc2","64de83eb4e9e13119084c167","","","","","6507",""," ","key"," ","6.9443504273504395","500","250","instBr1","3","","","0","0","-40","300"
"","psychophysics","19","123825","0.0-19.0","62d6bb8e4013eafa3dfd8fc2","64de83eb4e9e13119084c167","","","","","19072",""," ","key"," ","6.944401821493625","500","250","instBr3","-24","1","","0","0","40","300"
"","psychophysics","20","126212","0.0-20.0","62d6bb8e4013eafa3dfd8fc2","64de83eb4e9e13119084c167","","","","","2385",""," ","key"," ","6.944714285714276","500","250","inst","","","","","","",""
"","psychophysics","21","130424","0.0-21.0","62d6bb8e4013eafa3dfd8fc2","64de83eb4e9e13119084c167","","","","","4211",""," ","key"," ","6.944429042904304","500","250","br","-19","1","0","-6","-23","-21","220"
"","psychophysics","22","135869","0.0-22.0","62d6bb8e4013eafa3dfd8fc2","64de83eb4e9e13119084c167","","","","","5443",""," ","key"," ","6.94434227330777","500","250","br","-25","1","0","25","-30","-7","297"
"","psychophysics","23","143671","0.0-23.0","62d6bb8e4013eafa3dfd8fc2","64de83eb4e9e13119084c167","","","","","7801",""," ","key"," ","6.944332442067734","500","250","br","-22","1","0","22","10","20","296"
"","psychophysics","24","149344","0.0-24.0","62d6bb8e4013eafa3dfd8fc2","64de83eb4e9e13119084c167","","","","","5672",""," ","key"," ","6.9444240196078715","500","250","br","-20","1","0","-1","10","27","205"
"","psychophysics","25","153734","0.0-25.0","62d6bb8e4013eafa3dfd8fc2","64de83eb4e9e13119084c167","","","","","4388",""," ","key"," ","6.944326465927093","500","250","br","-21","1","0","9","-30","18","229"
"","psychophysics","26","158450","0.0-26.0","62d6bb8e4013eafa3dfd8fc2","64de83eb4e9e13119084c167","","","","","4715",""," ","key"," ","6.944406480117832","500","250","br","-24","1","0","6","20","-5","278"
"","psychophysics","27","163712","0.0-27.0","62d6bb8e4013eafa3dfd8fc2","64de83eb4e9e13119084c167","","","","","5261",""," ","key"," ","6.9445039682539855","500","250","br","-23","1","0","13","10","-5","250"
"","psychophysics","28","171714","0.0-28.0","62d6bb8e4013eafa3dfd8fc2","64de83eb4e9e13119084c167","","","","","null","","null","key","null","6.944397914856653","500","250","br","-23","1","0","-13","-15","22","287"
"","psychophysics","29","178750","0.0-29.0","62d6bb8e4013eafa3dfd8fc2","64de83eb4e9e13119084c167","","","","","7034",""," ","key"," ","6.944331688055288","500","250","br","-25","1","0","11","21","2","281"
"","psychophysics","30","186755","0.0-30.0","62d6bb8e4013eafa3dfd8fc2","64de83eb4e9e13119084c167","","","","","null","","null","key","null","6.950447826086943","500","250","br","-22","1","0","7","-3","16","206"
"","psychophysics","31","193314","0.0-31.0","62d6bb8e4013eafa3dfd8fc2","64de83eb4e9e13119084c167","","","","","6557",""," ","key"," ","6.944433262711847","500","250","br","-26","1","0","14","18","-4","236"
"","psychophysics","32","199786","0.0-32.0","62d6bb8e4013eafa3dfd8fc2","64de83eb4e9e13119084c167","","","","","6471",""," ","key"," ","6.944385606874326","500","250","br","-21","1","0","-27","23","10","281"
"","psychophysics","33","204448","0.0-33.0","62d6bb8e4013eafa3dfd8fc2","64de83eb4e9e13119084c167","","","","","4661",""," ","key"," ","6.9443417910447796","500","250","br","-20","1","0","-16","9","-19","227"
"","psychophysics","34","212449","0.0-34.0","62d6bb8e4013eafa3dfd8fc2","64de83eb4e9e13119084c167","","","","","null","","null","key","null","6.944481320590789","500","250","br","-23","1","0","-14","17","-1","280"
"","psychophysics","35","217974","0.0-35.0","62d6bb8e4013eafa3dfd8fc2","64de83eb4e9e13119084c167","","","","","5523",""," ","key"," ","6.9444440251572495","500","250","br","-18","1","0","-25","-11","9","236"
"","psychophysics","36","219609","0.0-36.0","62d6bb8e4013eafa3dfd8fc2","64de83eb4e9e13119084c167","","","","","1634",""," ","key"," ","6.9446880341880375","500","250","inst","","","","","","",""
"","psychophysics","37","222801","0.0-37.0","62d6bb8e4013eafa3dfd8fc2","64de83eb4e9e13119084c167","","","","","3190",""," ","key"," ","6.94445098039215","500","250","instPzPre","50","0","","","","50","50"
"","psychophysics","38","225455","0.0-38.0","62d6bb8e4013eafa3dfd8fc2","64de83eb4e9e13119084c167","","","","","2653",""," ","key"," ","6.944590551181091","500","250","instPz0","50","1","","","","50","50"
"","psychophysics","39","232731","0.0-39.0","62d6bb8e4013eafa3dfd8fc2","64de83eb4e9e13119084c167","","","","","7274",""," ","key"," ","6.944437440305636","500","250","instPz1","53","1","","","","25","50"
"","psychophysics","40","237174","0.0-40.0","62d6bb8e4013eafa3dfd8fc2","64de83eb4e9e13119084c167","","","","","4442",""," ","key"," ","6.944436619718303","500","250","instPz2","21","1","","","","35","20"
"","psychophysics","41","249011","0.0-41.0","62d6bb8e4013eafa3dfd8fc2","64de83eb4e9e13119084c167","","","","","11835",""," ","key"," ","6.964843934040043","500","250","instPz3","31","1","","","","100","30"
"","psychophysics","42","255405","0.0-42.0","62d6bb8e4013eafa3dfd8fc2","64de83eb4e9e13119084c167","","","","","6393",""," ","key"," ","6.944479347826089","500","250","instPz4","31","1","","","","100","30"
"","psychophysics","43","257026","0.0-43.0","62d6bb8e4013eafa3dfd8fc2","64de83eb4e9e13119084c167","","","","","1620",""," ","key"," ","6.944407725321977","500","250","inst","","","","","","",""
"","psychophysics","44","260426","0.0-44.0","62d6bb8e4013eafa3dfd8fc2","64de83eb4e9e13119084c167","","","","","3399",""," ","key"," ","6.944198770491804","500","250","pz","32","1","0","","","51","34"
"","psychophysics","45","265029","0.0-45.0","62d6bb8e4013eafa3dfd8fc2","64de83eb4e9e13119084c167","","","","","4602",""," ","key"," ","6.9443776435045095","500","250","pz","47","1","0","","","54","53"
"","psychophysics","46","268125","0.0-46.0","62d6bb8e4013eafa3dfd8fc2","64de83eb4e9e13119084c167","","","","","3094",""," ","key"," ","6.94442471910119","500","250","pz","38","1","0","","","35","38"
"","psychophysics","47","271404","0.0-47.0","62d6bb8e4013eafa3dfd8fc2","64de83eb4e9e13119084c167","","","","","3278",""," ","key"," ","6.944386411889683","500","250","pz","34","1","0","","","57","34"
"","psychophysics","48","274866","0.0-48.0","62d6bb8e4013eafa3dfd8fc2","64de83eb4e9e13119084c167","","","","","3461",""," ","key"," ","6.944396378269599","500","250","pz","48","1","0","","","36","52"
"","psychophysics","49","277910","0.0-49.0","62d6bb8e4013eafa3dfd8fc2","64de83eb4e9e13119084c167","","","","","3042",""," ","key"," ","6.944376712328739","500","250","pz","51","1","0","","","50","52"
"","psychophysics","50","282220","0.0-50.0","62d6bb8e4013eafa3dfd8fc2","64de83eb4e9e13119084c167","","","","","4309",""," ","key"," ","6.94449434571889","500","250","pz","31","1","0","","","53","32"
"","psychophysics","51","285292","0.0-51.0","62d6bb8e4013eafa3dfd8fc2","64de83eb4e9e13119084c167","","","","","3070",""," ","key"," ","6.9444932126695855","500","250","pz","36","1","0","","","22","35"
"","psychophysics","52","289689","0.0-52.0","62d6bb8e4013eafa3dfd8fc2","64de83eb4e9e13119084c167","","","","","4396",""," ","key"," ","6.944468354430349","500","250","pz","31","1","0","","","42","28"
"","psychophysics","53","292342","0.0-53.0","62d6bb8e4013eafa3dfd8fc2","64de83eb4e9e13119084c167","","","","","2652",""," ","key"," ","6.944359580052435","500","250","pz","49","1","0","","","44","50"
"","psychophysics","54","297807","0.0-54.0","62d6bb8e4013eafa3dfd8fc2","64de83eb4e9e13119084c167","","","","","5464",""," ","key"," ","6.944486005089033","500","250","pz","58","1","0","","","27","60"
"","psychophysics","55","302549","0.0-55.0","62d6bb8e4013eafa3dfd8fc2","64de83eb4e9e13119084c167","","","","","4741",""," ","key"," ","6.944450146627638","500","250","pz","56","1","0","","","49","59"
"","psychophysics","56","309109","0.0-56.0","62d6bb8e4013eafa3dfd8fc2","64de83eb4e9e13119084c167","","","","","6559",""," ","key"," ","6.944342523860036","500","250","pz","51","1","0","","","23","49"
"","psychophysics","57","311449","0.0-57.0","62d6bb8e4013eafa3dfd8fc2","64de83eb4e9e13119084c167","","","","","2338",""," ","key"," ","6.944648809523815","500","250","pz","52","1","0","","","34","59"
"","psychophysics","58","314341","0.0-58.0","62d6bb8e4013eafa3dfd8fc2","64de83eb4e9e13119084c167","","","","","2891",""," ","key"," ","6.94440865384618","500","250","pz","49","1","0","","","45","51"
"","psychophysics","59","315000","0.0-59.0","62d6bb8e4013eafa3dfd8fc2","64de83eb4e9e13119084c167","","","","","658",""," ","key"," ","6.944255319148416","500","250","inst","","","","","","",""
"","psychophysics","60","317646","0.0-60.0","62d6bb8e4013eafa3dfd8fc2","64de83eb4e9e13119084c167","","","","","2645",""," ","key"," ","6.944457894736919","500","250","instZol0","0","","","0","0","0",""
"","psychophysics","61","330148","0.0-61.0","62d6bb8e4013eafa3dfd8fc2","64de83eb4e9e13119084c167","","","","","12501",""," ","key"," ","6.9444252362423615","500","250","instZol1","0.2999999999999998","","","0","0","-1.3",""
"","psychophysics","62","340084","0.0-62.0","62d6bb8e4013eafa3dfd8fc2","64de83eb4e9e13119084c167","","","","","9935",""," ","key"," ","6.949289713086097","500","250","instZol2","-2.2","2","","0","0","2",""
"","psychophysics","63","341166","0.0-63.0","62d6bb8e4013eafa3dfd8fc2","64de83eb4e9e13119084c167","","","","","1081",""," ","key"," ","6.944845161290329","500","250","inst","","","","","","",""
"","psychophysics","64","348715","0.0-64.0","62d6bb8e4013eafa3dfd8fc2","64de83eb4e9e13119084c167","","","","","7547",""," ","key"," ","6.9443904235727505","500","250","zol","-2.3000000000000007","2","0","-11","-14","-0.5",""
"","psychophysics","65","351868","0.0-65.0","62d6bb8e4013eafa3dfd8fc2","64de83eb4e9e13119084c167","","","","","3152",""," ","key"," ","6.944275938189937","500","250","zol","-1.6500000000000004","2","0","-16","18","0.25",""
"","psychophysics","66","355478","0.0-66.0","62d6bb8e4013eafa3dfd8fc2","64de83eb4e9e13119084c167","","","","","3608",""," ","key"," ","6.944383429672465","500","250","zol","-1.8600000000000008","2","0","-13","-9","0.66",""
"","psychophysics","67","360563","0.0-67.0","62d6bb8e4013eafa3dfd8fc2","64de83eb4e9e13119084c167","","","","","5083",""," ","key"," ","6.94428180574558","500","250","zol","-1.8000000000000005","2","0","-7","-27","-0.7",""
"","psychophysics","68","368232","0.0-68.0","62d6bb8e4013eafa3dfd8fc2","64de83eb4e9e13119084c167","","","","","7667",""," ","key"," ","6.944451495920201","500","250","zol","-2.120000000000001","2","0","-5","1","0.72",""
"","psychophysics","69","372838","0.0-69.0","62d6bb8e4013eafa3dfd8fc2","64de83eb4e9e13119084c167","","","","","4604",""," ","key"," ","6.944528700906331","500","250","zol","-1.7000000000000004","2","0","9","-9","-0.7",""
"","psychophysics","70","379470","0.0-70.0","62d6bb8e4013eafa3dfd8fc2","64de83eb4e9e13119084c167","","","","","6630",""," ","key"," ","6.944416142557711","500","250","zol","-2.480000000000001","2","0","-15","30","0.08",""
"","psychophysics","71","384198","0.0-71.0","62d6bb8e4013eafa3dfd8fc2","64de83eb4e9e13119084c167","","","","","4726",""," ","key"," ","6.944354411764738","500","250","zol","-2.500000000000001","2","0","-13","-6","-0.1",""
"","psychophysics","72","388744","0.0-72.0","62d6bb8e4013eafa3dfd8fc2","64de83eb4e9e13119084c167","","","","","4544",""," ","key"," ","6.944522935779807","500","250","zol","-2.270000000000001","2","0","-26","22","-0.13",""
"","psychophysics","73","395163","0.0-73.0","62d6bb8e4013eafa3dfd8fc2","64de83eb4e9e13119084c167","","","","","6417",""," ","key"," ","6.944322860238338","500","250","zol","-1.7500000000000004","2","0","9","29","0.15",""
"","psychophysics","74","398929","0.0-74.0","62d6bb8e4013eafa3dfd8fc2","64de83eb4e9e13119084c167","","","","","3764",""," ","key"," ","6.944372693726894","500","250","zol","-2.170000000000001","2","0","-29","10","-0.33",""
"","psychophysics","75","404539","0.0-75.0","62d6bb8e4013eafa3dfd8fc2","64de83eb4e9e13119084c167","","","","","5608",""," ","key"," ","6.944439205955327","500","250","zol","-1.8300000000000007","2","0","30","9","-0.47",""
"","psychophysics","76","408553","0.0-76.0","62d6bb8e4013eafa3dfd8fc2","64de83eb4e9e13119084c167","","","","","4013",""," ","key"," ","6.944512998266892","500","250","zol","-2.0500000000000007","2","0","20","-18","0.75",""
"","psychophysics","77","414912","0.0-77.0","62d6bb8e4013eafa3dfd8fc2","64de83eb4e9e13119084c167","","","","","6357",""," ","key"," ","6.944345355191258","500","250","zol","-1.9200000000000008","2","0","-27","29","0.02",""
"","psychophysics","78","422914","0.0-78.0","62d6bb8e4013eafa3dfd8fc2","64de83eb4e9e13119084c167","","","","","null","","null","key","null","6.944413553431815","500","250","zol","-2.3400000000000007","2","0","17","-26","-0.56",""
"","psychophysics","79","423624","0.0-79.0","62d6bb8e4013eafa3dfd8fc2","64de83eb4e9e13119084c167","","","","","709",""," ","key"," ","6.945411764706175","500","250","inst","","","","","","",""
"","psychophysics","80","439628","0.0-80.0","62d6bb8e4013eafa3dfd8fc2","64de83eb4e9e13119084c167","","","","","16003",""," ","key"," ","6.9443851498046","500","250","instPog0","160","1","","0","0","190","160"
"","psychophysics","81","447842","0.0-81.0","62d6bb8e4013eafa3dfd8fc2","64de83eb4e9e13119084c167","","","","","8213",""," ","key"," ","6.944428934010154","500","250","instPog1","158","1","","0","0","190","160"
"","psychophysics","82","451556","0.0-82.0","62d6bb8e4013eafa3dfd8fc2","64de83eb4e9e13119084c167","","","","","3713",""," ","key"," ","6.944320224719196","500","250","instPog2","198","1","","0","0","160","160"
"","psychophysics","83","452299","0.0-83.0","62d6bb8e4013eafa3dfd8fc2","64de83eb4e9e13119084c167","","","","","743",""," ","key"," ","6.94316037735882","500","250","inst","","","","","","",""
"","psychophysics","84","455965","0.0-84.0","62d6bb8e4013eafa3dfd8fc2","64de83eb4e9e13119084c167","","","","","3663",""," ","key"," ","6.944518026565462","500","250","pog","164","1","0","0","0","194","141"
"","psychophysics","85","458668","0.0-85.0","62d6bb8e4013eafa3dfd8fc2","64de83eb4e9e13119084c167","","","","","2702",""," ","key"," ","6.944466494845308","500","250","pog","194","1","0","0","0","196","169"
"","psychophysics","86","463050","0.0-86.0","62d6bb8e4013eafa3dfd8fc2","64de83eb4e9e13119084c167","","","","","4381",""," ","key"," ","6.944273015873004","500","250","pog","160","1","0","0","0","128","128"
"","psychophysics","87","470005","0.0-87.0","62d6bb8e4013eafa3dfd8fc2","64de83eb4e9e13119084c167","","","","","6954",""," ","key"," ","6.944321678321623","500","250","pog","175","1","0","0","0","129","143"
"","psychophysics","88","474800","0.0-88.0","62d6bb8e4013eafa3dfd8fc2","64de83eb4e9e13119084c167","","","","","4794",""," ","key"," ","6.944399129172702","500","250","pog","192","1","0","0","0","210","161"
"","psychophysics","89","480315","0.0-89.0","62d6bb8e4013eafa3dfd8fc2","64de83eb4e9e13119084c167","","","","","5514",""," ","key"," ","6.944562421185372","500","250","pog","219","1","0","0","0","175","172"
"","psychophysics","90","485742","0.0-90.0","62d6bb8e4013eafa3dfd8fc2","64de83eb4e9e13119084c167","","","","","5426",""," ","key"," ","6.9444212548015285","500","250","pog","170","1","0","0","0","196","128"
"","psychophysics","91","492748","0.0-91.0","62d6bb8e4013eafa3dfd8fc2","64de83eb4e9e13119084c167","","","","","7006",""," ","key"," ","6.944399801587318","500","250","pog","174","1","0","0","0","112","131"
"","psychophysics","92","500457","0.0-92.0","62d6bb8e4013eafa3dfd8fc2","64de83eb4e9e13119084c167","","","","","7708",""," ","key"," ","6.9443174030658446","500","250","pog","177","1","0","0","0","147","134"
"","psychophysics","93","508459","0.0-93.0","62d6bb8e4013eafa3dfd8fc2","64de83eb4e9e13119084c167","","","","","null","","null","key","null","6.944407471763664","500","250","pog","165","1","0","0","0","121","125"
"","psychophysics","94","512921","0.0-94.0","62d6bb8e4013eafa3dfd8fc2","64de83eb4e9e13119084c167","","","","","4460",""," ","key"," ","6.94431045241812","500","250","pog","218","1","0","0","0","216","180"
"","psychophysics","95","518595","0.0-95.0","62d6bb8e4013eafa3dfd8fc2","64de83eb4e9e13119084c167","","","","","5673",""," ","key"," ","6.944390452876425","500","250","pog","220","1","0","0","0","116","169"
"","psychophysics","96","521636","0.0-96.0","62d6bb8e4013eafa3dfd8fc2","64de83eb4e9e13119084c167","","","","","3040",""," ","key"," ","6.94432265446223","500","250","pog","177","1","0","0","0","193","131"
"","psychophysics","97","526706","0.0-97.0","62d6bb8e4013eafa3dfd8fc2","64de83eb4e9e13119084c167","","","","","5069",""," ","key"," ","6.944353909465032","500","250","pog","214","1","0","0","0","136","166"
"","psychophysics","98","532554","0.0-98.0","62d6bb8e4013eafa3dfd8fc2","64de83eb4e9e13119084c167","","","","","5846",""," ","key"," ","6.9444756242568415","500","250","pog","241","1","0","0","0","145","194"
"","psychophysics","99","577078","0.0-99.0","62d6bb8e4013eafa3dfd8fc2","64de83eb4e9e13119084c167","","","","","44523",""," ","key"," ","6.9454843189265185","500","250","inst","","","","","","",""
"","psychophysics","100","578833","0.0-100.0","62d6bb8e4013eafa3dfd8fc2","64de83eb4e9e13119084c167","","","","","1754",""," ","key"," ","6.944289682539723","500","250","instEB0","40","2","","0","0","40","40"
"","psychophysics","101","584060","0.0-101.0","62d6bb8e4013eafa3dfd8fc2","64de83eb4e9e13119084c167","","","","","5227",""," ","key"," ","6.94453457446798","500","250","instEB1","38","2","","0","0","30","40"
"","psychophysics","102","589167","0.0-102.0","62d6bb8e4013eafa3dfd8fc2","64de83eb4e9e13119084c167","","","","","5106",""," ","key"," ","6.953989085948125","500","250","instEB2","31","2","","0","0","40","30"
"","psychophysics","103","598469","0.0-103.0","62d6bb8e4013eafa3dfd8fc2","64de83eb4e9e13119084c167","","","","","9301",""," ","key"," ","6.9444279312920365","500","250","instEB3","29","2","","0","0","45","27"
"","psychophysics","104","604510","0.0-104.0","62d6bb8e4013eafa3dfd8fc2","64de83eb4e9e13119084c167","","","","","6040",""," ","key"," ","6.9604094579008615","500","250","instEB4","45","2","","0","0","30","40"
"","psychophysics","105","605456","0.0-105.0","62d6bb8e4013eafa3dfd8fc2","64de83eb4e9e13119084c167","","","","","945",""," ","key"," ","6.944814814814298","500","250","inst","","","","","","",""
"","psychophysics","106","608110","0.0-106.0","62d6bb8e4013eafa3dfd8fc2","64de83eb4e9e13119084c167","","","","","2653",""," ","key"," ","6.944640419947648","500","250","eb","44","2","","0","0","50","38"
"","psychophysics","107","610823","0.0-107.0","62d6bb8e4013eafa3dfd8fc2","64de83eb4e9e13119084c167","","","","","2712",""," ","key"," ","6.9445358974360625","500","250","eb","66","2","","0","0","45","54"
"","psychophysics","108","614345","0.0-108.0","62d6bb8e4013eafa3dfd8fc2","64de83eb4e9e13119084c167","","","","","3521",""," ","key"," ","6.944395256916883","500","250","eb","59","2","","0","0","38","52"
"","psychophysics","109","618929","0.0-109.0","62d6bb8e4013eafa3dfd8fc2","64de83eb4e9e13119084c167","","","","","4583",""," ","key"," ","6.944285280728354","500","250","eb","41","2","","0","0","28","37"
"","psychophysics","110","621954","0.0-110.0","62d6bb8e4013eafa3dfd8fc2","64de83eb4e9e13119084c167","","","","","3024",""," ","key"," ","6.944343317972286","500","250","eb","46","2","","0","0","33","41"
"","psychophysics","111","626009","0.0-111.0","62d6bb8e4013eafa3dfd8fc2","64de83eb4e9e13119084c167","","","","","4053",""," ","key"," ","6.944380789022337","500","250","eb","60","2","","0","0","33","54"
"","psychophysics","112","632312","0.0-112.0","62d6bb8e4013eafa3dfd8fc2","64de83eb4e9e13119084c167","","","","","6301",""," ","key"," ","6.944464167585399","500","250","eb","28","2","","0","0","44","26"
"","psychophysics","113","637316","0.0-113.0","62d6bb8e4013eafa3dfd8fc2","64de83eb4e9e13119084c167","","","","","5003",""," ","key"," ","6.94445277777785","500","250","eb","55","2","","0","0","42","50"
"","psychophysics","114","642384","0.0-114.0","62d6bb8e4013eafa3dfd8fc2","64de83eb4e9e13119084c167","","","","","5066",""," ","key"," ","6.944320054945011","500","250","eb","38","2","","0","0","53","31"
"","psychophysics","115","647709","0.0-115.0","62d6bb8e4013eafa3dfd8fc2","64de83eb4e9e13119084c167","","","","","5323",""," ","key"," ","6.944391644908591","500","250","eb","53","2","","0","0","35","46"
"","psychophysics","116","650649","0.0-116.0","62d6bb8e4013eafa3dfd8fc2","64de83eb4e9e13119084c167","","","","","2939",""," ","key"," ","6.944553191489298","500","250","eb","56","2","","0","0","38","51"
"","psychophysics","117","655381","0.0-117.0","62d6bb8e4013eafa3dfd8fc2","64de83eb4e9e13119084c167","","","","","4731",""," ","key"," ","6.944400000000058","500","250","eb","58","2","","0","0","35","54"
"","psychophysics","118","660527","0.0-118.0","62d6bb8e4013eafa3dfd8fc2","64de83eb4e9e13119084c167","","","","","5144",""," ","key"," ","6.944324324324387","500","250","eb","48","2","","0","0","45","47"
"","psychophysics","119","663245","0.0-119.0","62d6bb8e4013eafa3dfd8fc2","64de83eb4e9e13119084c167","","","","","2717",""," ","key"," ","6.944202564102419","500","250","eb","57","2","","0","0","36","51"
"","psychophysics","120","667227","0.0-120.0","62d6bb8e4013eafa3dfd8fc2","64de83eb4e9e13119084c167","","","","","3980",""," ","key"," ","6.944490401396108","500","250","eb","51","2","","0","0","48","44"
"","psychophysics","121","667887","0.0-121.0","62d6bb8e4013eafa3dfd8fc2","64de83eb4e9e13119084c167","","","","","660",""," ","key"," ","6.9442659574461745","500","250","inst","","","","","","",""
"","psychophysics","122","672500","0.0-122.0","62d6bb8e4013eafa3dfd8fc2","64de83eb4e9e13119084c167","","","","","4611",""," ","key"," ","6.9443634992458705","500","250","instPog0","340","2","","0","0","370","340"
"","psychophysics","123","677588","0.0-123.0","62d6bb8e4013eafa3dfd8fc2","64de83eb4e9e13119084c167","","","","","5087",""," ","key"," ","6.944404371584705","500","250","instPog1","340","2","","0","0","370","340"
"","psychophysics","124","2796350","0.0-124.0","62d6bb8e4013eafa3dfd8fc2","64de83eb4e9e13119084c167","","","","","2118762",""," ","key"," ","6.944510583484651","500","250","instPog2","304","2","","0","0","340","340"
"","psychophysics","125","2797613","0.0-125.0","62d6bb8e4013eafa3dfd8fc2","64de83eb4e9e13119084c167","","","","","1261",""," ","key"," ","6.944061111110366","500","250","inst","","","","","","",""
"","psychophysics","126","2799716","0.0-126.0","62d6bb8e4013eafa3dfd8fc2","64de83eb4e9e13119084c167","","","","","2102",""," ","key"," ","6.944337748344186","500","250","pog","276","2","1","0","0","320","313"
"","psychophysics","127","2803463","0.0-127.0","62d6bb8e4013eafa3dfd8fc2","64de83eb4e9e13119084c167","","","","","3745",""," ","key"," ","6.944541743970329","500","250","pog","333","2","1","0","0","293","360"
"","psychophysics","128","2807394","0.0-128.0","62d6bb8e4013eafa3dfd8fc2","64de83eb4e9e13119084c167","","","","","3930",""," ","key"," ","6.944500884955205","500","250","pog","289","2","1","0","0","389","327"
"","psychophysics","129","2812109","0.0-129.0","62d6bb8e4013eafa3dfd8fc2","64de83eb4e9e13119084c167","","","","","4714",""," ","key"," ","6.944432153392605","500","250","pog","334","2","1","0","0","280","368"
"","psychophysics","130","2815719","0.0-130.0","62d6bb8e4013eafa3dfd8fc2","64de83eb4e9e13119084c167","","","","","3609",""," ","key"," ","6.944389210019785","500","250","pog","342","2","1","0","0","364","368"
"","psychophysics","131","2821381","0.0-131.0","62d6bb8e4013eafa3dfd8fc2","64de83eb4e9e13119084c167","","","","","5662",""," ","key"," ","6.944318181818525","500","250","pog","295","2","1","0","0","397","328"
"","psychophysics","132","2827402","0.0-132.0","62d6bb8e4013eafa3dfd8fc2","64de83eb4e9e13119084c167","","","","","6020",""," ","key"," ","6.944399538106343","500","250","pog","270","2","1","0","0","384","304"
"","psychophysics","133","2829798","0.0-133.0","62d6bb8e4013eafa3dfd8fc2","64de83eb4e9e13119084c167","","","","","2394",""," ","key"," ","6.944453488372071","500","250","pog","330","2","1","0","0","342","358"
"","psychophysics","134","2832783","0.0-134.0","62d6bb8e4013eafa3dfd8fc2","64de83eb4e9e13119084c167","","","","","2985",""," ","key"," ","6.944431235430879","500","250","pog","340","2","1","0","0","302","373"
"","psychophysics","135","2837220","0.0-135.0","62d6bb8e4013eafa3dfd8fc2","64de83eb4e9e13119084c167","","","","","4436",""," ","key"," ","6.944404388715142","500","250","pog","326","2","1","0","0","360","359"
"","psychophysics","136","2838793","0.0-136.0","62d6bb8e4013eafa3dfd8fc2","64de83eb4e9e13119084c167","","","","","1572",""," ","key"," ","6.944539823008916","500","250","pog","313","2","1","0","0","313","338"
"","psychophysics","137","2843583","0.0-137.0","62d6bb8e4013eafa3dfd8fc2","64de83eb4e9e13119084c167","","","","","4789",""," ","key"," ","6.944337209302196","500","250","pog","301","2","1","0","0","341","318"
"","psychophysics","138","2847202","0.0-138.0","62d6bb8e4013eafa3dfd8fc2","64de83eb4e9e13119084c167","","","","","3617",""," ","key"," ","6.9444480769228765","500","250","pog","328","2","1","0","0","298","348"
"","psychophysics","139","2852490","0.0-139.0","62d6bb8e4013eafa3dfd8fc2","64de83eb4e9e13119084c167","","","","","5287",""," ","key"," ","6.944475689881485","500","250","pog","290","2","1","0","0","358","316"
"","psychophysics","140","2855260","0.0-140.0","62d6bb8e4013eafa3dfd8fc2","64de83eb4e9e13119084c167","","","","","2769",""," ","key"," ","6.944238693466241","500","250","pog","315","2","1","0","0","335","341"
"","psychophysics","141","2856397","0.0-141.0","62d6bb8e4013eafa3dfd8fc2","64de83eb4e9e13119084c167","","","","","1137",""," ","key"," ","6.944067484662051","500","250","inst","","","","","","",""
"","psychophysics","142","2864738","0.0-142.0","62d6bb8e4013eafa3dfd8fc2","64de83eb4e9e13119084c167","","","","","8339",""," ","key"," ","6.94426750000023","500","250","instEB1","31","1","","0","0","40","30"
"","psychophysics","143","2870646","0.0-143.0","62d6bb8e4013eafa3dfd8fc2","64de83eb4e9e13119084c167","","","","","5907",""," ","key"," ","6.944404004711561","500","250","instEB2","40","1","","0","0","30","40"
"","psychophysics","144","2874785","0.0-144.0","62d6bb8e4013eafa3dfd8fc2","64de83eb4e9e13119084c167","","","","","4137",""," ","key"," ","6.9444840336132385","500","250","instEB3","41","1","","0","0","27","45"
"","psychophysics","145","2878651","0.0-145.0","62d6bb8e4013eafa3dfd8fc2","64de83eb4e9e13119084c167","","","","","3865",""," ","key"," ","6.944562949639705","500","250","instEB4","27","1","","0","0","40","30"
"","psychophysics","146","2879647","0.0-146.0","62d6bb8e4013eafa3dfd8fc2","64de83eb4e9e13119084c167","","","","","995",""," ","key"," ","6.94432394366226","500","250","inst","","","","","","",""
"","psychophysics","147","2882580","0.0-147.0","62d6bb8e4013eafa3dfd8fc2","64de83eb4e9e13119084c167","","","","","2932",""," ","key"," ","6.944518957345557","500","250","eb","31","1","","0","0","53","35"
"","psychophysics","148","2886005","0.0-148.0","62d6bb8e4013eafa3dfd8fc2","64de83eb4e9e13119084c167","","","","","3424",""," ","key"," ","6.9444451219510155","500","250","eb","40","1","","0","0","25","45"
"","psychophysics","149","2888561","0.0-149.0","62d6bb8e4013eafa3dfd8fc2","64de83eb4e9e13119084c167","","","","","2555",""," ","key"," ","6.944708446866759","500","250","eb","43","1","","0","0","54","44"
"","psychophysics","150","2891329","0.0-150.0","62d6bb8e4013eafa3dfd8fc2","64de83eb4e9e13119084c167","","","","","2767",""," ","key"," ","6.944356783919139","500","250","eb","42","1","","0","0","28","46"
"","psychophysics","151","2894317","0.0-151.0","62d6bb8e4013eafa3dfd8fc2","64de83eb4e9e13119084c167","","","","","2987",""," ","key"," ","6.9443146853147635","500","250","eb","50","1","","0","0","43","51"
"","psychophysics","152","2896416","0.0-152.0","62d6bb8e4013eafa3dfd8fc2","64de83eb4e9e13119084c167","","","","","2098",""," ","key"," ","6.9445215946843115","500","250","eb","49","1","","0","0","54","46"
"","psychophysics","153","2899537","0.0-153.0","62d6bb8e4013eafa3dfd8fc2","64de83eb4e9e13119084c167","","","","","3119",""," ","key"," ","6.944398663697436","500","250","eb","21","1","","0","0","40","24"
"","psychophysics","154","2903622","0.0-154.0","62d6bb8e4013eafa3dfd8fc2","64de83eb4e9e13119084c167","","","","","4084",""," ","key"," ","6.944369676320622","500","250","eb","36","1","","0","0","27","37"
"","psychophysics","155","2906645","0.0-155.0","62d6bb8e4013eafa3dfd8fc2","64de83eb4e9e13119084c167","","","","","3021",""," ","key"," ","6.944534562212685","500","250","eb","27","1","","0","0","44","31"
"","psychophysics","156","2910994","0.0-156.0","62d6bb8e4013eafa3dfd8fc2","64de83eb4e9e13119084c167","","","","","4348",""," ","key"," ","6.944384000000357","500","250","eb","43","1","","0","0","45","44"
"","psychophysics","157","2916042","0.0-157.0","62d6bb8e4013eafa3dfd8fc2","64de83eb4e9e13119084c167","","","","","5046",""," ","key"," ","6.944442148760382","500","250","eb","34","1","","0","0","26","36"
"","psychophysics","158","2920317","0.0-158.0","62d6bb8e4013eafa3dfd8fc2","64de83eb4e9e13119084c167","","","","","4273",""," ","key"," ","6.944512195121951","500","250","eb","31","1","","0","0","36","36"
"","psychophysics","159","2923261","0.0-159.0","62d6bb8e4013eafa3dfd8fc2","64de83eb4e9e13119084c167","","","","","2943",""," ","key"," ","6.9444491725765065","500","250","eb","35","1","","0","0","26","41"
"","psychophysics","160","2926341","0.0-160.0","62d6bb8e4013eafa3dfd8fc2","64de83eb4e9e13119084c167","","","","","3079",""," ","key"," ","6.9441470588226615","500","250","eb","36","1","","0","0","35","38"
"","psychophysics","161","2929863","0.0-161.0","62d6bb8e4013eafa3dfd8fc2","64de83eb4e9e13119084c167","","","","","3520",""," ","key"," ","6.944544378698379","500","250","eb","26","1","","0","0","45","29"
"","psychophysics","162","2930586","0.0-162.0","62d6bb8e4013eafa3dfd8fc2","64de83eb4e9e13119084c167","","","","","722",""," ","key"," ","6.945466019416644","500","250","inst","","","","","","",""
"","psychophysics","163","2938728","0.0-163.0","62d6bb8e4013eafa3dfd8fc2","64de83eb4e9e13119084c167","","","","","8140",""," ","key"," ","6.944372331340623","500","250","instPz1","51","2","","","","25","50"
"","psychophysics","164","2941384","0.0-164.0","62d6bb8e4013eafa3dfd8fc2","64de83eb4e9e13119084c167","","","","","2655",""," ","key"," ","6.944693717277848","500","250","instPz2","37","2","","","","20","35"
"","psychophysics","165","2948894","0.0-165.0","62d6bb8e4013eafa3dfd8fc2","64de83eb4e9e13119084c167","","","","","7508",""," ","key"," ","6.944449074074401","500","250","instPz3","100","2","","","","30","100"
"","psychophysics","166","2955241","0.0-166.0","62d6bb8e4013eafa3dfd8fc2","64de83eb4e9e13119084c167","","","","","6346",""," ","key"," ","6.944427163197852","500","250","instPz4","110","2","","","","30","100"
"","psychophysics","167","2955892","0.0-167.0","62d6bb8e4013eafa3dfd8fc2","64de83eb4e9e13119084c167","","","","","650",""," ","key"," ","6.943580645161571","500","250","inst","","","","","","",""
"","psychophysics","168","2959513","0.0-168.0","62d6bb8e4013eafa3dfd8fc2","64de83eb4e9e13119084c167","","","","","3620",""," ","key"," ","6.94438846153834","500","250","pz","37","2","1","","","59","36"
"","psychophysics","169","2961171","0.0-169.0","62d6bb8e4013eafa3dfd8fc2","64de83eb4e9e13119084c167","","","","","1657",""," ","key"," ","6.944525210083142","500","250","pz","36","2","1","","","36","22"
"","psychophysics","170","2963373","0.0-170.0","62d6bb8e4013eafa3dfd8fc2","64de83eb4e9e13119084c167","","","","","2202",""," ","key"," ","6.944642405063975","500","250","pz","31","2","1","","","31","28"
"","psychophysics","171","2966926","0.0-171.0","62d6bb8e4013eafa3dfd8fc2","64de83eb4e9e13119084c167","","","","","3552",""," ","key"," ","6.9443953033261465","500","250","pz","42","2","1","","","28","40"
"","psychophysics","172","2971335","0.0-172.0","62d6bb8e4013eafa3dfd8fc2","64de83eb4e9e13119084c167","","","","","4408",""," ","key"," ","6.944182965299996","500","250","pz","57","2","1","","","33","57"
"","psychophysics","173","2974002","0.0-173.0","62d6bb8e4013eafa3dfd8fc2","64de83eb4e9e13119084c167","","","","","2666",""," ","key"," ","6.944391644908743","500","250","pz","40","2","1","","","33","36"
"","psychophysics","174","2977202","0.0-174.0","62d6bb8e4013eafa3dfd8fc2","64de83eb4e9e13119084c167","","","","","3197",""," ","key"," ","6.944383442265941","500","250","pz","27","2","1","","","42","26"
"","psychophysics","175","2982074","0.0-175.0","62d6bb8e4013eafa3dfd8fc2","64de83eb4e9e13119084c167","","","","","4870",""," ","key"," ","6.944309557774789","500","250","pz","51","2","1","","","32","47"
"","psychophysics","176","2985657","0.0-176.0","62d6bb8e4013eafa3dfd8fc2","64de83eb4e9e13119084c167","","","","","3583",""," ","key"," ","6.944489320388371","500","250","pz","50","2","1","","","40","48"
"","psychophysics","177","2990932","0.0-177.0","62d6bb8e4013eafa3dfd8fc2","64de83eb4e9e13119084c167","","","","","5274",""," ","key"," ","6.944223978919283","500","250","pz","29","2","1","","","27","28"
"","psychophysics","178","2995556","0.0-178.0","62d6bb8e4013eafa3dfd8fc2","64de83eb4e9e13119084c167","","","","","4622",""," ","key"," ","6.94447439759044","500","250","pz","49","2","1","","","26","50"
"","psychophysics","179","2999293","0.0-179.0","62d6bb8e4013eafa3dfd8fc2","64de83eb4e9e13119084c167","","","","","3735",""," ","key"," ","6.944413407821056","500","250","pz","65","2","1","","","35","59"
"","psychophysics","180","3002501","0.0-180.0","62d6bb8e4013eafa3dfd8fc2","64de83eb4e9e13119084c167","","","","","3206",""," ","key"," ","6.94436225596484","500","250","pz","32","2","1","","","51","30"
"","psychophysics","181","3005284","0.0-181.0","62d6bb8e4013eafa3dfd8fc2","64de83eb4e9e13119084c167","","","","","2781",""," ","key"," ","6.944262500000186","500","250","pz","32","2","1","","","27","29"
"","psychophysics","182","3008550","0.0-182.0","62d6bb8e4013eafa3dfd8fc2","64de83eb4e9e13119084c167","","","","","3266",""," ","key"," ","6.944553191489243","500","250","pz","23","2","1","","","41","23"
"","psychophysics","183","3009213","0.0-183.0","62d6bb8e4013eafa3dfd8fc2","64de83eb4e9e13119084c167","","","","","661",""," ","key"," ","6.944404255321368","500","250","inst","","","","","","",""
"","psychophysics","184","3015913","0.0-184.0","62d6bb8e4013eafa3dfd8fc2","64de83eb4e9e13119084c167","","","","","6699",""," ","key"," ","6.944445020746714","500","250","instZol1","0.30000000000000004","","","0","0","-1.3",""
"","psychophysics","185","3023133","0.0-185.0","62d6bb8e4013eafa3dfd8fc2","64de83eb4e9e13119084c167","","","","","7219",""," ","key"," ","6.944410972088339","500","250","instZol2","1.2000000000000008","1","","0","0","2",""
"","psychophysics","186","3023901","0.0-186.0","62d6bb8e4013eafa3dfd8fc2","64de83eb4e9e13119084c167","","","","","767",""," ","key"," ","6.943752293577504","500","250","inst","","","","","","",""
"","psychophysics","187","3031903","0.0-187.0","62d6bb8e4013eafa3dfd8fc2","64de83eb4e9e13119084c167","","","","","null","","null","key","null","6.944443092962644","500","250","zol","-0.35","1","1","-20","26","0.35",""
"","psychophysics","188","3037069","0.0-188.0","62d6bb8e4013eafa3dfd8fc2","64de83eb4e9e13119084c167","","","","","5164",""," ","key"," ","6.94438761776604","500","250","zol","1.4800000000000002","1","1","2","-22","0.02",""
"","psychophysics","189","3042757","0.0-189.0","62d6bb8e4013eafa3dfd8fc2","64de83eb4e9e13119084c167","","","","","5686",""," ","key"," ","6.94446332518337","500","250","zol","1.8300000000000007","1","1","11","-30","0.27",""
"","psychophysics","190","3046698","0.0-190.0","62d6bb8e4013eafa3dfd8fc2","64de83eb4e9e13119084c167","","","","","3939",""," ","key"," ","6.944516754850443","500","250","zol","1.6100000000000005","1","1","21","25","0.29",""
"","psychophysics","191","3050535","0.0-191.0","62d6bb8e4013eafa3dfd8fc2","64de83eb4e9e13119084c167","","","","","3836",""," ","key"," ","6.9442246376808425","500","250","zol","1.8900000000000006","1","1","-9","-21","0.21",""
"","psychophysics","192","3053124","0.0-192.0","62d6bb8e4013eafa3dfd8fc2","64de83eb4e9e13119084c167","","","","","2587",""," ","key"," ","6.944318059299674","500","250","zol","0.9499999999999998","1","1","15","-28","0.65",""
"","psychophysics","193","3058161","0.0-193.0","62d6bb8e4013eafa3dfd8fc2","64de83eb4e9e13119084c167","","","","","5035",""," ","key"," ","6.944408275862064","500","250","zol","1.6700000000000004","1","1","-2","13","-0.37",""
"","psychophysics","194","3063478","0.0-194.0","62d6bb8e4013eafa3dfd8fc2","64de83eb4e9e13119084c167","","","","","5316",""," ","key"," ","6.944578534031789","500","250","zol","1.6900000000000004","1","1","-29","23","-0.39",""
"","psychophysics","195","3066304","0.0-195.0","62d6bb8e4013eafa3dfd8fc2","64de83eb4e9e13119084c167","","","","","2824",""," ","key"," ","6.944339901477264","500","250","zol","1.27","1","1","30","2","-0.07",""
"","psychophysics","196","3069524","0.0-196.0","62d6bb8e4013eafa3dfd8fc2","64de83eb4e9e13119084c167","","","","","3218",""," ","key"," ","6.944466522678564","500","250","zol","1.01","1","1","20","-23","0.39",""
"","psychophysics","197","3073739","0.0-197.0","62d6bb8e4013eafa3dfd8fc2","64de83eb4e9e13119084c167","","","","","4214",""," ","key"," ","6.9444042904288645","500","250","zol","1.26","1","1","19","13","0.04",""
"","psychophysics","198","3076987","0.0-198.0","62d6bb8e4013eafa3dfd8fc2","64de83eb4e9e13119084c167","","","","","3246",""," ","key"," ","6.944458244111174","500","250","zol","1.4400000000000002","1","1","1","0","-0.24",""
"","psychophysics","199","3079448","0.0-199.0","62d6bb8e4013eafa3dfd8fc2","64de83eb4e9e13119084c167","","","","","2459",""," ","key"," ","6.944529745041818","500","250","zol","1.35","1","1","-5","20","-0.05",""
"","psychophysics","200","3083900","0.0-200.0","62d6bb8e4013eafa3dfd8fc2","64de83eb4e9e13119084c167","","","","","4451",""," ","key"," ","6.94425312500025","500","250","zol","1.03","1","1","-20","9","0.57",""
"","psychophysics","201","3086748","0.0-201.0","62d6bb8e4013eafa3dfd8fc2","64de83eb4e9e13119084c167","","","","","2846",""," ","key"," ","6.944220048900293","500","250","zol","1.6600000000000004","1","1","-18","22","0.14",""
"","psychophysics","202","3087672","0.0-202.0","62d6bb8e4013eafa3dfd8fc2","64de83eb4e9e13119084c167","","","","","923",""," ","key"," ","6.944719696967778","500","250","inst","","","","","","",""
"","psychophysics","203","3093342","0.0-203.0","62d6bb8e4013eafa3dfd8fc2","64de83eb4e9e13119084c167","","","","","5668",""," ","key"," ","6.944453431372691","500","250","instBr3","21","2","","0","0","40","300"
"","psychophysics","204","3093802","0.0-204.0","62d6bb8e4013eafa3dfd8fc2","64de83eb4e9e13119084c167","","","","","459",""," ","key"," ","6.944399999999083","500","250","inst","","","","","","",""
"","psychophysics","205","3097518","0.0-205.0","62d6bb8e4013eafa3dfd8fc2","64de83eb4e9e13119084c167","","","","","3714",""," ","key"," ","6.944275280898472","500","250","br","21","2","1","24","4","-19","281"
"","psychophysics","206","3100261","0.0-206.0","62d6bb8e4013eafa3dfd8fc2","64de83eb4e9e13119084c167","","","","","2742",""," ","key"," ","6.944492385786519","500","250","br","23","2","1","-17","-15","10","243"
"","psychophysics","207","3104406","0.0-207.0","62d6bb8e4013eafa3dfd8fc2","64de83eb4e9e13119084c167","","","","","4144",""," ","key"," ","6.9443338926172125","500","250","br","23","2","1","-25","-24","0","264"
"","psychophysics","208","3107722","0.0-208.0","62d6bb8e4013eafa3dfd8fc2","64de83eb4e9e13119084c167","","","","","3315",""," ","key"," ","6.944338235293883","500","250","br","26","2","1","-12","-6","17","249"
"","psychophysics","209","3114189","0.0-209.0","62d6bb8e4013eafa3dfd8fc2","64de83eb4e9e13119084c167","","","","","6465",""," ","key"," ","6.944428571428859","500","250","br","29","2","1","11","-21","-18","255"
"","psychophysics","210","3118878","0.0-210.0","62d6bb8e4013eafa3dfd8fc2","64de83eb4e9e13119084c167","","","","","4688",""," ","key"," ","6.944431750741525","500","250","br","30","2","1","-6","-29","4","282"
"","psychophysics","211","3126880","0.0-211.0","62d6bb8e4013eafa3dfd8fc2","64de83eb4e9e13119084c167","","","","","null","","null","key","null","6.944403996524424","500","250","br","23","2","1","-17","-16","-27","208"
"","psychophysics","212","3126922","0.0-212.0","62d6bb8e4013eafa3dfd8fc2","64de83eb4e9e13119084c167","","","","","40",""," ","key"," ","6.955999999959022","500","250","br","-19","2","1","17","-26","-19","248"
"","psychophysics","213","3133013","0.0-213.0","62d6bb8e4013eafa3dfd8fc2","64de83eb4e9e13119084c167","","","","","6090",""," ","key"," ","6.944434931507062","500","250","br","32","2","1","-24","30","-4","279"
"","psychophysics","214","3139743","0.0-214.0","62d6bb8e4013eafa3dfd8fc2","64de83eb4e9e13119084c167","","","","","6728",""," ","key"," ","6.944445247934123","500","250","br","28","2","1","-4","-2","-20","297"
"","psychophysics","215","3147248","0.0-215.0","62d6bb8e4013eafa3dfd8fc2","64de83eb4e9e13119084c167","","","","","7504",""," ","key"," ","6.94448333333324","500","250","br","25","2","1","-19","21","-24","249"
"","psychophysics","216","3151287","0.0-216.0","62d6bb8e4013eafa3dfd8fc2","64de83eb4e9e13119084c167","","","","","4038",""," ","key"," ","6.94438209982746","500","250","br","25","2","1","-7","26","-30","255"
"","psychophysics","217","3156102","0.0-217.0","62d6bb8e4013eafa3dfd8fc2","64de83eb4e9e13119084c167","","","","","4814",""," ","key"," ","6.944393063583842","500","250","br","28","2","1","14","-1","-10","269"
"","psychophysics","218","3160917","0.0-218.0","62d6bb8e4013eafa3dfd8fc2","64de83eb4e9e13119084c167","","","","","4814",""," ","key"," ","6.944308802308743","500","250","br","31","2","1","-16","2","-23","286"
"","psychophysics","219","3165421","0.0-219.0","62d6bb8e4013eafa3dfd8fc2","64de83eb4e9e13119084c167","","","","","4502",""," ","key"," ","6.944466769706078","500","250","br","23","2","1","3","-5","-10","211"
