"success","trial_type","trial_index","time_elapsed","internal_node_id","pid","sid","timeout","failed_images","failed_audio","failed_video","rt","stimulus","response","response_type","key_press","avg_frame_time","center_x","center_y","task","resp","version","block","jitterX","jitterY","start","parA"
"true","fullscreen","0","7287","0.0-0.0","5c5198da659655000168955d","64e50ea1817117698a340249","","","","","","","","","","","","","","","","","","","",""
"true","preload","1","7573","0.0-1.0","5c5198da659655000168955d","64e50ea1817117698a340249","false","[]","[]","[]","","","","","","","","","","","","","","","",""
"","html-button-response","2","9062","0.0-2.0","5c5198da659655000168955d","64e50ea1817117698a340249","","","","","1487","Please Make Sure Your Audio Is On.","0","","","","","","","","","","","","",""
"","psychophysics","3","17636","0.0-3.0","5c5198da659655000168955d","64e50ea1817117698a340249","","","","","8566",""," ","key"," ","16.629126213592233","800","250","","","","","","","",""
"","psychophysics","4","23796","0.0-4.0","5c5198da659655000168955d","64e50ea1817117698a340249","","","","","6123",""," ","key"," ","16.67479674796748","500","250","inst","","","","","","",""
"","psychophysics","5","45171","0.0-5.0","5c5198da659655000168955d","64e50ea1817117698a340249","","","","","21374",""," ","key"," ","16.63006230529595","500","250","sample0","","","","","","",""
"","psychophysics","6","48266","0.0-6.0","5c5198da659655000168955d","64e50ea1817117698a340249","","","","","3094",""," ","key"," ","16.627027027027026","500","250","sample1","","","","","","",""
"","psychophysics","7","76219","0.0-7.0","5c5198da659655000168955d","64e50ea1817117698a340249","","","","","27948",""," ","key"," ","16.629761904761907","500","250","sample2","96","","","","","",""
"","psychophysics","8","84107","0.0-8.0","5c5198da659655000168955d","64e50ea1817117698a340249","","","","","7886",""," ","key"," ","16.63002114164905","500","250","sample3","98","","","","","",""
"","psychophysics","9","93907","0.0-9.0","5c5198da659655000168955d","64e50ea1817117698a340249","","","","","9795",""," ","key"," ","16.629881154499152","500","250","sample4","100","","","","","",""
"","psychophysics","10","102019","0.0-10.0","5c5198da659655000168955d","64e50ea1817117698a340249","","","","","8109",""," ","key"," ","16.630390143737166","500","250","sample5","","","","","","",""
"","psychophysics","11","114154","0.0-11.0","5c5198da659655000168955d","64e50ea1817117698a340249","","","","","12133",""," ","key"," ","16.62912087912088","500","250","sample6","496","","","","","",""
"","psychophysics","12","120554","0.0-12.0","5c5198da659655000168955d","64e50ea1817117698a340249","","","","","6399",""," ","key"," ","16.630208333333332","500","250","inst","","","","","","",""
"","psychophysics","13","129298","0.0-13.0","5c5198da659655000168955d","64e50ea1817117698a340249","","","","","8743",""," ","key"," ","16.63047619047619","500","250","inst","","","","","","",""
"","psychophysics","14","370119","0.0-14.0","5c5198da659655000168955d","64e50ea1817117698a340249","","","","","240819",""," ","key"," ","16.63004143646409","500","250","inst","","","","","","",""
"","psychophysics","15","373112","0.0-15.0","5c5198da659655000168955d","64e50ea1817117698a340249","","","","","2990",""," ","key"," ","16.631284916201118","500","250","inst","","","","","","",""
"","psychophysics","16","377031","0.0-16.0","5c5198da659655000168955d","64e50ea1817117698a340249","","","","","3918",""," ","key"," ","16.629787234042553","500","250","inst","","","","","","",""
"","psychophysics","17","385063","0.0-17.0","5c5198da659655000168955d","64e50ea1817117698a340249","","","","","8029",""," ","key"," ","16.630705394190873","500","250","instBr0","9","","","0","0","0","300"
"","psychophysics","18","391511","0.0-18.0","5c5198da659655000168955d","64e50ea1817117698a340249","","","","","6446",""," ","key"," ","16.629533678756477","500","250","instBr1","0","","","0","0","-40","300"
"","psychophysics","19","398519","0.0-19.0","5c5198da659655000168955d","64e50ea1817117698a340249","","","","","7003",""," ","key"," ","16.631828978622327","500","250","instBr3","19","2","","0","0","40","300"
"","psychophysics","20","404103","0.0-20.0","5c5198da659655000168955d","64e50ea1817117698a340249","","","","","5582",""," ","key"," ","16.629850746268655","500","250","inst","","","","","","",""
"","psychophysics","21","410575","0.0-21.0","5c5198da659655000168955d","64e50ea1817117698a340249","","","","","6468",""," ","key"," ","16.628865979381445","500","250","br","31","2","0","-22","26","18","259"
"","psychophysics","22","412679","0.0-22.0","5c5198da659655000168955d","64e50ea1817117698a340249","","","","","2101",""," ","key"," ","16.632","500","250","br","24","2","0","28","-1","2","246"
"","psychophysics","23","417414","0.0-23.0","5c5198da659655000168955d","64e50ea1817117698a340249","","","","","4733",""," ","key"," ","16.630281690140844","500","250","br","28","2","0","-24","-4","22","243"
"","psychophysics","24","420199","0.0-24.0","5c5198da659655000168955d","64e50ea1817117698a340249","","","","","2784",""," ","key"," ","16.632530120481928","500","250","br","23","2","0","-23","5","7","265"
"","psychophysics","25","422343","0.0-25.0","5c5198da659655000168955d","64e50ea1817117698a340249","","","","","2140",""," ","key"," ","16.6328125","500","250","br","25","2","0","-16","-11","9","225"
"","psychophysics","26","425015","0.0-26.0","5c5198da659655000168955d","64e50ea1817117698a340249","","","","","2667",""," ","key"," ","16.63125","500","250","br","23","2","0","20","10","8","266"
"","psychophysics","27","433018","0.0-27.0","5c5198da659655000168955d","64e50ea1817117698a340249","","","","","null","","null","key","null","16.629166666666666","500","250","br","24","2","0","-29","17","-28","277"
"","psychophysics","28","433367","0.0-28.0","5c5198da659655000168955d","64e50ea1817117698a340249","","","","","346",""," ","key"," ","16.65","500","250","br","-2","2","0","-15","7","-2","226"
"","psychophysics","29","436614","0.0-29.0","5c5198da659655000168955d","64e50ea1817117698a340249","","","","","3246",""," ","key"," ","16.630769230769232","500","250","br","20","2","0","-6","17","15","226"
"","psychophysics","30","439215","0.0-30.0","5c5198da659655000168955d","64e50ea1817117698a340249","","","","","2597",""," ","key"," ","16.625806451612902","500","250","br","19","2","0","-18","3","-16","239"
"","psychophysics","31","444302","0.0-31.0","5c5198da659655000168955d","64e50ea1817117698a340249","","","","","5085",""," ","key"," ","16.62950819672131","500","250","br","24","2","0","26","-28","18","258"
"","psychophysics","32","447223","0.0-32.0","5c5198da659655000168955d","64e50ea1817117698a340249","","","","","2917",""," ","key"," ","16.626436781609197","500","250","br","17","2","0","-26","-11","-22","221"
"","psychophysics","33","449758","0.0-33.0","5c5198da659655000168955d","64e50ea1817117698a340249","","","","","2532",""," ","key"," ","16.63157894736842","500","250","br","30","2","0","-16","10","19","269"
"","psychophysics","34","453566","0.0-34.0","5c5198da659655000168955d","64e50ea1817117698a340249","","","","","3806",""," ","key"," ","16.63157894736842","500","250","br","17","2","0","15","-13","-5","212"
"","psychophysics","35","456615","0.0-35.0","5c5198da659655000168955d","64e50ea1817117698a340249","","","","","3046",""," ","key"," ","16.626373626373628","500","250","br","17","2","0","9","23","25","266"
"","psychophysics","36","458991","0.0-36.0","5c5198da659655000168955d","64e50ea1817117698a340249","","","","","2374",""," ","key"," ","16.62676056338028","500","250","inst","","","","","","",""
"","psychophysics","37","461526","0.0-37.0","5c5198da659655000168955d","64e50ea1817117698a340249","","","","","2533",""," ","key"," ","16.63157894736842","500","250","instEB0","40","1","","0","0","40","40"
"","psychophysics","38","464303","0.0-38.0","5c5198da659655000168955d","64e50ea1817117698a340249","","","","","2775",""," ","key"," ","16.632530120481928","500","250","instEB1","40","1","","0","0","40","30"
"","psychophysics","39","469047","0.0-39.0","5c5198da659655000168955d","64e50ea1817117698a340249","","","","","4741",""," ","key"," ","16.630281690140844","500","250","instEB2","30","1","","0","0","30","40"
"","psychophysics","40","474078","0.0-40.0","5c5198da659655000168955d","64e50ea1817117698a340249","","","","","5030",""," ","key"," ","16.631229235880397","500","250","instEB3","27","1","","0","0","27","45"
"","psychophysics","41","486557","0.0-41.0","5c5198da659655000168955d","64e50ea1817117698a340249","","","","","12476",""," ","key"," ","16.629333333333335","500","250","instEB4","25","1","","0","0","40","30"
"","psychophysics","42","489662","0.0-42.0","5c5198da659655000168955d","64e50ea1817117698a340249","","","","","3103",""," ","key"," ","16.627027027027026","500","250","inst","","","","","","",""
"","psychophysics","43","496013","0.0-43.0","5c5198da659655000168955d","64e50ea1817117698a340249","","","","","6347",""," ","key"," ","16.62992125984252","500","250","eb","29","1","","0","0","37","32"
"","psychophysics","44","500406","0.0-44.0","5c5198da659655000168955d","64e50ea1817117698a340249","","","","","4387",""," ","key"," ","16.631178707224336","500","250","eb","30","1","","0","0","34","38"
"","psychophysics","45","506869","0.0-45.0","5c5198da659655000168955d","64e50ea1817117698a340249","","","","","6459",""," ","key"," ","16.628865979381445","500","250","eb","30","1","","0","0","41","38"
"","psychophysics","46","514789","0.0-46.0","5c5198da659655000168955d","64e50ea1817117698a340249","","","","","7917",""," ","key"," ","16.629473684210527","500","250","eb","43","1","","0","0","27","48"
"","psychophysics","47","518381","0.0-47.0","5c5198da659655000168955d","64e50ea1817117698a340249","","","","","3587",""," ","key"," ","16.627906976744185","500","250","eb","36","1","","0","0","37","43"
"","psychophysics","48","525485","0.0-48.0","5c5198da659655000168955d","64e50ea1817117698a340249","","","","","7098",""," ","key"," ","16.629976580796253","500","250","eb","20","1","","0","0","45","26"
"","psychophysics","49","528069","0.0-49.0","5c5198da659655000168955d","64e50ea1817117698a340249","","","","","2582",""," ","key"," ","16.62987012987013","500","250","eb","32","1","","0","0","49","43"
"","psychophysics","50","531045","0.0-50.0","5c5198da659655000168955d","64e50ea1817117698a340249","","","","","2973",""," ","key"," ","16.629213483146067","500","250","eb","30","1","","0","0","48","38"
"","psychophysics","51","535229","0.0-51.0","5c5198da659655000168955d","64e50ea1817117698a340249","","","","","4181",""," ","key"," ","16.62948207171315","500","250","eb","27","1","","0","0","37","36"
"","psychophysics","52","538582","0.0-52.0","5c5198da659655000168955d","64e50ea1817117698a340249","","","","","3349",""," ","key"," ","16.63","500","250","eb","37","1","","0","0","26","46"
"","psychophysics","53","542958","0.0-53.0","5c5198da659655000168955d","64e50ea1817117698a340249","","","","","4374",""," ","key"," ","16.629770992366414","500","250","eb","29","1","","0","0","43","30"
"","psychophysics","54","545933","0.0-54.0","5c5198da659655000168955d","64e50ea1817117698a340249","","","","","2974",""," ","key"," ","16.629213483146067","500","250","eb","37","1","","0","0","31","43"
"","psychophysics","55","548174","0.0-55.0","5c5198da659655000168955d","64e50ea1817117698a340249","","","","","2237",""," ","key"," ","16.62686567164179","500","250","eb","31","1","","0","0","36","36"
"","psychophysics","56","552302","0.0-56.0","5c5198da659655000168955d","64e50ea1817117698a340249","","","","","4126",""," ","key"," ","16.63157894736842","500","250","eb","22","1","","0","0","46","26"
"","psychophysics","57","556917","0.0-57.0","5c5198da659655000168955d","64e50ea1817117698a340249","","","","","4614",""," ","key"," ","16.63176895306859","500","250","eb","35","1","","0","0","44","48"
"","psychophysics","58","558349","0.0-58.0","5c5198da659655000168955d","64e50ea1817117698a340249","","","","","1430",""," ","key"," ","16.63529411764706","500","250","inst","","","","","","",""
"","psychophysics","59","563566","0.0-59.0","5c5198da659655000168955d","64e50ea1817117698a340249","","","","","5215",""," ","key"," ","16.628205128205128","500","250","instZol0","0","","","0","0","0",""
"","psychophysics","60","568085","0.0-60.0","5c5198da659655000168955d","64e50ea1817117698a340249","","","","","4511",""," ","key"," ","16.627306273062732","500","250","instZol1","2.7755575615628914e-17","","","0","0","-1.3",""
"","psychophysics","61","577197","0.0-61.0","5c5198da659655000168955d","64e50ea1817117698a340249","","","","","9109",""," ","key"," ","16.630712979890312","500","250","instZol2","-0.9999999999999992","2","","0","0","2",""
"","psychophysics","62","578997","0.0-62.0","5c5198da659655000168955d","64e50ea1817117698a340249","","","","","1798",""," ","key"," ","16.635514018691588","500","250","inst","","","","","","",""
"","psychophysics","63","583469","0.0-63.0","5c5198da659655000168955d","64e50ea1817117698a340249","","","","","4469",""," ","key"," ","16.630597014925375","500","250","zol","-0.5599999999999998","2","0","-27","-20","0.06",""
"","psychophysics","64","587653","0.0-64.0","5c5198da659655000168955d","64e50ea1817117698a340249","","","","","4181",""," ","key"," ","16.62948207171315","500","250","zol","-1.0899999999999999","2","0","14","-25","0.29",""
"","psychophysics","65","592213","0.0-65.0","5c5198da659655000168955d","64e50ea1817117698a340249","","","","","4557",""," ","key"," ","16.63003663003663","500","250","zol","-1.4700000000000004","2","0","24","-4","0.67",""
"","psychophysics","66","598101","0.0-66.0","5c5198da659655000168955d","64e50ea1817117698a340249","","","","","5885",""," ","key"," ","16.63172804532578","500","250","zol","-0.72","2","0","-28","-9","-0.38",""
"","psychophysics","67","601005","0.0-67.0","5c5198da659655000168955d","64e50ea1817117698a340249","","","","","2900",""," ","key"," ","16.632183908045977","500","250","zol","-1.3200000000000003","2","0","11","-29","-0.28",""
"","psychophysics","68","604077","0.0-68.0","5c5198da659655000168955d","64e50ea1817117698a340249","","","","","3069",""," ","key"," ","16.633879781420767","500","250","zol","-1.16","2","0","-21","-5","-0.04",""
"","psychophysics","69","606877","0.0-69.0","5c5198da659655000168955d","64e50ea1817117698a340249","","","","","2795",""," ","key"," ","16.63095238095238","500","250","zol","-1.28","2","0","19","-23","-0.12",""
"","psychophysics","70","611085","0.0-70.0","5c5198da659655000168955d","64e50ea1817117698a340249","","","","","4204",""," ","key"," ","16.63095238095238","500","250","zol","-1.2300000000000002","2","0","1","24","-0.27",""
"","psychophysics","71","617589","0.0-71.0","5c5198da659655000168955d","64e50ea1817117698a340249","","","","","6501",""," ","key"," ","16.630769230769232","500","250","zol","-1.8100000000000005","2","0","-23","13","0.71",""
"","psychophysics","72","623054","0.0-72.0","5c5198da659655000168955d","64e50ea1817117698a340249","","","","","5462",""," ","key"," ","16.628048780487806","500","250","zol","-1.4100000000000004","2","0","23","22","0.31",""
"","psychophysics","73","628685","0.0-73.0","5c5198da659655000168955d","64e50ea1817117698a340249","","","","","5628",""," ","key"," ","16.62908011869436","500","250","zol","-1.4900000000000002","2","0","-17","-17","-0.11",""
"","psychophysics","74","631341","0.0-74.0","5c5198da659655000168955d","64e50ea1817117698a340249","","","","","2652",""," ","key"," ","16.628930817610062","500","250","zol","-1.8200000000000007","2","0","3","-24","0.52",""
"","psychophysics","75","635109","0.0-75.0","5c5198da659655000168955d","64e50ea1817117698a340249","","","","","3765",""," ","key"," ","16.626666666666665","500","250","zol","-1.5500000000000003","2","0","-3","0","0.25",""
"","psychophysics","76","637693","0.0-76.0","5c5198da659655000168955d","64e50ea1817117698a340249","","","","","2580",""," ","key"," ","16.63225806451613","500","250","zol","-1.1300000000000001","2","0","16","17","-0.57",""
"","psychophysics","77","640077","0.0-77.0","5c5198da659655000168955d","64e50ea1817117698a340249","","","","","2381",""," ","key"," ","16.633802816901408","500","250","zol","-1.7900000000000005","2","0","3","17","-0.11",""
"","psychophysics","78","773043","0.0-78.0","5c5198da659655000168955d","64e50ea1817117698a340249","","","","","132964",""," ","key"," ","16.630018761726078","500","250","inst","","","","","","",""
"","psychophysics","79","788931","0.0-79.0","5c5198da659655000168955d","64e50ea1817117698a340249","","","","","15887",""," ","key"," ","16.629979035639412","500","250","instPog0","364","1","","0","0","190","160"
"","psychophysics","80","796883","0.0-80.0","5c5198da659655000168955d","64e50ea1817117698a340249","","","","","7949",""," ","key"," ","16.628930817610062","500","250","instPog1","180","1","","0","0","190","160"
"","psychophysics","81","802315","0.0-81.0","5c5198da659655000168955d","64e50ea1817117698a340249","","","","","5430",""," ","key"," ","16.62883435582822","500","250","instPog2","200","1","","0","0","160","160"
"","psychophysics","82","886058","0.0-82.0","5c5198da659655000168955d","64e50ea1817117698a340249","","","","","83741",""," ","key"," ","16.629990069513408","500","250","inst","","","","","","",""
"","psychophysics","83","891146","0.0-83.0","5c5198da659655000168955d","64e50ea1817117698a340249","","","","","5084",""," ","key"," ","16.62950819672131","500","250","pog","191","1","0","0","0","107","154"
"","psychophysics","84","895106","0.0-84.0","5c5198da659655000168955d","64e50ea1817117698a340249","","","","","3959",""," ","key"," ","16.628691983122362","500","250","pog","196","1","0","0","0","172","167"
"","psychophysics","85","899545","0.0-85.0","5c5198da659655000168955d","64e50ea1817117698a340249","","","","","4437",""," ","key"," ","16.627819548872182","500","250","pog","202","1","0","0","0","166","169"
"","psychophysics","86","903649","0.0-86.0","5c5198da659655000168955d","64e50ea1817117698a340249","","","","","4102",""," ","key"," ","16.62857142857143","500","250","pog","218","1","0","0","0","112","178"
"","psychophysics","87","906721","0.0-87.0","5c5198da659655000168955d","64e50ea1817117698a340249","","","","","3070",""," ","key"," ","16.630434782608695","500","250","pog","184","1","0","0","0","196","138"
"","psychophysics","88","910985","0.0-88.0","5c5198da659655000168955d","64e50ea1817117698a340249","","","","","4261",""," ","key"," ","16.6328125","500","250","pog","231","1","0","0","0","121","189"
"","psychophysics","89","915441","0.0-89.0","5c5198da659655000168955d","64e50ea1817117698a340249","","","","","4453",""," ","key"," ","16.63157894736842","500","250","pog","173","1","0","0","0","135","135"
"","psychophysics","90","919233","0.0-90.0","5c5198da659655000168955d","64e50ea1817117698a340249","","","","","3790",""," ","key"," ","16.629955947136565","500","250","pog","240","1","0","0","0","208","198"
"","psychophysics","91","922648","0.0-91.0","5c5198da659655000168955d","64e50ea1817117698a340249","","","","","3412",""," ","key"," ","16.629268292682926","500","250","pog","225","1","0","0","0","183","184"
"","psychophysics","92","925625","0.0-92.0","5c5198da659655000168955d","64e50ea1817117698a340249","","","","","2973",""," ","key"," ","16.629213483146067","500","250","pog","194","1","0","0","0","136","162"
"","psychophysics","93","929192","0.0-93.0","5c5198da659655000168955d","64e50ea1817117698a340249","","","","","3566",""," ","key"," ","16.629107981220656","500","250","pog","184","1","0","0","0","162","152"
"","psychophysics","94","932056","0.0-94.0","5c5198da659655000168955d","64e50ea1817117698a340249","","","","","2861",""," ","key"," ","16.63372093023256","500","250","pog","164","1","0","0","0","150","131"
"","psychophysics","95","935785","0.0-95.0","5c5198da659655000168955d","64e50ea1817117698a340249","","","","","3726",""," ","key"," ","16.632286995515695","500","250","pog","212","1","0","0","0","106","169"
"","psychophysics","96","939241","0.0-96.0","5c5198da659655000168955d","64e50ea1817117698a340249","","","","","3454",""," ","key"," ","16.6280193236715","500","250","pog","198","1","0","0","0","140","166"
"","psychophysics","97","944985","0.0-97.0","5c5198da659655000168955d","64e50ea1817117698a340249","","","","","5741",""," ","key"," ","16.627906976744185","500","250","pog","242","1","0","0","0","114","199"
"","psychophysics","98","947680","0.0-98.0","5c5198da659655000168955d","64e50ea1817117698a340249","","","","","2693",""," ","key"," ","16.627329192546583","500","250","inst","","","","","","",""
"","psychophysics","99","950744","0.0-99.0","5c5198da659655000168955d","64e50ea1817117698a340249","","","","","3061",""," ","key"," ","16.628415300546447","500","250","instPzPre","50","0","","","","50","50"
"","psychophysics","100","957857","0.0-100.0","5c5198da659655000168955d","64e50ea1817117698a340249","","","","","7106",""," ","key"," ","16.629976580796253","500","250","instPz0","44","2","","","","50","50"
"","psychophysics","101","962177","0.0-101.0","5c5198da659655000168955d","64e50ea1817117698a340249","","","","","4317",""," ","key"," ","16.62934362934363","500","250","instPz1","47","2","","","","25","50"
"","psychophysics","102","966337","0.0-102.0","5c5198da659655000168955d","64e50ea1817117698a340249","","","","","4157",""," ","key"," ","16.630522088353413","500","250","instPz2","36","2","","","","20","35"
"","psychophysics","103","973353","0.0-103.0","5c5198da659655000168955d","64e50ea1817117698a340249","","","","","7013",""," ","key"," ","16.629453681710213","500","250","instPz3","82","2","","","","30","100"
"","psychophysics","104","981377","0.0-104.0","5c5198da659655000168955d","64e50ea1817117698a340249","","","","","8021",""," ","key"," ","16.62993762993763","500","250","instPz4","79","2","","","","30","100"
"","psychophysics","105","1044928","0.0-105.0","5c5198da659655000168955d","64e50ea1817117698a340249","","","","","63549",""," ","key"," ","16.62993980633342","500","250","inst","","","","","","",""
"","psychophysics","106","1050104","0.0-106.0","5c5198da659655000168955d","64e50ea1817117698a340249","","","","","5172",""," ","key"," ","16.63225806451613","500","250","pz","23","2","0","","","42","24"
"","psychophysics","107","1054977","0.0-107.0","5c5198da659655000168955d","64e50ea1817117698a340249","","","","","4870",""," ","key"," ","16.63013698630137","500","250","pz","21","2","0","","","47","28"
"","psychophysics","108","1060216","0.0-108.0","5c5198da659655000168955d","64e50ea1817117698a340249","","","","","5236",""," ","key"," ","16.630573248407643","500","250","pz","31","2","0","","","59","36"
"","psychophysics","109","1064624","0.0-109.0","5c5198da659655000168955d","64e50ea1817117698a340249","","","","","4407",""," ","key"," ","16.632575757575758","500","250","pz","23","2","0","","","27","32"
"","psychophysics","110","1069864","0.0-110.0","5c5198da659655000168955d","64e50ea1817117698a340249","","","","","5237",""," ","key"," ","16.630573248407643","500","250","pz","26","2","0","","","50","30"
"","psychophysics","111","1076159","0.0-111.0","5c5198da659655000168955d","64e50ea1817117698a340249","","","","","6293",""," ","key"," ","16.62962962962963","500","250","pz","17","2","0","","","25","21"
"","psychophysics","112","1079767","0.0-112.0","5c5198da659655000168955d","64e50ea1817117698a340249","","","","","3605",""," ","key"," ","16.62962962962963","500","250","pz","30","2","0","","","37","50"
"","psychophysics","113","1083175","0.0-113.0","5c5198da659655000168955d","64e50ea1817117698a340249","","","","","3406",""," ","key"," ","16.63235294117647","500","250","pz","25","2","0","","","43","31"
"","psychophysics","114","1085839","0.0-114.0","5c5198da659655000168955d","64e50ea1817117698a340249","","","","","2660",""," ","key"," ","16.628930817610062","500","250","pz","30","2","0","","","33","37"
"","psychophysics","115","1089295","0.0-115.0","5c5198da659655000168955d","64e50ea1817117698a340249","","","","","3454",""," ","key"," ","16.632850241545892","500","250","pz","29","2","0","","","39","40"
"","psychophysics","116","1094719","0.0-116.0","5c5198da659655000168955d","64e50ea1817117698a340249","","","","","5422",""," ","key"," ","16.630769230769232","500","250","pz","43","2","0","","","20","52"
"","psychophysics","117","1097927","0.0-117.0","5c5198da659655000168955d","64e50ea1817117698a340249","","","","","3206",""," ","key"," ","16.630208333333332","500","250","pz","30","2","0","","","41","35"
"","psychophysics","118","1104255","0.0-118.0","5c5198da659655000168955d","64e50ea1817117698a340249","","","","","6325",""," ","key"," ","16.630606860158313","500","250","pz","46","2","0","","","20","60"
"","psychophysics","119","1107463","0.0-119.0","5c5198da659655000168955d","64e50ea1817117698a340249","","","","","3206",""," ","key"," ","16.630208333333332","500","250","pz","19","2","0","","","22","26"
"","psychophysics","120","1112014","0.0-120.0","5c5198da659655000168955d","64e50ea1817117698a340249","","","","","4550",""," ","key"," ","16.63003663003663","500","250","pz","30","2","0","","","21","37"
"","psychophysics","121","1134263","0.0-121.0","5c5198da659655000168955d","64e50ea1817117698a340249","","","","","22247",""," ","key"," ","16.62976813762154","500","250","inst","","","","","","",""
"","psychophysics","122","1144455","0.0-122.0","5c5198da659655000168955d","64e50ea1817117698a340249","","","","","10190",""," ","key"," ","16.62908496732026","500","250","instEB1","41","2","","0","0","30","40"
"","psychophysics","123","1150231","0.0-123.0","5c5198da659655000168955d","64e50ea1817117698a340249","","","","","5774",""," ","key"," ","16.63005780346821","500","250","instEB2","37","2","","0","0","40","30"
"","psychophysics","124","1156103","0.0-124.0","5c5198da659655000168955d","64e50ea1817117698a340249","","","","","5869",""," ","key"," ","16.630681818181817","500","250","instEB3","38","2","","0","0","45","27"
"","psychophysics","125","1160270","0.0-125.0","5c5198da659655000168955d","64e50ea1817117698a340249","","","","","4165",""," ","key"," ","16.632","500","250","instEB4","59","2","","0","0","30","40"
"","psychophysics","126","1337173","0.0-126.0","5c5198da659655000168955d","64e50ea1817117698a340249","","","","","176900",""," ","key"," ","16.630030086498685","500","250","inst","","","","","","",""
"","psychophysics","127","1343677","0.0-127.0","5c5198da659655000168955d","64e50ea1817117698a340249","","","","","6502",""," ","key"," ","16.630769230769232","500","250","eb","42","2","","0","0","46","31"
"","psychophysics","128","1347269","0.0-128.0","5c5198da659655000168955d","64e50ea1817117698a340249","","","","","3589",""," ","key"," ","16.632558139534883","500","250","eb","59","2","","0","0","41","47"
"","psychophysics","129","1351421","0.0-129.0","5c5198da659655000168955d","64e50ea1817117698a340249","","","","","4149",""," ","key"," ","16.630522088353413","500","250","eb","40","2","","0","0","31","28"
"","psychophysics","130","1355565","0.0-130.0","5c5198da659655000168955d","64e50ea1817117698a340249","","","","","4142",""," ","key"," ","16.629032258064516","500","250","eb","44","2","","0","0","29","33"
"","psychophysics","131","1359398","0.0-131.0","5c5198da659655000168955d","64e50ea1817117698a340249","","","","","3831",""," ","key"," ","16.630434782608695","500","250","eb","65","2","","0","0","30","52"
"","psychophysics","132","1363220","0.0-132.0","5c5198da659655000168955d","64e50ea1817117698a340249","","","","","3821",""," ","key"," ","16.63157894736842","500","250","eb","49","2","","0","0","48","38"
"","psychophysics","133","1366229","0.0-133.0","5c5198da659655000168955d","64e50ea1817117698a340249","","","","","3004",""," ","key"," ","16.633333333333333","500","250","eb","38","2","","0","0","38","29"
"","psychophysics","134","1371437","0.0-134.0","5c5198da659655000168955d","64e50ea1817117698a340249","","","","","5203",""," ","key"," ","16.628205128205128","500","250","eb","58","2","","0","0","45","43"
"","psychophysics","135","1375445","0.0-135.0","5c5198da659655000168955d","64e50ea1817117698a340249","","","","","4004",""," ","key"," ","16.629166666666666","500","250","eb","41","2","","0","0","51","29"
"","psychophysics","136","1378765","0.0-136.0","5c5198da659655000168955d","64e50ea1817117698a340249","","","","","3316",""," ","key"," ","16.628140703517587","500","250","eb","61","2","","0","0","44","51"
"","psychophysics","137","1382957","0.0-137.0","5c5198da659655000168955d","64e50ea1817117698a340249","","","","","4189",""," ","key"," ","16.62948207171315","500","250","eb","47","2","","0","0","49","38"
"","psychophysics","138","1389645","0.0-138.0","5c5198da659655000168955d","64e50ea1817117698a340249","","","","","6686",""," ","key"," ","16.630922693266832","500","250","eb","57","2","","0","0","26","45"
"","psychophysics","139","1396964","0.0-139.0","5c5198da659655000168955d","64e50ea1817117698a340249","","","","","7315",""," ","key"," ","16.62870159453303","500","250","eb","57","2","","0","0","27","52"
"","psychophysics","140","1400708","0.0-140.0","5c5198da659655000168955d","64e50ea1817117698a340249","","","","","3737",""," ","key"," ","16.63111111111111","500","250","eb","61","2","","0","0","50","52"
"","psychophysics","141","1404164","0.0-141.0","5c5198da659655000168955d","64e50ea1817117698a340249","","","","","3453",""," ","key"," ","16.631067961165048","500","250","eb","37","2","","0","0","49","27"
"","psychophysics","142","1406516","0.0-142.0","5c5198da659655000168955d","64e50ea1817117698a340249","","","","","2348",""," ","key"," ","16.624113475177303","500","250","inst","","","","","","",""
"","psychophysics","143","1413236","0.0-143.0","5c5198da659655000168955d","64e50ea1817117698a340249","","","","","6718",""," ","key"," ","16.6302729528536","500","250","instPog0","340","2","","0","0","370","340"
"","psychophysics","144","1419765","0.0-144.0","5c5198da659655000168955d","64e50ea1817117698a340249","","","","","6526",""," ","key"," ","16.630102040816325","500","250","instPog1","352","2","","0","0","370","340"
"","psychophysics","145","1424205","0.0-145.0","5c5198da659655000168955d","64e50ea1817117698a340249","","","","","4439",""," ","key"," ","16.63157894736842","500","250","instPog2","320","2","","0","0","340","340"
"","psychophysics","146","1481708","0.0-146.0","5c5198da659655000168955d","64e50ea1817117698a340249","","","","","57501",""," ","key"," ","16.630208333333332","500","250","inst","","","","","","",""
"","psychophysics","147","1487587","0.0-147.0","5c5198da659655000168955d","64e50ea1817117698a340249","","","","","5877",""," ","key"," ","16.63172804532578","500","250","pog","303","2","1","0","0","397","340"
"","psychophysics","148","1490340","0.0-148.0","5c5198da659655000168955d","64e50ea1817117698a340249","","","","","2750",""," ","key"," ","16.634146341463413","500","250","pog","276","2","1","0","0","326","306"
"","psychophysics","149","1492763","0.0-149.0","5c5198da659655000168955d","64e50ea1817117698a340249","","","","","2422",""," ","key"," ","16.63448275862069","500","250","pog","326","2","1","0","0","340","345"
"","psychophysics","150","1494995","0.0-150.0","5c5198da659655000168955d","64e50ea1817117698a340249","","","","","2230",""," ","key"," ","16.63157894736842","500","250","pog","339","2","1","0","0","343","360"
"","psychophysics","151","1498651","0.0-151.0","5c5198da659655000168955d","64e50ea1817117698a340249","","","","","3654",""," ","key"," ","16.63013698630137","500","250","pog","318","2","1","0","0","360","354"
"","psychophysics","152","1503307","0.0-152.0","5c5198da659655000168955d","64e50ea1817117698a340249","","","","","4654",""," ","key"," ","16.627240143369175","500","250","pog","281","2","1","0","0","387","314"
"","psychophysics","153","1507042","0.0-153.0","5c5198da659655000168955d","64e50ea1817117698a340249","","","","","3733",""," ","key"," ","16.629464285714285","500","250","pog","306","2","1","0","0","390","340"
"","psychophysics","154","1510730","0.0-154.0","5c5198da659655000168955d","64e50ea1817117698a340249","","","","","3684",""," ","key"," ","16.6289592760181","500","250","pog","319","2","1","0","0","281","366"
"","psychophysics","155","1514058","0.0-155.0","5c5198da659655000168955d","64e50ea1817117698a340249","","","","","3326",""," ","key"," ","16.633165829145728","500","250","pog","298","2","1","0","0","292","341"
"","psychophysics","156","1516274","0.0-156.0","5c5198da659655000168955d","64e50ea1817117698a340249","","","","","2214",""," ","key"," ","16.62878787878788","500","250","pog","342","2","1","0","0","350","374"
"","psychophysics","157","1519642","0.0-157.0","5c5198da659655000168955d","64e50ea1817117698a340249","","","","","3366",""," ","key"," ","16.6318407960199","500","250","pog","298","2","1","0","0","360","331"
"","psychophysics","158","1523219","0.0-158.0","5c5198da659655000168955d","64e50ea1817117698a340249","","","","","3572",""," ","key"," ","16.626168224299064","500","250","pog","264","2","1","0","0","342","302"
"","psychophysics","159","1525378","0.0-159.0","5c5198da659655000168955d","64e50ea1817117698a340249","","","","","2156",""," ","key"," ","16.627906976744185","500","250","pog","350","2","1","0","0","348","376"
"","psychophysics","160","1528826","0.0-160.0","5c5198da659655000168955d","64e50ea1817117698a340249","","","","","3441",""," ","key"," ","16.6280193236715","500","250","pog","333","2","1","0","0","369","365"
"","psychophysics","161","1532746","0.0-161.0","5c5198da659655000168955d","64e50ea1817117698a340249","","","","","3918",""," ","key"," ","16.628205128205128","500","250","pog","338","2","1","0","0","388","379"
"","psychophysics","162","1690065","0.0-162.0","5c5198da659655000168955d","64e50ea1817117698a340249","","","","","157312",""," ","key"," ","16.62998202769849","500","250","inst","","","","","","",""
"","psychophysics","163","1696817","0.0-163.0","5c5198da659655000168955d","64e50ea1817117698a340249","","","","","6751",""," ","key"," ","16.62962962962963","500","250","instZol1","0.7999999999999997","","","0","0","-1.3",""
"","psychophysics","164","1702721","0.0-164.0","5c5198da659655000168955d","64e50ea1817117698a340249","","","","","5897",""," ","key"," ","16.629943502824858","500","250","instZol2","-0.6999999999999993","1","","0","0","2",""
"","psychophysics","165","1704649","0.0-165.0","5c5198da659655000168955d","64e50ea1817117698a340249","","","","","1926",""," ","key"," ","16.62608695652174","500","250","inst","","","","","","",""
"","psychophysics","166","1709929","0.0-166.0","5c5198da659655000168955d","64e50ea1817117698a340249","","","","","5276",""," ","key"," ","16.62776025236593","500","250","zol","1.0999999999999999","1","1","-2","-1","-0.4",""
"","psychophysics","167","1713889","0.0-167.0","5c5198da659655000168955d","64e50ea1817117698a340249","","","","","3958",""," ","key"," ","16.628691983122362","500","250","zol","0.9799999999999999","1","1","-25","2","-0.58",""
"","psychophysics","168","1716449","0.0-168.0","5c5198da659655000168955d","64e50ea1817117698a340249","","","","","2558",""," ","key"," ","16.627450980392158","500","250","zol","1.6100000000000005","1","1","-13","22","-0.31",""
"","psychophysics","169","1719857","0.0-169.0","5c5198da659655000168955d","64e50ea1817117698a340249","","","","","3405",""," ","key"," ","16.627450980392158","500","250","zol","1.4","1","1","23","-1","-0.7",""
"","psychophysics","170","1722105","0.0-170.0","5c5198da659655000168955d","64e50ea1817117698a340249","","","","","2245",""," ","key"," ","16.634328358208954","500","250","zol","1.7500000000000004","1","1","-24","-13","-0.35",""
"","psychophysics","171","1724217","0.0-171.0","5c5198da659655000168955d","64e50ea1817117698a340249","","","","","2109",""," ","key"," ","16.634920634920636","500","250","zol","1.4300000000000004","1","1","-10","-23","-0.03",""
"","psychophysics","172","1728113","0.0-172.0","5c5198da659655000168955d","64e50ea1817117698a340249","","","","","3892",""," ","key"," ","16.630901287553648","500","250","zol","1.6100000000000005","1","1","-2","15","-0.31",""
"","psychophysics","173","1730137","0.0-173.0","5c5198da659655000168955d","64e50ea1817117698a340249","","","","","2021",""," ","key"," ","16.628099173553718","500","250","zol","1.01","1","1","6","-18","-0.11",""
"","psychophysics","174","1732321","0.0-174.0","5c5198da659655000168955d","64e50ea1817117698a340249","","","","","2180",""," ","key"," ","16.630769230769232","500","250","zol","1.3800000000000001","1","1","14","15","0.52",""
"","psychophysics","175","1734801","0.0-175.0","5c5198da659655000168955d","64e50ea1817117698a340249","","","","","2477",""," ","key"," ","16.62837837837838","500","250","zol","1.4600000000000002","1","1","20","-16","0.04",""
"","psychophysics","176","1736521","0.0-176.0","5c5198da659655000168955d","64e50ea1817117698a340249","","","","","1715",""," ","key"," ","16.631067961165048","500","250","zol","2.0300000000000007","1","1","-29","0","-0.73",""
"","psychophysics","177","1738673","0.0-177.0","5c5198da659655000168955d","64e50ea1817117698a340249","","","","","2149",""," ","key"," ","16.6328125","500","250","zol","1.3500000000000003","1","1","-3","21","0.45",""
"","psychophysics","178","1740985","0.0-178.0","5c5198da659655000168955d","64e50ea1817117698a340249","","","","","2307",""," ","key"," ","16.630434782608695","500","250","zol","0.96","1","1","19","22","0.44",""
"","psychophysics","179","1743089","0.0-179.0","5c5198da659655000168955d","64e50ea1817117698a340249","","","","","2101",""," ","key"," ","16.634920634920636","500","250","zol","1.3500000000000003","1","1","-4","-15","0.35",""
"","psychophysics","180","1746601","0.0-180.0","5c5198da659655000168955d","64e50ea1817117698a340249","","","","","3509",""," ","key"," ","16.633333333333333","500","250","zol","1.9400000000000008","1","1","-5","9","-0.54",""
"","psychophysics","181","1747576","0.0-181.0","5c5198da659655000168955d","64e50ea1817117698a340249","","","","","974",""," ","key"," ","16.637931034482758","500","250","inst","","","","","","",""
"","psychophysics","182","1751841","0.0-182.0","5c5198da659655000168955d","64e50ea1817117698a340249","","","","","4261",""," ","key"," ","16.63137254901961","500","250","instPz1","44","1","","","","25","50"
"","psychophysics","183","1754721","0.0-183.0","5c5198da659655000168955d","64e50ea1817117698a340249","","","","","2878",""," ","key"," ","16.627906976744185","500","250","instPz2","23","1","","","","35","20"
"","psychophysics","184","1763248","0.0-184.0","5c5198da659655000168955d","64e50ea1817117698a340249","","","","","8524",""," ","key"," ","16.62890625","500","250","instPz3","41","1","","","","100","30"
"","psychophysics","185","1768505","0.0-185.0","5c5198da659655000168955d","64e50ea1817117698a340249","","","","","5254",""," ","key"," ","16.62857142857143","500","250","instPz4","38","1","","","","100","30"
"","psychophysics","186","1916374","0.0-186.0","5c5198da659655000168955d","64e50ea1817117698a340249","","","","","147868",""," ","key"," ","16.629962883815093","500","250","inst","","","","","","",""
"","psychophysics","187","1922574","0.0-187.0","5c5198da659655000168955d","64e50ea1817117698a340249","","","","","6197",""," ","key"," ","16.629032258064516","500","250","pz","38","1","1","","","32","25"
"","psychophysics","188","1926182","0.0-188.0","5c5198da659655000168955d","64e50ea1817117698a340249","","","","","3605",""," ","key"," ","16.62962962962963","500","250","pz","70","1","1","","","34","58"
"","psychophysics","189","1928886","0.0-189.0","5c5198da659655000168955d","64e50ea1817117698a340249","","","","","2701",""," ","key"," ","16.627329192546583","500","250","pz","62","1","1","","","38","50"
"","psychophysics","190","1933894","0.0-190.0","5c5198da659655000168955d","64e50ea1817117698a340249","","","","","5006",""," ","key"," ","16.63","500","250","pz","52","1","1","","","26","41"
"","psychophysics","191","1938718","0.0-191.0","5c5198da659655000168955d","64e50ea1817117698a340249","","","","","4818",""," ","key"," ","16.629757785467127","500","250","pz","42","1","1","","","52","31"
"","psychophysics","192","1941222","0.0-192.0","5c5198da659655000168955d","64e50ea1817117698a340249","","","","","2500",""," ","key"," ","16.633333333333333","500","250","pz","48","1","1","","","56","35"
"","psychophysics","193","1943782","0.0-193.0","5c5198da659655000168955d","64e50ea1817117698a340249","","","","","2557",""," ","key"," ","16.633986928104576","500","250","pz","32","1","1","","","60","32"
"","psychophysics","194","1946934","0.0-194.0","5c5198da659655000168955d","64e50ea1817117698a340249","","","","","3150",""," ","key"," ","16.632978723404257","500","250","pz","53","1","1","","","25","40"
"","psychophysics","195","1950862","0.0-195.0","5c5198da659655000168955d","64e50ea1817117698a340249","","","","","3922",""," ","key"," ","16.627118644067796","500","250","pz","71","1","1","","","23","60"
"","psychophysics","196","1954854","0.0-196.0","5c5198da659655000168955d","64e50ea1817117698a340249","","","","","3990",""," ","key"," ","16.627615062761507","500","250","pz","61","1","1","","","22","50"
"","psychophysics","197","1957902","0.0-197.0","5c5198da659655000168955d","64e50ea1817117698a340249","","","","","3045",""," ","key"," ","16.63186813186813","500","250","pz","74","1","1","","","39","53"
"","psychophysics","198","1962741","0.0-198.0","5c5198da659655000168955d","64e50ea1817117698a340249","","","","","4836",""," ","key"," ","16.631034482758622","500","250","pz","57","1","1","","","57","41"
"","psychophysics","199","1966238","0.0-199.0","5c5198da659655000168955d","64e50ea1817117698a340249","","","","","3495",""," ","key"," ","16.626794258373206","500","250","pz","50","1","1","","","36","38"
"","psychophysics","200","1969678","0.0-200.0","5c5198da659655000168955d","64e50ea1817117698a340249","","","","","3438",""," ","key"," ","16.631067961165048","500","250","pz","29","1","1","","","42","20"
"","psychophysics","201","1971950","0.0-201.0","5c5198da659655000168955d","64e50ea1817117698a340249","","","","","2269",""," ","key"," ","16.63235294117647","500","250","pz","58","1","1","","","48","42"
"","psychophysics","202","1973173","0.0-202.0","5c5198da659655000168955d","64e50ea1817117698a340249","","","","","1221",""," ","key"," ","16.625","500","250","inst","","","","","","",""
"","psychophysics","203","1977438","0.0-203.0","5c5198da659655000168955d","64e50ea1817117698a340249","","","","","4262",""," ","key"," ","16.62890625","500","250","instBr3","-13","1","","0","0","40","300"
"","psychophysics","204","1978558","0.0-204.0","5c5198da659655000168955d","64e50ea1817117698a340249","","","","","1119",""," ","key"," ","16.62121212121212","500","250","inst","","","","","","",""
"","psychophysics","205","1980526","0.0-205.0","5c5198da659655000168955d","64e50ea1817117698a340249","","","","","1966",""," ","key"," ","16.632478632478634","500","250","br","-10","1","1","-27","-8","-4","299"
"","psychophysics","206","1984134","0.0-206.0","5c5198da659655000168955d","64e50ea1817117698a340249","","","","","3599",""," ","key"," ","16.62962962962963","500","250","br","-8","1","1","-17","19","21","276"
"","psychophysics","207","1985934","0.0-207.0","5c5198da659655000168955d","64e50ea1817117698a340249","","","","","1798",""," ","key"," ","16.62962962962963","500","250","br","-17","1","1","-16","28","-4","236"
"","psychophysics","208","1988614","0.0-208.0","5c5198da659655000168955d","64e50ea1817117698a340249","","","","","2677",""," ","key"," ","16.625","500","250","br","-7","1","1","12","-18","-20","260"
"","psychophysics","209","1991326","0.0-209.0","5c5198da659655000168955d","64e50ea1817117698a340249","","","","","2710",""," ","key"," ","16.62962962962963","500","250","br","-8","1","1","-29","14","23","214"
"","psychophysics","210","1994494","0.0-210.0","5c5198da659655000168955d","64e50ea1817117698a340249","","","","","3166",""," ","key"," ","16.62962962962963","500","250","br","-15","1","1","20","-18","7","225"
"","psychophysics","211","1996430","0.0-211.0","5c5198da659655000168955d","64e50ea1817117698a340249","","","","","1933",""," ","key"," ","16.629310344827587","500","250","br","-13","1","1","-19","-29","-11","300"
"","psychophysics","212","1999022","0.0-212.0","5c5198da659655000168955d","64e50ea1817117698a340249","","","","","2589",""," ","key"," ","16.63225806451613","500","250","br","-13","1","1","26","16","16","216"
"","psychophysics","213","2003214","0.0-213.0","5c5198da659655000168955d","64e50ea1817117698a340249","","","","","4190",""," ","key"," ","16.633466135458168","500","250","br","-8","1","1","-7","-3","1","248"
"","psychophysics","214","2006446","0.0-214.0","5c5198da659655000168955d","64e50ea1817117698a340249","","","","","3230",""," ","key"," ","16.632124352331605","500","250","br","-1","1","1","2","22","27","265"
"","psychophysics","215","2008366","0.0-215.0","5c5198da659655000168955d","64e50ea1817117698a340249","","","","","1917",""," ","key"," ","16.63157894736842","500","250","br","-9","1","1","25","0","8","228"
"","psychophysics","216","2011214","0.0-216.0","5c5198da659655000168955d","64e50ea1817117698a340249","","","","","2843",""," ","key"," ","16.63157894736842","500","250","br","-11","1","1","-3","15","-16","203"
"","psychophysics","217","2014014","0.0-217.0","5c5198da659655000168955d","64e50ea1817117698a340249","","","","","2798",""," ","key"," ","16.62874251497006","500","250","br","-9","1","1","-8","-15","29","224"
"","psychophysics","218","2016638","0.0-218.0","5c5198da659655000168955d","64e50ea1817117698a340249","","","","","2621",""," ","key"," ","16.630573248407643","500","250","br","-4","1","1","-15","-9","22","237"
"","psychophysics","219","2021230","0.0-219.0","5c5198da659655000168955d","64e50ea1817117698a340249","","","","","4590",""," ","key"," ","16.62909090909091","500","250","br","-8","1","1","-19","21","4","263"
