"success","trial_type","trial_index","time_elapsed","internal_node_id","pid","sid","timeout","failed_images","failed_audio","failed_video","rt","stimulus","response","response_type","key_press","avg_frame_time","center_x","center_y","task","resp","version","block","start","jitterX","jitterY","parA"
"true","fullscreen","0","7563","0.0-0.0","63ade94905e590dbf726b7fb","64e50dbac86630f87b2a66df","","","","","","","","","","","","","","","","","","","",""
"true","preload","1","7598","0.0-1.0","63ade94905e590dbf726b7fb","64e50dbac86630f87b2a66df","false","[]","[]","[]","","","","","","","","","","","","","","","",""
"","html-button-response","2","9074","0.0-2.0","63ade94905e590dbf726b7fb","64e50dbac86630f87b2a66df","","","","","1475","Please Make Sure Your Audio Is On.","0","","","","","","","","","","","","",""
"","psychophysics","3","18779","0.0-3.0","63ade94905e590dbf726b7fb","64e50dbac86630f87b2a66df","","","","","9701",""," ","key"," ","16.77270069204152","683","250","","","","","","","",""
"","psychophysics","4","19675","0.0-4.0","63ade94905e590dbf726b7fb","64e50dbac86630f87b2a66df","","","","","887",""," ","key"," ","16.685679245283026","500","250","inst","","","","","","",""
"","psychophysics","5","21226","0.0-5.0","63ade94905e590dbf726b7fb","64e50dbac86630f87b2a66df","","","","","1548",""," ","key"," ","16.68602173913041","500","250","sample0","","","","","","",""
"","psychophysics","6","21842","0.0-6.0","63ade94905e590dbf726b7fb","64e50dbac86630f87b2a66df","","","","","612",""," ","key"," ","16.686166666666697","500","250","sample1","","","","","","",""
"","psychophysics","7","22139","0.0-7.0","63ade94905e590dbf726b7fb","64e50dbac86630f87b2a66df","","","","","293",""," ","key"," ","16.684647058823483","500","250","sample2","130","","","","","",""
"","psychophysics","8","23050","0.0-8.0","63ade94905e590dbf726b7fb","64e50dbac86630f87b2a66df","","","","","908",""," ","key"," ","16.687037735849067","500","250","sample3","70","","","","","",""
"","psychophysics","9","23578","0.0-9.0","63ade94905e590dbf726b7fb","64e50dbac86630f87b2a66df","","","","","521",""," ","key"," ","16.685322580645128","500","250","sample4","130","","","","","",""
"","psychophysics","10","24666","0.0-10.0","63ade94905e590dbf726b7fb","64e50dbac86630f87b2a66df","","","","","1085",""," ","key"," ","16.686109375","500","250","sample5","","","","","","",""
"","psychophysics","11","25171","0.0-11.0","63ade94905e590dbf726b7fb","64e50dbac86630f87b2a66df","","","","","496",""," ","key"," ","16.686310344827657","500","250","sample6","450","","","","","",""
"","psychophysics","12","25476","0.0-12.0","63ade94905e590dbf726b7fb","64e50dbac86630f87b2a66df","","","","","298",""," ","key"," ","16.687222222222367","500","250","inst","","","","","","",""
"","psychophysics","13","25955","0.0-13.0","63ade94905e590dbf726b7fb","64e50dbac86630f87b2a66df","","","","","460",""," ","key"," ","16.68570370370381","500","250","inst","","","","","","",""
"","psychophysics","14","26410","0.0-14.0","63ade94905e590dbf726b7fb","64e50dbac86630f87b2a66df","","","","","449",""," ","key"," ","16.686222222222163","500","250","inst","","","","","","",""
"","psychophysics","15","27018","0.0-15.0","63ade94905e590dbf726b7fb","64e50dbac86630f87b2a66df","","","","","604",""," ","key"," ","16.68548571428567","500","250","inst","","","","","","",""
"","psychophysics","16","27986","0.0-16.0","63ade94905e590dbf726b7fb","64e50dbac86630f87b2a66df","","","","","967",""," ","key"," ","16.685982456140394","500","250","inst","","","","","","",""
"","psychophysics","17","32122","0.0-17.0","63ade94905e590dbf726b7fb","64e50dbac86630f87b2a66df","","","","","4127",""," ","key"," ","16.686024291497993","500","250","instPog0","160","1","","190","0","0","160"
"","psychophysics","18","35605","0.0-18.0","63ade94905e590dbf726b7fb","64e50dbac86630f87b2a66df","","","","","3480",""," ","key"," ","16.685942307692304","500","250","instPog1","170","1","","190","0","0","160"
"","psychophysics","19","40093","0.0-19.0","63ade94905e590dbf726b7fb","64e50dbac86630f87b2a66df","","","","","4484",""," ","key"," ","16.686115671641794","500","250","instPog2","172","1","","160","0","0","160"
"","psychophysics","20","44658","0.0-20.0","63ade94905e590dbf726b7fb","64e50dbac86630f87b2a66df","","","","","4563",""," ","key"," ","16.685933823529414","500","250","inst","","","","","","",""
"","psychophysics","21","46684","0.0-21.0","63ade94905e590dbf726b7fb","64e50dbac86630f87b2a66df","","","","","2017",""," ","key"," ","16.685735537190038","500","250","pog","208","1","0","216","0","0","193"
"","psychophysics","22","47786","0.0-22.0","63ade94905e590dbf726b7fb","64e50dbac86630f87b2a66df","","","","","1098",""," ","key"," ","16.68595384615384","500","250","pog","131","1","0","131","0","0","121"
"","psychophysics","23","48762","0.0-23.0","63ade94905e590dbf726b7fb","64e50dbac86630f87b2a66df","","","","","973",""," ","key"," ","16.685894736842066","500","250","pog","201","1","0","201","0","0","194"
"","psychophysics","24","49442","0.0-24.0","63ade94905e590dbf726b7fb","64e50dbac86630f87b2a66df","","","","","672",""," ","key"," ","16.68517499999998","500","250","pog","208","1","0","208","0","0","196"
"","psychophysics","25","55154","0.0-25.0","63ade94905e590dbf726b7fb","64e50dbac86630f87b2a66df","","","","","5708",""," ","key"," ","16.685832844574776","500","250","pog","185","1","0","145","0","0","179"
"","psychophysics","26","57338","0.0-26.0","63ade94905e590dbf726b7fb","64e50dbac86630f87b2a66df","","","","","2179",""," ","key"," ","16.686123076923103","500","250","pog","155","1","0","155","0","0","145"
"","psychophysics","27","60602","0.0-27.0","63ade94905e590dbf726b7fb","64e50dbac86630f87b2a66df","","","","","3260",""," ","key"," ","16.68599487179491","500","250","pog","157","1","0","219","0","0","147"
"","psychophysics","28","63841","0.0-28.0","63ade94905e590dbf726b7fb","64e50dbac86630f87b2a66df","","","","","3236",""," ","key"," ","16.6859792746114","500","250","pog","160","1","0","150","0","0","146"
"","psychophysics","29","64713","0.0-29.0","63ade94905e590dbf726b7fb","64e50dbac86630f87b2a66df","","","","","869",""," ","key"," ","16.68592156862752","500","250","pog","178","1","0","178","0","0","158"
"","psychophysics","30","68833","0.0-30.0","63ade94905e590dbf726b7fb","64e50dbac86630f87b2a66df","","","","","4105",""," ","key"," ","16.686065040650455","500","250","pog","194","1","0","168","0","0","180"
"","psychophysics","31","71873","0.0-31.0","63ade94905e590dbf726b7fb","64e50dbac86630f87b2a66df","","","","","3036",""," ","key"," ","16.68606077348064","500","250","pog","161","1","0","113","0","0","142"
"","psychophysics","32","76033","0.0-32.0","63ade94905e590dbf726b7fb","64e50dbac86630f87b2a66df","","","","","4153",""," ","key"," ","16.68591164658635","500","250","pog","160","1","0","214","0","0","152"
"","psychophysics","33","79529","0.0-33.0","63ade94905e590dbf726b7fb","64e50dbac86630f87b2a66df","","","","","3494",""," ","key"," ","16.68581730769235","500","250","pog","161","1","0","189","0","0","151"
"","psychophysics","34","82393","0.0-34.0","63ade94905e590dbf726b7fb","64e50dbac86630f87b2a66df","","","","","2860",""," ","key"," ","16.686017543859613","500","250","pog","201","1","0","171","0","0","184"
"","psychophysics","35","86353","0.0-35.0","63ade94905e590dbf726b7fb","64e50dbac86630f87b2a66df","","","","","3957",""," ","key"," ","16.686042372881367","500","250","pog","209","1","0","109","0","0","192"
"","psychophysics","36","87168","0.0-36.0","63ade94905e590dbf726b7fb","64e50dbac86630f87b2a66df","","","","","812",""," ","key"," ","16.68502083333321","500","250","inst","","","","","","",""
"","psychophysics","37","89115","0.0-37.0","63ade94905e590dbf726b7fb","64e50dbac86630f87b2a66df","","","","","1945",""," ","key"," ","16.686344827586286","500","250","instEB0","40","2","","40","0","0","40"
"","psychophysics","38","89753","0.0-38.0","63ade94905e590dbf726b7fb","64e50dbac86630f87b2a66df","","","","","634",""," ","key"," ","16.68502702702716","500","250","instEB1","30","2","","30","0","0","40"
"","psychophysics","39","93065","0.0-39.0","63ade94905e590dbf726b7fb","64e50dbac86630f87b2a66df","","","","","3307",""," ","key"," ","16.685862944162388","500","250","instEB2","37","2","","40","0","0","30"
"","psychophysics","40","96938","0.0-40.0","63ade94905e590dbf726b7fb","64e50dbac86630f87b2a66df","","","","","3865",""," ","key"," ","16.685580086580114","500","250","instEB3","39","2","","45","0","0","27"
"","psychophysics","41","100305","0.0-41.0","63ade94905e590dbf726b7fb","64e50dbac86630f87b2a66df","","","","","3359",""," ","key"," ","16.686223880597073","500","250","instEB4","51","2","","30","0","0","40"
"","psychophysics","42","101201","0.0-42.0","63ade94905e590dbf726b7fb","64e50dbac86630f87b2a66df","","","","","889",""," ","key"," ","16.685792452830356","500","250","inst","","","","","","",""
"","psychophysics","43","102657","0.0-43.0","63ade94905e590dbf726b7fb","64e50dbac86630f87b2a66df","","","","","1452",""," ","key"," ","16.686313953488384","500","250","eb","50","2","","50","0","0","42"
"","psychophysics","44","104577","0.0-44.0","63ade94905e590dbf726b7fb","64e50dbac86630f87b2a66df","","","","","1910",""," ","key"," ","16.685964912280678","500","250","eb","44","2","","30","0","0","39"
"","psychophysics","45","106528","0.0-45.0","63ade94905e590dbf726b7fb","64e50dbac86630f87b2a66df","","","","","1943",""," ","key"," ","16.686232758620715","500","250","eb","55","2","","45","0","0","51"
"","psychophysics","46","108522","0.0-46.0","63ade94905e590dbf726b7fb","64e50dbac86630f87b2a66df","","","","","1991",""," ","key"," ","16.685974789915914","500","250","eb","56","2","","41","0","0","52"
"","psychophysics","47","111842","0.0-47.0","63ade94905e590dbf726b7fb","64e50dbac86630f87b2a66df","","","","","3314",""," ","key"," ","16.68602020202025","500","250","eb","52","2","","34","0","0","47"
"","psychophysics","48","112833","0.0-48.0","63ade94905e590dbf726b7fb","64e50dbac86630f87b2a66df","","","","","986",""," ","key"," ","16.686362068965412","500","250","eb","53","2","","53","0","0","49"
"","psychophysics","49","114626","0.0-49.0","63ade94905e590dbf726b7fb","64e50dbac86630f87b2a66df","","","","","1787",""," ","key"," ","16.686037735849066","500","250","eb","46","2","","34","0","0","35"
"","psychophysics","50","116048","0.0-50.0","63ade94905e590dbf726b7fb","64e50dbac86630f87b2a66df","","","","","1416",""," ","key"," ","16.686282352941205","500","250","eb","35","2","","35","0","0","29"
"","psychophysics","51","119105","0.0-51.0","63ade94905e590dbf726b7fb","64e50dbac86630f87b2a66df","","","","","3054",""," ","key"," ","16.68581318681318","500","250","eb","36","2","","46","0","0","28"
"","psychophysics","52","122897","0.0-52.0","63ade94905e590dbf726b7fb","64e50dbac86630f87b2a66df","","","","","3788",""," ","key"," ","16.68598230088492","500","250","eb","61","2","","48","0","0","52"
"","psychophysics","53","125096","0.0-53.0","63ade94905e590dbf726b7fb","64e50dbac86630f87b2a66df","","","","","2190",""," ","key"," ","16.685946564885473","500","250","eb","54","2","","52","0","0","52"
"","psychophysics","54","126552","0.0-54.0","63ade94905e590dbf726b7fb","64e50dbac86630f87b2a66df","","","","","1452",""," ","key"," ","16.685953488372075","500","250","eb","51","2","","48","0","0","47"
"","psychophysics","55","130563","0.0-55.0","63ade94905e590dbf726b7fb","64e50dbac86630f87b2a66df","","","","","4000",""," ","key"," ","16.686066666666616","500","250","eb","46","2","","29","0","0","39"
"","psychophysics","56","133536","0.0-56.0","63ade94905e590dbf726b7fb","64e50dbac86630f87b2a66df","","","","","2967",""," ","key"," ","16.685807909604556","500","250","eb","52","2","","43","0","0","46"
"","psychophysics","57","135912","0.0-57.0","63ade94905e590dbf726b7fb","64e50dbac86630f87b2a66df","","","","","2371",""," ","key"," ","16.686177304964463","500","250","eb","46","2","","47","0","0","40"
"","psychophysics","58","136696","0.0-58.0","63ade94905e590dbf726b7fb","64e50dbac86630f87b2a66df","","","","","777",""," ","key"," ","16.686130434782726","500","250","inst","","","","","","",""
"","psychophysics","59","144000","0.0-59.0","63ade94905e590dbf726b7fb","64e50dbac86630f87b2a66df","","","","","7295",""," ","key"," ","16.685977116704798","500","250","instBr0","0","","","0","0","0","300"
"","psychophysics","60","149082","0.0-60.0","63ade94905e590dbf726b7fb","64e50dbac86630f87b2a66df","","","","","5077",""," ","key"," ","16.6859339933994","500","250","instBr1","7","","","-40","0","0","300"
"","psychophysics","61","153641","0.0-61.0","63ade94905e590dbf726b7fb","64e50dbac86630f87b2a66df","","","","","4551",""," ","key"," ","16.68604761904761","500","250","instBr3","12","2","","40","0","0","300"
"","psychophysics","62","154464","0.0-62.0","63ade94905e590dbf726b7fb","64e50dbac86630f87b2a66df","","","","","821",""," ","key"," ","16.685958333333474","500","250","inst","","","","","","",""
"","psychophysics","63","156409","0.0-63.0","63ade94905e590dbf726b7fb","64e50dbac86630f87b2a66df","","","","","1929",""," ","key"," ","16.68613793103452","500","250","br","11","2","0","9","22","-14","237"
"","psychophysics","64","160720","0.0-64.0","63ade94905e590dbf726b7fb","64e50dbac86630f87b2a66df","","","","","4309",""," ","key"," ","16.685957198443685","500","250","br","10","2","0","-20","-3","-4","269"
"","psychophysics","65","164560","0.0-65.0","63ade94905e590dbf726b7fb","64e50dbac86630f87b2a66df","","","","","3836",""," ","key"," ","16.686034934497876","500","250","br","18","2","0","-20","29","10","234"
"","psychophysics","66","166672","0.0-66.0","63ade94905e590dbf726b7fb","64e50dbac86630f87b2a66df","","","","","2108",""," ","key"," ","16.685809523809382","500","250","br","25","2","0","5","10","15","216"
"","psychophysics","67","169058","0.0-67.0","63ade94905e590dbf726b7fb","64e50dbac86630f87b2a66df","","","","","2382",""," ","key"," ","16.68587323943662","500","250","br","20","2","0","6","-3","-19","276"
"","psychophysics","68","171400","0.0-68.0","63ade94905e590dbf726b7fb","64e50dbac86630f87b2a66df","","","","","2338",""," ","key"," ","16.685942446043097","500","250","br","13","2","0","-11","1","-8","286"
"","psychophysics","69","173672","0.0-69.0","63ade94905e590dbf726b7fb","64e50dbac86630f87b2a66df","","","","","2267",""," ","key"," ","16.685948148148167","500","250","br","13","2","0","13","-13","30","269"
"","psychophysics","70","176544","0.0-70.0","63ade94905e590dbf726b7fb","64e50dbac86630f87b2a66df","","","","","2868",""," ","key"," ","16.686029239766174","500","250","br","10","2","0","8","7","-25","266"
"","psychophysics","71","179248","0.0-71.0","63ade94905e590dbf726b7fb","64e50dbac86630f87b2a66df","","","","","2696",""," ","key"," ","16.685950310558972","500","250","br","14","2","0","29","2","-11","268"
"","psychophysics","72","181322","0.0-72.0","63ade94905e590dbf726b7fb","64e50dbac86630f87b2a66df","","","","","2065",""," ","key"," ","16.686080645161237","500","250","br","15","2","0","26","-22","-12","263"
"","psychophysics","73","183344","0.0-73.0","63ade94905e590dbf726b7fb","64e50dbac86630f87b2a66df","","","","","2018",""," ","key"," ","16.685466666666617","500","250","br","2","2","0","10","13","11","292"
"","psychophysics","74","186904","0.0-74.0","63ade94905e590dbf726b7fb","64e50dbac86630f87b2a66df","","","","","3556",""," ","key"," ","16.686179245283025","500","250","br","8","2","0","25","-7","-16","294"
"","psychophysics","75","193263","0.0-75.0","63ade94905e590dbf726b7fb","64e50dbac86630f87b2a66df","","","","","6351",""," ","key"," ","16.68578684210523","500","250","br","11","2","0","-20","-1","5","262"
"","psychophysics","76","196824","0.0-76.0","63ade94905e590dbf726b7fb","64e50dbac86630f87b2a66df","","","","","3556",""," ","key"," ","16.686201877934376","500","250","br","7","2","0","22","-14","1","274"
"","psychophysics","77","201312","0.0-77.0","63ade94905e590dbf726b7fb","64e50dbac86630f87b2a66df","","","","","4485",""," ","key"," ","16.68595149253728","500","250","br","9","2","0","-24","17","-6","209"
"","psychophysics","78","202120","0.0-78.0","63ade94905e590dbf726b7fb","64e50dbac86630f87b2a66df","","","","","804",""," ","key"," ","16.685999999999964","500","250","inst","","","","","","",""
"","psychophysics","79","208671","0.0-79.0","63ade94905e590dbf726b7fb","64e50dbac86630f87b2a66df","","","","","6548",""," ","key"," ","16.686002551020408","500","250","instPzPre","50","0","","50","","","50"
"","psychophysics","80","210223","0.0-80.0","63ade94905e590dbf726b7fb","64e50dbac86630f87b2a66df","","","","","1548",""," ","key"," ","16.685956521738895","500","250","instPz0","49","1","","50","","","50"
"","psychophysics","81","210808","0.0-81.0","63ade94905e590dbf726b7fb","64e50dbac86630f87b2a66df","","","","","580",""," ","key"," ","16.685941176470163","500","250","instPz1","25","1","","25","","","50"
"","psychophysics","82","215392","0.0-82.0","63ade94905e590dbf726b7fb","64e50dbac86630f87b2a66df","","","","","4581",""," ","key"," ","16.686098901098877","500","250","instPz2","23","1","","35","","","20"
"","psychophysics","83","221623","0.0-83.0","63ade94905e590dbf726b7fb","64e50dbac86630f87b2a66df","","","","","6223",""," ","key"," ","16.686018766756057","500","250","instPz3","50","1","","100","","","30"
"","psychophysics","84","225575","0.0-84.0","63ade94905e590dbf726b7fb","64e50dbac86630f87b2a66df","","","","","3948",""," ","key"," ","16.68613983050849","500","250","instPz4","51","1","","100","","","30"
"","psychophysics","85","226327","0.0-85.0","63ade94905e590dbf726b7fb","64e50dbac86630f87b2a66df","","","","","748",""," ","key"," ","16.685181818182173","500","250","inst","","","","","","",""
"","psychophysics","86","228440","0.0-86.0","63ade94905e590dbf726b7fb","64e50dbac86630f87b2a66df","","","","","2109",""," ","key"," ","16.686192000000037","500","250","pz","38","1","0","35","","","21"
"","psychophysics","87","232265","0.0-87.0","63ade94905e590dbf726b7fb","64e50dbac86630f87b2a66df","","","","","3817",""," ","key"," ","16.68595196506543","500","250","pz","70","1","0","37","","","42"
"","psychophysics","88","235527","0.0-88.0","63ade94905e590dbf726b7fb","64e50dbac86630f87b2a66df","","","","","3257",""," ","key"," ","16.68597938144338","500","250","pz","41","1","0","53","","","26"
"","psychophysics","89","237615","0.0-89.0","63ade94905e590dbf726b7fb","64e50dbac86630f87b2a66df","","","","","2083",""," ","key"," ","16.686008064516148","500","250","pz","34","1","0","28","","","23"
"","psychophysics","90","239967","0.0-90.0","63ade94905e590dbf726b7fb","64e50dbac86630f87b2a66df","","","","","2344",""," ","key"," ","16.685914285714222","500","250","pz","72","1","0","55","","","52"
"","psychophysics","91","243904","0.0-91.0","63ade94905e590dbf726b7fb","64e50dbac86630f87b2a66df","","","","","3927",""," ","key"," ","16.686017021276502","500","250","pz","37","1","0","51","","","23"
"","psychophysics","92","245336","0.0-92.0","63ade94905e590dbf726b7fb","64e50dbac86630f87b2a66df","","","","","1427",""," ","key"," ","16.685905882352895","500","250","pz","62","1","0","59","","","35"
"","psychophysics","93","248464","0.0-93.0","63ade94905e590dbf726b7fb","64e50dbac86630f87b2a66df","","","","","3125",""," ","key"," ","16.686021505376374","500","250","pz","30","1","0","47","","","21"
"","psychophysics","94","251543","0.0-94.0","63ade94905e590dbf726b7fb","64e50dbac86630f87b2a66df","","","","","3072",""," ","key"," ","16.685809782608608","500","250","pz","53","1","0","39","","","39"
"","psychophysics","95","252496","0.0-95.0","63ade94905e590dbf726b7fb","64e50dbac86630f87b2a66df","","","","","948",""," ","key"," ","16.68639285714276","500","250","pz","58","1","0","58","","","45"
"","psychophysics","96","255042","0.0-96.0","63ade94905e590dbf726b7fb","64e50dbac86630f87b2a66df","","","","","2541",""," ","key"," ","16.685953947368322","500","250","pz","56","1","0","38","","","43"
"","psychophysics","97","258047","0.0-97.0","63ade94905e590dbf726b7fb","64e50dbac86630f87b2a66df","","","","","3001",""," ","key"," ","16.685949720670575","500","250","pz","71","1","0","26","","","54"
"","psychophysics","98","260216","0.0-98.0","63ade94905e590dbf726b7fb","64e50dbac86630f87b2a66df","","","","","2167",""," ","key"," ","16.68596124031009","500","250","pz","60","1","0","44","","","39"
"","psychophysics","99","264776","0.0-99.0","63ade94905e590dbf726b7fb","64e50dbac86630f87b2a66df","","","","","4556",""," ","key"," ","16.68604044117648","500","250","pz","81","1","0","43","","","52"
"","psychophysics","100","267360","0.0-100.0","63ade94905e590dbf726b7fb","64e50dbac86630f87b2a66df","","","","","2580",""," ","key"," ","16.685876623376622","500","250","pz","69","1","0","56","","","40"
"","psychophysics","101","268091","0.0-101.0","63ade94905e590dbf726b7fb","64e50dbac86630f87b2a66df","","","","","727",""," ","key"," ","16.68583720930186","500","250","inst","","","","","","",""
"","psychophysics","102","269784","0.0-102.0","63ade94905e590dbf726b7fb","64e50dbac86630f87b2a66df","","","","","1689",""," ","key"," ","16.686110000000337","500","250","instZol0","0","","","0","0","0",""
"","psychophysics","103","274303","0.0-103.0","63ade94905e590dbf726b7fb","64e50dbac86630f87b2a66df","","","","","4517",""," ","key"," ","16.68599259259257","500","250","instZol1","0.4","","","-1.3","0","0",""
"","psychophysics","104","278401","0.0-104.0","63ade94905e590dbf726b7fb","64e50dbac86630f87b2a66df","","","","","4091",""," ","key"," ","16.68599183673481","500","250","instZol2","0.8000000000000006","1","","2","0","0",""
"","psychophysics","105","279127","0.0-105.0","63ade94905e590dbf726b7fb","64e50dbac86630f87b2a66df","","","","","722",""," ","key"," ","16.68597619047588","500","250","inst","","","","","","",""
"","psychophysics","106","281375","0.0-106.0","63ade94905e590dbf726b7fb","64e50dbac86630f87b2a66df","","","","","2233",""," ","key"," ","16.686104477611682","500","250","zol","1.35","1","0","0.25","-24","-30",""
"","psychophysics","107","283343","0.0-107.0","63ade94905e590dbf726b7fb","64e50dbac86630f87b2a66df","","","","","1962",""," ","key"," ","16.685897435897434","500","250","zol","1.3200000000000003","1","0","-0.12","-19","-18",""
"","psychophysics","108","285960","0.0-108.0","63ade94905e590dbf726b7fb","64e50dbac86630f87b2a66df","","","","","2610",""," ","key"," ","16.6860512820515","500","250","zol","1.4000000000000001","1","0","-0.3","14","29",""
"","psychophysics","109","288032","0.0-109.0","63ade94905e590dbf726b7fb","64e50dbac86630f87b2a66df","","","","","2064",""," ","key"," ","16.685918699186654","500","250","zol","1.4500000000000002","1","0","0.25","-20","27",""
"","psychophysics","110","289881","0.0-110.0","63ade94905e590dbf726b7fb","64e50dbac86630f87b2a66df","","","","","1844",""," ","key"," ","16.68619090909064","500","250","zol","1.2100000000000002","1","0","0.29","27","19",""
"","psychophysics","111","291743","0.0-111.0","63ade94905e590dbf726b7fb","64e50dbac86630f87b2a66df","","","","","1854",""," ","key"," ","16.685990909090666","500","250","zol","1.7800000000000005","1","0","-0.38","13","12",""
"","psychophysics","112","294639","0.0-112.0","63ade94905e590dbf726b7fb","64e50dbac86630f87b2a66df","","","","","2885",""," ","key"," ","16.685994219652986","500","250","zol","1.1300000000000001","1","0","0.47","8","-29",""
"","psychophysics","113","297415","0.0-113.0","63ade94905e590dbf726b7fb","64e50dbac86630f87b2a66df","","","","","2770",""," ","key"," ","16.686090909091007","500","250","zol","1.27","1","0","-0.07","-26","26",""
"","psychophysics","114","301719","0.0-114.0","63ade94905e590dbf726b7fb","64e50dbac86630f87b2a66df","","","","","4293",""," ","key"," ","16.686019455252808","500","250","zol","1.36","1","0","0.64","-26","-14",""
"","psychophysics","115","303897","0.0-115.0","63ade94905e590dbf726b7fb","64e50dbac86630f87b2a66df","","","","","2169",""," ","key"," ","16.686007692307555","500","250","zol","1.5600000000000005","1","0","-0.56","-25","-5",""
"","psychophysics","116","306494","0.0-116.0","63ade94905e590dbf726b7fb","64e50dbac86630f87b2a66df","","","","","2590",""," ","key"," ","16.68606493506481","500","250","zol","1.28","1","0","0.22","7","-29",""
"","psychophysics","117","308526","0.0-117.0","63ade94905e590dbf726b7fb","64e50dbac86630f87b2a66df","","","","","2022",""," ","key"," ","16.68600826446267","500","250","zol","1.5300000000000005","1","0","-0.73","-4","-9",""
"","psychophysics","118","310406","0.0-118.0","63ade94905e590dbf726b7fb","64e50dbac86630f87b2a66df","","","","","1870",""," ","key"," ","16.685714285714702","500","250","zol","1.26","1","0","0.34","-10","7",""
"","psychophysics","119","312191","0.0-119.0","63ade94905e590dbf726b7fb","64e50dbac86630f87b2a66df","","","","","1781",""," ","key"," ","16.686273584905617","500","250","zol","1.8400000000000007","1","0","-0.44","20","-6",""
"","psychophysics","120","313998","0.0-120.0","63ade94905e590dbf726b7fb","64e50dbac86630f87b2a66df","","","","","1799",""," ","key"," ","16.686037383177187","500","250","zol","2.350000000000001","1","0","-0.45","11","-29",""
"","psychophysics","121","314766","0.0-121.0","63ade94905e590dbf726b7fb","64e50dbac86630f87b2a66df","","","","","765",""," ","key"," ","16.68604444444516","500","250","inst","","","","","","",""
"","psychophysics","122","319086","0.0-122.0","63ade94905e590dbf726b7fb","64e50dbac86630f87b2a66df","","","","","4316",""," ","key"," ","16.686050387596858","500","250","instPz1","37","2","","25","","","50"
"","psychophysics","123","320926","0.0-123.0","63ade94905e590dbf726b7fb","64e50dbac86630f87b2a66df","","","","","1836",""," ","key"," ","16.685926605504616","500","250","instPz2","27","2","","20","","","35"
"","psychophysics","124","324350","0.0-124.0","63ade94905e590dbf726b7fb","64e50dbac86630f87b2a66df","","","","","3414",""," ","key"," ","16.685965686274393","500","250","instPz3","57","2","","30","","","100"
"","psychophysics","125","326214","0.0-125.0","63ade94905e590dbf726b7fb","64e50dbac86630f87b2a66df","","","","","1856",""," ","key"," ","16.68602702702681","500","250","instPz4","49","2","","30","","","100"
"","psychophysics","126","326934","0.0-126.0","63ade94905e590dbf726b7fb","64e50dbac86630f87b2a66df","","","","","717",""," ","key"," ","16.685833333333168","500","250","inst","","","","","","",""
"","psychophysics","127","330361","0.0-127.0","63ade94905e590dbf726b7fb","64e50dbac86630f87b2a66df","","","","","3418",""," ","key"," ","16.686058536585612","500","250","pz","17","2","1","23","","","25"
"","psychophysics","128","334871","0.0-128.0","63ade94905e590dbf726b7fb","64e50dbac86630f87b2a66df","","","","","4504",""," ","key"," ","16.685988847583708","500","250","pz","30","2","1","50","","","44"
"","psychophysics","129","336368","0.0-129.0","63ade94905e590dbf726b7fb","64e50dbac86630f87b2a66df","","","","","1493",""," ","key"," ","16.685943820224708","500","250","pz","32","2","1","32","","","44"
"","psychophysics","130","338838","0.0-130.0","63ade94905e590dbf726b7fb","64e50dbac86630f87b2a66df","","","","","2466",""," ","key"," ","16.68604761904753","500","250","pz","42","2","1","53","","","56"
"","psychophysics","131","341350","0.0-131.0","63ade94905e590dbf726b7fb","64e50dbac86630f87b2a66df","","","","","2509",""," ","key"," ","16.685993288590527","500","250","pz","18","2","1","21","","","25"
"","psychophysics","132","343359","0.0-132.0","63ade94905e590dbf726b7fb","64e50dbac86630f87b2a66df","","","","","2001",""," ","key"," ","16.685916666666646","500","250","pz","32","2","1","28","","","53"
"","psychophysics","133","347605","0.0-133.0","63ade94905e590dbf726b7fb","64e50dbac86630f87b2a66df","","","","","4241",""," ","key"," ","16.685782608695757","500","250","pz","35","2","1","47","","","48"
"","psychophysics","134","351037","0.0-134.0","63ade94905e590dbf726b7fb","64e50dbac86630f87b2a66df","","","","","3430",""," ","key"," ","16.768004901960833","500","250","pz","23","2","1","50","","","27"
"","psychophysics","135","353709","0.0-135.0","63ade94905e590dbf726b7fb","64e50dbac86630f87b2a66df","","","","","2668",""," ","key"," ","16.68586792452839","500","250","pz","31","2","1","44","","","39"
"","psychophysics","136","355359","0.0-136.0","63ade94905e590dbf726b7fb","64e50dbac86630f87b2a66df","","","","","1642",""," ","key"," ","16.686091836734928","500","250","pz","23","2","1","27","","","31"
"","psychophysics","137","357038","0.0-137.0","63ade94905e590dbf726b7fb","64e50dbac86630f87b2a66df","","","","","1675",""," ","key"," ","16.686040404040455","500","250","pz","19","2","1","20","","","28"
"","psychophysics","138","359495","0.0-138.0","63ade94905e590dbf726b7fb","64e50dbac86630f87b2a66df","","","","","2448",""," ","key"," ","16.685979591836585","500","250","pz","32","2","1","35","","","45"
"","psychophysics","139","364046","0.0-139.0","63ade94905e590dbf726b7fb","64e50dbac86630f87b2a66df","","","","","4546",""," ","key"," ","16.685985239852407","500","250","pz","17","2","1","52","","","20"
"","psychophysics","140","366542","0.0-140.0","63ade94905e590dbf726b7fb","64e50dbac86630f87b2a66df","","","","","2488",""," ","key"," ","16.68583892617451","500","250","pz","34","2","1","27","","","54"
"","psychophysics","141","370808","0.0-141.0","63ade94905e590dbf726b7fb","64e50dbac86630f87b2a66df","","","","","4262",""," ","key"," ","16.68605882352944","500","250","pz","20","2","1","57","","","24"
"","psychophysics","142","371814","0.0-142.0","63ade94905e590dbf726b7fb","64e50dbac86630f87b2a66df","","","","","1002",""," ","key"," ","16.685796610169483","500","250","inst","","","","","","",""
"","psychophysics","143","373502","0.0-143.0","63ade94905e590dbf726b7fb","64e50dbac86630f87b2a66df","","","","","1683",""," ","key"," ","16.686030000000027","500","250","instEB1","41","1","","40","0","0","30"
"","psychophysics","144","376766","0.0-144.0","63ade94905e590dbf726b7fb","64e50dbac86630f87b2a66df","","","","","3260",""," ","key"," ","16.68595897435891","500","250","instEB2","39","1","","30","0","0","40"
"","psychophysics","145","379639","0.0-145.0","63ade94905e590dbf726b7fb","64e50dbac86630f87b2a66df","","","","","2866",""," ","key"," ","16.686093567251376","500","250","instEB3","38","1","","27","0","0","45"
"","psychophysics","146","383158","0.0-146.0","63ade94905e590dbf726b7fb","64e50dbac86630f87b2a66df","","","","","3515",""," ","key"," ","16.685957142857035","500","250","instEB4","25","1","","40","0","0","30"
"","psychophysics","147","383902","0.0-147.0","63ade94905e590dbf726b7fb","64e50dbac86630f87b2a66df","","","","","739",""," ","key"," ","16.685674418604574","500","250","inst","","","","","","",""
"","psychophysics","148","386678","0.0-148.0","63ade94905e590dbf726b7fb","64e50dbac86630f87b2a66df","","","","","2767",""," ","key"," ","16.686006024096258","500","250","eb","53","1","","36","0","0","53"
"","psychophysics","149","390406","0.0-149.0","63ade94905e590dbf726b7fb","64e50dbac86630f87b2a66df","","","","","3723",""," ","key"," ","16.685972972973072","500","250","eb","27","1","","53","0","0","29"
"","psychophysics","150","392878","0.0-150.0","63ade94905e590dbf726b7fb","64e50dbac86630f87b2a66df","","","","","2468",""," ","key"," ","16.686034013605504","500","250","eb","38","1","","27","0","0","47"
"","psychophysics","151","394974","0.0-151.0","63ade94905e590dbf726b7fb","64e50dbac86630f87b2a66df","","","","","2088",""," ","key"," ","16.685944000000134","500","250","eb","29","1","","25","0","0","36"
"","psychophysics","152","397678","0.0-152.0","63ade94905e590dbf726b7fb","64e50dbac86630f87b2a66df","","","","","2699",""," ","key"," ","16.68598757763986","500","250","eb","45","1","","34","0","0","46"
"","psychophysics","153","400830","0.0-153.0","63ade94905e590dbf726b7fb","64e50dbac86630f87b2a66df","","","","","3148",""," ","key"," ","16.775187165775513","500","250","eb","41","1","","26","0","0","52"
"","psychophysics","154","403582","0.0-154.0","63ade94905e590dbf726b7fb","64e50dbac86630f87b2a66df","","","","","2747",""," ","key"," ","16.686073170731373","500","250","eb","39","1","","52","0","0","43"
"","psychophysics","155","405049","0.0-155.0","63ade94905e590dbf726b7fb","64e50dbac86630f87b2a66df","","","","","1462",""," ","key"," ","16.686137931034686","500","250","eb","31","1","","30","0","0","36"
"","psychophysics","156","407926","0.0-156.0","63ade94905e590dbf726b7fb","64e50dbac86630f87b2a66df","","","","","2871",""," ","key"," ","16.784135294117732","500","250","eb","34","1","","32","0","0","45"
"","psychophysics","157","411238","0.0-157.0","63ade94905e590dbf726b7fb","64e50dbac86630f87b2a66df","","","","","3308",""," ","key"," ","16.685984848484907","500","250","eb","44","1","","52","0","0","47"
"","psychophysics","158","412934","0.0-158.0","63ade94905e590dbf726b7fb","64e50dbac86630f87b2a66df","","","","","1690",""," ","key"," ","16.686089999999968","500","250","eb","40","1","","40","0","0","42"
"","psychophysics","159","415790","0.0-159.0","63ade94905e590dbf726b7fb","64e50dbac86630f87b2a66df","","","","","2846",""," ","key"," ","16.686052941176563","500","250","eb","44","1","","32","0","0","50"
"","psychophysics","160","418079","0.0-160.0","63ade94905e590dbf726b7fb","64e50dbac86630f87b2a66df","","","","","2269",""," ","key"," ","16.68593430656933","500","250","eb","41","1","","45","0","0","45"
"","psychophysics","161","419334","0.0-161.0","63ade94905e590dbf726b7fb","64e50dbac86630f87b2a66df","","","","","1249",""," ","key"," ","16.685864864864286","500","250","eb","34","1","","34","0","0","38"
"","psychophysics","162","420821","0.0-162.0","63ade94905e590dbf726b7fb","64e50dbac86630f87b2a66df","","","","","1483",""," ","key"," ","16.686022727272675","500","250","eb","40","1","","40","0","0","43"
"","psychophysics","163","421751","0.0-163.0","63ade94905e590dbf726b7fb","64e50dbac86630f87b2a66df","","","","","926",""," ","key"," ","16.686018181817648","500","250","inst","","","","","","",""
"","psychophysics","164","426061","0.0-164.0","63ade94905e590dbf726b7fb","64e50dbac86630f87b2a66df","","","","","4307",""," ","key"," ","16.686035019455428","500","250","instZol1","0.7","","","-1.3","0","0",""
"","psychophysics","165","432821","0.0-165.0","63ade94905e590dbf726b7fb","64e50dbac86630f87b2a66df","","","","","6754",""," ","key"," ","16.68600000000007","500","250","instZol2","-1.3999999999999995","2","","2","0","0",""
"","psychophysics","166","433550","0.0-166.0","63ade94905e590dbf726b7fb","64e50dbac86630f87b2a66df","","","","","726",""," ","key"," ","16.686116279070372","500","250","inst","","","","","","",""
"","psychophysics","167","439093","0.0-167.0","63ade94905e590dbf726b7fb","64e50dbac86630f87b2a66df","","","","","5537",""," ","key"," ","16.68600906344416","500","250","zol","-1.01","2","1","-0.29","4","3",""
"","psychophysics","168","441461","0.0-168.0","63ade94905e590dbf726b7fb","64e50dbac86630f87b2a66df","","","","","2362",""," ","key"," ","16.686049645390124","500","250","zol","-1.2200000000000002","2","1","0.12","3","-26",""
"","psychophysics","169","444197","0.0-169.0","63ade94905e590dbf726b7fb","64e50dbac86630f87b2a66df","","","","","2730",""," ","key"," ","16.68601840490795","500","250","zol","-0.47","2","1","-0.63","15","-15",""
"","psychophysics","170","450773","0.0-170.0","63ade94905e590dbf726b7fb","64e50dbac86630f87b2a66df","","","","","6570",""," ","key"," ","16.685977099236734","500","250","zol","-1.2","2","1","-0.5","23","-19",""
"","psychophysics","171","455942","0.0-171.0","63ade94905e590dbf726b7fb","64e50dbac86630f87b2a66df","","","","","5163",""," ","key"," ","16.68599676375404","500","250","zol","-1.6900000000000004","2","1","0.09","24","4",""
"","psychophysics","172","459344","0.0-172.0","63ade94905e590dbf726b7fb","64e50dbac86630f87b2a66df","","","","","3396",""," ","key"," ","16.686054187191974","500","250","zol","-1.25","2","1","0.25","2","-4",""
"","psychophysics","173","462157","0.0-173.0","63ade94905e590dbf726b7fb","64e50dbac86630f87b2a66df","","","","","2807",""," ","key"," ","16.68604191616777","500","250","zol","-1.6800000000000006","2","1","0.68","3","-25",""
"","psychophysics","174","464069","0.0-174.0","63ade94905e590dbf726b7fb","64e50dbac86630f87b2a66df","","","","","1901",""," ","key"," ","16.68592982456137","500","250","zol","-1.7200000000000006","2","1","0.62","15","-21",""
"","psychophysics","175","470429","0.0-175.0","63ade94905e590dbf726b7fb","64e50dbac86630f87b2a66df","","","","","6354",""," ","key"," ","16.686015789473803","500","250","zol","-1.4300000000000004","2","1","-0.17","-14","9",""
"","psychophysics","176","474373","0.0-176.0","63ade94905e590dbf726b7fb","64e50dbac86630f87b2a66df","","","","","3938",""," ","key"," ","16.685991489361633","500","250","zol","-0.7599999999999999","2","1","-0.74","-9","16",""
"","psychophysics","177","476477","0.0-177.0","63ade94905e590dbf726b7fb","64e50dbac86630f87b2a66df","","","","","2094",""," ","key"," ","16.68604800000042","500","250","zol","-1.8400000000000007","2","1","0.64","25","12",""
"","psychophysics","178","478389","0.0-178.0","63ade94905e590dbf726b7fb","64e50dbac86630f87b2a66df","","","","","1902",""," ","key"," ","16.68603508771967","500","250","zol","-1.6200000000000006","2","1","0.62","-23","-22",""
"","psychophysics","179","482717","0.0-179.0","63ade94905e590dbf726b7fb","64e50dbac86630f87b2a66df","","","","","4322",""," ","key"," ","16.68594186046511","500","250","zol","-1.4500000000000002","2","1","-0.25","-5","-5",""
"","psychophysics","180","487645","0.0-180.0","63ade94905e590dbf726b7fb","64e50dbac86630f87b2a66df","","","","","4916",""," ","key"," ","16.686003389830457","500","250","zol","-1.7000000000000004","2","1","-0.2","5","-22",""
"","psychophysics","181","490663","0.0-181.0","63ade94905e590dbf726b7fb","64e50dbac86630f87b2a66df","","","","","3011",""," ","key"," ","16.68605000000001","500","250","zol","-1.4100000000000004","2","1","0.11","12","25",""
"","psychophysics","182","491733","0.0-182.0","63ade94905e590dbf726b7fb","64e50dbac86630f87b2a66df","","","","","1066",""," ","key"," ","16.686158730158773","500","250","inst","","","","","","",""
"","psychophysics","183","497012","0.0-183.0","63ade94905e590dbf726b7fb","64e50dbac86630f87b2a66df","","","","","5276",""," ","key"," ","16.68598730158715","500","250","instPog0","340","2","","370","0","0","340"
"","psychophysics","184","498757","0.0-184.0","63ade94905e590dbf726b7fb","64e50dbac86630f87b2a66df","","","","","1741",""," ","key"," ","16.686096153846076","500","250","instPog1","362","2","","370","0","0","340"
"","psychophysics","185","501196","0.0-185.0","63ade94905e590dbf726b7fb","64e50dbac86630f87b2a66df","","","","","2434",""," ","key"," ","16.686048275862163","500","250","instPog2","334","2","","340","0","0","340"
"","psychophysics","186","501894","0.0-186.0","63ade94905e590dbf726b7fb","64e50dbac86630f87b2a66df","","","","","695",""," ","key"," ","16.685951219512457","500","250","inst","","","","","","",""
"","psychophysics","187","504188","0.0-187.0","63ade94905e590dbf726b7fb","64e50dbac86630f87b2a66df","","","","","2290",""," ","key"," ","16.686014705882425","500","250","pog","307","2","1","297","0","0","316"
"","psychophysics","188","508950","0.0-188.0","63ade94905e590dbf726b7fb","64e50dbac86630f87b2a66df","","","","","4759",""," ","key"," ","16.744725352112805","500","250","pog","370","2","1","290","0","0","379"
"","psychophysics","189","512860","0.0-189.0","63ade94905e590dbf726b7fb","64e50dbac86630f87b2a66df","","","","","3905",""," ","key"," ","16.686158798283262","500","250","pog","320","2","1","306","0","0","329"
"","psychophysics","190","514700","0.0-190.0","63ade94905e590dbf726b7fb","64e50dbac86630f87b2a66df","","","","","1836",""," ","key"," ","16.6860825688073","500","250","pog","312","2","1","310","0","0","333"
"","psychophysics","191","517836","0.0-191.0","63ade94905e590dbf726b7fb","64e50dbac86630f87b2a66df","","","","","3132",""," ","key"," ","16.68595721925152","500","250","pog","300","2","1","324","0","0","319"
"","psychophysics","192","524892","0.0-192.0","63ade94905e590dbf726b7fb","64e50dbac86630f87b2a66df","","","","","7052",""," ","key"," ","16.68601421800953","500","250","pog","367","2","1","341","0","0","377"
"","psychophysics","193","531220","0.0-193.0","63ade94905e590dbf726b7fb","64e50dbac86630f87b2a66df","","","","","6324",""," ","key"," ","16.686010582010365","500","250","pog","304","2","1","386","0","0","317"
"","psychophysics","194","538124","0.0-194.0","63ade94905e590dbf726b7fb","64e50dbac86630f87b2a66df","","","","","6900",""," ","key"," ","16.68599515738497","500","250","pog","303","2","1","387","0","0","309"
"","psychophysics","195","542925","0.0-195.0","63ade94905e590dbf726b7fb","64e50dbac86630f87b2a66df","","","","","4797",""," ","key"," ","16.686052264808353","500","250","pog","331","2","1","395","0","0","338"
"","psychophysics","196","543878","0.0-196.0","63ade94905e590dbf726b7fb","64e50dbac86630f87b2a66df","","","","","949",""," ","key"," ","16.68605357142847","500","250","pog","321","2","1","321","0","0","322"
"","psychophysics","197","548966","0.0-197.0","63ade94905e590dbf726b7fb","64e50dbac86630f87b2a66df","","","","","5084",""," ","key"," ","16.685980263157706","500","250","pog","301","2","1","395","0","0","312"
"","psychophysics","198","556971","0.0-198.0","63ade94905e590dbf726b7fb","64e50dbac86630f87b2a66df","","","","","null","","null","key","null","16.68599999999987","500","250","pog","358","2","1","282","0","0","372"
"","psychophysics","199","560076","0.0-199.0","63ade94905e590dbf726b7fb","64e50dbac86630f87b2a66df","","","","","3096",""," ","key"," ","16.68603243243226","500","250","pog","364","2","1","296","0","0","371"
"","psychophysics","200","562491","0.0-200.0","63ade94905e590dbf726b7fb","64e50dbac86630f87b2a66df","","","","","2409",""," ","key"," ","16.686027777778186","500","250","pog","316","2","1","292","0","0","347"
"","psychophysics","201","564884","0.0-201.0","63ade94905e590dbf726b7fb","64e50dbac86630f87b2a66df","","","","","2385",""," ","key"," ","16.68607692307731","500","250","pog","298","2","1","304","0","0","303"
"","psychophysics","202","566291","0.0-202.0","63ade94905e590dbf726b7fb","64e50dbac86630f87b2a66df","","","","","1404",""," ","key"," ","16.685951807229017","500","250","inst","","","","","","",""
"","psychophysics","203","567171","0.0-203.0","63ade94905e590dbf726b7fb","64e50dbac86630f87b2a66df","","","","","876",""," ","key"," ","17.013196078432706","500","250","instBr3","40","1","","40","0","0","300"
"","psychophysics","204","567788","0.0-204.0","63ade94905e590dbf726b7fb","64e50dbac86630f87b2a66df","","","","","613",""," ","key"," ","16.685999999999897","500","250","inst","","","","","","",""
"","psychophysics","205","571341","0.0-205.0","63ade94905e590dbf726b7fb","64e50dbac86630f87b2a66df","","","","","3549",""," ","key"," ","16.685995283019334","500","250","br","-16","1","1","20","15","-5","214"
"","psychophysics","206","577966","0.0-206.0","63ade94905e590dbf726b7fb","64e50dbac86630f87b2a66df","","","","","6620",""," ","key"," ","16.686025252525173","500","250","br","-17","1","1","23","10","-9","255"
"","psychophysics","207","581204","0.0-207.0","63ade94905e590dbf726b7fb","64e50dbac86630f87b2a66df","","","","","3234",""," ","key"," ","16.686025906735402","500","250","br","-16","1","1","4","26","2","297"
"","psychophysics","208","585508","0.0-208.0","63ade94905e590dbf726b7fb","64e50dbac86630f87b2a66df","","","","","4300",""," ","key"," ","16.686042801556287","500","250","br","-17","1","1","30","9","4","295"
"","psychophysics","209","590107","0.0-209.0","63ade94905e590dbf726b7fb","64e50dbac86630f87b2a66df","","","","","4595",""," ","key"," ","16.685981751824933","500","250","br","-17","1","1","18","-1","6","255"
"","psychophysics","210","591949","0.0-210.0","63ade94905e590dbf726b7fb","64e50dbac86630f87b2a66df","","","","","1832",""," ","key"," ","16.686018181817648","500","250","br","-24","1","1","-8","15","-8","284"
"","psychophysics","211","595691","0.0-211.0","63ade94905e590dbf726b7fb","64e50dbac86630f87b2a66df","","","","","3738",""," ","key"," ","16.686004484304636","500","250","br","-22","1","1","2","1","-30","283"
"","psychophysics","212","598451","0.0-212.0","63ade94905e590dbf726b7fb","64e50dbac86630f87b2a66df","","","","","2756",""," ","key"," ","16.686018292683535","500","250","br","-21","1","1","-10","-15","-27","254"
"","psychophysics","213","602099","0.0-213.0","63ade94905e590dbf726b7fb","64e50dbac86630f87b2a66df","","","","","3640",""," ","key"," ","16.685995412844132","500","250","br","-19","1","1","8","-11","-7","272"
"","psychophysics","214","604435","0.0-214.0","63ade94905e590dbf726b7fb","64e50dbac86630f87b2a66df","","","","","2332",""," ","key"," ","16.685992805755415","500","250","br","-24","1","1","-8","-6","27","220"
"","psychophysics","215","606867","0.0-215.0","63ade94905e590dbf726b7fb","64e50dbac86630f87b2a66df","","","","","2428",""," ","key"," ","16.80195138888828","500","250","br","-12","1","1","23","-14","27","296"
"","psychophysics","216","609075","0.0-216.0","63ade94905e590dbf726b7fb","64e50dbac86630f87b2a66df","","","","","2204",""," ","key"," ","16.685946564885025","500","250","br","-20","1","1","13","12","30","275"
"","psychophysics","217","610453","0.0-217.0","63ade94905e590dbf726b7fb","64e50dbac86630f87b2a66df","","","","","1373",""," ","key"," ","16.686170731706646","500","250","br","-23","1","1","-17","18","-14","255"
"","psychophysics","218","613021","0.0-218.0","63ade94905e590dbf726b7fb","64e50dbac86630f87b2a66df","","","","","2564",""," ","key"," ","16.68592810457545","500","250","br","-10","1","1","29","-23","28","236"
"","psychophysics","219","617067","0.0-219.0","63ade94905e590dbf726b7fb","64e50dbac86630f87b2a66df","","","","","4041",""," ","key"," ","16.685946058091144","500","250","br","-15","1","1","20","-27","-5","206"
