"success","trial_type","trial_index","time_elapsed","internal_node_id","pid","sid","timeout","failed_images","failed_audio","failed_video","rt","stimulus","response","response_type","key_press","avg_frame_time","center_x","center_y","task","resp","start","parA","version","block","jitterX","jitterY"
"true","fullscreen","0","2892","0.0-0.0","60f1ddf2ba77ba7c771c936c","64de810fcbcf155a79f44d14","","","","","","","","","","","","","","","","","","","",""
"true","preload","1","3274","0.0-1.0","60f1ddf2ba77ba7c771c936c","64de810fcbcf155a79f44d14","false","[]","[]","[]","","","","","","","","","","","","","","","",""
"","html-button-response","2","10465","0.0-2.0","60f1ddf2ba77ba7c771c936c","64de810fcbcf155a79f44d14","","","","","7189","Please Make Sure Your Audio Is On.","0","","","","","","","","","","","","",""
"","psychophysics","3","13927","0.0-3.0","60f1ddf2ba77ba7c771c936c","64de810fcbcf155a79f44d14","","","","","3426",""," ","key"," ","16.67019806763285","750","250","","","","","","","",""
"","psychophysics","4","16162","0.0-4.0","60f1ddf2ba77ba7c771c936c","64de810fcbcf155a79f44d14","","","","","2166",""," ","key"," ","16.92580152671755","500","250","inst","","","","","","",""
"","psychophysics","5","20880","0.0-5.0","60f1ddf2ba77ba7c771c936c","64de810fcbcf155a79f44d14","","","","","4666",""," ","key"," ","16.79155035971223","500","250","sample0","","","","","","",""
"","psychophysics","6","22634","0.0-6.0","60f1ddf2ba77ba7c771c936c","64de810fcbcf155a79f44d14","","","","","1723",""," ","key"," ","16.99133653846152","500","250","sample1","","","","","","",""
"","psychophysics","7","36309","0.0-7.0","60f1ddf2ba77ba7c771c936c","64de810fcbcf155a79f44d14","","","","","13631",""," ","key"," ","16.711374083129584","500","250","sample2","102","","","","","",""
"","psychophysics","8","41191","0.0-8.0","60f1ddf2ba77ba7c771c936c","64de810fcbcf155a79f44d14","","","","","4861",""," ","key"," ","16.670619863013712","500","250","sample3","100","","","","","",""
"","psychophysics","9","56192","0.0-9.0","60f1ddf2ba77ba7c771c936c","64de810fcbcf155a79f44d14","","","","","14976",""," ","key"," ","16.68969265033408","500","250","sample4","100","","","","","",""
"","psychophysics","10","60919","0.0-10.0","60f1ddf2ba77ba7c771c936c","64de810fcbcf155a79f44d14","","","","","4717",""," ","key"," ","16.67159219858157","500","250","sample5","","","","","","",""
"","psychophysics","11","72998","0.0-11.0","60f1ddf2ba77ba7c771c936c","64de810fcbcf155a79f44d14","","","","","12035",""," ","key"," ","16.716890581717465","500","250","sample6","500","","","","","",""
"","psychophysics","12","75910","0.0-12.0","60f1ddf2ba77ba7c771c936c","64de810fcbcf155a79f44d14","","","","","2902",""," ","key"," ","16.67114450867048","500","250","inst","","","","","","",""
"","psychophysics","13","79818","0.0-13.0","60f1ddf2ba77ba7c771c936c","64de810fcbcf155a79f44d14","","","","","3893",""," ","key"," ","16.742339055793977","500","250","inst","","","","","","",""
"","psychophysics","14","83468","0.0-14.0","60f1ddf2ba77ba7c771c936c","64de810fcbcf155a79f44d14","","","","","3642",""," ","key"," ","16.670885321100904","500","250","inst","","","","","","",""
"","psychophysics","15","84850","0.0-15.0","60f1ddf2ba77ba7c771c936c","64de810fcbcf155a79f44d14","","","","","1375",""," ","key"," ","16.671256097561038","500","250","inst","","","","","","",""
"","psychophysics","16","86181","0.0-16.0","60f1ddf2ba77ba7c771c936c","64de810fcbcf155a79f44d14","","","","","1322",""," ","key"," ","16.670746835443055","500","250","inst","","","","","","",""
"","psychophysics","17","88638","0.0-17.0","60f1ddf2ba77ba7c771c936c","64de810fcbcf155a79f44d14","","","","","2446",""," ","key"," ","16.67088356164389","500","250","instPzPre","50","50","50","0","","",""
"","psychophysics","18","92757","0.0-18.0","60f1ddf2ba77ba7c771c936c","64de810fcbcf155a79f44d14","","","","","4080",""," ","key"," ","16.67097154471548","500","250","instPz0","50","50","50","1","","",""
"","psychophysics","19","104142","0.0-19.0","60f1ddf2ba77ba7c771c936c","64de810fcbcf155a79f44d14","","","","","11349",""," ","key"," ","16.69546696035242","500","250","instPz1","46","25","50","1","","",""
"","psychophysics","20","116494","0.0-20.0","60f1ddf2ba77ba7c771c936c","64de810fcbcf155a79f44d14","","","","","12343",""," ","key"," ","16.670814864864873","500","250","instPz2","22","35","20","1","","",""
"","psychophysics","21","125232","0.0-21.0","60f1ddf2ba77ba7c771c936c","64de810fcbcf155a79f44d14","","","","","8694",""," ","key"," ","16.67106500956021","500","250","instPz3","100","100","30","1","","",""
"","psychophysics","22","152760","0.0-22.0","60f1ddf2ba77ba7c771c936c","64de810fcbcf155a79f44d14","","","","","27520",""," ","key"," ","16.6708393939394","500","250","instPz4","45","100","30","1","","",""
"","psychophysics","23","154380","0.0-23.0","60f1ddf2ba77ba7c771c936c","64de810fcbcf155a79f44d14","","","","","1583",""," ","key"," ","16.671416666666726","500","250","inst","","","","","","",""
"","psychophysics","24","162110","0.0-24.0","60f1ddf2ba77ba7c771c936c","64de810fcbcf155a79f44d14","","","","","7684",""," ","key"," ","16.706971861471892","500","250","pz","36","43","22","1","0","",""
"","psychophysics","25","168420","0.0-25.0","60f1ddf2ba77ba7c771c936c","64de810fcbcf155a79f44d14","","","","","6269",""," ","key"," ","16.670440318302372","500","250","pz","44","55","26","1","0","",""
"","psychophysics","26","176427","0.0-26.0","60f1ddf2ba77ba7c771c936c","64de810fcbcf155a79f44d14","","","","","null","","null","key","null","16.67122499999999","500","250","pz","44","58","28","1","0","",""
"","psychophysics","27","182948","0.0-27.0","60f1ddf2ba77ba7c771c936c","64de810fcbcf155a79f44d14","","","","","6488",""," ","key"," ","16.713467866323956","500","250","pz","71","35","38","1","0","",""
"","psychophysics","28","187818","0.0-28.0","60f1ddf2ba77ba7c771c936c","64de810fcbcf155a79f44d14","","","","","4857",""," ","key"," ","16.671151202749115","500","250","pz","53","56","37","1","0","",""
"","psychophysics","29","193461","0.0-29.0","60f1ddf2ba77ba7c771c936c","64de810fcbcf155a79f44d14","","","","","5622",""," ","key"," ","16.670834319526623","500","250","pz","64","47","53","1","0","",""
"","psychophysics","30","197349","0.0-30.0","60f1ddf2ba77ba7c771c936c","64de810fcbcf155a79f44d14","","","","","3878",""," ","key"," ","16.671685344827612","500","250","pz","34","33","27","1","0","",""
"","psychophysics","31","200988","0.0-31.0","60f1ddf2ba77ba7c771c936c","64de810fcbcf155a79f44d14","","","","","3620",""," ","key"," ","16.67140552995395","500","250","pz","50","49","40","1","0","",""
"","psychophysics","32","206718","0.0-32.0","60f1ddf2ba77ba7c771c936c","64de810fcbcf155a79f44d14","","","","","5713",""," ","key"," ","16.67088046647237","500","250","pz","54","46","44","1","0","",""
"","psychophysics","33","210550","0.0-33.0","60f1ddf2ba77ba7c771c936c","64de810fcbcf155a79f44d14","","","","","3807",""," ","key"," ","16.744377192982427","500","250","pz","36","35","30","1","0","",""
"","psychophysics","34","215101","0.0-34.0","60f1ddf2ba77ba7c771c936c","64de810fcbcf155a79f44d14","","","","","4528",""," ","key"," ","16.672261029411803","500","250","pz","49","59","31","1","0","",""
"","psychophysics","35","217709","0.0-35.0","60f1ddf2ba77ba7c771c936c","64de810fcbcf155a79f44d14","","","","","2582",""," ","key"," ","16.671722580645152","500","250","pz","51","53","35","1","0","",""
"","psychophysics","36","221909","0.0-36.0","60f1ddf2ba77ba7c771c936c","64de810fcbcf155a79f44d14","","","","","4184",""," ","key"," ","16.671083665338685","500","250","pz","56","59","39","1","0","",""
"","psychophysics","37","225622","0.0-37.0","60f1ddf2ba77ba7c771c936c","64de810fcbcf155a79f44d14","","","","","3697",""," ","key"," ","16.670918918919","500","250","pz","52","50","45","1","0","",""
"","psychophysics","38","231280","0.0-38.0","60f1ddf2ba77ba7c771c936c","64de810fcbcf155a79f44d14","","","","","5637",""," ","key"," ","16.671174556212986","500","250","pz","59","60","49","1","0","",""
"","psychophysics","39","232598","0.0-39.0","60f1ddf2ba77ba7c771c936c","64de810fcbcf155a79f44d14","","","","","1275",""," ","key"," ","16.67197435897423","500","250","inst","","","","","","",""
"","psychophysics","40","243147","0.0-40.0","60f1ddf2ba77ba7c771c936c","64de810fcbcf155a79f44d14","","","","","10516",""," ","key"," ","16.67067088607595","500","250","instPog0","160","190","160","1","","0","0"
"","psychophysics","41","258348","0.0-41.0","60f1ddf2ba77ba7c771c936c","64de810fcbcf155a79f44d14","","","","","15100",""," ","key"," ","16.744498346196263","500","250","instPog1","170","190","160","1","","0","0"
"","psychophysics","42","270530","0.0-42.0","60f1ddf2ba77ba7c771c936c","64de810fcbcf155a79f44d14","","","","","12174",""," ","key"," ","16.693668038408752","500","250","instPog2","188","160","160","1","","0","0"
"","psychophysics","43","271607","0.0-43.0","60f1ddf2ba77ba7c771c936c","64de810fcbcf155a79f44d14","","","","","1069",""," ","key"," ","16.67311111111046","500","250","inst","","","","","","",""
"","psychophysics","44","275787","0.0-44.0","60f1ddf2ba77ba7c771c936c","64de810fcbcf155a79f44d14","","","","","4149",""," ","key"," ","16.67067599999998","500","250","pog","209","199","178","1","0","0","0"
"","psychophysics","45","279377","0.0-45.0","60f1ddf2ba77ba7c771c936c","64de810fcbcf155a79f44d14","","","","","3538",""," ","key"," ","16.74945070422522","500","250","pog","162","164","138","1","0","0","0"
"","psychophysics","46","283438","0.0-46.0","60f1ddf2ba77ba7c771c936c","64de810fcbcf155a79f44d14","","","","","4044",""," ","key"," ","16.670942386831232","500","250","pog","156","162","130","1","0","0","0"
"","psychophysics","47","291446","0.0-47.0","60f1ddf2ba77ba7c771c936c","64de810fcbcf155a79f44d14","","","","","null","","null","key","null","16.670519832985395","500","250","pog","211","133","177","1","0","0","0"
"","psychophysics","48","298244","0.0-48.0","60f1ddf2ba77ba7c771c936c","64de810fcbcf155a79f44d14","","","","","6794",""," ","key"," ","16.670850122850176","500","250","pog","186","106","156","1","0","0","0"
"","psychophysics","49","305340","0.0-49.0","60f1ddf2ba77ba7c771c936c","64de810fcbcf155a79f44d14","","","","","7090",""," ","key"," ","16.67143058823531","500","250","pog","219","129","185","1","0","0","0"
"","psychophysics","50","310316","0.0-50.0","60f1ddf2ba77ba7c771c936c","64de810fcbcf155a79f44d14","","","","","4968",""," ","key"," ","16.67099326599318","500","250","pog","240","176","200","1","0","0","0"
"","psychophysics","51","315936","0.0-51.0","60f1ddf2ba77ba7c771c936c","64de810fcbcf155a79f44d14","","","","","5585",""," ","key"," ","16.670991071428684","500","250","pog","210","170","180","1","0","0","0"
"","psychophysics","52","320409","0.0-52.0","60f1ddf2ba77ba7c771c936c","64de810fcbcf155a79f44d14","","","","","4435",""," ","key"," ","16.67064552238809","500","250","pog","225","173","197","1","0","0","0"
"","psychophysics","53","322266","0.0-53.0","60f1ddf2ba77ba7c771c936c","64de810fcbcf155a79f44d14","","","","","1833",""," ","key"," ","16.672254545454845","500","250","pog","205","205","181","1","0","0","0"
"","psychophysics","54","328966","0.0-54.0","60f1ddf2ba77ba7c771c936c","64de810fcbcf155a79f44d14","","","","","6682",""," ","key"," ","16.67109476309226","500","250","pog","158","146","127","1","0","0","0"
"","psychophysics","55","335087","0.0-55.0","60f1ddf2ba77ba7c771c936c","64de810fcbcf155a79f44d14","","","","","6084",""," ","key"," ","16.670382513661323","500","250","pog","176","184","137","1","0","0","0"
"","psychophysics","56","340906","0.0-56.0","60f1ddf2ba77ba7c771c936c","64de810fcbcf155a79f44d14","","","","","5783",""," ","key"," ","16.670839080459743","500","250","pog","179","151","143","1","0","0","0"
"","psychophysics","57","347376","0.0-57.0","60f1ddf2ba77ba7c771c936c","64de810fcbcf155a79f44d14","","","","","6439",""," ","key"," ","16.67092248062015","500","250","pog","177","129","155","1","0","0","0"
"","psychophysics","58","351368","0.0-58.0","60f1ddf2ba77ba7c771c936c","64de810fcbcf155a79f44d14","","","","","3976",""," ","key"," ","16.67161506276152","500","250","pog","171","185","137","1","0","0","0"
"","psychophysics","59","352475","0.0-59.0","60f1ddf2ba77ba7c771c936c","64de810fcbcf155a79f44d14","","","","","1098",""," ","key"," ","16.67407692307696","500","250","inst","","","","","","",""
"","psychophysics","60","354470","0.0-60.0","60f1ddf2ba77ba7c771c936c","64de810fcbcf155a79f44d14","","","","","1955",""," ","key"," ","16.670327731092193","500","250","instBr0","0","0","300","","","0","0"
"","psychophysics","61","360525","0.0-61.0","60f1ddf2ba77ba7c771c936c","64de810fcbcf155a79f44d14","","","","","6032",""," ","key"," ","16.71758171745158","500","250","instBr1","5","-40","300","","","0","0"
"","psychophysics","62","369707","0.0-62.0","60f1ddf2ba77ba7c771c936c","64de810fcbcf155a79f44d14","","","","","9168",""," ","key"," ","16.67105818181817","500","250","instBr3","-9","40","300","1","","0","0"
"","psychophysics","63","370646","0.0-63.0","60f1ddf2ba77ba7c771c936c","64de810fcbcf155a79f44d14","","","","","931",""," ","key"," ","16.67321818181716","500","250","inst","","","","","","",""
"","psychophysics","64","374407","0.0-64.0","60f1ddf2ba77ba7c771c936c","64de810fcbcf155a79f44d14","","","","","3741",""," ","key"," ","16.671324444444487","500","250","br","-16","9","218","1","0","13","-7"
"","psychophysics","65","378236","0.0-65.0","60f1ddf2ba77ba7c771c936c","64de810fcbcf155a79f44d14","","","","","3794",""," ","key"," ","16.6715789473684","500","250","br","-22","-25","290","1","0","5","-12"
"","psychophysics","66","379715","0.0-66.0","60f1ddf2ba77ba7c771c936c","64de810fcbcf155a79f44d14","","","","","1466",""," ","key"," ","16.671034090908837","500","250","br","-21","-21","267","1","0","7","29"
"","psychophysics","67","383285","0.0-67.0","60f1ddf2ba77ba7c771c936c","64de810fcbcf155a79f44d14","","","","","3540",""," ","key"," ","16.670920187793236","500","250","br","-19","-16","244","1","0","16","28"
"","psychophysics","68","386829","0.0-68.0","60f1ddf2ba77ba7c771c936c","64de810fcbcf155a79f44d14","","","","","3497",""," ","key"," ","16.750004739336443","500","250","br","-17","-15","263","1","0","2","12"
"","psychophysics","69","391835","0.0-69.0","60f1ddf2ba77ba7c771c936c","64de810fcbcf155a79f44d14","","","","","4998",""," ","key"," ","16.670829431438058","500","250","br","-18","-25","235","1","0","11","16"
"","psychophysics","70","397732","0.0-70.0","60f1ddf2ba77ba7c771c936c","64de810fcbcf155a79f44d14","","","","","5876",""," ","key"," ","16.67115864022661","500","250","br","-14","16","211","1","0","-12","-13"
"","psychophysics","71","403349","0.0-71.0","60f1ddf2ba77ba7c771c936c","64de810fcbcf155a79f44d14","","","","","5607",""," ","key"," ","16.670660714285727","500","250","br","-29","3","283","1","0","22","-3"
"","psychophysics","72","409255","0.0-72.0","60f1ddf2ba77ba7c771c936c","64de810fcbcf155a79f44d14","","","","","5886",""," ","key"," ","16.671291784702593","500","250","br","-17","26","205","1","0","-10","25"
"","psychophysics","73","413195","0.0-73.0","60f1ddf2ba77ba7c771c936c","64de810fcbcf155a79f44d14","","","","","3892",""," ","key"," ","16.742555555555686","500","250","br","-15","-1","212","1","0","17","16"
"","psychophysics","74","417826","0.0-74.0","60f1ddf2ba77ba7c771c936c","64de810fcbcf155a79f44d14","","","","","4617",""," ","key"," ","16.671263537906146","500","250","br","-24","-3","249","1","0","-8","-26"
"","psychophysics","75","425095","0.0-75.0","60f1ddf2ba77ba7c771c936c","64de810fcbcf155a79f44d14","","","","","7238",""," ","key"," ","16.67102528735634","500","250","br","-25","19","255","1","0","30","21"
"","psychophysics","76","428496","0.0-76.0","60f1ddf2ba77ba7c771c936c","64de810fcbcf155a79f44d14","","","","","3370",""," ","key"," ","16.671433497537123","500","250","br","-25","-23","284","1","0","24","-12"
"","psychophysics","77","432976","0.0-77.0","60f1ddf2ba77ba7c771c936c","64de810fcbcf155a79f44d14","","","","","4446",""," ","key"," ","16.670757462686698","500","250","br","-21","15","260","1","0","-4","11"
"","psychophysics","78","438136","0.0-78.0","60f1ddf2ba77ba7c771c936c","64de810fcbcf155a79f44d14","","","","","5140",""," ","key"," ","16.671211038960873","500","250","br","-18","30","249","1","0","-2","11"
"","psychophysics","79","438958","0.0-79.0","60f1ddf2ba77ba7c771c936c","64de810fcbcf155a79f44d14","","","","","792",""," ","key"," ","16.672918367346902","500","250","inst","","","","","","",""
"","psychophysics","80","441185","0.0-80.0","60f1ddf2ba77ba7c771c936c","64de810fcbcf155a79f44d14","","","","","2218",""," ","key"," ","16.926799999999975","500","250","instZol0","0","0","","","","0","0"
"","psychophysics","81","447665","0.0-81.0","60f1ddf2ba77ba7c771c936c","64de810fcbcf155a79f44d14","","","","","6452",""," ","key"," ","16.670742268041142","500","250","instZol1","0.30000000000000004","-1.3","","","","0","0"
"","psychophysics","82","471924","0.0-82.0","60f1ddf2ba77ba7c771c936c","64de810fcbcf155a79f44d14","","","","","24214",""," ","key"," ","16.69380991735534","500","250","instZol2","-2.1","2","","2","","0","0"
"","psychophysics","83","472834","0.0-83.0","60f1ddf2ba77ba7c771c936c","64de810fcbcf155a79f44d14","","","","","888",""," ","key"," ","16.670518518518225","500","250","inst","","","","","","",""
"","psychophysics","84","480865","0.0-84.0","60f1ddf2ba77ba7c771c936c","64de810fcbcf155a79f44d14","","","","","null","","null","key","null","16.670981249999993","500","250","zol","-0.9799999999999998","-0.02","","2","0","-15","-11"
"","psychophysics","85","484684","0.0-85.0","60f1ddf2ba77ba7c771c936c","64de810fcbcf155a79f44d14","","","","","3792",""," ","key"," ","16.743219298245734","500","250","zol","-0.9299999999999998","-0.67","","2","0","12","27"
"","psychophysics","86","488743","0.0-86.0","60f1ddf2ba77ba7c771c936c","64de810fcbcf155a79f44d14","","","","","4017",""," ","key"," ","16.670698347107233","500","250","zol","-1.5200000000000005","0.52","","2","0","2","-17"
"","psychophysics","87","492638","0.0-87.0","60f1ddf2ba77ba7c771c936c","64de810fcbcf155a79f44d14","","","","","3878",""," ","key"," ","16.67098712446338","500","250","zol","-1.6200000000000006","0.62","","2","0","-30","16"
"","psychophysics","88","495894","0.0-88.0","60f1ddf2ba77ba7c771c936c","64de810fcbcf155a79f44d14","","","","","3216",""," ","key"," ","16.670855670103133","500","250","zol","-1.2400000000000002","-0.06","","2","0","28","16"
"","psychophysics","89","499157","0.0-89.0","60f1ddf2ba77ba7c771c936c","64de810fcbcf155a79f44d14","","","","","3224",""," ","key"," ","16.67186153846172","500","250","zol","-1.3","0.2","","2","0","-2","27"
"","psychophysics","90","503206","0.0-90.0","60f1ddf2ba77ba7c771c936c","64de810fcbcf155a79f44d14","","","","","4005",""," ","key"," ","16.67150826446283","500","250","zol","-1.8100000000000007","-0.09","","2","0","-27","-13"
"","psychophysics","91","506364","0.0-91.0","60f1ddf2ba77ba7c771c936c","64de810fcbcf155a79f44d14","","","","","3120",""," ","key"," ","16.67221808510627","500","250","zol","-0.9799999999999999","-0.52","","2","0","-21","15"
"","psychophysics","92","508957","0.0-92.0","60f1ddf2ba77ba7c771c936c","64de810fcbcf155a79f44d14","","","","","2550",""," ","key"," ","16.671012903225698","500","250","zol","-1.6300000000000006","0.63","","2","0","-4","-18"
"","psychophysics","93","512612","0.0-93.0","60f1ddf2ba77ba7c771c936c","64de810fcbcf155a79f44d14","","","","","3615",""," ","key"," ","16.670954128440282","500","250","zol","-1.4700000000000002","0.17","","2","0","12","21"
"","psychophysics","94","517494","0.0-94.0","60f1ddf2ba77ba7c771c936c","64de810fcbcf155a79f44d14","","","","","4863",""," ","key"," ","16.671571917808176","500","250","zol","-1.7400000000000007","-0.16","","2","0","-18","-1"
"","psychophysics","95","521362","0.0-95.0","60f1ddf2ba77ba7c771c936c","64de810fcbcf155a79f44d14","","","","","3828",""," ","key"," ","16.67105194805185","500","250","zol","-2.1800000000000006","-0.02","","2","0","18","-16"
"","psychophysics","96","524482","0.0-96.0","60f1ddf2ba77ba7c771c936c","64de810fcbcf155a79f44d14","","","","","3083",""," ","key"," ","16.671586021505263","500","250","zol","-2.220000000000001","0.72","","2","0","21","-6"
"","psychophysics","97","527230","0.0-97.0","60f1ddf2ba77ba7c771c936c","64de810fcbcf155a79f44d14","","","","","2709",""," ","key"," ","16.67065644171803","500","250","zol","-1.9800000000000004","0.28","","2","0","15","2"
"","psychophysics","98","529552","0.0-98.0","60f1ddf2ba77ba7c771c936c","64de810fcbcf155a79f44d14","","","","","2288",""," ","key"," ","16.79213043478186","500","250","zol","-2.0700000000000007","0.47","","2","0","-5","-6"
"","psychophysics","99","530452","0.0-99.0","60f1ddf2ba77ba7c771c936c","64de810fcbcf155a79f44d14","","","","","882",""," ","key"," ","16.671264150942115","500","250","inst","","","","","","",""
"","psychophysics","100","532284","0.0-100.0","60f1ddf2ba77ba7c771c936c","64de810fcbcf155a79f44d14","","","","","1821",""," ","key"," ","16.672082568807184","500","250","instEB0","40","40","40","1","","0","0"
"","psychophysics","101","540152","0.0-101.0","60f1ddf2ba77ba7c771c936c","64de810fcbcf155a79f44d14","","","","","7847",""," ","key"," ","16.6706390658175","500","250","instEB1","30","40","30","1","","0","0"
"","psychophysics","102","547298","0.0-102.0","60f1ddf2ba77ba7c771c936c","64de810fcbcf155a79f44d14","","","","","7103",""," ","key"," ","16.7101811764707","500","250","instEB2","37","30","40","1","","0","0"
"","psychophysics","103","553911","0.0-103.0","60f1ddf2ba77ba7c771c936c","64de810fcbcf155a79f44d14","","","","","6573",""," ","key"," ","16.7125656565656","500","250","instEB3","38","27","45","1","","0","0"
"","psychophysics","104","562411","0.0-104.0","60f1ddf2ba77ba7c771c936c","64de810fcbcf155a79f44d14","","","","","8478",""," ","key"," ","16.70423425196837","500","250","instEB4","28","40","30","1","","0","0"
"","psychophysics","105","563334","0.0-105.0","60f1ddf2ba77ba7c771c936c","64de810fcbcf155a79f44d14","","","","","889",""," ","key"," ","16.67183333333297","500","250","inst","","","","","","",""
"","psychophysics","106","566891","0.0-106.0","60f1ddf2ba77ba7c771c936c","64de810fcbcf155a79f44d14","","","","","3508",""," ","key"," ","16.989028708134224","500","250","eb","41","24","51","1","","0","0"
"","psychophysics","107","570581","0.0-107.0","60f1ddf2ba77ba7c771c936c","64de810fcbcf155a79f44d14","","","","","3667",""," ","key"," ","16.671522727272663","500","250","eb","48","44","53","1","","0","0"
"","psychophysics","108","574911","0.0-108.0","60f1ddf2ba77ba7c771c936c","64de810fcbcf155a79f44d14","","","","","4313",""," ","key"," ","16.6712934362934","500","250","eb","43","24","50","1","","0","0"
"","psychophysics","109","577851","0.0-109.0","60f1ddf2ba77ba7c771c936c","64de810fcbcf155a79f44d14","","","","","2926",""," ","key"," ","16.671291428571568","500","250","eb","31","37","36","1","","0","0"
"","psychophysics","110","579441","0.0-110.0","60f1ddf2ba77ba7c771c936c","64de810fcbcf155a79f44d14","","","","","1543",""," ","key"," ","16.849648936169885","500","250","eb","32","30","32","1","","0","0"
"","psychophysics","111","583050","0.0-111.0","60f1ddf2ba77ba7c771c936c","64de810fcbcf155a79f44d14","","","","","3565",""," ","key"," ","16.67180465116317","500","250","eb","44","53","45","1","","0","0"
"","psychophysics","112","586251","0.0-112.0","60f1ddf2ba77ba7c771c936c","64de810fcbcf155a79f44d14","","","","","3185",""," ","key"," ","16.670895287958437","500","250","eb","28","25","27","1","","0","0"
"","psychophysics","113","589921","0.0-113.0","60f1ddf2ba77ba7c771c936c","64de810fcbcf155a79f44d14","","","","","3652",""," ","key"," ","16.671415525114327","500","250","eb","38","29","42","1","","0","0"
"","psychophysics","114","593381","0.0-114.0","60f1ddf2ba77ba7c771c936c","64de810fcbcf155a79f44d14","","","","","3444",""," ","key"," ","16.671318840579655","500","250","eb","27","47","25","1","","0","0"
"","psychophysics","115","594894","0.0-115.0","60f1ddf2ba77ba7c771c936c","64de810fcbcf155a79f44d14","","","","","1472",""," ","key"," ","16.670811111110055","500","250","eb","28","28","29","1","","0","0"
"","psychophysics","116","599821","0.0-116.0","60f1ddf2ba77ba7c771c936c","64de810fcbcf155a79f44d14","","","","","4875",""," ","key"," ","16.67092857142866","500","250","eb","43","24","49","1","","0","0"
"","psychophysics","117","603013","0.0-117.0","60f1ddf2ba77ba7c771c936c","64de810fcbcf155a79f44d14","","","","","3179",""," ","key"," ","16.67222513089015","500","250","eb","43","52","51","1","","0","0"
"","psychophysics","118","606331","0.0-118.0","60f1ddf2ba77ba7c771c936c","64de810fcbcf155a79f44d14","","","","","3271",""," ","key"," ","16.671323232323335","500","250","eb","42","46","43","1","","0","0"
"","psychophysics","119","609832","0.0-119.0","60f1ddf2ba77ba7c771c936c","64de810fcbcf155a79f44d14","","","","","3491",""," ","key"," ","16.75105288461502","500","250","eb","36","31","36","1","","0","0"
"","psychophysics","120","611984","0.0-120.0","60f1ddf2ba77ba7c771c936c","64de810fcbcf155a79f44d14","","","","","2107",""," ","key"," ","16.67138281249936","500","250","eb","36","39","42","1","","0","0"
"","psychophysics","121","612771","0.0-121.0","60f1ddf2ba77ba7c771c936c","64de810fcbcf155a79f44d14","","","","","766",""," ","key"," ","16.67354347826103","500","250","inst","","","","","","",""
"","psychophysics","122","616841","0.0-122.0","60f1ddf2ba77ba7c771c936c","64de810fcbcf155a79f44d14","","","","","4064",""," ","key"," ","16.67088888888918","500","250","instZol1","0.30000000000000004","-1.3","","","","0","0"
"","psychophysics","123","624871","0.0-123.0","60f1ddf2ba77ba7c771c936c","64de810fcbcf155a79f44d14","","","","","7990",""," ","key"," ","16.670692307692313","500","250","instZol2","1.300000000000001","2","","1","","0","0"
"","psychophysics","124","625622","0.0-124.0","60f1ddf2ba77ba7c771c936c","64de810fcbcf155a79f44d14","","","","","744",""," ","key"," ","16.670886363635706","500","250","inst","","","","","","",""
"","psychophysics","125","629480","0.0-125.0","60f1ddf2ba77ba7c771c936c","64de810fcbcf155a79f44d14","","","","","3819",""," ","key"," ","16.671173913043457","500","250","zol","1.9000000000000004","-0.7","","1","1","8","-26"
"","psychophysics","126","633380","0.0-126.0","60f1ddf2ba77ba7c771c936c","64de810fcbcf155a79f44d14","","","","","3853",""," ","key"," ","16.742646551724114","500","250","zol","1.9200000000000008","-0.32","","1","1","-26","12"
"","psychophysics","127","635971","0.0-127.0","60f1ddf2ba77ba7c771c936c","64de810fcbcf155a79f44d14","","","","","2543",""," ","key"," ","16.778493506493735","500","250","zol","1.5200000000000005","-0.12","","1","1","-12","28"
"","psychophysics","128","639451","0.0-128.0","60f1ddf2ba77ba7c771c936c","64de810fcbcf155a79f44d14","","","","","3461",""," ","key"," ","16.67157971014489","500","250","zol","1.4300000000000004","0.07","","1","1","26","-20"
"","psychophysics","129","643093","0.0-129.0","60f1ddf2ba77ba7c771c936c","64de810fcbcf155a79f44d14","","","","","3613",""," ","key"," ","16.671082568807215","500","250","zol","1.0699999999999998","0.53","","1","1","30","19"
"","psychophysics","130","645875","0.0-130.0","60f1ddf2ba77ba7c771c936c","64de810fcbcf155a79f44d14","","","","","2744",""," ","key"," ","16.772000000000027","500","250","zol","1.8100000000000007","-0.01","","1","1","-6","-8"
"","psychophysics","131","648380","0.0-131.0","60f1ddf2ba77ba7c771c936c","64de810fcbcf155a79f44d14","","","","","2466",""," ","key"," ","16.671744966442734","500","250","zol","1.37","0.73","","1","1","14","29"
"","psychophysics","132","651346","0.0-132.0","60f1ddf2ba77ba7c771c936c","64de810fcbcf155a79f44d14","","","","","2920",""," ","key"," ","16.67124858757055","500","250","zol","1.37","0.13","","1","1","19","-13"
"","psychophysics","133","654571","0.0-133.0","60f1ddf2ba77ba7c771c936c","64de810fcbcf155a79f44d14","","","","","3162",""," ","key"," ","16.84769999999982","500","250","zol","1.4900000000000002","0.51","","1","1","-27","11"
"","psychophysics","134","657563","0.0-134.0","60f1ddf2ba77ba7c771c936c","64de810fcbcf155a79f44d14","","","","","2956",""," ","key"," ","16.67146927374285","500","250","zol","1.7900000000000005","-0.49","","1","1","-10","4"
"","psychophysics","135","662314","0.0-135.0","60f1ddf2ba77ba7c771c936c","64de810fcbcf155a79f44d14","","","","","4694",""," ","key"," ","16.73018021201394","500","250","zol","1.4100000000000004","0.69","","1","1","-18","0"
"","psychophysics","136","664963","0.0-136.0","60f1ddf2ba77ba7c771c936c","64de810fcbcf155a79f44d14","","","","","2608",""," ","key"," ","16.670563291138645","500","250","zol","1.5800000000000003","0.62","","1","1","27","-26"
"","psychophysics","137","668320","0.0-137.0","60f1ddf2ba77ba7c771c936c","64de810fcbcf155a79f44d14","","","","","3322",""," ","key"," ","16.67157999999996","500","250","zol","1.3400000000000003","-0.34","","1","1","15","-8"
"","psychophysics","138","671213","0.0-138.0","60f1ddf2ba77ba7c771c936c","64de810fcbcf155a79f44d14","","","","","2858",""," ","key"," ","16.670889534883955","500","250","zol","1.5200000000000005","-0.42","","1","1","30","15"
"","psychophysics","139","675934","0.0-139.0","60f1ddf2ba77ba7c771c936c","64de810fcbcf155a79f44d14","","","","","4702",""," ","key"," ","16.671296819787827","500","250","zol","1.4300000000000004","-0.13","","1","1","-26","-22"
"","psychophysics","140","676719","0.0-140.0","60f1ddf2ba77ba7c771c936c","64de810fcbcf155a79f44d14","","","","","764",""," ","key"," ","16.673130434780866","500","250","inst","","","","","","",""
"","psychophysics","141","682852","0.0-141.0","60f1ddf2ba77ba7c771c936c","64de810fcbcf155a79f44d14","","","","","6119",""," ","key"," ","16.76239452054788","500","250","instBr3","28","40","300","2","","0","0"
"","psychophysics","142","683640","0.0-142.0","60f1ddf2ba77ba7c771c936c","64de810fcbcf155a79f44d14","","","","","779",""," ","key"," ","16.673521739132095","500","250","inst","","","","","","",""
"","psychophysics","143","687640","0.0-143.0","60f1ddf2ba77ba7c771c936c","64de810fcbcf155a79f44d14","","","","","3955",""," ","key"," ","16.740550420168265","500","250","br","32","-14","273","2","1","6","-6"
"","psychophysics","144","691581","0.0-144.0","60f1ddf2ba77ba7c771c936c","64de810fcbcf155a79f44d14","","","","","3922",""," ","key"," ","16.671246808510215","500","250","br","25","-10","205","2","1","-8","-24"
"","psychophysics","145","695059","0.0-145.0","60f1ddf2ba77ba7c771c936c","64de810fcbcf155a79f44d14","","","","","3465",""," ","key"," ","16.671442307692466","500","250","br","19","-19","255","2","1","26","-15"
"","psychophysics","146","700578","0.0-146.0","60f1ddf2ba77ba7c771c936c","64de810fcbcf155a79f44d14","","","","","5490",""," ","key"," ","16.67063333333336","500","250","br","12","-28","209","2","1","-18","-27"
"","psychophysics","147","703279","0.0-147.0","60f1ddf2ba77ba7c771c936c","64de810fcbcf155a79f44d14","","","","","2687",""," ","key"," ","16.671745341614624","500","250","br","16","-6","215","2","1","-8","2"
"","psychophysics","148","707472","0.0-148.0","60f1ddf2ba77ba7c771c936c","64de810fcbcf155a79f44d14","","","","","4179",""," ","key"," ","16.737535999999846","500","250","br","10","-21","257","2","1","-1","18"
"","psychophysics","149","709191","0.0-149.0","60f1ddf2ba77ba7c771c936c","64de810fcbcf155a79f44d14","","","","","1699",""," ","key"," ","16.67064705882313","500","250","br","18","18","265","2","1","1","-3"
"","psychophysics","150","712310","0.0-150.0","60f1ddf2ba77ba7c771c936c","64de810fcbcf155a79f44d14","","","","","3110",""," ","key"," ","16.671188172042466","500","250","br","13","-8","212","2","1","-30","5"
"","psychophysics","151","715220","0.0-151.0","60f1ddf2ba77ba7c771c936c","64de810fcbcf155a79f44d14","","","","","2901",""," ","key"," ","16.67049132947974","500","250","br","15","-6","241","2","1","-25","20"
"","psychophysics","152","718549","0.0-152.0","60f1ddf2ba77ba7c771c936c","64de810fcbcf155a79f44d14","","","","","3315",""," ","key"," ","16.671015075376918","500","250","br","20","24","289","2","1","-23","-26"
"","psychophysics","153","719794","0.0-153.0","60f1ddf2ba77ba7c771c936c","64de810fcbcf155a79f44d14","","","","","1230",""," ","key"," ","16.67290540540597","500","250","br","5","5","300","2","1","4","18"
"","psychophysics","154","722349","0.0-154.0","60f1ddf2ba77ba7c771c936c","64de810fcbcf155a79f44d14","","","","","2547",""," ","key"," ","16.671690789474127","500","250","br","17","6","203","2","1","29","8"
"","psychophysics","155","724030","0.0-155.0","60f1ddf2ba77ba7c771c936c","64de810fcbcf155a79f44d14","","","","","1665",""," ","key"," ","16.671879999999657","500","250","br","17","18","246","2","1","-2","-16"
"","psychophysics","156","729399","0.0-156.0","60f1ddf2ba77ba7c771c936c","64de810fcbcf155a79f44d14","","","","","5353",""," ","key"," ","16.671124610591846","500","250","br","20","30","213","2","1","-16","-26"
"","psychophysics","157","732899","0.0-157.0","60f1ddf2ba77ba7c771c936c","64de810fcbcf155a79f44d14","","","","","3479",""," ","key"," ","16.670966507176843","500","250","br","9","-2","233","2","1","16","-17"
"","psychophysics","158","733731","0.0-158.0","60f1ddf2ba77ba7c771c936c","64de810fcbcf155a79f44d14","","","","","826",""," ","key"," ","16.671244897960438","500","250","inst","","","","","","",""
"","psychophysics","159","738439","0.0-159.0","60f1ddf2ba77ba7c771c936c","64de810fcbcf155a79f44d14","","","","","4699",""," ","key"," ","16.670761565836493","500","250","instPog0","340","370","340","2","","0","0"
"","psychophysics","160","743821","0.0-160.0","60f1ddf2ba77ba7c771c936c","64de810fcbcf155a79f44d14","","","","","5365",""," ","key"," ","16.671046583851084","500","250","instPog1","350","370","340","2","","0","0"
"","psychophysics","161","747301","0.0-161.0","60f1ddf2ba77ba7c771c936c","64de810fcbcf155a79f44d14","","","","","3465",""," ","key"," ","16.671451923076976","500","250","instPog2","334","340","340","2","","0","0"
"","psychophysics","162","748138","0.0-162.0","60f1ddf2ba77ba7c771c936c","64de810fcbcf155a79f44d14","","","","","832",""," ","key"," ","16.66830612244845","500","250","inst","","","","","","",""
"","psychophysics","163","751801","0.0-163.0","60f1ddf2ba77ba7c771c936c","64de810fcbcf155a79f44d14","","","","","3640",""," ","key"," ","16.67215525114124","500","250","pog","319","337","318","2","1","0","0"
"","psychophysics","164","753119","0.0-164.0","60f1ddf2ba77ba7c771c936c","64de810fcbcf155a79f44d14","","","","","1309",""," ","key"," ","16.672564102563626","500","250","pog","322","322","332","2","1","0","0"
"","psychophysics","165","757957","0.0-165.0","60f1ddf2ba77ba7c771c936c","64de810fcbcf155a79f44d14","","","","","4830",""," ","key"," ","16.67099999999998","500","250","pog","315","307","322","2","1","0","0"
"","psychophysics","166","762128","0.0-166.0","60f1ddf2ba77ba7c771c936c","64de810fcbcf155a79f44d14","","","","","4165",""," ","key"," ","16.67146184738963","500","250","pog","303","381","307","2","1","0","0"
"","psychophysics","167","766698","0.0-167.0","60f1ddf2ba77ba7c771c936c","64de810fcbcf155a79f44d14","","","","","4502",""," ","key"," ","16.793800738007363","500","250","pog","331","383","339","2","1","0","0"
"","psychophysics","168","768028","0.0-168.0","60f1ddf2ba77ba7c771c936c","64de810fcbcf155a79f44d14","","","","","1317",""," ","key"," ","16.670493670886593","500","250","pog","342","342","357","2","1","0","0"
"","psychophysics","169","770890","0.0-169.0","60f1ddf2ba77ba7c771c936c","64de810fcbcf155a79f44d14","","","","","2825",""," ","key"," ","16.67154970760212","500","250","pog","317","365","339","2","1","0","0"
"","psychophysics","170","776119","0.0-170.0","60f1ddf2ba77ba7c771c936c","64de810fcbcf155a79f44d14","","","","","5208",""," ","key"," ","16.671009615384556","500","250","pog","296","372","307","2","1","0","0"
"","psychophysics","171","778978","0.0-171.0","60f1ddf2ba77ba7c771c936c","64de810fcbcf155a79f44d14","","","","","2844",""," ","key"," ","16.67161988304065","500","250","pog","340","350","352","2","1","0","0"
"","psychophysics","172","783010","0.0-172.0","60f1ddf2ba77ba7c771c936c","64de810fcbcf155a79f44d14","","","","","4025",""," ","key"," ","16.67173858921148","500","250","pog","295","393","316","2","1","0","0"
"","psychophysics","173","787617","0.0-173.0","60f1ddf2ba77ba7c771c936c","64de810fcbcf155a79f44d14","","","","","4587",""," ","key"," ","16.67061818181791","500","250","pog","300","396","322","2","1","0","0"
"","psychophysics","174","788797","0.0-174.0","60f1ddf2ba77ba7c771c936c","64de810fcbcf155a79f44d14","","","","","1163",""," ","key"," ","16.673614285713327","500","250","pog","353","353","361","2","1","0","0"
"","psychophysics","175","792251","0.0-175.0","60f1ddf2ba77ba7c771c936c","64de810fcbcf155a79f44d14","","","","","3447",""," ","key"," ","16.671975490196","500","250","pog","338","372","354","2","1","0","0"
"","psychophysics","176","796067","0.0-176.0","60f1ddf2ba77ba7c771c936c","64de810fcbcf155a79f44d14","","","","","3795",""," ","key"," ","16.744222707423692","500","250","pog","306","352","325","2","1","0","0"
"","psychophysics","177","799729","0.0-177.0","60f1ddf2ba77ba7c771c936c","64de810fcbcf155a79f44d14","","","","","3647",""," ","key"," ","16.671150684931323","500","250","pog","335","311","342","2","1","0","0"
"","psychophysics","178","800460","0.0-178.0","60f1ddf2ba77ba7c771c936c","64de810fcbcf155a79f44d14","","","","","721",""," ","key"," ","16.67161904761867","500","250","inst","","","","","","",""
"","psychophysics","179","806437","0.0-179.0","60f1ddf2ba77ba7c771c936c","64de810fcbcf155a79f44d14","","","","","5952",""," ","key"," ","16.7173809523809","500","250","instEB1","40","30","40","2","","0","0"
"","psychophysics","180","809467","0.0-180.0","60f1ddf2ba77ba7c771c936c","64de810fcbcf155a79f44d14","","","","","2989",""," ","key"," ","16.76418333333309","500","250","instEB2","35","40","30","2","","0","0"
"","psychophysics","181","816951","0.0-181.0","60f1ddf2ba77ba7c771c936c","64de810fcbcf155a79f44d14","","","","","7466",""," ","key"," ","16.670982142857092","500","250","instEB3","33","45","27","2","","0","0"
"","psychophysics","182","822149","0.0-182.0","60f1ddf2ba77ba7c771c936c","64de810fcbcf155a79f44d14","","","","","5190",""," ","key"," ","16.67070322580628","500","250","instEB4","46","30","40","2","","0","0"
"","psychophysics","183","823338","0.0-183.0","60f1ddf2ba77ba7c771c936c","64de810fcbcf155a79f44d14","","","","","1176",""," ","key"," ","16.668929577465693","500","250","inst","","","","","","",""
"","psychophysics","184","827227","0.0-184.0","60f1ddf2ba77ba7c771c936c","64de810fcbcf155a79f44d14","","","","","3868",""," ","key"," ","16.671215517241166","500","250","eb","50","32","35","2","","0","0"
"","psychophysics","185","829407","0.0-185.0","60f1ddf2ba77ba7c771c936c","64de810fcbcf155a79f44d14","","","","","2136",""," ","key"," ","16.670684615384715","500","250","eb","48","47","38","2","","0","0"
"","psychophysics","186","832027","0.0-186.0","60f1ddf2ba77ba7c771c936c","64de810fcbcf155a79f44d14","","","","","2580",""," ","key"," ","16.67155769230717","500","250","eb","50","30","37","2","","0","0"
"","psychophysics","187","834419","0.0-187.0","60f1ddf2ba77ba7c771c936c","64de810fcbcf155a79f44d14","","","","","2370",""," ","key"," ","16.67164788732443","500","250","eb","59","49","45","2","","0","0"
"","psychophysics","188","836546","0.0-188.0","60f1ddf2ba77ba7c771c936c","64de810fcbcf155a79f44d14","","","","","2109",""," ","key"," ","16.671519685039794","500","250","eb","46","52","33","2","","0","0"
"","psychophysics","189","840858","0.0-189.0","60f1ddf2ba77ba7c771c936c","64de810fcbcf155a79f44d14","","","","","4289",""," ","key"," ","16.670829457364427","500","250","eb","41","25","32","2","","0","0"
"","psychophysics","190","844746","0.0-190.0","60f1ddf2ba77ba7c771c936c","64de810fcbcf155a79f44d14","","","","","3858",""," ","key"," ","16.671318965517425","500","250","eb","63","29","49","2","","0","0"
"","psychophysics","191","850176","0.0-191.0","60f1ddf2ba77ba7c771c936c","64de810fcbcf155a79f44d14","","","","","5385",""," ","key"," ","16.722645061728358","500","250","eb","63","27","52","2","","0","0"
"","psychophysics","192","854436","0.0-192.0","60f1ddf2ba77ba7c771c936c","64de810fcbcf155a79f44d14","","","","","4251",""," ","key"," ","16.73649802371554","500","250","eb","32","40","25","2","","0","0"
"","psychophysics","193","858777","0.0-193.0","60f1ddf2ba77ba7c771c936c","64de810fcbcf155a79f44d14","","","","","4324",""," ","key"," ","16.671280769230975","500","250","eb","37","53","26","2","","0","0"
"","psychophysics","194","861166","0.0-194.0","60f1ddf2ba77ba7c771c936c","64de810fcbcf155a79f44d14","","","","","2372",""," ","key"," ","16.67204929577534","500","250","eb","37","37","29","2","","0","0"
"","psychophysics","195","867406","0.0-195.0","60f1ddf2ba77ba7c771c936c","64de810fcbcf155a79f44d14","","","","","6224",""," ","key"," ","16.851794037940472","500","250","eb","54","24","41","2","","0","0"
"","psychophysics","196","870755","0.0-196.0","60f1ddf2ba77ba7c771c936c","64de810fcbcf155a79f44d14","","","","","3308",""," ","key"," ","16.671080000000075","500","250","eb","57","39","49","2","","0","0"
"","psychophysics","197","872287","0.0-197.0","60f1ddf2ba77ba7c771c936c","64de810fcbcf155a79f44d14","","","","","1489",""," ","key"," ","16.671978021978276","500","250","eb","55","53","45","2","","0","0"
"","psychophysics","198","873627","0.0-198.0","60f1ddf2ba77ba7c771c936c","64de810fcbcf155a79f44d14","","","","","1326",""," ","key"," ","16.672810126582302","500","250","eb","52","50","45","2","","0","0"
"","psychophysics","199","874299","0.0-199.0","60f1ddf2ba77ba7c771c936c","64de810fcbcf155a79f44d14","","","","","659",""," ","key"," ","16.67242499999993","500","250","inst","","","","","","",""
"","psychophysics","200","882800","0.0-200.0","60f1ddf2ba77ba7c771c936c","64de810fcbcf155a79f44d14","","","","","8491",""," ","key"," ","16.67073477406699","500","250","instPz1","41","25","50","2","","",""
"","psychophysics","201","885268","0.0-201.0","60f1ddf2ba77ba7c771c936c","64de810fcbcf155a79f44d14","","","","","2461",""," ","key"," ","16.670346938775296","500","250","instPz2","31","20","35","2","","",""
"","psychophysics","202","895939","0.0-202.0","60f1ddf2ba77ba7c771c936c","64de810fcbcf155a79f44d14","","","","","10633",""," ","key"," ","16.670859154929584","500","250","instPz3","57","30","100","2","","",""
"","psychophysics","203","905275","0.0-203.0","60f1ddf2ba77ba7c771c936c","64de810fcbcf155a79f44d14","","","","","9317",""," ","key"," ","16.6713041144903","500","250","instPz4","62","30","100","2","","",""
"","psychophysics","204","905956","0.0-204.0","60f1ddf2ba77ba7c771c936c","64de810fcbcf155a79f44d14","","","","","647",""," ","key"," ","16.673025000002234","500","250","inst","","","","","","",""
"","psychophysics","205","913110","0.0-205.0","60f1ddf2ba77ba7c771c936c","64de810fcbcf155a79f44d14","","","","","7113",""," ","key"," ","16.670967289719623","500","250","pz","39","27","46","2","1","",""
"","psychophysics","206","918276","0.0-206.0","60f1ddf2ba77ba7c771c936c","64de810fcbcf155a79f44d14","","","","","5149",""," ","key"," ","16.67097411003238","500","250","pz","27","33","25","2","1","",""
"","psychophysics","207","923436","0.0-207.0","60f1ddf2ba77ba7c771c936c","64de810fcbcf155a79f44d14","","","","","5137",""," ","key"," ","16.670811688311645","500","250","pz","21","25","22","2","1","",""
"","psychophysics","208","930885","0.0-208.0","60f1ddf2ba77ba7c771c936c","64de810fcbcf155a79f44d14","","","","","7431",""," ","key"," ","16.670769058295836","500","250","pz","30","39","26","2","1","",""
"","psychophysics","209","937555","0.0-209.0","60f1ddf2ba77ba7c771c936c","64de810fcbcf155a79f44d14","","","","","6651",""," ","key"," ","16.6707819548872","500","250","pz","33","32","38","2","1","",""
"","psychophysics","210","945572","0.0-210.0","60f1ddf2ba77ba7c771c936c","64de810fcbcf155a79f44d14","","","","","null","","null","key","null","16.67068333333324","500","250","pz","18","41","21","2","1","",""
"","psychophysics","211","945965","0.0-211.0","60f1ddf2ba77ba7c771c936c","64de810fcbcf155a79f44d14","","","","","350",""," ","key"," ","17.430909090913534","500","250","pz","20","20","22","2","1","",""
"","psychophysics","212","952986","0.0-212.0","60f1ddf2ba77ba7c771c936c","64de810fcbcf155a79f44d14","","","","","6977",""," ","key"," ","16.67115238095229","500","250","pz","36","28","53","2","1","",""
"","psychophysics","213","958085","0.0-213.0","60f1ddf2ba77ba7c771c936c","64de810fcbcf155a79f44d14","","","","","5056",""," ","key"," ","16.67127540983588","500","250","pz","30","31","33","2","1","",""
"","psychophysics","214","964813","0.0-214.0","60f1ddf2ba77ba7c771c936c","64de810fcbcf155a79f44d14","","","","","6709",""," ","key"," ","16.75452249999973","500","250","pz","26","23","31","2","1","",""
"","psychophysics","215","970064","0.0-215.0","60f1ddf2ba77ba7c771c936c","64de810fcbcf155a79f44d14","","","","","5236",""," ","key"," ","16.6707834394906","500","250","pz","18","32","20","2","1","",""
"","psychophysics","216","978087","0.0-216.0","60f1ddf2ba77ba7c771c936c","64de810fcbcf155a79f44d14","","","","","null","","null","key","null","16.67067916666662","500","250","pz","29","58","37","2","1","",""
"","psychophysics","217","978654","0.0-217.0","60f1ddf2ba77ba7c771c936c","64de810fcbcf155a79f44d14","","","","","540",""," ","key"," ","16.666588235293816","500","250","pz","45","45","27","2","1","",""
"","psychophysics","218","982925","0.0-218.0","60f1ddf2ba77ba7c771c936c","64de810fcbcf155a79f44d14","","","","","4266",""," ","key"," ","16.671862745097858","500","250","pz","35","24","50","2","1","",""
"","psychophysics","219","986664","0.0-219.0","60f1ddf2ba77ba7c771c936c","64de810fcbcf155a79f44d14","","","","","3719",""," ","key"," ","16.671000000000138","500","250","pz","27","42","27","2","1","",""
