"success","trial_type","trial_index","time_elapsed","internal_node_id","pid","sid","timeout","failed_images","failed_audio","failed_video","rt","stimulus","response","response_type","key_press","avg_frame_time","center_x","center_y","task","resp","start","parA","version","block","jitterX","jitterY"
"true","fullscreen","0","3364","0.0-0.0","5e482100418f612c4d9775b3","64de8072be024a9829c9f1f2","","","","","","","","","","","","","","","","","","","",""
"true","preload","1","3432","0.0-1.0","5e482100418f612c4d9775b3","64de8072be024a9829c9f1f2","false","[]","[]","[]","","","","","","","","","","","","","","","",""
"","html-button-response","2","6063","0.0-2.0","5e482100418f612c4d9775b3","64de8072be024a9829c9f1f2","","","","","2630","Please Make Sure Your Audio Is On.","0","","","","","","","","","","","","",""
"","psychophysics","3","11336","0.0-3.0","5e482100418f612c4d9775b3","64de8072be024a9829c9f1f2","","","","","5262",""," ","key"," ","16.669","720","250","","","","","","","",""
"","psychophysics","4","17183","0.0-4.0","5e482100418f612c4d9775b3","64de8072be024a9829c9f1f2","","","","","5845",""," ","key"," ","16.669637142857137","500","250","inst","","","","","","",""
"","psychophysics","5","21963","0.0-5.0","5e482100418f612c4d9775b3","64de8072be024a9829c9f1f2","","","","","4773",""," ","key"," ","16.668999999999997","500","250","sample0","","","","","","",""
"","psychophysics","6","24720","0.0-6.0","5e482100418f612c4d9775b3","64de8072be024a9829c9f1f2","","","","","2755",""," ","key"," ","16.669","500","250","sample1","","","","","","",""
"","psychophysics","7","38497","0.0-7.0","5e482100418f612c4d9775b3","64de8072be024a9829c9f1f2","","","","","13777",""," ","key"," ","16.66953939393939","500","250","sample2","100","","","","","",""
"","psychophysics","8","43737","0.0-8.0","5e482100418f612c4d9775b3","64de8072be024a9829c9f1f2","","","","","5232",""," ","key"," ","16.668999999999997","500","250","sample3","102","","","","","",""
"","psychophysics","9","53710","0.0-9.0","5e482100418f612c4d9775b3","64de8072be024a9829c9f1f2","","","","","9972",""," ","key"," ","16.669373534338362","500","250","sample4","100","","","","","",""
"","psychophysics","10","57709","0.0-10.0","5e482100418f612c4d9775b3","64de8072be024a9829c9f1f2","","","","","3997",""," ","key"," ","16.66993305439331","500","250","sample5","","","","","","",""
"","psychophysics","11","67692","0.0-11.0","5e482100418f612c4d9775b3","64de8072be024a9829c9f1f2","","","","","9982",""," ","key"," ","16.66937290969899","500","250","sample6","504","","","","","",""
"","psychophysics","12","73305","0.0-12.0","5e482100418f612c4d9775b3","64de8072be024a9829c9f1f2","","","","","5612",""," ","key"," ","16.669","500","250","inst","","","","","","",""
"","psychophysics","13","77135","0.0-13.0","5e482100418f612c4d9775b3","64de8072be024a9829c9f1f2","","","","","3829",""," ","key"," ","16.66996943231439","500","250","inst","","","","","","",""
"","psychophysics","14","80740","0.0-14.0","5e482100418f612c4d9775b3","64de8072be024a9829c9f1f2","","","","","3603",""," ","key"," ","16.66899999999996","500","250","inst","","","","","","",""
"","psychophysics","15","82423","0.0-15.0","5e482100418f612c4d9775b3","64de8072be024a9829c9f1f2","","","","","1683",""," ","key"," ","16.66899999999994","500","250","inst","","","","","","",""
"","psychophysics","16","84087","0.0-16.0","5e482100418f612c4d9775b3","64de8072be024a9829c9f1f2","","","","","1662",""," ","key"," ","16.668999999999997","500","250","inst","","","","","","",""
"","psychophysics","17","88563","0.0-17.0","5e482100418f612c4d9775b3","64de8072be024a9829c9f1f2","","","","","4469",""," ","key"," ","16.669835205992527","500","250","instPzPre","50","50","50","0","","",""
"","psychophysics","18","100483","0.0-18.0","5e482100418f612c4d9775b3","64de8072be024a9829c9f1f2","","","","","11919",""," ","key"," ","16.669312324929965","500","250","instPz0","55","50","50","2","","",""
"","psychophysics","19","113206","0.0-19.0","5e482100418f612c4d9775b3","64de8072be024a9829c9f1f2","","","","","12721",""," ","key"," ","16.66929226736566","500","250","instPz1","53","25","50","2","","",""
"","psychophysics","20","119994","0.0-20.0","5e482100418f612c4d9775b3","64de8072be024a9829c9f1f2","","","","","6786",""," ","key"," ","16.669546798029547","500","250","instPz2","37","20","35","2","","",""
"","psychophysics","21","136137","0.0-21.0","5e482100418f612c4d9775b3","64de8072be024a9829c9f1f2","","","","","16137",""," ","key"," ","16.66923061013443","500","250","instPz3","31","30","100","2","","",""
"","psychophysics","22","148616","0.0-22.0","5e482100418f612c4d9775b3","64de8072be024a9829c9f1f2","","","","","12478",""," ","key"," ","16.669596256684503","500","250","instPz4","89","30","100","2","","",""
"","psychophysics","23","151631","0.0-23.0","5e482100418f612c4d9775b3","64de8072be024a9829c9f1f2","","","","","3014",""," ","key"," ","16.66900000000007","500","250","inst","","","","","","",""
"","psychophysics","24","155796","0.0-24.0","5e482100418f612c4d9775b3","64de8072be024a9829c9f1f2","","","","","4162",""," ","key"," ","16.669000000000022","500","250","pz","38","36","39","2","0","",""
"","psychophysics","25","161255","0.0-25.0","5e482100418f612c4d9775b3","64de8072be024a9829c9f1f2","","","","","5458",""," ","key"," ","16.669680981595068","500","250","pz","19","33","21","2","0","",""
"","psychophysics","26","165298","0.0-26.0","5e482100418f612c4d9775b3","64de8072be024a9829c9f1f2","","","","","4042",""," ","key"," ","16.668999999999944","500","250","pz","46","38","53","2","0","",""
"","psychophysics","27","169406","0.0-27.0","5e482100418f612c4d9775b3","64de8072be024a9829c9f1f2","","","","","4106",""," ","key"," ","16.66991020408162","500","250","pz","45","49","47","2","0","",""
"","psychophysics","28","173116","0.0-28.0","5e482100418f612c4d9775b3","64de8072be024a9829c9f1f2","","","","","3708",""," ","key"," ","16.66900000000005","500","250","pz","55","46","57","2","0","",""
"","psychophysics","29","177067","0.0-29.0","5e482100418f612c4d9775b3","64de8072be024a9829c9f1f2","","","","","3949",""," ","key"," ","16.669944915254316","500","250","pz","33","41","33","2","0","",""
"","psychophysics","30","179239","0.0-30.0","5e482100418f612c4d9775b3","64de8072be024a9829c9f1f2","","","","","2166",""," ","key"," ","16.669000000000054","500","250","pz","40","40","43","2","0","",""
"","psychophysics","31","181433","0.0-31.0","5e482100418f612c4d9775b3","64de8072be024a9829c9f1f2","","","","","2193",""," ","key"," ","16.668999999999965","500","250","pz","37","39","42","2","0","",""
"","psychophysics","32","188072","0.0-32.0","5e482100418f612c4d9775b3","64de8072be024a9829c9f1f2","","","","","6638",""," ","key"," ","16.669561712846328","500","250","pz","18","44","21","2","0","",""
"","psychophysics","33","193070","0.0-33.0","5e482100418f612c4d9775b3","64de8072be024a9829c9f1f2","","","","","4997",""," ","key"," ","16.66899999999996","500","250","pz","49","26","55","2","0","",""
"","psychophysics","34","200418","0.0-34.0","5e482100418f612c4d9775b3","64de8072be024a9829c9f1f2","","","","","7347",""," ","key"," ","16.669504545454533","500","250","pz","20","58","21","2","0","",""
"","psychophysics","35","206389","0.0-35.0","5e482100418f612c4d9775b3","64de8072be024a9829c9f1f2","","","","","5970",""," ","key"," ","16.668999999999954","500","250","pz","17","53","20","2","0","",""
"","psychophysics","36","209390","0.0-36.0","5e482100418f612c4d9775b3","64de8072be024a9829c9f1f2","","","","","2995",""," ","key"," ","16.67024581005596","500","250","pz","27","36","30","2","0","",""
"","psychophysics","37","214934","0.0-37.0","5e482100418f612c4d9775b3","64de8072be024a9829c9f1f2","","","","","5542",""," ","key"," ","16.669000000000022","500","250","pz","22","59","25","2","0","",""
"","psychophysics","38","219756","0.0-38.0","5e482100418f612c4d9775b3","64de8072be024a9829c9f1f2","","","","","4821",""," ","key"," ","16.66977430555552","500","250","pz","41","22","48","2","0","",""
"","psychophysics","39","221644","0.0-39.0","5e482100418f612c4d9775b3","64de8072be024a9829c9f1f2","","","","","1887",""," ","key"," ","16.66900000000013","500","250","inst","","","","","","",""
"","psychophysics","40","224276","0.0-40.0","5e482100418f612c4d9775b3","64de8072be024a9829c9f1f2","","","","","2630",""," ","key"," ","16.668999999999972","500","250","instEB0","40","40","40","2","","0","0"
"","psychophysics","41","232040","0.0-41.0","5e482100418f612c4d9775b3","64de8072be024a9829c9f1f2","","","","","7762",""," ","key"," ","16.777722943722985","500","250","instEB1","40","30","40","2","","0","0"
"","psychophysics","42","236909","0.0-42.0","5e482100418f612c4d9775b3","64de8072be024a9829c9f1f2","","","","","4867",""," ","key"," ","16.669762886597983","500","250","instEB2","35","40","30","2","","0","0"
"","psychophysics","43","244811","0.0-43.0","5e482100418f612c4d9775b3","64de8072be024a9829c9f1f2","","","","","7901",""," ","key"," ","16.66900000000001","500","250","instEB3","32","45","27","2","","0","0"
"","psychophysics","44","252894","0.0-44.0","5e482100418f612c4d9775b3","64de8072be024a9829c9f1f2","","","","","8081",""," ","key"," ","16.669460743801654","500","250","instEB4","47","30","40","2","","0","0"
"","psychophysics","45","255093","0.0-45.0","5e482100418f612c4d9775b3","64de8072be024a9829c9f1f2","","","","","2198",""," ","key"," ","16.668999999999965","500","250","inst","","","","","","",""
"","psychophysics","46","259763","0.0-46.0","5e482100418f612c4d9775b3","64de8072be024a9829c9f1f2","","","","","4669",""," ","key"," ","16.66979928315416","500","250","eb","36","25","28","2","","0","0"
"","psychophysics","47","265146","0.0-47.0","5e482100418f612c4d9775b3","64de8072be024a9829c9f1f2","","","","","5382",""," ","key"," ","16.669000000000015","500","250","eb","60","49","51","2","","0","0"
"","psychophysics","48","272129","0.0-48.0","5e482100418f612c4d9775b3","64de8072be024a9829c9f1f2","","","","","6981",""," ","key"," ","16.669533492822943","500","250","eb","27","48","24","2","","0","0"
"","psychophysics","49","277644","0.0-49.0","5e482100418f612c4d9775b3","64de8072be024a9829c9f1f2","","","","","5513",""," ","key"," ","16.66967272727281","500","250","eb","41","53","34","2","","0","0"
"","psychophysics","50","285653","0.0-50.0","5e482100418f612c4d9775b3","64de8072be024a9829c9f1f2","","","","","null","","null","key","null","16.669","500","250","eb","54","25","44","2","","0","0"
"","psychophysics","51","286028","0.0-51.0","5e482100418f612c4d9775b3","64de8072be024a9829c9f1f2","","","","","374",""," ","key"," ","16.668999999999702","500","250","eb","52","52","48","2","","0","0"
"","psychophysics","52","289960","0.0-52.0","5e482100418f612c4d9775b3","64de8072be024a9829c9f1f2","","","","","3931",""," ","key"," ","16.669948936170314","500","250","eb","62","50","52","2","","0","0"
"","psychophysics","53","295629","0.0-53.0","5e482100418f612c4d9775b3","64de8072be024a9829c9f1f2","","","","","5667",""," ","key"," ","16.668999999999908","500","250","eb","31","45","26","2","","0","0"
"","psychophysics","54","299442","0.0-54.0","5e482100418f612c4d9775b3","64de8072be024a9829c9f1f2","","","","","3811",""," ","key"," ","16.669982378854414","500","250","eb","48","30","40","2","","0","0"
"","psychophysics","55","303049","0.0-55.0","5e482100418f612c4d9775b3","64de8072be024a9829c9f1f2","","","","","3602",""," ","key"," ","16.66900000000007","500","250","eb","38","25","31","2","","0","0"
"","psychophysics","56","306935","0.0-56.0","5e482100418f612c4d9775b3","64de8072be024a9829c9f1f2","","","","","3885",""," ","key"," ","16.66900000000018","500","250","eb","36","49","30","2","","0","0"
"","psychophysics","57","310233","0.0-57.0","5e482100418f612c4d9775b3","64de8072be024a9829c9f1f2","","","","","3296",""," ","key"," ","16.670126903553076","500","250","eb","28","37","24","2","","0","0"
"","psychophysics","58","315119","0.0-58.0","5e482100418f612c4d9775b3","64de8072be024a9829c9f1f2","","","","","4884",""," ","key"," ","16.668999999999993","500","250","eb","60","28","54","2","","0","0"
"","psychophysics","59","319800","0.0-59.0","5e482100418f612c4d9775b3","64de8072be024a9829c9f1f2","","","","","4680",""," ","key"," ","16.66979642857145","500","250","eb","54","50","48","2","","0","0"
"","psychophysics","60","323438","0.0-60.0","5e482100418f612c4d9775b3","64de8072be024a9829c9f1f2","","","","","3636",""," ","key"," ","16.669000000000047","500","250","eb","44","40","35","2","","0","0"
"","psychophysics","61","324519","0.0-61.0","5e482100418f612c4d9775b3","64de8072be024a9829c9f1f2","","","","","1080",""," ","key"," ","16.66899999999987","500","250","inst","","","","","","",""
"","psychophysics","62","327406","0.0-62.0","5e482100418f612c4d9775b3","64de8072be024a9829c9f1f2","","","","","2886",""," ","key"," ","16.670296511627722","500","250","instZol0","0","0","","","","0","0"
"","psychophysics","63","336698","0.0-63.0","5e482100418f612c4d9775b3","64de8072be024a9829c9f1f2","","","","","9291",""," ","key"," ","16.669000000000054","500","250","instZol1","0.09999999999999981","-1.3","","","","0","0"
"","psychophysics","64","344574","0.0-64.0","5e482100418f612c4d9775b3","64de8072be024a9829c9f1f2","","","","","7870",""," ","key"," ","16.66947346072184","500","250","instZol2","-1.4999999999999996","2","","2","","0","0"
"","psychophysics","65","345737","0.0-65.0","5e482100418f612c4d9775b3","64de8072be024a9829c9f1f2","","","","","1162",""," ","key"," ","16.669000000000317","500","250","inst","","","","","","",""
"","psychophysics","66","351785","0.0-66.0","5e482100418f612c4d9775b3","64de8072be024a9829c9f1f2","","","","","6046",""," ","key"," ","16.669613259668573","500","250","zol","-1.15","-0.55","","2","0","-17","9"
"","psychophysics","67","355463","0.0-67.0","5e482100418f612c4d9775b3","64de8072be024a9829c9f1f2","","","","","3676",""," ","key"," ","16.668999999999993","500","250","zol","-1.0999999999999999","0.4","","2","0","5","-5"
"","psychophysics","68","359336","0.0-68.0","5e482100418f612c4d9775b3","64de8072be024a9829c9f1f2","","","","","3870",""," ","key"," ","16.669961206896474","500","250","zol","-1.0699999999999998","0.47","","2","0","-13","-22"
"","psychophysics","69","364769","0.0-69.0","5e482100418f612c4d9775b3","64de8072be024a9829c9f1f2","","","","","5431",""," ","key"," ","16.669000000000143","500","250","zol","-1.37","-0.03","","2","0","-17","-4"
"","psychophysics","70","371812","0.0-70.0","5e482100418f612c4d9775b3","64de8072be024a9829c9f1f2","","","","","7041",""," ","key"," ","16.669529691211338","500","250","zol","-1.3100000000000003","-0.29","","2","0","-30","-2"
"","psychophysics","71","376644","0.0-71.0","5e482100418f612c4d9775b3","64de8072be024a9829c9f1f2","","","","","4829",""," ","key"," ","16.66900000000005","500","250","zol","-1.5100000000000005","0.41","","2","0","23","-17"
"","psychophysics","72","380704","0.0-72.0","5e482100418f612c4d9775b3","64de8072be024a9829c9f1f2","","","","","4057",""," ","key"," ","16.669917695473163","500","250","zol","-1.28","0.28","","2","0","16","-19"
"","psychophysics","73","385901","0.0-73.0","5e482100418f612c4d9775b3","64de8072be024a9829c9f1f2","","","","","5195",""," ","key"," ","16.669000000000025","500","250","zol","-1.5200000000000005","0.52","","2","0","28","-17"
"","psychophysics","74","391086","0.0-74.0","5e482100418f612c4d9775b3","64de8072be024a9829c9f1f2","","","","","5181",""," ","key"," ","16.66971612903233","500","250","zol","-1.27","-0.13","","2","0","15","-26"
"","psychophysics","75","396085","0.0-75.0","5e482100418f612c4d9775b3","64de8072be024a9829c9f1f2","","","","","4996",""," ","key"," ","16.669000000000057","500","250","zol","-0.8399999999999999","-0.66","","2","0","-17","0"
"","psychophysics","76","400131","0.0-76.0","5e482100418f612c4d9775b3","64de8072be024a9829c9f1f2","","","","","4044",""," ","key"," ","16.66992531120328","500","250","zol","-1.0699999999999998","-0.33","","2","0","30","-8"
"","psychophysics","77","406236","0.0-77.0","5e482100418f612c4d9775b3","64de8072be024a9829c9f1f2","","","","","6102",""," ","key"," ","16.66899999999998","500","250","zol","-0.9599999999999999","-0.64","","2","0","-7","-16"
"","psychophysics","78","411493","0.0-78.0","5e482100418f612c4d9775b3","64de8072be024a9829c9f1f2","","","","","5254",""," ","key"," ","16.669710191082956","500","250","zol","-0.73","-0.47","","2","0","-10","-6"
"","psychophysics","79","417627","0.0-79.0","5e482100418f612c4d9775b3","64de8072be024a9829c9f1f2","","","","","6132",""," ","key"," ","16.66960762942775","500","250","zol","-0.8699999999999998","-0.33","","2","0","-22","2"
"","psychophysics","80","421849","0.0-80.0","5e482100418f612c4d9775b3","64de8072be024a9829c9f1f2","","","","","4219",""," ","key"," ","16.668999999999954","500","250","zol","-1.5600000000000003","-0.34","","2","0","27","28"
"","psychophysics","81","422904","0.0-81.0","5e482100418f612c4d9775b3","64de8072be024a9829c9f1f2","","","","","1054",""," ","key"," ","16.668999999999954","500","250","inst","","","","","","",""
"","psychophysics","82","424356","0.0-82.0","5e482100418f612c4d9775b3","64de8072be024a9829c9f1f2","","","","","1450",""," ","key"," ","16.669000000000576","500","250","instBr0","0","0","300","","","0","0"
"","psychophysics","83","434308","0.0-83.0","5e482100418f612c4d9775b3","64de8072be024a9829c9f1f2","","","","","9949",""," ","key"," ","16.66937185929647","500","250","instBr1","-6","-40","300","","","0","0"
"","psychophysics","84","440536","0.0-84.0","5e482100418f612c4d9775b3","64de8072be024a9829c9f1f2","","","","","6227",""," ","key"," ","16.669599462365632","500","250","instBr3","17","40","300","2","","0","0"
"","psychophysics","85","441416","0.0-85.0","5e482100418f612c4d9775b3","64de8072be024a9829c9f1f2","","","","","878",""," ","key"," ","16.669000000000008","500","250","inst","","","","","","",""
"","psychophysics","86","446059","0.0-86.0","5e482100418f612c4d9775b3","64de8072be024a9829c9f1f2","","","","","4641",""," ","key"," ","16.669000000000064","500","250","br","12","-6","250","2","0","-21","-6"
"","psychophysics","87","449946","0.0-87.0","5e482100418f612c4d9775b3","64de8072be024a9829c9f1f2","","","","","3884",""," ","key"," ","16.669961206896474","500","250","br","12","-5","229","2","0","-2","-15"
"","psychophysics","88","455827","0.0-88.0","5e482100418f612c4d9775b3","64de8072be024a9829c9f1f2","","","","","5880",""," ","key"," ","16.669000000000036","500","250","br","13","1","239","2","0","3","-22"
"","psychophysics","89","462504","0.0-89.0","5e482100418f612c4d9775b3","64de8072be024a9829c9f1f2","","","","","6675",""," ","key"," ","16.669558897243057","500","250","br","11","28","249","2","0","22","-6"
"","psychophysics","90","468850","0.0-90.0","5e482100418f612c4d9775b3","64de8072be024a9829c9f1f2","","","","","6345",""," ","key"," ","16.66958421052642","500","250","br","10","-25","200","2","0","25","28"
"","psychophysics","91","475071","0.0-91.0","5e482100418f612c4d9775b3","64de8072be024a9829c9f1f2","","","","","6220",""," ","key"," ","16.669000000000047","500","250","br","15","-6","282","2","0","29","14"
"","psychophysics","92","480806","0.0-92.0","5e482100418f612c4d9775b3","64de8072be024a9829c9f1f2","","","","","5733",""," ","key"," ","16.6696501457726","500","250","br","9","15","266","2","0","6","30"
"","psychophysics","93","483736","0.0-93.0","5e482100418f612c4d9775b3","64de8072be024a9829c9f1f2","","","","","2929",""," ","key"," ","16.669000000000068","500","250","br","8","-3","244","2","0","11","23"
"","psychophysics","94","485313","0.0-94.0","5e482100418f612c4d9775b3","64de8072be024a9829c9f1f2","","","","","1575",""," ","key"," ","16.668999999999986","500","250","br","15","15","292","2","0","5","-20"
"","psychophysics","95","489450","0.0-95.0","5e482100418f612c4d9775b3","64de8072be024a9829c9f1f2","","","","","4135",""," ","key"," ","16.66990283400792","500","250","br","14","16","254","2","0","9","-12"
"","psychophysics","96","491941","0.0-96.0","5e482100418f612c4d9775b3","64de8072be024a9829c9f1f2","","","","","2490",""," ","key"," ","16.66899999999992","500","250","br","4","-5","258","2","0","-6","0"
"","psychophysics","97","495109","0.0-97.0","5e482100418f612c4d9775b3","64de8072be024a9829c9f1f2","","","","","3167",""," ","key"," ","16.668999999999954","500","250","br","13","24","213","2","0","-12","-5"
"","psychophysics","98","497104","0.0-98.0","5e482100418f612c4d9775b3","64de8072be024a9829c9f1f2","","","","","1992",""," ","key"," ","16.66900000000028","500","250","br","11","10","213","2","0","-4","-5"
"","psychophysics","99","499173","0.0-99.0","5e482100418f612c4d9775b3","64de8072be024a9829c9f1f2","","","","","2063",""," ","key"," ","16.670813008129684","500","250","br","17","19","297","2","0","-29","23"
"","psychophysics","100","503205","0.0-100.0","5e482100418f612c4d9775b3","64de8072be024a9829c9f1f2","","","","","4031",""," ","key"," ","16.66899999999997","500","250","br","6","-12","210","2","0","19","-9"
"","psychophysics","101","504270","0.0-101.0","5e482100418f612c4d9775b3","64de8072be024a9829c9f1f2","","","","","1064",""," ","key"," ","16.668999999999954","500","250","inst","","","","","","",""
"","psychophysics","102","511309","0.0-102.0","5e482100418f612c4d9775b3","64de8072be024a9829c9f1f2","","","","","7038",""," ","key"," ","16.669527315914454","500","250","instPog0","160","190","160","1","","0","0"
"","psychophysics","103","516199","0.0-103.0","5e482100418f612c4d9775b3","64de8072be024a9829c9f1f2","","","","","4888",""," ","key"," ","16.668999999999976","500","250","instPog1","168","190","160","1","","0","0"
"","psychophysics","104","521422","0.0-104.0","5e482100418f612c4d9775b3","64de8072be024a9829c9f1f2","","","","","5222",""," ","key"," ","16.669714743589747","500","250","instPog2","182","160","160","1","","0","0"
"","psychophysics","105","522029","0.0-105.0","5e482100418f612c4d9775b3","64de8072be024a9829c9f1f2","","","","","606",""," ","key"," ","16.668999999997737","500","250","inst","","","","","","",""
"","psychophysics","106","526341","0.0-106.0","5e482100418f612c4d9775b3","64de8072be024a9829c9f1f2","","","","","4309",""," ","key"," ","16.668999999999826","500","250","pog","171","149","157","1","0","0","0"
"","psychophysics","107","532607","0.0-107.0","5e482100418f612c4d9775b3","64de8072be024a9829c9f1f2","","","","","6262",""," ","key"," ","16.66959466666666","500","250","pog","142","194","135","1","0","0","0"
"","psychophysics","108","533643","0.0-108.0","5e482100418f612c4d9775b3","64de8072be024a9829c9f1f2","","","","","1035",""," ","key"," ","16.66900000000014","500","250","pog","201","201","193","1","0","0","0"
"","psychophysics","109","541647","0.0-109.0","5e482100418f612c4d9775b3","64de8072be024a9829c9f1f2","","","","","null","","null","key","null","16.669463465553136","500","250","pog","209","133","200","1","0","0","0"
"","psychophysics","110","541746","0.0-110.0","5e482100418f612c4d9775b3","64de8072be024a9829c9f1f2","","","","","98",""," ","key"," ","16.669000000017697","500","250","pog","202","202","200","1","0","0","0"
"","psychophysics","111","546284","0.0-111.0","5e482100418f612c4d9775b3","64de8072be024a9829c9f1f2","","","","","4537",""," ","key"," ","16.668999999999976","500","250","pog","185","151","163","1","0","0","0"
"","psychophysics","112","549379","0.0-112.0","5e482100418f612c4d9775b3","64de8072be024a9829c9f1f2","","","","","3093",""," ","key"," ","16.670211956521836","500","250","pog","183","191","160","1","0","0","0"
"","psychophysics","113","554636","0.0-113.0","5e482100418f612c4d9775b3","64de8072be024a9829c9f1f2","","","","","5255",""," ","key"," ","16.668999999999954","500","250","pog","200","136","185","1","0","0","0"
"","psychophysics","114","559176","0.0-114.0","5e482100418f612c4d9775b3","64de8072be024a9829c9f1f2","","","","","4538",""," ","key"," ","16.66982287822877","500","250","pog","197","153","180","1","0","0","0"
"","psychophysics","115","563460","0.0-115.0","5e482100418f612c4d9775b3","64de8072be024a9829c9f1f2","","","","","4283",""," ","key"," ","16.66899999999987","500","250","pog","186","142","166","1","0","0","0"
"","psychophysics","116","568211","0.0-116.0","5e482100418f612c4d9775b3","64de8072be024a9829c9f1f2","","","","","4745",""," ","key"," ","16.66978521126775","500","250","pog","161","101","162","1","0","0","0"
"","psychophysics","117","573865","0.0-117.0","5e482100418f612c4d9775b3","64de8072be024a9829c9f1f2","","","","","5653",""," ","key"," ","16.668999999999922","500","250","pog","130","176","128","1","0","0","0"
"","psychophysics","118","578002","0.0-118.0","5e482100418f612c4d9775b3","64de8072be024a9829c9f1f2","","","","","4135",""," ","key"," ","16.669898785425442","500","250","pog","157","179","142","1","0","0","0"
"","psychophysics","119","582595","0.0-119.0","5e482100418f612c4d9775b3","64de8072be024a9829c9f1f2","","","","","4591",""," ","key"," ","16.668999999999915","500","250","pog","162","212","147","1","0","0","0"
"","psychophysics","120","585265","0.0-120.0","5e482100418f612c4d9775b3","64de8072be024a9829c9f1f2","","","","","2668",""," ","key"," ","16.66900000000027","500","250","pog","162","188","148","1","0","0","0"
"","psychophysics","121","586601","0.0-121.0","5e482100418f612c4d9775b3","64de8072be024a9829c9f1f2","","","","","1332",""," ","key"," ","16.66899999999883","500","250","inst","","","","","","",""
"","psychophysics","122","590291","0.0-122.0","5e482100418f612c4d9775b3","64de8072be024a9829c9f1f2","","","","","3689",""," ","key"," ","16.670009049773952","500","250","instZol1","0.20000000000000004","-1.3","","","","0","0"
"","psychophysics","123","595707","0.0-123.0","5e482100418f612c4d9775b3","64de8072be024a9829c9f1f2","","","","","5413",""," ","key"," ","16.669000000000178","500","250","instZol2","0.4000000000000007","2","","1","","0","0"
"","psychophysics","124","596626","0.0-124.0","5e482100418f612c4d9775b3","64de8072be024a9829c9f1f2","","","","","916",""," ","key"," ","16.668999999998647","500","250","inst","","","","","","",""
"","psychophysics","125","601212","0.0-125.0","5e482100418f612c4d9775b3","64de8072be024a9829c9f1f2","","","","","4583",""," ","key"," ","16.66981386861307","500","250","zol","0.6399999999999999","-0.44","","1","1","11","12"
"","psychophysics","126","605697","0.0-126.0","5e482100418f612c4d9775b3","64de8072be024a9829c9f1f2","","","","","4483",""," ","key"," ","16.668999999999624","500","250","zol","0.7999999999999999","0.6","","1","1","-2","-15"
"","psychophysics","127","611315","0.0-127.0","5e482100418f612c4d9775b3","64de8072be024a9829c9f1f2","","","","","5617",""," ","key"," ","16.669663690476487","500","250","zol","0.6699999999999999","0.23","","1","1","-15","23"
"","psychophysics","128","614769","0.0-128.0","5e482100418f612c4d9775b3","64de8072be024a9829c9f1f2","","","","","3451",""," ","key"," ","16.669000000000064","500","250","zol","0.91","-0.21","","1","1","2","-26"
"","psychophysics","129","619751","0.0-129.0","5e482100418f612c4d9775b3","64de8072be024a9829c9f1f2","","","","","4981",""," ","key"," ","16.669744966442668","500","250","zol","0.57","0.73","","1","1","-24","-9"
"","psychophysics","130","623617","0.0-130.0","5e482100418f612c4d9775b3","64de8072be024a9829c9f1f2","","","","","3863",""," ","key"," ","16.668999999999954","500","250","zol","0.8899999999999999","-0.49","","1","1","-24","-20"
"","psychophysics","131","628145","0.0-131.0","5e482100418f612c4d9775b3","64de8072be024a9829c9f1f2","","","","","4526",""," ","key"," ","16.669825925925938","500","250","zol","1.2300000000000002","0.37","","1","1","-28","-1"
"","psychophysics","132","632649","0.0-132.0","5e482100418f612c4d9775b3","64de8072be024a9829c9f1f2","","","","","4501",""," ","key"," ","16.668999999999585","500","250","zol","0.9299999999999998","0.67","","1","1","29","14"
"","psychophysics","133","637184","0.0-133.0","5e482100418f612c4d9775b3","64de8072be024a9829c9f1f2","","","","","4533",""," ","key"," ","16.668999999999997","500","250","zol","1.2","-0.7","","1","1","-14","-1"
"","psychophysics","134","640742","0.0-134.0","5e482100418f612c4d9775b3","64de8072be024a9829c9f1f2","","","","","3555",""," ","key"," ","16.670051886792347","500","250","zol","0.9699999999999999","-0.07","","1","1","-1","22"
"","psychophysics","135","644496","0.0-135.0","5e482100418f612c4d9775b3","64de8072be024a9829c9f1f2","","","","","3750",""," ","key"," ","16.669000000000104","500","250","zol","0.72","0.18","","1","1","12","-16"
"","psychophysics","136","648048","0.0-136.0","5e482100418f612c4d9775b3","64de8072be024a9829c9f1f2","","","","","3549",""," ","key"," ","16.668999999999905","500","250","zol","0.73","-0.03","","1","1","11","-27"
"","psychophysics","137","651454","0.0-137.0","5e482100418f612c4d9775b3","64de8072be024a9829c9f1f2","","","","","3404",""," ","key"," ","16.670098522167624","500","250","zol","0.62","-0.12","","1","1","1","-7"
"","psychophysics","138","656120","0.0-138.0","5e482100418f612c4d9775b3","64de8072be024a9829c9f1f2","","","","","4664",""," ","key"," ","16.668999999999837","500","250","zol","1.5500000000000005","-0.75","","1","1","26","29"
"","psychophysics","139","660477","0.0-139.0","5e482100418f612c4d9775b3","64de8072be024a9829c9f1f2","","","","","4355",""," ","key"," ","16.669853846153888","500","250","zol","1.3","0.1","","1","1","-7","-1"
"","psychophysics","140","661369","0.0-140.0","5e482100418f612c4d9775b3","64de8072be024a9829c9f1f2","","","","","891",""," ","key"," ","16.669000000001002","500","250","inst","","","","","","",""
"","psychophysics","141","666768","0.0-141.0","5e482100418f612c4d9775b3","64de8072be024a9829c9f1f2","","","","","5398",""," ","key"," ","16.66899999999982","500","250","instPz1","44","25","50","1","","",""
"","psychophysics","142","672153","0.0-142.0","5e482100418f612c4d9775b3","64de8072be024a9829c9f1f2","","","","","5384",""," ","key"," ","16.66969254658404","500","250","instPz2","20","35","20","1","","",""
"","psychophysics","143","681460","0.0-143.0","5e482100418f612c4d9775b3","64de8072be024a9829c9f1f2","","","","","9306",""," ","key"," ","16.66940035906627","500","250","instPz3","36","100","30","1","","",""
"","psychophysics","144","688502","0.0-144.0","5e482100418f612c4d9775b3","64de8072be024a9829c9f1f2","","","","","7041",""," ","key"," ","16.669528436018883","500","250","instPz4","37","100","30","1","","",""
"","psychophysics","145","689612","0.0-145.0","5e482100418f612c4d9775b3","64de8072be024a9829c9f1f2","","","","","1108",""," ","key"," ","16.668999999999784","500","250","inst","","","","","","",""
"","psychophysics","146","694804","0.0-146.0","5e482100418f612c4d9775b3","64de8072be024a9829c9f1f2","","","","","5185",""," ","key"," ","16.669000000000025","500","250","pz","50","23","40","1","1","",""
"","psychophysics","147","698694","0.0-147.0","5e482100418f612c4d9775b3","64de8072be024a9829c9f1f2","","","","","3887",""," ","key"," ","16.669956896551945","500","250","pz","54","21","45","1","1","",""
"","psychophysics","148","702926","0.0-148.0","5e482100418f612c4d9775b3","64de8072be024a9829c9f1f2","","","","","4230",""," ","key"," ","16.668999999999933","500","250","pz","35","56","28","1","1","",""
"","psychophysics","149","707622","0.0-149.0","5e482100418f612c4d9775b3","64de8072be024a9829c9f1f2","","","","","4694",""," ","key"," ","16.668999999999798","500","250","pz","56","30","45","1","1","",""
"","psychophysics","150","709992","0.0-150.0","5e482100418f612c4d9775b3","64de8072be024a9829c9f1f2","","","","","2368",""," ","key"," ","16.670581560283868","500","250","pz","47","54","42","1","1","",""
"","psychophysics","151","712828","0.0-151.0","5e482100418f612c4d9775b3","64de8072be024a9829c9f1f2","","","","","2831",""," ","key"," ","16.668999999999922","500","250","pz","51","57","45","1","1","",""
"","psychophysics","152","714822","0.0-152.0","5e482100418f612c4d9775b3","64de8072be024a9829c9f1f2","","","","","1993",""," ","key"," ","16.66900000000033","500","250","pz","40","31","31","1","1","",""
"","psychophysics","153","717156","0.0-153.0","5e482100418f612c4d9775b3","64de8072be024a9829c9f1f2","","","","","2331",""," ","key"," ","16.669000000000274","500","250","pz","34","20","26","1","1","",""
"","psychophysics","154","719469","0.0-154.0","5e482100418f612c4d9775b3","64de8072be024a9829c9f1f2","","","","","2306",""," ","key"," ","16.670615942028444","500","250","pz","40","47","35","1","1","",""
"","psychophysics","155","722111","0.0-155.0","5e482100418f612c4d9775b3","64de8072be024a9829c9f1f2","","","","","2640",""," ","key"," ","16.669000000000306","500","250","pz","49","41","37","1","1","",""
"","psychophysics","156","726592","0.0-156.0","5e482100418f612c4d9775b3","64de8072be024a9829c9f1f2","","","","","4479",""," ","key"," ","16.669000000000057","500","250","pz","41","20","41","1","1","",""
"","psychophysics","157","728285","0.0-157.0","5e482100418f612c4d9775b3","64de8072be024a9829c9f1f2","","","","","1687",""," ","key"," ","16.66900000000023","500","250","pz","50","50","44","1","1","",""
"","psychophysics","158","731652","0.0-158.0","5e482100418f612c4d9775b3","64de8072be024a9829c9f1f2","","","","","3366",""," ","key"," ","16.67010945273651","500","250","pz","41","28","34","1","1","",""
"","psychophysics","159","734950","0.0-159.0","5e482100418f612c4d9775b3","64de8072be024a9829c9f1f2","","","","","3296",""," ","key"," ","16.66899999999973","500","250","pz","46","59","37","1","1","",""
"","psychophysics","160","738031","0.0-160.0","5e482100418f612c4d9775b3","64de8072be024a9829c9f1f2","","","","","3076",""," ","key"," ","16.669000000000107","500","250","pz","51","39","44","1","1","",""
"","psychophysics","161","739002","0.0-161.0","5e482100418f612c4d9775b3","64de8072be024a9829c9f1f2","","","","","971",""," ","key"," ","16.67289473684178","500","250","inst","","","","","","",""
"","psychophysics","162","743950","0.0-162.0","5e482100418f612c4d9775b3","64de8072be024a9829c9f1f2","","","","","4947",""," ","key"," ","16.66899999999992","500","250","instPog0","340","370","340","2","","0","0"
"","psychophysics","163","748924","0.0-163.0","5e482100418f612c4d9775b3","64de8072be024a9829c9f1f2","","","","","4973",""," ","key"," ","16.669750841751128","500","250","instPog1","338","370","340","2","","0","0"
"","psychophysics","164","753133","0.0-164.0","5e482100418f612c4d9775b3","64de8072be024a9829c9f1f2","","","","","4206",""," ","key"," ","16.668999999999954","500","250","instPog2","318","340","340","2","","0","0"
"","psychophysics","165","753971","0.0-165.0","5e482100418f612c4d9775b3","64de8072be024a9829c9f1f2","","","","","836",""," ","key"," ","16.668999999999162","500","250","inst","","","","","","",""
"","psychophysics","166","760004","0.0-166.0","5e482100418f612c4d9775b3","64de8072be024a9829c9f1f2","","","","","6031",""," ","key"," ","16.669617728532067","500","250","pog","355","285","377","2","1","0","0"
"","psychophysics","167","764059","0.0-167.0","5e482100418f612c4d9775b3","64de8072be024a9829c9f1f2","","","","","4054",""," ","key"," ","16.668999999999702","500","250","pog","340","314","346","2","1","0","0"
"","psychophysics","168","768738","0.0-168.0","5e482100418f612c4d9775b3","64de8072be024a9829c9f1f2","","","","","4676",""," ","key"," ","16.669796428571654","500","250","pog","302","340","301","2","1","0","0"
"","psychophysics","169","771550","0.0-169.0","5e482100418f612c4d9775b3","64de8072be024a9829c9f1f2","","","","","2810",""," ","key"," ","16.668999999999954","500","250","pog","355","385","364","2","1","0","0"
"","psychophysics","170","774250","0.0-170.0","5e482100418f612c4d9775b3","64de8072be024a9829c9f1f2","","","","","2698",""," ","key"," ","16.669000000000196","500","250","pog","300","292","310","2","1","0","0"
"","psychophysics","171","778581","0.0-171.0","5e482100418f612c4d9775b3","64de8072be024a9829c9f1f2","","","","","4330",""," ","key"," ","16.668999999999826","500","250","pog","333","281","345","2","1","0","0"
"","psychophysics","172","780721","0.0-172.0","5e482100418f612c4d9775b3","64de8072be024a9829c9f1f2","","","","","2138",""," ","key"," ","16.670734375000393","500","250","pog","369","391","373","2","1","0","0"
"","psychophysics","173","783473","0.0-173.0","5e482100418f612c4d9775b3","64de8072be024a9829c9f1f2","","","","","2747",""," ","key"," ","16.66900000000009","500","250","pog","367","359","371","2","1","0","0"
"","psychophysics","174","785907","0.0-174.0","5e482100418f612c4d9775b3","64de8072be024a9829c9f1f2","","","","","2432",""," ","key"," ","16.669000000000032","500","250","pog","345","359","351","2","1","0","0"
"","psychophysics","175","790021","0.0-175.0","5e482100418f612c4d9775b3","64de8072be024a9829c9f1f2","","","","","4113",""," ","key"," ","16.669906504065125","500","250","pog","375","341","377","2","1","0","0"
"","psychophysics","176","795122","0.0-176.0","5e482100418f612c4d9775b3","64de8072be024a9829c9f1f2","","","","","5099",""," ","key"," ","16.668999999999755","500","250","pog","375","319","379","2","1","0","0"
"","psychophysics","177","798781","0.0-177.0","5e482100418f612c4d9775b3","64de8072be024a9829c9f1f2","","","","","3653",""," ","key"," ","16.670022935780093","500","250","pog","361","399","368","2","1","0","0"
"","psychophysics","178","801188","0.0-178.0","5e482100418f612c4d9775b3","64de8072be024a9829c9f1f2","","","","","2405",""," ","key"," ","16.66900000000007","500","250","pog","353","375","362","2","1","0","0"
"","psychophysics","179","804112","0.0-179.0","5e482100418f612c4d9775b3","64de8072be024a9829c9f1f2","","","","","2923",""," ","key"," ","16.668999999999766","500","250","pog","301","293","303","2","1","0","0"
"","psychophysics","180","808442","0.0-180.0","5e482100418f612c4d9775b3","64de8072be024a9829c9f1f2","","","","","4329",""," ","key"," ","16.669000000000256","500","250","pog","343","293","350","2","1","0","0"
"","psychophysics","181","809946","0.0-181.0","5e482100418f612c4d9775b3","64de8072be024a9829c9f1f2","","","","","1502",""," ","key"," ","16.67149438202156","500","250","inst","","","","","","",""
"","psychophysics","182","816313","0.0-182.0","5e482100418f612c4d9775b3","64de8072be024a9829c9f1f2","","","","","6360",""," ","key"," ","16.669000000000217","500","250","instBr3","-8","40","300","1","","0","0"
"","psychophysics","183","817296","0.0-183.0","5e482100418f612c4d9775b3","64de8072be024a9829c9f1f2","","","","","982",""," ","key"," ","16.668999999998427","500","250","inst","","","","","","",""
"","psychophysics","184","818911","0.0-184.0","5e482100418f612c4d9775b3","64de8072be024a9829c9f1f2","","","","","1613",""," ","key"," ","16.67132291666591","500","250","br","-10","-2","248","1","1","-10","-4"
"","psychophysics","185","823340","0.0-185.0","5e482100418f612c4d9775b3","64de8072be024a9829c9f1f2","","","","","4424",""," ","key"," ","16.66900000000012","500","250","br","-12","27","254","1","1","-14","3"
"","psychophysics","186","824632","0.0-186.0","5e482100418f612c4d9775b3","64de8072be024a9829c9f1f2","","","","","1290",""," ","key"," ","16.66900000000054","500","250","br","-21","-20","257","1","1","6","-6"
"","psychophysics","187","828307","0.0-187.0","5e482100418f612c4d9775b3","64de8072be024a9829c9f1f2","","","","","3674",""," ","key"," ","16.668999999999702","500","250","br","-14","9","232","1","1","0","-29"
"","psychophysics","188","830409","0.0-188.0","5e482100418f612c4d9775b3","64de8072be024a9829c9f1f2","","","","","2100",""," ","key"," ","16.670783999999983","500","250","br","-13","1","242","1","1","27","7"
"","psychophysics","189","833030","0.0-189.0","5e482100418f612c4d9775b3","64de8072be024a9829c9f1f2","","","","","2620",""," ","key"," ","16.66900000000038","500","250","br","-12","1","240","1","1","-15","6"
"","psychophysics","190","835961","0.0-190.0","5e482100418f612c4d9775b3","64de8072be024a9829c9f1f2","","","","","2924",""," ","key"," ","16.668999999999734","500","250","br","-14","-9","244","1","1","13","23"
"","psychophysics","191","839263","0.0-191.0","5e482100418f612c4d9775b3","64de8072be024a9829c9f1f2","","","","","3300",""," ","key"," ","16.670131979695743","500","250","br","-20","-26","214","1","1","8","-17"
"","psychophysics","192","841598","0.0-192.0","5e482100418f612c4d9775b3","64de8072be024a9829c9f1f2","","","","","2334",""," ","key"," ","16.669000000000274","500","250","br","-9","0","280","1","1","-24","-7"
"","psychophysics","193","843961","0.0-193.0","5e482100418f612c4d9775b3","64de8072be024a9829c9f1f2","","","","","2357",""," ","key"," ","16.668999999999365","500","250","br","-23","-30","273","1","1","-26","-13"
"","psychophysics","194","847351","0.0-194.0","5e482100418f612c4d9775b3","64de8072be024a9829c9f1f2","","","","","3388",""," ","key"," ","16.669000000000175","500","250","br","-16","-15","247","1","1","8","-10"
"","psychophysics","195","850134","0.0-195.0","5e482100418f612c4d9775b3","64de8072be024a9829c9f1f2","","","","","2780",""," ","key"," ","16.670337349398018","500","250","br","-9","-4","218","1","1","-27","23"
"","psychophysics","196","856194","0.0-196.0","5e482100418f612c4d9775b3","64de8072be024a9829c9f1f2","","","","","6059",""," ","key"," ","16.668999999999865","500","250","br","-7","20","224","1","1","-8","21"
"","psychophysics","197","859377","0.0-197.0","5e482100418f612c4d9775b3","64de8072be024a9829c9f1f2","","","","","3182",""," ","key"," ","16.670173684210443","500","250","br","-11","2","251","1","1","8","-27"
"","psychophysics","198","862517","0.0-198.0","5e482100418f612c4d9775b3","64de8072be024a9829c9f1f2","","","","","3138",""," ","key"," ","16.669000000000015","500","250","br","-18","-13","300","1","1","2","-19"
"","psychophysics","199","863529","0.0-199.0","5e482100418f612c4d9775b3","64de8072be024a9829c9f1f2","","","","","1011",""," ","key"," ","16.66900000000023","500","250","inst","","","","","","",""
"","psychophysics","200","868312","0.0-200.0","5e482100418f612c4d9775b3","64de8072be024a9829c9f1f2","","","","","4779",""," ","key"," ","16.66900000000011","500","250","instEB1","33","40","30","1","","0","0"
"","psychophysics","201","870913","0.0-201.0","5e482100418f612c4d9775b3","64de8072be024a9829c9f1f2","","","","","2599",""," ","key"," ","16.670438709677075","500","250","instEB2","39","30","40","1","","0","0"
"","psychophysics","202","873637","0.0-202.0","5e482100418f612c4d9775b3","64de8072be024a9829c9f1f2","","","","","2723",""," ","key"," ","16.66900000000016","500","250","instEB3","41","27","45","1","","0","0"
"","psychophysics","203","877847","0.0-203.0","5e482100418f612c4d9775b3","64de8072be024a9829c9f1f2","","","","","4206",""," ","key"," ","16.668999999999954","500","250","instEB4","26","40","30","1","","0","0"
"","psychophysics","204","878588","0.0-204.0","5e482100418f612c4d9775b3","64de8072be024a9829c9f1f2","","","","","740",""," ","key"," ","16.668999999999826","500","250","inst","","","","","","",""
"","psychophysics","205","882998","0.0-205.0","5e482100418f612c4d9775b3","64de8072be024a9829c9f1f2","","","","","4401",""," ","key"," ","16.669844696969392","500","250","eb","23","46","26","1","","0","0"
"","psychophysics","206","886727","0.0-206.0","5e482100418f612c4d9775b3","64de8072be024a9829c9f1f2","","","","","3728",""," ","key"," ","16.669000000000153","500","250","eb","46","54","48","1","","0","0"
"","psychophysics","207","892216","0.0-207.0","5e482100418f612c4d9775b3","64de8072be024a9829c9f1f2","","","","","5487",""," ","key"," ","16.669676829268234","500","250","eb","24","39","26","1","","0","0"
"","psychophysics","208","897667","0.0-208.0","5e482100418f612c4d9775b3","64de8072be024a9829c9f1f2","","","","","5450",""," ","key"," ","16.669000000000125","500","250","eb","47","28","50","1","","0","0"
"","psychophysics","209","901382","0.0-209.0","5e482100418f612c4d9775b3","64de8072be024a9829c9f1f2","","","","","3714",""," ","key"," ","16.670004504504675","500","250","eb","45","32","47","1","","0","0"
"","psychophysics","210","904267","0.0-210.0","5e482100418f612c4d9775b3","64de8072be024a9829c9f1f2","","","","","2883",""," ","key"," ","16.668999999999826","500","250","eb","47","32","50","1","","0","0"
"","psychophysics","211","907949","0.0-211.0","5e482100418f612c4d9775b3","64de8072be024a9829c9f1f2","","","","","3681",""," ","key"," ","16.66900000000023","500","250","eb","21","28","24","1","","0","0"
"","psychophysics","212","912338","0.0-212.0","5e482100418f612c4d9775b3","64de8072be024a9829c9f1f2","","","","","4387",""," ","key"," ","16.669851145037907","500","250","eb","31","46","32","1","","0","0"
"","psychophysics","213","915602","0.0-213.0","5e482100418f612c4d9775b3","64de8072be024a9829c9f1f2","","","","","3263",""," ","key"," ","16.66900000000038","500","250","eb","37","30","37","1","","0","0"
"","psychophysics","214","918934","0.0-214.0","5e482100418f612c4d9775b3","64de8072be024a9829c9f1f2","","","","","3330",""," ","key"," ","16.668999999999677","500","250","eb","40","42","43","1","","0","0"
"","psychophysics","215","922842","0.0-215.0","5e482100418f612c4d9775b3","64de8072be024a9829c9f1f2","","","","","3907",""," ","key"," ","16.669957081544965","500","250","eb","44","32","48","1","","0","0"
"","psychophysics","216","927020","0.0-216.0","5e482100418f612c4d9775b3","64de8072be024a9829c9f1f2","","","","","4177",""," ","key"," ","16.669","500","250","eb","38","25","41","1","","0","0"
"","psychophysics","217","929866","0.0-217.0","5e482100418f612c4d9775b3","64de8072be024a9829c9f1f2","","","","","2844",""," ","key"," ","16.67030588235254","500","250","eb","40","48","41","1","","0","0"
"","psychophysics","218","934354","0.0-218.0","5e482100418f612c4d9775b3","64de8072be024a9829c9f1f2","","","","","4487",""," ","key"," ","16.669000000000057","500","250","eb","52","32","54","1","","0","0"
"","psychophysics","219","937868","0.0-219.0","5e482100418f612c4d9775b3","64de8072be024a9829c9f1f2","","","","","3512",""," ","key"," ","16.668999999999954","500","250","eb","33","54","35","1","","0","0"
