"success","trial_type","trial_index","time_elapsed","internal_node_id","pid","sid","timeout","failed_images","failed_audio","failed_video","rt","stimulus","response","response_type","key_press","avg_frame_time","center_x","center_y","task","resp","version","block","jitterX","jitterY","start","parA"
"true","fullscreen","0","3782","0.0-0.0","60321bd53ecd7d1e0edab63c","64de83c4d2bec68ef86094cd","","","","","","","","","","","","","","","","","","","",""
"true","preload","1","3924","0.0-1.0","60321bd53ecd7d1e0edab63c","64de83c4d2bec68ef86094cd","false","[]","[]","[]","","","","","","","","","","","","","","","",""
"","html-button-response","2","6543","0.0-2.0","60321bd53ecd7d1e0edab63c","64de83c4d2bec68ef86094cd","","","","","2615","Please Make Sure Your Audio Is On.","0","","","","","","","","","","","","",""
"","psychophysics","3","17759","0.0-3.0","60321bd53ecd7d1e0edab63c","64de83c4d2bec68ef86094cd","","","","","11198",""," ","key"," ","16.71223695976155","647.4999869461448","249.954039078475","","","","","","","",""
"","psychophysics","4","21991","0.0-4.0","60321bd53ecd7d1e0edab63c","64de83c4d2bec68ef86094cd","","","","","4193",""," ","key"," ","16.728630952380957","499.90807815695","249.954039078475","inst","","","","","","",""
"","psychophysics","5","29046","0.0-5.0","60321bd53ecd7d1e0edab63c","64de83c4d2bec68ef86094cd","","","","","7045",""," ","key"," ","16.66256973995272","499.90807815695","249.954039078475","sample0","","","","","","",""
"","psychophysics","6","31798","0.0-6.0","60321bd53ecd7d1e0edab63c","64de83c4d2bec68ef86094cd","","","","","2750",""," ","key"," ","16.66254878048778","499.90807815695","249.954039078475","sample1","","","","","","",""
"","psychophysics","7","42624","0.0-7.0","60321bd53ecd7d1e0edab63c","64de83c4d2bec68ef86094cd","","","","","10823",""," ","key"," ","16.662533127889056","499.90807815695","249.954039078475","sample2","116","","","","","",""
"","psychophysics","8","46305","0.0-8.0","60321bd53ecd7d1e0edab63c","64de83c4d2bec68ef86094cd","","","","","3678",""," ","key"," ","16.662561643835595","499.90807815695","249.954039078475","sample3","80","","","","","",""
"","psychophysics","9","56710","0.0-9.0","60321bd53ecd7d1e0edab63c","64de83c4d2bec68ef86094cd","","","","","10397",""," ","key"," ","16.662556089743596","499.90807815695","249.954039078475","sample4","104","","","","","",""
"","psychophysics","10","60854","0.0-10.0","60321bd53ecd7d1e0edab63c","64de83c4d2bec68ef86094cd","","","","","4142",""," ","key"," ","16.662544354838715","499.90807815695","249.954039078475","sample5","","","","","","",""
"","psychophysics","11","71383","0.0-11.0","60321bd53ecd7d1e0edab63c","64de83c4d2bec68ef86094cd","","","","","10525",""," ","key"," ","16.662538827258317","499.90807815695","249.954039078475","sample6","500","","","","","",""
"","psychophysics","12","76551","0.0-12.0","60321bd53ecd7d1e0edab63c","64de83c4d2bec68ef86094cd","","","","","5165",""," ","key"," ","16.662579288025917","499.90807815695","249.954039078475","inst","","","","","","",""
"","psychophysics","13","80599","0.0-13.0","60321bd53ecd7d1e0edab63c","64de83c4d2bec68ef86094cd","","","","","4043",""," ","key"," ","16.662537190082656","499.90807815695","249.954039078475","inst","","","","","","",""
"","psychophysics","14","89191","0.0-14.0","60321bd53ecd7d1e0edab63c","64de83c4d2bec68ef86094cd","","","","","8589",""," ","key"," ","16.6625486381323","499.90807815695","249.954039078475","inst","","","","","","",""
"","psychophysics","15","91534","0.0-15.0","60321bd53ecd7d1e0edab63c","64de83c4d2bec68ef86094cd","","","","","2339",""," ","key"," ","16.662671428571464","499.90807815695","249.954039078475","inst","","","","","","",""
"","psychophysics","16","93638","0.0-16.0","60321bd53ecd7d1e0edab63c","64de83c4d2bec68ef86094cd","","","","","2102",""," ","key"," ","16.662496000000043","499.90807815695","249.954039078475","inst","","","","","","",""
"","psychophysics","17","97393","0.0-17.0","60321bd53ecd7d1e0edab63c","64de83c4d2bec68ef86094cd","","","","","3750",""," ","key"," ","16.662560000000003","499.90807815695","249.954039078475","instBr0","0","","","0","0","0","300"
"","psychophysics","18","105230","0.0-18.0","60321bd53ecd7d1e0edab63c","64de83c4d2bec68ef86094cd","","","","","7834",""," ","key"," ","16.662558635394436","499.90807815695","249.954039078475","instBr1","1","","","0","0","-40","300"
"","psychophysics","19","112438","0.0-19.0","60321bd53ecd7d1e0edab63c","64de83c4d2bec68ef86094cd","","","","","7206",""," ","key"," ","16.701238979118322","499.90807815695","249.954039078475","instBr3","31","2","","0","0","40","300"
"","psychophysics","20","115614","0.0-20.0","60321bd53ecd7d1e0edab63c","64de83c4d2bec68ef86094cd","","","","","3173",""," ","key"," ","16.662550264550234","499.90807815695","249.954039078475","inst","","","","","","",""
"","psychophysics","21","119079","0.0-21.0","60321bd53ecd7d1e0edab63c","64de83c4d2bec68ef86094cd","","","","","3461",""," ","key"," ","16.66249275362318","499.90807815695","249.954039078475","br","27","2","0","28","30","23","202"
"","psychophysics","22","121359","0.0-22.0","60321bd53ecd7d1e0edab63c","64de83c4d2bec68ef86094cd","","","","","2276",""," ","key"," ","16.66258823529407","499.90807815695","249.954039078475","br","33","2","0","18","-23","22","269"
"","psychophysics","23","125222","0.0-23.0","60321bd53ecd7d1e0edab63c","64de83c4d2bec68ef86094cd","","","","","3847",""," ","key"," ","16.662536796536806","499.90807815695","249.954039078475","br","21","2","0","4","-16","18","224"
"","psychophysics","24","129134","0.0-24.0","60321bd53ecd7d1e0edab63c","64de83c4d2bec68ef86094cd","","","","","3909",""," ","key"," ","16.662576923076884","499.90807815695","249.954039078475","br","20","2","0","-9","-23","3","223"
"","psychophysics","25","132430","0.0-25.0","60321bd53ecd7d1e0edab63c","64de83c4d2bec68ef86094cd","","","","","3293",""," ","key"," ","16.662530612244822","499.90807815695","249.954039078475","br","27","2","0","-28","23","3","271"
"","psychophysics","26","134350","0.0-26.0","60321bd53ecd7d1e0edab63c","64de83c4d2bec68ef86094cd","","","","","1915",""," ","key"," ","16.662573913043445","499.90807815695","249.954039078475","br","28","2","0","-22","6","27","227"
"","psychophysics","27","136551","0.0-27.0","60321bd53ecd7d1e0edab63c","64de83c4d2bec68ef86094cd","","","","","2182",""," ","key"," ","16.66252671755723","499.90807815695","249.954039078475","br","31","2","0","-11","-8","27","242"
"","psychophysics","28","139646","0.0-28.0","60321bd53ecd7d1e0edab63c","64de83c4d2bec68ef86094cd","","","","","3092",""," ","key"," ","16.662521739130487","499.90807815695","249.954039078475","br","26","2","0","-9","20","-6","236"
"","psychophysics","29","142414","0.0-29.0","60321bd53ecd7d1e0edab63c","64de83c4d2bec68ef86094cd","","","","","2763",""," ","key"," ","16.66256024096377","499.90807815695","249.954039078475","br","32","2","0","-12","7","13","279"
"","psychophysics","30","145639","0.0-30.0","60321bd53ecd7d1e0edab63c","64de83c4d2bec68ef86094cd","","","","","3222",""," ","key"," ","16.66260416666667","499.90807815695","249.954039078475","br","31","2","0","-2","-15","-6","237"
"","psychophysics","31","149214","0.0-31.0","60321bd53ecd7d1e0edab63c","64de83c4d2bec68ef86094cd","","","","","3545",""," ","key"," ","16.662556074766407","499.90807815695","249.954039078475","br","25","2","0","-8","-15","-15","219"
"","psychophysics","32","151815","0.0-32.0","60321bd53ecd7d1e0edab63c","64de83c4d2bec68ef86094cd","","","","","2598",""," ","key"," ","16.66254838709682","499.90807815695","249.954039078475","br","23","2","0","23","26","-2","210"
"","psychophysics","33","154134","0.0-33.0","60321bd53ecd7d1e0edab63c","64de83c4d2bec68ef86094cd","","","","","2289",""," ","key"," ","16.662615942028925","499.90807815695","249.954039078475","br","18","2","0","28","7","30","295"
"","psychophysics","34","156566","0.0-34.0","60321bd53ecd7d1e0edab63c","64de83c4d2bec68ef86094cd","","","","","2429",""," ","key"," ","16.662544827586128","499.90807815695","249.954039078475","br","20","2","0","0","3","0","208"
"","psychophysics","35","159127","0.0-35.0","60321bd53ecd7d1e0edab63c","64de83c4d2bec68ef86094cd","","","","","2559",""," ","key"," ","16.662627450980473","499.90807815695","249.954039078475","br","26","2","0","-27","21","-1","242"
"","psychophysics","36","162254","0.0-36.0","60321bd53ecd7d1e0edab63c","64de83c4d2bec68ef86094cd","","","","","3125",""," ","key"," ","16.662489247311818","499.90807815695","249.954039078475","inst","","","","","","",""
"","psychophysics","37","172726","0.0-37.0","60321bd53ecd7d1e0edab63c","64de83c4d2bec68ef86094cd","","","","","10451",""," ","key"," ","16.662544585987273","499.90807815695","249.954039078475","instPog0","160","1","","0","0","190","160"
"","psychophysics","38","180262","0.0-38.0","60321bd53ecd7d1e0edab63c","64de83c4d2bec68ef86094cd","","","","","7534",""," ","key"," ","16.662567627494454","499.90807815695","249.954039078475","instPog1","168","1","","0","0","190","160"
"","psychophysics","39","187214","0.0-39.0","60321bd53ecd7d1e0edab63c","64de83c4d2bec68ef86094cd","","","","","6923",""," ","key"," ","16.662531249999958","499.90807815695","249.954039078475","instPog2","186","1","","0","0","160","160"
"","psychophysics","40","189767","0.0-40.0","60321bd53ecd7d1e0edab63c","64de83c4d2bec68ef86094cd","","","","","2551",""," ","key"," ","16.662585526315716","499.90807815695","249.954039078475","inst","","","","","","",""
"","psychophysics","41","192046","0.0-41.0","60321bd53ecd7d1e0edab63c","64de83c4d2bec68ef86094cd","","","","","2265",""," ","key"," ","16.66254411764706","499.90807815695","249.954039078475","pog","178","1","0","0","0","188","130"
"","psychophysics","42","195351","0.0-42.0","60321bd53ecd7d1e0edab63c","64de83c4d2bec68ef86094cd","","","","","3303",""," ","key"," ","16.66259898477146","499.90807815695","249.954039078475","pog","179","1","0","0","0","121","154"
"","psychophysics","43","200006","0.0-43.0","60321bd53ecd7d1e0edab63c","64de83c4d2bec68ef86094cd","","","","","4651",""," ","key"," ","16.662555555555567","499.90807815695","249.954039078475","pog","185","1","0","0","0","125","161"
"","psychophysics","44","202727","0.0-44.0","60321bd53ecd7d1e0edab63c","64de83c4d2bec68ef86094cd","","","","","2718",""," ","key"," ","16.662561728395012","499.90807815695","249.954039078475","pog","225","1","0","0","0","203","189"
"","psychophysics","45","206278","0.0-45.0","60321bd53ecd7d1e0edab63c","64de83c4d2bec68ef86094cd","","","","","3545",""," ","key"," ","16.662547169811283","499.90807815695","249.954039078475","pog","156","1","0","0","0","106","122"
"","psychophysics","46","208110","0.0-46.0","60321bd53ecd7d1e0edab63c","64de83c4d2bec68ef86094cd","","","","","1825",""," ","key"," ","16.66256880733946","499.90807815695","249.954039078475","pog","178","1","0","0","0","198","143"
"","psychophysics","47","210390","0.0-47.0","60321bd53ecd7d1e0edab63c","64de83c4d2bec68ef86094cd","","","","","2276",""," ","key"," ","16.662580882352973","499.90807815695","249.954039078475","pog","158","1","0","0","0","132","147"
"","psychophysics","48","214623","0.0-48.0","60321bd53ecd7d1e0edab63c","64de83c4d2bec68ef86094cd","","","","","4231",""," ","key"," ","16.662561264822237","499.90807815695","249.954039078475","pog","223","1","0","0","0","109","187"
"","psychophysics","49","217534","0.0-49.0","60321bd53ecd7d1e0edab63c","64de83c4d2bec68ef86094cd","","","","","2908",""," ","key"," ","16.66254597701147","499.90807815695","249.954039078475","pog","190","1","0","0","0","166","154"
"","psychophysics","50","220702","0.0-50.0","60321bd53ecd7d1e0edab63c","64de83c4d2bec68ef86094cd","","","","","3142",""," ","key"," ","16.662597883597883","499.90807815695","249.954039078475","pog","171","1","0","0","0","157","137"
"","psychophysics","51","223894","0.0-51.0","60321bd53ecd7d1e0edab63c","64de83c4d2bec68ef86094cd","","","","","3190",""," ","key"," ","16.662528795811546","499.90807815695","249.954039078475","pog","206","1","0","0","0","154","170"
"","psychophysics","52","227430","0.0-52.0","60321bd53ecd7d1e0edab63c","64de83c4d2bec68ef86094cd","","","","","3533",""," ","key"," ","16.66257819905215","499.90807815695","249.954039078475","pog","190","1","0","0","0","132","149"
"","psychophysics","53","230742","0.0-53.0","60321bd53ecd7d1e0edab63c","64de83c4d2bec68ef86094cd","","","","","3282",""," ","key"," ","16.66248989898995","499.90807815695","249.954039078475","pog","189","1","0","0","0","167","148"
"","psychophysics","54","235223","0.0-54.0","60321bd53ecd7d1e0edab63c","64de83c4d2bec68ef86094cd","","","","","4477",""," ","key"," ","16.6625505617978","499.90807815695","249.954039078475","pog","221","1","0","0","0","101","187"
"","psychophysics","55","239790","0.0-55.0","60321bd53ecd7d1e0edab63c","64de83c4d2bec68ef86094cd","","","","","4554",""," ","key"," ","16.662569343065673","499.90807815695","249.954039078475","pog","176","1","0","0","0","198","148"
"","psychophysics","56","244631","0.0-56.0","60321bd53ecd7d1e0edab63c","64de83c4d2bec68ef86094cd","","","","","4839",""," ","key"," ","16.662584775086483","499.90807815695","249.954039078475","inst","","","","","","",""
"","psychophysics","57","247574","0.0-57.0","60321bd53ecd7d1e0edab63c","64de83c4d2bec68ef86094cd","","","","","2941",""," ","key"," ","16.662625000000016","499.90807815695","249.954039078475","instZol0","0","","","0","0","0",""
"","psychophysics","58","259430","0.0-58.0","60321bd53ecd7d1e0edab63c","64de83c4d2bec68ef86094cd","","","","","11853",""," ","key"," ","16.662547887323964","499.90807815695","249.954039078475","instZol1","-0.19999999999999998","","","0","0","-1.3",""
"","psychophysics","59","267814","0.0-59.0","60321bd53ecd7d1e0edab63c","64de83c4d2bec68ef86094cd","","","","","8362",""," ","key"," ","16.662545816733065","499.90807815695","249.954039078475","instZol2","-2.1","2","","0","0","2",""
"","psychophysics","60","270262","0.0-60.0","60321bd53ecd7d1e0edab63c","64de83c4d2bec68ef86094cd","","","","","2443",""," ","key"," ","16.66249999999984","499.90807815695","249.954039078475","inst","","","","","","",""
"","psychophysics","61","276622","0.0-61.0","60321bd53ecd7d1e0edab63c","64de83c4d2bec68ef86094cd","","","","","6355",""," ","key"," ","16.662551181102288","499.90807815695","249.954039078475","zol","-2.330000000000001","2","0","-21","-24","0.23",""
"","psychophysics","62","279238","0.0-62.0","60321bd53ecd7d1e0edab63c","64de83c4d2bec68ef86094cd","","","","","2607",""," ","key"," ","16.66257692307707","499.90807815695","249.954039078475","zol","-2.6200000000000014","2","0","6","29","0.32",""
"","psychophysics","63","282842","0.0-63.0","60321bd53ecd7d1e0edab63c","64de83c4d2bec68ef86094cd","","","","","3589",""," ","key"," ","16.662534883720962","499.90807815695","249.954039078475","zol","-1.5400000000000005","2","0","0","30","0.14",""
"","psychophysics","64","285727","0.0-64.0","60321bd53ecd7d1e0edab63c","64de83c4d2bec68ef86094cd","","","","","2871",""," ","key"," ","16.66256395348843","499.90807815695","249.954039078475","zol","-3.2000000000000015","2","0","20","-27","0.5",""
"","psychophysics","65","288839","0.0-65.0","60321bd53ecd7d1e0edab63c","64de83c4d2bec68ef86094cd","","","","","3105",""," ","key"," ","16.662543010752415","499.90807815695","249.954039078475","zol","-3.0500000000000016","2","0","-22","-5","0.65",""
"","psychophysics","66","292238","0.0-66.0","60321bd53ecd7d1e0edab63c","64de83c4d2bec68ef86094cd","","","","","3390",""," ","key"," ","16.662517241379497","499.90807815695","249.954039078475","zol","-2.8700000000000014","2","0","14","-10","-0.43",""
"","psychophysics","67","295214","0.0-67.0","60321bd53ecd7d1e0edab63c","64de83c4d2bec68ef86094cd","","","","","2943",""," ","key"," ","16.662589887640728","499.90807815695","249.954039078475","zol","-2.320000000000001","2","0","14","10","-0.28",""
"","psychophysics","68","298576","0.0-68.0","60321bd53ecd7d1e0edab63c","64de83c4d2bec68ef86094cd","","","","","3358",""," ","key"," ","16.662547263681695","499.90807815695","249.954039078475","zol","-2.8400000000000016","2","0","-18","10","0.64",""
"","psychophysics","69","301086","0.0-69.0","60321bd53ecd7d1e0edab63c","64de83c4d2bec68ef86094cd","","","","","2496",""," ","key"," ","16.662583892617292","499.90807815695","249.954039078475","zol","-3.260000000000002","2","0","12","-11","0.46",""
"","psychophysics","70","304727","0.0-70.0","60321bd53ecd7d1e0edab63c","64de83c4d2bec68ef86094cd","","","","","3637",""," ","key"," ","16.66254128440371","499.90807815695","249.954039078475","zol","-2.8500000000000014","2","0","-5","15","-0.15",""
"","psychophysics","71","308655","0.0-71.0","60321bd53ecd7d1e0edab63c","64de83c4d2bec68ef86094cd","","","","","3909",""," ","key"," ","16.662538461538396","499.90807815695","249.954039078475","zol","-2.6700000000000013","2","0","17","7","-0.63",""
"","psychophysics","72","312855","0.0-72.0","60321bd53ecd7d1e0edab63c","64de83c4d2bec68ef86094cd","","","","","4194",""," ","key"," ","16.662593625497955","499.90807815695","249.954039078475","zol","-2.9200000000000013","2","0","-30","-19","-0.68",""
"","psychophysics","73","315238","0.0-73.0","60321bd53ecd7d1e0edab63c","64de83c4d2bec68ef86094cd","","","","","2376",""," ","key"," ","16.66254929577461","499.90807815695","249.954039078475","zol","-1.8700000000000006","2","0","6","21","-0.73",""
"","psychophysics","74","318198","0.0-74.0","60321bd53ecd7d1e0edab63c","64de83c4d2bec68ef86094cd","","","","","2953",""," ","key"," ","16.66255932203382","499.90807815695","249.954039078475","zol","-2.0500000000000007","2","0","-28","16","-0.15",""
"","psychophysics","75","320926","0.0-75.0","60321bd53ecd7d1e0edab63c","64de83c4d2bec68ef86094cd","","","","","2704",""," ","key"," ","16.662527607362133","499.90807815695","249.954039078475","zol","-2.480000000000001","2","0","13","19","0.28",""
"","psychophysics","76","323238","0.0-76.0","60321bd53ecd7d1e0edab63c","64de83c4d2bec68ef86094cd","","","","","2310",""," ","key"," ","16.662586956521988","499.90807815695","249.954039078475","inst","","","","","","",""
"","psychophysics","77","325231","0.0-77.0","60321bd53ecd7d1e0edab63c","64de83c4d2bec68ef86094cd","","","","","1980",""," ","key"," ","16.662584745762693","499.90807815695","249.954039078475","instPzPre","50","0","","","","50","50"
"","psychophysics","78","328326","0.0-78.0","60321bd53ecd7d1e0edab63c","64de83c4d2bec68ef86094cd","","","","","3089",""," ","key"," ","16.66253513513523","499.90807815695","249.954039078475","instPz0","50","2","","","","50","50"
"","psychophysics","79","338015","0.0-79.0","60321bd53ecd7d1e0edab63c","64de83c4d2bec68ef86094cd","","","","","9670",""," ","key"," ","16.66255344827589","499.90807815695","249.954039078475","instPz1","49","2","","","","25","50"
"","psychophysics","80","340358","0.0-80.0","60321bd53ecd7d1e0edab63c","64de83c4d2bec68ef86094cd","","","","","2339",""," ","key"," ","16.662464285714254","499.90807815695","249.954039078475","instPz2","41","2","","","","20","35"
"","psychophysics","81","345639","0.0-81.0","60321bd53ecd7d1e0edab63c","64de83c4d2bec68ef86094cd","","","","","5261",""," ","key"," ","16.66253164556976","499.90807815695","249.954039078475","instPz3","57","2","","","","30","100"
"","psychophysics","82","348407","0.0-82.0","60321bd53ecd7d1e0edab63c","64de83c4d2bec68ef86094cd","","","","","2765",""," ","key"," ","16.662551515151492","499.90807815695","249.954039078475","instPz4","50","2","","","","30","100"
"","psychophysics","83","350495","0.0-83.0","60321bd53ecd7d1e0edab63c","64de83c4d2bec68ef86094cd","","","","","2059",""," ","key"," ","16.662612903225725","499.90807815695","249.954039078475","inst","","","","","","",""
"","psychophysics","84","354495","0.0-84.0","60321bd53ecd7d1e0edab63c","64de83c4d2bec68ef86094cd","","","","","3995",""," ","key"," ","17.932798206277877","499.90807815695","249.954039078475","pz","17","2","0","","","20","27"
"","psychophysics","85","358238","0.0-85.0","60321bd53ecd7d1e0edab63c","64de83c4d2bec68ef86094cd","","","","","3740",""," ","key"," ","16.662542600897005","499.90807815695","249.954039078475","pz","16","2","0","","","24","35"
"","psychophysics","86","361735","0.0-86.0","60321bd53ecd7d1e0edab63c","64de83c4d2bec68ef86094cd","","","","","3490",""," ","key"," ","16.662540669856273","499.90807815695","249.954039078475","pz","25","2","0","","","51","45"
"","psychophysics","87","363942","0.0-87.0","60321bd53ecd7d1e0edab63c","64de83c4d2bec68ef86094cd","","","","","2204",""," ","key"," ","16.662590909090905","499.90807815695","249.954039078475","pz","20","2","0","","","40","35"
"","psychophysics","88","366382","0.0-88.0","60321bd53ecd7d1e0edab63c","64de83c4d2bec68ef86094cd","","","","","2437",""," ","key"," ","16.662517241379327","499.90807815695","249.954039078475","pz","26","2","0","","","41","42"
"","psychophysics","89","369608","0.0-89.0","60321bd53ecd7d1e0edab63c","64de83c4d2bec68ef86094cd","","","","","3222",""," ","key"," ","16.66250520833334","499.90807815695","249.954039078475","pz","19","2","0","","","51","44"
"","psychophysics","90","371511","0.0-90.0","60321bd53ecd7d1e0edab63c","64de83c4d2bec68ef86094cd","","","","","1897",""," ","key"," ","16.6624736842105","499.90807815695","249.954039078475","pz","20","2","0","","","31","34"
"","psychophysics","91","374814","0.0-91.0","60321bd53ecd7d1e0edab63c","64de83c4d2bec68ef86094cd","","","","","3300",""," ","key"," ","16.66254314720816","499.90807815695","249.954039078475","pz","29","2","0","","","53","31"
"","psychophysics","92","376950","0.0-92.0","60321bd53ecd7d1e0edab63c","64de83c4d2bec68ef86094cd","","","","","2133",""," ","key"," ","16.66255905511826","499.90807815695","249.954039078475","pz","26","2","0","","","44","59"
"","psychophysics","93","379262","0.0-93.0","60321bd53ecd7d1e0edab63c","64de83c4d2bec68ef86094cd","","","","","2308",""," ","key"," ","16.662601449275034","499.90807815695","249.954039078475","pz","28","2","0","","","27","54"
"","psychophysics","94","381415","0.0-94.0","60321bd53ecd7d1e0edab63c","64de83c4d2bec68ef86094cd","","","","","2150",""," ","key"," ","16.66250781250028","499.90807815695","249.954039078475","pz","28","2","0","","","27","59"
"","psychophysics","95","384606","0.0-95.0","60321bd53ecd7d1e0edab63c","64de83c4d2bec68ef86094cd","","","","","3186",""," ","key"," ","16.66264921465964","499.90807815695","249.954039078475","pz","23","2","0","","","55","44"
"","psychophysics","96","387222","0.0-96.0","60321bd53ecd7d1e0edab63c","64de83c4d2bec68ef86094cd","","","","","2607",""," ","key"," ","16.662474358974112","499.90807815695","249.954039078475","pz","20","2","0","","","39","21"
"","psychophysics","97","388854","0.0-97.0","60321bd53ecd7d1e0edab63c","64de83c4d2bec68ef86094cd","","","","","1628",""," ","key"," ","16.66258762886606","499.90807815695","249.954039078475","pz","22","2","0","","","24","38"
"","psychophysics","98","390998","0.0-98.0","60321bd53ecd7d1e0edab63c","64de83c4d2bec68ef86094cd","","","","","2142",""," ","key"," ","16.662598425196574","499.90807815695","249.954039078475","pz","33","2","0","","","48","59"
"","psychophysics","99","393334","0.0-99.0","60321bd53ecd7d1e0edab63c","64de83c4d2bec68ef86094cd","","","","","2334",""," ","key"," ","16.662496402877693","499.90807815695","249.954039078475","inst","","","","","","",""
"","psychophysics","100","395894","0.0-100.0","60321bd53ecd7d1e0edab63c","64de83c4d2bec68ef86094cd","","","","","2549",""," ","key"," ","16.662444444444393","499.90807815695","249.954039078475","instEB0","40","1","","0","0","40","40"
"","psychophysics","101","404958","0.0-101.0","60321bd53ecd7d1e0edab63c","64de83c4d2bec68ef86094cd","","","","","9034",""," ","key"," ","16.662545119705424","499.90807815695","249.954039078475","instEB1","30","1","","0","0","40","30"
"","psychophysics","102","409150","0.0-102.0","60321bd53ecd7d1e0edab63c","64de83c4d2bec68ef86094cd","","","","","4189",""," ","key"," ","16.66256972111574","499.90807815695","249.954039078475","instEB2","38","1","","0","0","30","40"
"","psychophysics","103","412206","0.0-103.0","60321bd53ecd7d1e0edab63c","64de83c4d2bec68ef86094cd","","","","","3036",""," ","key"," ","16.66256593406593","499.90807815695","249.954039078475","instEB3","41","1","","0","0","27","45"
"","psychophysics","104","415902","0.0-104.0","60321bd53ecd7d1e0edab63c","64de83c4d2bec68ef86094cd","","","","","3684",""," ","key"," ","16.662570135746407","499.90807815695","249.954039078475","instEB4","24","1","","0","0","40","30"
"","psychophysics","105","417550","0.0-105.0","60321bd53ecd7d1e0edab63c","64de83c4d2bec68ef86094cd","","","","","1646",""," ","key"," ","16.662561224489615","499.90807815695","249.954039078475","inst","","","","","","",""
"","psychophysics","106","419726","0.0-106.0","60321bd53ecd7d1e0edab63c","64de83c4d2bec68ef86094cd","","","","","2173",""," ","key"," ","16.66260465116253","499.90807815695","249.954039078475","eb","30","1","","0","0","36","49"
"","psychophysics","107","422774","0.0-107.0","60321bd53ecd7d1e0edab63c","64de83c4d2bec68ef86094cd","","","","","3042",""," ","key"," ","16.662510989010936","499.90807815695","249.954039078475","eb","21","1","","0","0","37","25"
"","psychophysics","108","424902","0.0-108.0","60321bd53ecd7d1e0edab63c","64de83c4d2bec68ef86094cd","","","","","2121",""," ","key"," ","16.662582677165247","499.90807815695","249.954039078475","eb","21","1","","0","0","30","25"
"","psychophysics","109","428030","0.0-109.0","60321bd53ecd7d1e0edab63c","64de83c4d2bec68ef86094cd","","","","","3126",""," ","key"," ","16.66251871657756","499.90807815695","249.954039078475","eb","39","1","","0","0","51","52"
"","psychophysics","110","430471","0.0-110.0","60321bd53ecd7d1e0edab63c","64de83c4d2bec68ef86094cd","","","","","2413",""," ","key"," ","16.662620689654883","499.90807815695","249.954039078475","eb","26","1","","0","0","35","31"
"","psychophysics","111","432478","0.0-111.0","60321bd53ecd7d1e0edab63c","64de83c4d2bec68ef86094cd","","","","","2002",""," ","key"," ","16.662599999999898","499.90807815695","249.954039078475","eb","26","1","","0","0","24","32"
"","psychophysics","112","435998","0.0-112.0","60321bd53ecd7d1e0edab63c","64de83c4d2bec68ef86094cd","","","","","3517",""," ","key"," ","16.662528571428542","499.90807815695","249.954039078475","eb","39","1","","0","0","36","52"
"","psychophysics","113","438510","0.0-113.0","60321bd53ecd7d1e0edab63c","64de83c4d2bec68ef86094cd","","","","","2506",""," ","key"," ","16.662560000000134","499.90807815695","249.954039078475","eb","35","1","","0","0","54","38"
"","psychophysics","114","441262","0.0-114.0","60321bd53ecd7d1e0edab63c","64de83c4d2bec68ef86094cd","","","","","2731",""," ","key"," ","16.662579268292685","499.90807815695","249.954039078475","eb","25","1","","0","0","49","25"
"","psychophysics","115","443054","0.0-115.0","60321bd53ecd7d1e0edab63c","64de83c4d2bec68ef86094cd","","","","","1789",""," ","key"," ","16.662462264151127","499.90807815695","249.954039078475","eb","25","1","","0","0","32","29"
"","psychophysics","116","445110","0.0-116.0","60321bd53ecd7d1e0edab63c","64de83c4d2bec68ef86094cd","","","","","2050",""," ","key"," ","16.66260162601626","499.90807815695","249.954039078475","eb","32","1","","0","0","39","29"
"","psychophysics","117","447462","0.0-117.0","60321bd53ecd7d1e0edab63c","64de83c4d2bec68ef86094cd","","","","","2348",""," ","key"," ","16.662571428571496","499.90807815695","249.954039078475","eb","31","1","","0","0","26","42"
"","psychophysics","118","449574","0.0-118.0","60321bd53ecd7d1e0edab63c","64de83c4d2bec68ef86094cd","","","","","2082",""," ","key"," ","16.662531746031682","499.90807815695","249.954039078475","eb","43","1","","0","0","50","50"
"","psychophysics","119","451494","0.0-119.0","60321bd53ecd7d1e0edab63c","64de83c4d2bec68ef86094cd","","","","","1917",""," ","key"," ","16.66267543859635","499.90807815695","249.954039078475","eb","23","1","","0","0","33","30"
"","psychophysics","120","453582","0.0-120.0","60321bd53ecd7d1e0edab63c","64de83c4d2bec68ef86094cd","","","","","2072",""," ","key"," ","16.662580645161082","499.90807815695","249.954039078475","eb","25","1","","0","0","24","27"
"","psychophysics","121","455736","0.0-121.0","60321bd53ecd7d1e0edab63c","64de83c4d2bec68ef86094cd","","","","","2147",""," ","key"," ","16.662570312500065","499.90807815695","249.954039078475","inst","","","","","","",""
"","psychophysics","122","462552","0.0-122.0","60321bd53ecd7d1e0edab63c","64de83c4d2bec68ef86094cd","","","","","6811",""," ","key"," ","16.662562347188295","499.90807815695","249.954039078475","instPog0","340","2","","0","0","370","340"
"","psychophysics","123","469055","0.0-123.0","60321bd53ecd7d1e0edab63c","64de83c4d2bec68ef86094cd","","","","","6497",""," ","key"," ","16.662532133676034","499.90807815695","249.954039078475","instPog1","338","2","","0","0","370","340"
"","psychophysics","124","473054","0.0-124.0","60321bd53ecd7d1e0edab63c","64de83c4d2bec68ef86094cd","","","","","3963",""," ","key"," ","19.792993939393835","499.90807815695","249.954039078475","instPog2","316","2","","0","0","340","340"
"","psychophysics","125","474982","0.0-125.0","60321bd53ecd7d1e0edab63c","64de83c4d2bec68ef86094cd","","","","","1915",""," ","key"," ","20.684663793103717","499.90807815695","249.954039078475","inst","","","","","","",""
"","psychophysics","126","479598","0.0-126.0","60321bd53ecd7d1e0edab63c","64de83c4d2bec68ef86094cd","","","","","4614",""," ","key"," ","16.662550724637686","499.90807815695","249.954039078475","pog","292","2","1","0","0","384","331"
"","psychophysics","127","482454","0.0-127.0","60321bd53ecd7d1e0edab63c","64de83c4d2bec68ef86094cd","","","","","2853",""," ","key"," ","16.662523529411857","499.90807815695","249.954039078475","pog","281","2","1","0","0","343","302"
"","psychophysics","128","487022","0.0-128.0","60321bd53ecd7d1e0edab63c","64de83c4d2bec68ef86094cd","","","","","4565",""," ","key"," ","16.662567765567744","499.90807815695","249.954039078475","pog","281","2","1","0","0","389","303"
"","psychophysics","129","490926","0.0-129.0","60321bd53ecd7d1e0edab63c","64de83c4d2bec68ef86094cd","","","","","3893",""," ","key"," ","16.662566523605012","499.90807815695","249.954039078475","pog","310","2","1","0","0","306","336"
"","psychophysics","130","492870","0.0-130.0","60321bd53ecd7d1e0edab63c","64de83c4d2bec68ef86094cd","","","","","1940",""," ","key"," ","16.66242241379323","499.90807815695","249.954039078475","pog","320","2","1","0","0","344","337"
"","psychophysics","131","495630","0.0-131.0","60321bd53ecd7d1e0edab63c","64de83c4d2bec68ef86094cd","","","","","2756",""," ","key"," ","16.662527272727157","499.90807815695","249.954039078475","pog","328","2","1","0","0","376","347"
"","psychophysics","132","498646","0.0-132.0","60321bd53ecd7d1e0edab63c","64de83c4d2bec68ef86094cd","","","","","3014",""," ","key"," ","16.662483333333512","499.90807815695","249.954039078475","pog","312","2","1","0","0","380","321"
"","psychophysics","133","500550","0.0-133.0","60321bd53ecd7d1e0edab63c","64de83c4d2bec68ef86094cd","","","","","1902",""," ","key"," ","16.662619469026968","499.90807815695","249.954039078475","pog","349","2","1","0","0","353","353"
"","psychophysics","134","506671","0.0-134.0","60321bd53ecd7d1e0edab63c","64de83c4d2bec68ef86094cd","","","","","6119",""," ","key"," ","16.662549180327755","499.90807815695","249.954039078475","pog","337","2","1","0","0","293","372"
"","psychophysics","135","508934","0.0-135.0","60321bd53ecd7d1e0edab63c","64de83c4d2bec68ef86094cd","","","","","2258",""," ","key"," ","16.662518518518535","499.90807815695","249.954039078475","pog","336","2","1","0","0","330","366"
"","psychophysics","136","510503","0.0-136.0","60321bd53ecd7d1e0edab63c","64de83c4d2bec68ef86094cd","","","","","1566",""," ","key"," ","16.662591397849297","499.90807815695","249.954039078475","pog","347","2","1","0","0","341","373"
"","psychophysics","137","512489","0.0-137.0","60321bd53ecd7d1e0edab63c","64de83c4d2bec68ef86094cd","","","","","1963",""," ","key"," ","16.66248717948717","499.90807815695","249.954039078475","pog","299","2","1","0","0","333","309"
"","psychophysics","138","514302","0.0-138.0","60321bd53ecd7d1e0edab63c","64de83c4d2bec68ef86094cd","","","","","1798",""," ","key"," ","16.662596330275214","499.90807815695","249.954039078475","pog","308","2","1","0","0","288","365"
"","psychophysics","139","516134","0.0-139.0","60321bd53ecd7d1e0edab63c","64de83c4d2bec68ef86094cd","","","","","1826",""," ","key"," ","16.662568807339195","499.90807815695","249.954039078475","pog","327","2","1","0","0","321","369"
"","psychophysics","140","518903","0.0-140.0","60321bd53ecd7d1e0edab63c","64de83c4d2bec68ef86094cd","","","","","2763",""," ","key"," ","16.662515151515166","499.90807815695","249.954039078475","pog","283","2","1","0","0","285","314"
"","psychophysics","141","520471","0.0-141.0","60321bd53ecd7d1e0edab63c","64de83c4d2bec68ef86094cd","","","","","1564",""," ","key"," ","16.662574468085175","499.90807815695","249.954039078475","inst","","","","","","",""
"","psychophysics","142","527630","0.0-142.0","60321bd53ecd7d1e0edab63c","64de83c4d2bec68ef86094cd","","","","","7157",""," ","key"," ","16.66252102803754","499.90807815695","249.954039078475","instBr3","-5","1","","0","0","40","300"
"","psychophysics","143","528959","0.0-143.0","60321bd53ecd7d1e0edab63c","64de83c4d2bec68ef86094cd","","","","","1327",""," ","key"," ","16.662620253165407","499.90807815695","249.954039078475","inst","","","","","","",""
"","psychophysics","144","532270","0.0-144.0","60321bd53ecd7d1e0edab63c","64de83c4d2bec68ef86094cd","","","","","3282",""," ","key"," ","16.66259595959546","499.90807815695","249.954039078475","br","-12","1","1","27","-3","-28","282"
"","psychophysics","145","534438","0.0-145.0","60321bd53ecd7d1e0edab63c","64de83c4d2bec68ef86094cd","","","","","2165",""," ","key"," ","16.66251937984471","499.90807815695","249.954039078475","br","-22","1","1","8","-8","-28","247"
"","psychophysics","146","536454","0.0-146.0","60321bd53ecd7d1e0edab63c","64de83c4d2bec68ef86094cd","","","","","1993",""," ","key"," ","16.662583333333412","499.90807815695","249.954039078475","br","-22","1","1","-7","26","-26","293"
"","psychophysics","147","539582","0.0-147.0","60321bd53ecd7d1e0edab63c","64de83c4d2bec68ef86094cd","","","","","3126",""," ","key"," ","16.662545454545185","499.90807815695","249.954039078475","br","-19","1","1","-29","5","-15","204"
"","psychophysics","148","542265","0.0-148.0","60321bd53ecd7d1e0edab63c","64de83c4d2bec68ef86094cd","","","","","2679",""," ","key"," ","16.662534591194927","499.90807815695","249.954039078475","br","-1","1","1","4","10","4","275"
"","psychophysics","149","543966","0.0-149.0","60321bd53ecd7d1e0edab63c","64de83c4d2bec68ef86094cd","","","","","1696",""," ","key"," ","16.662431372548728","499.90807815695","249.954039078475","br","-5","1","1","-3","15","-3","249"
"","psychophysics","150","545574","0.0-150.0","60321bd53ecd7d1e0edab63c","64de83c4d2bec68ef86094cd","","","","","1595",""," ","key"," ","16.662642105263167","499.90807815695","249.954039078475","br","-25","1","1","-29","13","-29","264"
"","psychophysics","151","547350","0.0-151.0","60321bd53ecd7d1e0edab63c","64de83c4d2bec68ef86094cd","","","","","1772",""," ","key"," ","16.662452830189515","499.90807815695","249.954039078475","br","-21","1","1","-27","-20","-22","200"
"","psychophysics","152","550191","0.0-152.0","60321bd53ecd7d1e0edab63c","64de83c4d2bec68ef86094cd","","","","","2826",""," ","key"," ","16.662597633136393","499.90807815695","249.954039078475","br","-5","1","1","21","-28","24","264"
"","psychophysics","153","553366","0.0-153.0","60321bd53ecd7d1e0edab63c","64de83c4d2bec68ef86094cd","","","","","3169",""," ","key"," ","16.66251052631568","499.90807815695","249.954039078475","br","-3","1","1","-8","-4","10","207"
"","psychophysics","154","555430","0.0-154.0","60321bd53ecd7d1e0edab63c","64de83c4d2bec68ef86094cd","","","","","2047",""," ","key"," ","16.662609756097947","499.90807815695","249.954039078475","br","-10","1","1","-16","5","4","268"
"","psychophysics","155","557150","0.0-155.0","60321bd53ecd7d1e0edab63c","64de83c4d2bec68ef86094cd","","","","","1717",""," ","key"," ","16.662549019607432","499.90807815695","249.954039078475","br","-12","1","1","-8","-21","-5","229"
"","psychophysics","156","560055","0.0-156.0","60321bd53ecd7d1e0edab63c","64de83c4d2bec68ef86094cd","","","","","2887",""," ","key"," ","16.66254913294755","499.90807815695","249.954039078475","br","-16","1","1","5","19","-27","231"
"","psychophysics","157","563991","0.0-157.0","60321bd53ecd7d1e0edab63c","64de83c4d2bec68ef86094cd","","","","","3934",""," ","key"," ","16.662527659574543","499.90807815695","249.954039078475","br","-6","1","1","-22","24","22","213"
"","psychophysics","158","566319","0.0-158.0","60321bd53ecd7d1e0edab63c","64de83c4d2bec68ef86094cd","","","","","2312",""," ","key"," ","16.662575539568333","499.90807815695","249.954039078475","br","-2","1","1","-16","-19","20","216"
"","psychophysics","159","568222","0.0-159.0","60321bd53ecd7d1e0edab63c","64de83c4d2bec68ef86094cd","","","","","1901",""," ","key"," ","16.66247787610607","499.90807815695","249.954039078475","inst","","","","","","",""
"","psychophysics","160","574639","0.0-160.0","60321bd53ecd7d1e0edab63c","64de83c4d2bec68ef86094cd","","","","","6411",""," ","key"," ","16.662585937499898","499.90807815695","249.954039078475","instPz1","48","1","","","","25","50"
"","psychophysics","161","577446","0.0-161.0","60321bd53ecd7d1e0edab63c","64de83c4d2bec68ef86094cd","","","","","2802",""," ","key"," ","16.662517857142596","499.90807815695","249.954039078475","instPz2","27","1","","","","35","20"
"","psychophysics","162","585230","0.0-162.0","60321bd53ecd7d1e0edab63c","64de83c4d2bec68ef86094cd","","","","","7774",""," ","key"," ","16.662562231759566","499.90807815695","249.954039078475","instPz3","111","1","","","","100","30"
"","psychophysics","163","589006","0.0-163.0","60321bd53ecd7d1e0edab63c","64de83c4d2bec68ef86094cd","","","","","3773",""," ","key"," ","16.662535398230123","499.90807815695","249.954039078475","instPz4","108","1","","","","100","30"
"","psychophysics","164","590014","0.0-164.0","60321bd53ecd7d1e0edab63c","64de83c4d2bec68ef86094cd","","","","","976",""," ","key"," ","16.662661016948316","499.90807815695","249.954039078475","inst","","","","","","",""
"","psychophysics","165","596719","0.0-165.0","60321bd53ecd7d1e0edab63c","64de83c4d2bec68ef86094cd","","","","","6701",""," ","key"," ","16.66254114713189","499.90807815695","249.954039078475","pz","64","1","1","","","30","53"
"","psychophysics","166","600726","0.0-166.0","60321bd53ecd7d1e0edab63c","64de83c4d2bec68ef86094cd","","","","","4002",""," ","key"," ","16.6625708333333","499.90807815695","249.954039078475","pz","76","1","1","","","22","52"
"","psychophysics","167","604870","0.0-167.0","60321bd53ecd7d1e0edab63c","64de83c4d2bec68ef86094cd","","","","","4141",""," ","key"," ","16.66252016129053","499.90807815695","249.954039078475","pz","103","1","1","","","45","58"
"","psychophysics","168","607742","0.0-168.0","60321bd53ecd7d1e0edab63c","64de83c4d2bec68ef86094cd","","","","","2852",""," ","key"," ","16.662602339181586","499.90807815695","249.954039078475","pz","60","1","1","","","28","29"
"","psychophysics","169","609815","0.0-169.0","60321bd53ecd7d1e0edab63c","64de83c4d2bec68ef86094cd","","","","","2070",""," ","key"," ","16.662459677419506","499.90807815695","249.954039078475","pz","74","1","1","","","55","39"
"","psychophysics","170","613470","0.0-170.0","60321bd53ecd7d1e0edab63c","64de83c4d2bec68ef86094cd","","","","","3622",""," ","key"," ","16.662527522935697","499.90807815695","249.954039078475","pz","103","1","1","","","57","60"
"","psychophysics","171","616903","0.0-171.0","60321bd53ecd7d1e0edab63c","64de83c4d2bec68ef86094cd","","","","","3430",""," ","key"," ","16.662556097561083","499.90807815695","249.954039078475","pz","75","1","1","","","29","39"
"","psychophysics","172","621134","0.0-172.0","60321bd53ecd7d1e0edab63c","64de83c4d2bec68ef86094cd","","","","","4194",""," ","key"," ","16.7287063492062","499.90807815695","249.954039078475","pz","91","1","1","","","39","59"
"","psychophysics","173","622982","0.0-173.0","60321bd53ecd7d1e0edab63c","64de83c4d2bec68ef86094cd","","","","","1845",""," ","key"," ","16.662399999999483","499.90807815695","249.954039078475","pz","46","1","1","","","43","23"
"","psychophysics","174","625711","0.0-174.0","60321bd53ecd7d1e0edab63c","64de83c4d2bec68ef86094cd","","","","","2696",""," ","key"," ","16.662576687116566","499.90807815695","249.954039078475","pz","66","1","1","","","51","42"
"","psychophysics","175","630839","0.0-175.0","60321bd53ecd7d1e0edab63c","64de83c4d2bec68ef86094cd","","","","","5124",""," ","key"," ","16.662529411764506","499.90807815695","249.954039078475","pz","80","1","1","","","20","50"
"","psychophysics","176","634118","0.0-176.0","60321bd53ecd7d1e0edab63c","64de83c4d2bec68ef86094cd","","","","","3270",""," ","key"," ","16.662566326530673","499.90807815695","249.954039078475","pz","77","1","1","","","34","40"
"","psychophysics","177","636470","0.0-177.0","60321bd53ecd7d1e0edab63c","64de83c4d2bec68ef86094cd","","","","","2349",""," ","key"," ","16.66251428571413","499.90807815695","249.954039078475","pz","41","1","1","","","37","22"
"","psychophysics","178","639206","0.0-178.0","60321bd53ecd7d1e0edab63c","64de83c4d2bec68ef86094cd","","","","","2719",""," ","key"," ","16.662576687116566","499.90807815695","249.954039078475","pz","74","1","1","","","44","45"
"","psychophysics","179","643167","0.0-179.0","60321bd53ecd7d1e0edab63c","64de83c4d2bec68ef86094cd","","","","","3956",""," ","key"," ","16.662523206750734","499.90807815695","249.954039078475","pz","85","1","1","","","31","51"
"","psychophysics","180","644742","0.0-180.0","60321bd53ecd7d1e0edab63c","64de83c4d2bec68ef86094cd","","","","","1573",""," ","key"," ","16.66254255319128","499.90807815695","249.954039078475","inst","","","","","","",""
"","psychophysics","181","651846","0.0-181.0","60321bd53ecd7d1e0edab63c","64de83c4d2bec68ef86094cd","","","","","7102",""," ","key"," ","16.66256235294126","499.90807815695","249.954039078475","instZol1","-0.4","","","0","0","-1.3",""
"","psychophysics","182","658622","0.0-182.0","60321bd53ecd7d1e0edab63c","64de83c4d2bec68ef86094cd","","","","","6773",""," ","key"," ","16.662532019704464","499.90807815695","249.954039078475","instZol2","0.7000000000000006","1","","0","0","2",""
"","psychophysics","183","659678","0.0-183.0","60321bd53ecd7d1e0edab63c","64de83c4d2bec68ef86094cd","","","","","1054",""," ","key"," ","16.662596774193638","499.90807815695","249.954039078475","inst","","","","","","",""
"","psychophysics","184","663599","0.0-184.0","60321bd53ecd7d1e0edab63c","64de83c4d2bec68ef86094cd","","","","","3896",""," ","key"," ","16.662542735042873","499.90807815695","249.954039078475","zol","0.9999999999999999","1","1","26","17","0.7",""
"","psychophysics","185","667294","0.0-185.0","60321bd53ecd7d1e0edab63c","64de83c4d2bec68ef86094cd","","","","","3690",""," ","key"," ","16.66248416289586","499.90807815695","249.954039078475","zol","1.6700000000000004","1","1","-20","26","0.53",""
"","psychophysics","186","669687","0.0-186.0","60321bd53ecd7d1e0edab63c","64de83c4d2bec68ef86094cd","","","","","2374",""," ","key"," ","16.662587412587413","499.90807815695","249.954039078475","zol","1.6500000000000004","1","1","-12","0","-0.25",""
"","psychophysics","187","671550","0.0-187.0","60321bd53ecd7d1e0edab63c","64de83c4d2bec68ef86094cd","","","","","1860",""," ","key"," ","16.662639639639245","499.90807815695","249.954039078475","zol","1.19","1","1","23","19","-0.39",""
"","psychophysics","188","673663","0.0-188.0","60321bd53ecd7d1e0edab63c","64de83c4d2bec68ef86094cd","","","","","2083",""," ","key"," ","16.662487999999897","499.90807815695","249.954039078475","zol","1.4900000000000002","1","1","-16","6","-0.09",""
"","psychophysics","189","676134","0.0-189.0","60321bd53ecd7d1e0edab63c","64de83c4d2bec68ef86094cd","","","","","2464",""," ","key"," ","16.662608108108053","499.90807815695","249.954039078475","zol","2.0100000000000007","1","1","-26","6","0.59",""
"","psychophysics","190","678279","0.0-190.0","60321bd53ecd7d1e0edab63c","64de83c4d2bec68ef86094cd","","","","","2141",""," ","key"," ","16.66240944881927","499.90807815695","249.954039078475","zol","1.4600000000000004","1","1","25","-16","0.44",""
"","psychophysics","191","681943","0.0-191.0","60321bd53ecd7d1e0edab63c","64de83c4d2bec68ef86094cd","","","","","3659",""," ","key"," ","16.66251598173523","499.90807815695","249.954039078475","zol","2.020000000000001","1","1","-12","0","0.38",""
"","psychophysics","192","684159","0.0-192.0","60321bd53ecd7d1e0edab63c","64de83c4d2bec68ef86094cd","","","","","2191",""," ","key"," ","16.66261363636339","499.90807815695","249.954039078475","zol","2.7900000000000014","1","1","5","-17","-0.49",""
"","psychophysics","193","686590","0.0-193.0","60321bd53ecd7d1e0edab63c","64de83c4d2bec68ef86094cd","","","","","2424",""," ","key"," ","16.662510344827677","499.90807815695","249.954039078475","zol","2.1100000000000008","1","1","13","16","0.69",""
"","psychophysics","194","688831","0.0-194.0","60321bd53ecd7d1e0edab63c","64de83c4d2bec68ef86094cd","","","","","2237",""," ","key"," ","16.662499999999305","499.90807815695","249.954039078475","zol","2.400000000000001","1","1","-26","-27","-0.3",""
"","psychophysics","195","691334","0.0-195.0","60321bd53ecd7d1e0edab63c","64de83c4d2bec68ef86094cd","","","","","2500",""," ","key"," ","16.662590604026228","499.90807815695","249.954039078475","zol","2.270000000000001","1","1","-15","-8","-0.67",""
"","psychophysics","196","694086","0.0-196.0","60321bd53ecd7d1e0edab63c","64de83c4d2bec68ef86094cd","","","","","2726",""," ","key"," ","16.662573170731775","499.90807815695","249.954039078475","zol","2.370000000000001","1","1","-9","-11","0.63",""
"","psychophysics","197","696598","0.0-197.0","60321bd53ecd7d1e0edab63c","64de83c4d2bec68ef86094cd","","","","","2508",""," ","key"," ","16.662533333333364","499.90807815695","249.954039078475","zol","1.7900000000000005","1","1","26","-29","0.61",""
"","psychophysics","198","699494","0.0-198.0","60321bd53ecd7d1e0edab63c","64de83c4d2bec68ef86094cd","","","","","2891",""," ","key"," ","16.662537572254706","499.90807815695","249.954039078475","zol","2.600000000000001","1","1","-21","19","0.6",""
"","psychophysics","199","701014","0.0-199.0","60321bd53ecd7d1e0edab63c","64de83c4d2bec68ef86094cd","","","","","1518",""," ","key"," ","16.662555555555606","499.90807815695","249.954039078475","inst","","","","","","",""
"","psychophysics","200","704694","0.0-200.0","60321bd53ecd7d1e0edab63c","64de83c4d2bec68ef86094cd","","","","","3677",""," ","key"," ","16.66257727272724","499.90807815695","249.954039078475","instEB1","38","2","","0","0","30","40"
"","psychophysics","201","707560","0.0-201.0","60321bd53ecd7d1e0edab63c","64de83c4d2bec68ef86094cd","","","","","2864",""," ","key"," ","16.66248538011715","499.90807815695","249.954039078475","instEB2","35","2","","0","0","40","30"
"","psychophysics","202","711918","0.0-202.0","60321bd53ecd7d1e0edab63c","64de83c4d2bec68ef86094cd","","","","","4355",""," ","key"," ","16.66250769230761","499.90807815695","249.954039078475","instEB3","40","2","","0","0","45","27"
"","psychophysics","203","714615","0.0-203.0","60321bd53ecd7d1e0edab63c","64de83c4d2bec68ef86094cd","","","","","2685",""," ","key"," ","16.66261490683219","499.90807815695","249.954039078475","instEB4","45","2","","0","0","30","40"
"","psychophysics","204","715470","0.0-204.0","60321bd53ecd7d1e0edab63c","64de83c4d2bec68ef86094cd","","","","","834",""," ","key"," ","16.662480000001377","499.90807815695","249.954039078475","inst","","","","","","",""
"","psychophysics","205","718806","0.0-205.0","60321bd53ecd7d1e0edab63c","64de83c4d2bec68ef86094cd","","","","","3329",""," ","key"," ","16.66255999999994","499.90807815695","249.954039078475","eb","46","2","","0","0","28","40"
"","psychophysics","206","720855","0.0-206.0","60321bd53ecd7d1e0edab63c","64de83c4d2bec68ef86094cd","","","","","2047",""," ","key"," ","16.662500000000573","499.90807815695","249.954039078475","eb","45","2","","0","0","53","28"
"","psychophysics","207","722839","0.0-207.0","60321bd53ecd7d1e0edab63c","64de83c4d2bec68ef86094cd","","","","","1981",""," ","key"," ","16.662610169491234","499.90807815695","249.954039078475","eb","46","2","","0","0","40","46"
"","psychophysics","208","725142","0.0-208.0","60321bd53ecd7d1e0edab63c","64de83c4d2bec68ef86094cd","","","","","2300",""," ","key"," ","16.662532846715273","499.90807815695","249.954039078475","eb","45","2","","0","0","26","39"
"","psychophysics","209","726726","0.0-209.0","60321bd53ecd7d1e0edab63c","64de83c4d2bec68ef86094cd","","","","","1565",""," ","key"," ","16.66248936170311","499.90807815695","249.954039078475","eb","32","2","","0","0","30","24"
"","psychophysics","210","729182","0.0-210.0","60321bd53ecd7d1e0edab63c","64de83c4d2bec68ef86094cd","","","","","2453",""," ","key"," ","16.662630136985943","499.90807815695","249.954039078475","eb","44","2","","0","0","46","37"
"","psychophysics","211","731334","0.0-211.0","60321bd53ecd7d1e0edab63c","64de83c4d2bec68ef86094cd","","","","","2145",""," ","key"," ","16.66248437499962","499.90807815695","249.954039078475","eb","52","2","","0","0","48","51"
"","psychophysics","212","733494","0.0-212.0","60321bd53ecd7d1e0edab63c","64de83c4d2bec68ef86094cd","","","","","2153",""," ","key"," ","16.66256589147302","499.90807815695","249.954039078475","eb","49","2","","0","0","30","47"
"","psychophysics","213","735686","0.0-213.0","60321bd53ecd7d1e0edab63c","64de83c4d2bec68ef86094cd","","","","","2190",""," ","key"," ","16.662603053434943","499.90807815695","249.954039078475","eb","41","2","","0","0","29","37"
"","psychophysics","214","737575","0.0-214.0","60321bd53ecd7d1e0edab63c","64de83c4d2bec68ef86094cd","","","","","1885",""," ","key"," ","16.81269369369398","499.90807815695","249.954039078475","eb","38","2","","0","0","46","25"
"","psychophysics","215","740342","0.0-215.0","60321bd53ecd7d1e0edab63c","64de83c4d2bec68ef86094cd","","","","","2744",""," ","key"," ","16.662509090909168","499.90807815695","249.954039078475","eb","53","2","","0","0","29","49"
"","psychophysics","216","742591","0.0-216.0","60321bd53ecd7d1e0edab63c","64de83c4d2bec68ef86094cd","","","","","2246",""," ","key"," ","16.66262686567176","499.90807815695","249.954039078475","eb","27","2","","0","0","33","24"
"","psychophysics","217","744543","0.0-217.0","60321bd53ecd7d1e0edab63c","64de83c4d2bec68ef86094cd","","","","","1928",""," ","key"," ","16.66256034482724","499.90807815695","249.954039078475","eb","34","2","","0","0","31","37"
"","psychophysics","218","746967","0.0-218.0","60321bd53ecd7d1e0edab63c","64de83c4d2bec68ef86094cd","","","","","2421",""," ","key"," ","16.662606896551583","499.90807815695","249.954039078475","eb","43","2","","0","0","47","32"
"","psychophysics","219","748816","0.0-219.0","60321bd53ecd7d1e0edab63c","64de83c4d2bec68ef86094cd","","","","","1846",""," ","key"," ","16.662481818182012","499.90807815695","249.954039078475","eb","41","2","","0","0","37","41"
