"success","trial_type","trial_index","time_elapsed","internal_node_id","pid","sid","timeout","failed_images","failed_audio","failed_video","rt","stimulus","response","response_type","key_press","avg_frame_time","center_x","center_y","task","resp","start","parA","version","block","jitterX","jitterY"
"true","fullscreen","0","2238","0.0-0.0","5c745589be30fc0014e83dc2","64e50c2bf8b1ded12752c0c7","","","","","","","","","","","","","","","","","","","",""
"true","preload","1","2367","0.0-1.0","5c745589be30fc0014e83dc2","64e50c2bf8b1ded12752c0c7","false","[]","[]","[]","","","","","","","","","","","","","","","",""
"","html-button-response","2","3388","0.0-2.0","5c745589be30fc0014e83dc2","64e50c2bf8b1ded12752c0c7","","","","","1020","Please Make Sure Your Audio Is On.","0","","","","","","","","","","","","",""
"","psychophysics","3","10697","0.0-3.0","5c745589be30fc0014e83dc2","64e50c2bf8b1ded12752c0c7","","","","","7305",""," ","key"," ","6.9577800000000005","1280","250","","","","","","","",""
"","psychophysics","4","16457","0.0-4.0","5c745589be30fc0014e83dc2","64e50c2bf8b1ded12752c0c7","","","","","5756",""," ","key"," ","6.944769601930038","500","250","inst","","","","","","",""
"","psychophysics","5","19817","0.0-5.0","5c745589be30fc0014e83dc2","64e50c2bf8b1ded12752c0c7","","","","","3359",""," ","key"," ","6.944739130434785","500","250","sample0","","","","","","",""
"","psychophysics","6","22153","0.0-6.0","5c745589be30fc0014e83dc2","64e50c2bf8b1ded12752c0c7","","","","","2335",""," ","key"," ","6.94456119402985","500","250","sample1","","","","","","",""
"","psychophysics","7","33202","0.0-7.0","5c745589be30fc0014e83dc2","64e50c2bf8b1ded12752c0c7","","","","","11047",""," ","key"," ","6.94485597484277","500","250","sample2","102","","","","","",""
"","psychophysics","8","37466","0.0-8.0","5c745589be30fc0014e83dc2","64e50c2bf8b1ded12752c0c7","","","","","4263",""," ","key"," ","6.944694942903749","500","250","sample3","102","","","","","",""
"","psychophysics","9","42138","0.0-9.0","5c745589be30fc0014e83dc2","64e50c2bf8b1ded12752c0c7","","","","","4671",""," ","key"," ","6.944361607142864","500","250","sample4","100","","","","","",""
"","psychophysics","10","47002","0.0-10.0","5c745589be30fc0014e83dc2","64e50c2bf8b1ded12752c0c7","","","","","4863",""," ","key"," ","6.944402002861223","500","250","sample5","","","","","","",""
"","psychophysics","11","53378","0.0-11.0","5c745589be30fc0014e83dc2","64e50c2bf8b1ded12752c0c7","","","","","6375",""," ","key"," ","6.944677208287896","500","250","sample6","500","","","","","",""
"","psychophysics","12","56739","0.0-12.0","5c745589be30fc0014e83dc2","64e50c2bf8b1ded12752c0c7","","","","","3358",""," ","key"," ","6.944737060041402","500","250","inst","","","","","","",""
"","psychophysics","13","59971","0.0-13.0","5c745589be30fc0014e83dc2","64e50c2bf8b1ded12752c0c7","","","","","3231",""," ","key"," ","6.94472258064515","500","250","inst","","","","","","",""
"","psychophysics","14","62371","0.0-14.0","5c745589be30fc0014e83dc2","64e50c2bf8b1ded12752c0c7","","","","","2399",""," ","key"," ","6.944825581395361","500","250","inst","","","","","","",""
"","psychophysics","15","63811","0.0-15.0","5c745589be30fc0014e83dc2","64e50c2bf8b1ded12752c0c7","","","","","1439",""," ","key"," ","6.944227053140105","500","250","inst","","","","","","",""
"","psychophysics","16","64739","0.0-16.0","5c745589be30fc0014e83dc2","64e50c2bf8b1ded12752c0c7","","","","","927",""," ","key"," ","6.944015151515211","500","250","inst","","","","","","",""
"","psychophysics","17","67299","0.0-17.0","5c745589be30fc0014e83dc2","64e50c2bf8b1ded12752c0c7","","","","","2559",""," ","key"," ","6.94441032608697","500","250","instPzPre","50","50","50","0","","",""
"","psychophysics","18","69507","0.0-18.0","5c745589be30fc0014e83dc2","64e50c2bf8b1ded12752c0c7","","","","","2207",""," ","key"," ","6.944498422712942","500","250","instPz0","50","50","50","2","","",""
"","psychophysics","19","76683","0.0-19.0","5c745589be30fc0014e83dc2","64e50c2bf8b1ded12752c0c7","","","","","7175",""," ","key"," ","6.944361434108519","500","250","instPz1","46","25","50","2","","",""
"","psychophysics","20","82219","0.0-20.0","5c745589be30fc0014e83dc2","64e50c2bf8b1ded12752c0c7","","","","","5535",""," ","key"," ","6.9444685929648315","500","250","instPz2","33","20","35","2","","",""
"","psychophysics","21","93075","0.0-21.0","5c745589be30fc0014e83dc2","64e50c2bf8b1ded12752c0c7","","","","","10854",""," ","key"," ","6.971281952472699","500","250","instPz3","90","30","100","2","","",""
"","psychophysics","22","98580","0.0-22.0","5c745589be30fc0014e83dc2","64e50c2bf8b1ded12752c0c7","","","","","5503",""," ","key"," ","6.944542351453858","500","250","instPz4","93","30","100","2","","",""
"","psychophysics","23","100340","0.0-23.0","5c745589be30fc0014e83dc2","64e50c2bf8b1ded12752c0c7","","","","","1759",""," ","key"," ","6.944588932806323","500","250","inst","","","","","","",""
"","psychophysics","24","104444","0.0-24.0","5c745589be30fc0014e83dc2","64e50c2bf8b1ded12752c0c7","","","","","4102",""," ","key"," ","6.9448135593220135","500","250","pz","37","44","44","2","0","",""
"","psychophysics","25","107900","0.0-25.0","5c745589be30fc0014e83dc2","64e50c2bf8b1ded12752c0c7","","","","","3455",""," ","key"," ","6.9444133064516205","500","250","pz","24","21","25","2","0","",""
"","psychophysics","26","111292","0.0-26.0","5c745589be30fc0014e83dc2","64e50c2bf8b1ded12752c0c7","","","","","3391",""," ","key"," ","6.94451229508198","500","250","pz","45","30","50","2","0","",""
"","psychophysics","27","114492","0.0-27.0","5c745589be30fc0014e83dc2","64e50c2bf8b1ded12752c0c7","","","","","3199",""," ","key"," ","6.944534782608705","500","250","pz","48","57","54","2","0","",""
"","psychophysics","28","118908","0.0-28.0","5c745589be30fc0014e83dc2","64e50c2bf8b1ded12752c0c7","","","","","4415",""," ","key"," ","6.944503937007866","500","250","pz","42","29","52","2","0","",""
"","psychophysics","29","125669","0.0-29.0","5c745589be30fc0014e83dc2","64e50c2bf8b1ded12752c0c7","","","","","6759",""," ","key"," ","6.944487654320989","500","250","pz","37","58","39","2","0","",""
"","psychophysics","30","128517","0.0-30.0","5c745589be30fc0014e83dc2","64e50c2bf8b1ded12752c0c7","","","","","2847",""," ","key"," ","6.944493887530586","500","250","pz","46","52","54","2","0","",""
"","psychophysics","31","133317","0.0-31.0","5c745589be30fc0014e83dc2","64e50c2bf8b1ded12752c0c7","","","","","4799",""," ","key"," ","6.944737681159429","500","250","pz","53","37","59","2","0","",""
"","psychophysics","32","135173","0.0-32.0","5c745589be30fc0014e83dc2","64e50c2bf8b1ded12752c0c7","","","","","1854",""," ","key"," ","6.944531835206001","500","250","pz","35","35","43","2","0","",""
"","psychophysics","33","139917","0.0-33.0","5c745589be30fc0014e83dc2","64e50c2bf8b1ded12752c0c7","","","","","4743",""," ","key"," ","6.944539589442825","500","250","pz","44","25","56","2","0","",""
"","psychophysics","34","144461","0.0-34.0","5c745589be30fc0014e83dc2","64e50c2bf8b1ded12752c0c7","","","","","4543",""," ","key"," ","6.944526799387417","500","250","pz","46","40","56","2","0","",""
"","psychophysics","35","149485","0.0-35.0","5c745589be30fc0014e83dc2","64e50c2bf8b1ded12752c0c7","","","","","5023",""," ","key"," ","6.944611341632085","500","250","pz","22","48","27","2","0","",""
"","psychophysics","36","152238","0.0-36.0","5c745589be30fc0014e83dc2","64e50c2bf8b1ded12752c0c7","","","","","2751",""," ","key"," ","6.944830379746869","500","250","pz","31","26","36","2","0","",""
"","psychophysics","37","157718","0.0-37.0","5c745589be30fc0014e83dc2","64e50c2bf8b1ded12752c0c7","","","","","5479",""," ","key"," ","6.944472081218282","500","250","pz","30","21","40","2","0","",""
"","psychophysics","38","163510","0.0-38.0","5c745589be30fc0014e83dc2","64e50c2bf8b1ded12752c0c7","","","","","5791",""," ","key"," ","6.944537815126071","500","250","pz","21","54","24","2","0","",""
"","psychophysics","39","167414","0.0-39.0","5c745589be30fc0014e83dc2","64e50c2bf8b1ded12752c0c7","","","","","3903",""," ","key"," ","6.94614795008916","500","250","inst","","","","","","",""
"","psychophysics","40","170582","0.0-40.0","5c745589be30fc0014e83dc2","64e50c2bf8b1ded12752c0c7","","","","","3167",""," ","key"," ","6.944453947368426","500","250","instZol0","0","0","","","","0","0"
"","psychophysics","41","176990","0.0-41.0","5c745589be30fc0014e83dc2","64e50c2bf8b1ded12752c0c7","","","","","6407",""," ","key"," ","6.944523344191084","500","250","instZol1","0.10000000000000003","-1.3","","","","0","0"
"","psychophysics","42","187263","0.0-42.0","5c745589be30fc0014e83dc2","64e50c2bf8b1ded12752c0c7","","","","","10270",""," ","key"," ","6.944532792427321","500","250","instZol2","-1.2999999999999994","2","","2","","0","0"
"","psychophysics","43","188607","0.0-43.0","5c745589be30fc0014e83dc2","64e50c2bf8b1ded12752c0c7","","","","","1343",""," ","key"," ","6.9436145833333285","500","250","inst","","","","","","",""
"","psychophysics","44","193855","0.0-44.0","5c745589be30fc0014e83dc2","64e50c2bf8b1ded12752c0c7","","","","","5246",""," ","key"," ","6.944498013245059","500","250","zol","-1.4900000000000002","0.49","","2","0","19","30"
"","psychophysics","45","197383","0.0-45.0","5c745589be30fc0014e83dc2","64e50c2bf8b1ded12752c0c7","","","","","3526",""," ","key"," ","6.944558185404346","500","250","zol","-0.84","-0.46","","2","0","-27","21"
"","psychophysics","46","203143","0.0-46.0","5c745589be30fc0014e83dc2","64e50c2bf8b1ded12752c0c7","","","","","5758",""," ","key"," ","6.944625603864727","500","250","zol","-1.5900000000000003","0.09","","2","0","-12","-24"
"","psychophysics","47","208263","0.0-47.0","5c745589be30fc0014e83dc2","64e50c2bf8b1ded12752c0c7","","","","","5118",""," ","key"," ","6.9444830393487145","500","250","zol","-1.34","0.24","","2","0","-19","-17"
"","psychophysics","48","216267","0.0-48.0","5c745589be30fc0014e83dc2","64e50c2bf8b1ded12752c0c7","","","","","null","","null","key","null","6.944658557775844","500","250","zol","-0.7300000000000001","0.73","","2","0","2","25"
"","psychophysics","49","221872","0.0-49.0","5c745589be30fc0014e83dc2","64e50c2bf8b1ded12752c0c7","","","","","5603",""," ","key"," ","6.944488833746864","500","250","zol","-0.53","0.33","","2","0","24","-12"
"","psychophysics","50","227696","0.0-50.0","5c745589be30fc0014e83dc2","64e50c2bf8b1ded12752c0c7","","","","","5821",""," ","key"," ","6.944743436754185","500","250","zol","-1.3300000000000003","0.23","","2","0","30","16"
"","psychophysics","51","231568","0.0-51.0","5c745589be30fc0014e83dc2","64e50c2bf8b1ded12752c0c7","","","","","3870",""," ","key"," ","6.944769784172638","500","250","zol","-0.7099999999999999","0.41","","2","0","-29","-30"
"","psychophysics","52","235568","0.0-52.0","5c745589be30fc0014e83dc2","64e50c2bf8b1ded12752c0c7","","","","","3998",""," ","key"," ","6.944777391304353","500","250","zol","-0.21000000000000005","0.01","","2","0","18","-30"
"","psychophysics","53","243289","0.0-53.0","5c745589be30fc0014e83dc2","64e50c2bf8b1ded12752c0c7","","","","","7718",""," ","key"," ","6.944658865886566","500","250","zol","-0.8699999999999999","-0.03","","2","0","1","-16"
"","psychophysics","54","249689","0.0-54.0","5c745589be30fc0014e83dc2","64e50c2bf8b1ded12752c0c7","","","","","6398",""," ","key"," ","6.944501628664494","500","250","zol","-1.3500000000000003","0.55","","2","0","-16","2"
"","psychophysics","55","255257","0.0-55.0","5c745589be30fc0014e83dc2","64e50c2bf8b1ded12752c0c7","","","","","5567",""," ","key"," ","6.94441073657931","500","250","zol","-0.9599999999999999","-0.74","","2","0","-15","26"
"","psychophysics","56","258297","0.0-56.0","5c745589be30fc0014e83dc2","64e50c2bf8b1ded12752c0c7","","","","","3038",""," ","key"," ","6.94451146788991","500","250","zol","-0.86","-0.44","","2","0","-6","-14"
"","psychophysics","57","264193","0.0-57.0","5c745589be30fc0014e83dc2","64e50c2bf8b1ded12752c0c7","","","","","5894",""," ","key"," ","6.944659198113203","500","250","zol","-0.71","0.31","","2","0","19","21"
"","psychophysics","58","269889","0.0-58.0","5c745589be30fc0014e83dc2","64e50c2bf8b1ded12752c0c7","","","","","5694",""," ","key"," ","6.944693902438995","500","250","zol","0.28","-0.38","","2","0","-22","-25"
"","psychophysics","59","270593","0.0-59.0","5c745589be30fc0014e83dc2","64e50c2bf8b1ded12752c0c7","","","","","703",""," ","key"," ","6.935080000000307","500","250","inst","","","","","","",""
"","psychophysics","60","272609","0.0-60.0","5c745589be30fc0014e83dc2","64e50c2bf8b1ded12752c0c7","","","","","2015",""," ","key"," ","6.944626297577765","500","250","instEB0","40","40","40","2","","0","0"
"","psychophysics","61","278146","0.0-61.0","5c745589be30fc0014e83dc2","64e50c2bf8b1ded12752c0c7","","","","","5535",""," ","key"," ","6.944523212045137","500","250","instEB1","41","30","40","2","","0","0"
"","psychophysics","62","283650","0.0-62.0","5c745589be30fc0014e83dc2","64e50c2bf8b1ded12752c0c7","","","","","5503",""," ","key"," ","6.944506953223818","500","250","instEB2","33","40","30","2","","0","0"
"","psychophysics","63","291434","0.0-63.0","5c745589be30fc0014e83dc2","64e50c2bf8b1ded12752c0c7","","","","","7783",""," ","key"," ","6.944476785714297","500","250","instEB3","30","45","27","2","","0","0"
"","psychophysics","64","295722","0.0-64.0","5c745589be30fc0014e83dc2","64e50c2bf8b1ded12752c0c7","","","","","4287",""," ","key"," ","6.944322528363043","500","250","instEB4","43","30","40","2","","0","0"
"","psychophysics","65","296522","0.0-65.0","5c745589be30fc0014e83dc2","64e50c2bf8b1ded12752c0c7","","","","","799",""," ","key"," ","6.945877192982599","500","250","inst","","","","","","",""
"","psychophysics","66","301674","0.0-66.0","5c745589be30fc0014e83dc2","64e50c2bf8b1ded12752c0c7","","","","","5151",""," ","key"," ","6.944693657219949","500","250","eb","57","37","54","2","","0","0"
"","psychophysics","67","307730","0.0-67.0","5c745589be30fc0014e83dc2","64e50c2bf8b1ded12752c0c7","","","","","6055",""," ","key"," ","6.944365097588997","500","250","eb","49","41","47","2","","0","0"
"","psychophysics","68","310387","0.0-68.0","5c745589be30fc0014e83dc2","64e50c2bf8b1ded12752c0c7","","","","","2655",""," ","key"," ","6.944251968503962","500","250","eb","33","24","30","2","","0","0"
"","psychophysics","69","315123","0.0-69.0","5c745589be30fc0014e83dc2","64e50c2bf8b1ded12752c0c7","","","","","4735",""," ","key"," ","6.945176211453714","500","250","eb","35","45","30","2","","0","0"
"","psychophysics","70","319731","0.0-70.0","5c745589be30fc0014e83dc2","64e50c2bf8b1ded12752c0c7","","","","","4607",""," ","key"," ","6.944497737556547","500","250","eb","31","43","29","2","","0","0"
"","psychophysics","71","322099","0.0-71.0","5c745589be30fc0014e83dc2","64e50c2bf8b1ded12752c0c7","","","","","2367",""," ","key"," ","6.944505882352892","500","250","eb","32","34","29","2","","0","0"
"","psychophysics","72","325499","0.0-72.0","5c745589be30fc0014e83dc2","64e50c2bf8b1ded12752c0c7","","","","","3399",""," ","key"," ","6.944172131147528","500","250","eb","42","39","43","2","","0","0"
"","psychophysics","73","329883","0.0-73.0","5c745589be30fc0014e83dc2","64e50c2bf8b1ded12752c0c7","","","","","4382",""," ","key"," ","6.944497622820924","500","250","eb","45","30","44","2","","0","0"
"","psychophysics","74","333563","0.0-74.0","5c745589be30fc0014e83dc2","64e50c2bf8b1ded12752c0c7","","","","","3679",""," ","key"," ","6.9443156899811065","500","250","eb","45","38","46","2","","0","0"
"","psychophysics","75","338908","0.0-75.0","5c745589be30fc0014e83dc2","64e50c2bf8b1ded12752c0c7","","","","","5343",""," ","key"," ","6.944502604166701","500","250","eb","32","51","30","2","","0","0"
"","psychophysics","76","343812","0.0-76.0","5c745589be30fc0014e83dc2","64e50c2bf8b1ded12752c0c7","","","","","4903",""," ","key"," ","6.944445390070884","500","250","eb","35","52","31","2","","0","0"
"","psychophysics","77","348260","0.0-77.0","5c745589be30fc0014e83dc2","64e50c2bf8b1ded12752c0c7","","","","","4446",""," ","key"," ","6.944682812500014","500","250","eb","54","34","49","2","","0","0"
"","psychophysics","78","350884","0.0-78.0","5c745589be30fc0014e83dc2","64e50c2bf8b1ded12752c0c7","","","","","2622",""," ","key"," ","6.944514588859403","500","250","eb","36","26","30","2","","0","0"
"","psychophysics","79","358436","0.0-79.0","5c745589be30fc0014e83dc2","64e50c2bf8b1ded12752c0c7","","","","","7551",""," ","key"," ","6.94461878453036","500","250","eb","23","49","24","2","","0","0"
"","psychophysics","80","362340","0.0-80.0","5c745589be30fc0014e83dc2","64e50c2bf8b1ded12752c0c7","","","","","3903",""," ","key"," ","6.944743315508003","500","250","eb","44","24","49","2","","0","0"
"","psychophysics","81","363044","0.0-81.0","5c745589be30fc0014e83dc2","64e50c2bf8b1ded12752c0c7","","","","","703",""," ","key"," ","6.945099009900575","500","250","inst","","","","","","",""
"","psychophysics","82","370500","0.0-82.0","5c745589be30fc0014e83dc2","64e50c2bf8b1ded12752c0c7","","","","","7455",""," ","key"," ","6.944577425373134","500","250","instPog0","340","370","340","2","","0","0"
"","psychophysics","83","379053","0.0-83.0","5c745589be30fc0014e83dc2","64e50c2bf8b1ded12752c0c7","","","","","8551",""," ","key"," ","6.9445069049553405","500","250","instPog1","354","370","340","2","","0","0"
"","psychophysics","84","384013","0.0-84.0","5c745589be30fc0014e83dc2","64e50c2bf8b1ded12752c0c7","","","","","4959",""," ","key"," ","6.9446970546984","500","250","instPog2","332","340","340","2","","0","0"
"","psychophysics","85","384781","0.0-85.0","5c745589be30fc0014e83dc2","64e50c2bf8b1ded12752c0c7","","","","","767",""," ","key"," ","6.947018181817839","500","250","inst","","","","","","",""
"","psychophysics","86","389261","0.0-86.0","5c745589be30fc0014e83dc2","64e50c2bf8b1ded12752c0c7","","","","","4479",""," ","key"," ","6.944627329192496","500","250","pog","347","381","354","2","0","0","0"
"","psychophysics","87","393133","0.0-87.0","5c745589be30fc0014e83dc2","64e50c2bf8b1ded12752c0c7","","","","","3871",""," ","key"," ","6.94455296229799","500","250","pog","296","304","315","2","0","0","0"
"","psychophysics","88","396621","0.0-88.0","5c745589be30fc0014e83dc2","64e50c2bf8b1ded12752c0c7","","","","","3487",""," ","key"," ","6.944714570858218","500","250","pog","330","310","360","2","0","0","0"
"","psychophysics","89","400270","0.0-89.0","5c745589be30fc0014e83dc2","64e50c2bf8b1ded12752c0c7","","","","","3647",""," ","key"," ","6.944389312977073","500","250","pog","347","369","362","2","0","0","0"
"","psychophysics","90","405614","0.0-90.0","5c745589be30fc0014e83dc2","64e50c2bf8b1ded12752c0c7","","","","","5343",""," ","key"," ","6.9447243172952104","500","250","pog","302","340","317","2","0","0","0"
"","psychophysics","91","410094","0.0-91.0","5c745589be30fc0014e83dc2","64e50c2bf8b1ded12752c0c7","","","","","4479",""," ","key"," ","6.944279503105559","500","250","pog","320","286","344","2","0","0","0"
"","psychophysics","92","412046","0.0-92.0","5c745589be30fc0014e83dc2","64e50c2bf8b1ded12752c0c7","","","","","1951",""," ","key"," ","6.943967857143019","500","250","pog","340","350","350","2","0","0","0"
"","psychophysics","93","413998","0.0-93.0","5c745589be30fc0014e83dc2","64e50c2bf8b1ded12752c0c7","","","","","1951",""," ","key"," ","6.9449249999998885","500","250","pog","282","288","300","2","0","0","0"
"","psychophysics","94","420022","0.0-94.0","5c745589be30fc0014e83dc2","64e50c2bf8b1ded12752c0c7","","","","","6023",""," ","key"," ","6.944296424452153","500","250","pog","279","333","304","2","0","0","0"
"","psychophysics","95","422294","0.0-95.0","5c745589be30fc0014e83dc2","64e50c2bf8b1ded12752c0c7","","","","","2271",""," ","key"," ","6.94404907975463","500","250","pog","316","304","338","2","0","0","0"
"","psychophysics","96","425782","0.0-96.0","5c745589be30fc0014e83dc2","64e50c2bf8b1ded12752c0c7","","","","","3487",""," ","key"," ","6.944562874251545","500","250","pog","324","356","340","2","0","0","0"
"","psychophysics","97","428374","0.0-97.0","5c745589be30fc0014e83dc2","64e50c2bf8b1ded12752c0c7","","","","","2591",""," ","key"," ","6.9438924731181935","500","250","pog","305","347","318","2","0","0","0"
"","psychophysics","98","430263","0.0-98.0","5c745589be30fc0014e83dc2","64e50c2bf8b1ded12752c0c7","","","","","1887",""," ","key"," ","6.944955719557137","500","250","pog","346","344","357","2","0","0","0"
"","psychophysics","99","432535","0.0-99.0","5c745589be30fc0014e83dc2","64e50c2bf8b1ded12752c0c7","","","","","2271",""," ","key"," ","6.944865030674885","500","250","pog","291","285","312","2","0","0","0"
"","psychophysics","100","435287","0.0-100.0","5c745589be30fc0014e83dc2","64e50c2bf8b1ded12752c0c7","","","","","2751",""," ","key"," ","6.944891414141478","500","250","pog","354","334","371","2","0","0","0"
"","psychophysics","101","435991","0.0-101.0","5c745589be30fc0014e83dc2","64e50c2bf8b1ded12752c0c7","","","","","703",""," ","key"," ","6.944719999999506","500","250","inst","","","","","","",""
"","psychophysics","102","437879","0.0-102.0","5c745589be30fc0014e83dc2","64e50c2bf8b1ded12752c0c7","","","","","1887",""," ","key"," ","6.944210332103299","500","250","instBr0","-1","0","300","","","0","0"
"","psychophysics","103","441079","0.0-103.0","5c745589be30fc0014e83dc2","64e50c2bf8b1ded12752c0c7","","","","","3199",""," ","key"," ","6.944665217391246","500","250","instBr1","-4","-40","300","","","0","0"
"","psychophysics","104","446071","0.0-104.0","5c745589be30fc0014e83dc2","64e50c2bf8b1ded12752c0c7","","","","","4991",""," ","key"," ","6.944376044568212","500","250","instBr3","-18","40","300","1","","0","0"
"","psychophysics","105","446647","0.0-105.0","5c745589be30fc0014e83dc2","64e50c2bf8b1ded12752c0c7","","","","","575",""," ","key"," ","6.944543209876922","500","250","inst","","","","","","",""
"","psychophysics","106","450487","0.0-106.0","5c745589be30fc0014e83dc2","64e50c2bf8b1ded12752c0c7","","","","","3839",""," ","key"," ","6.944514492753576","500","250","br","-9","20","290","1","0","23","-24"
"","psychophysics","107","455287","0.0-107.0","5c745589be30fc0014e83dc2","64e50c2bf8b1ded12752c0c7","","","","","4798",""," ","key"," ","6.944720694645477","500","250","br","-8","24","220","1","0","-6","9"
"","psychophysics","108","457719","0.0-108.0","5c745589be30fc0014e83dc2","64e50c2bf8b1ded12752c0c7","","","","","2431",""," ","key"," ","6.944590257879521","500","250","br","-23","-23","226","1","0","8","16"
"","psychophysics","109","461592","0.0-109.0","5c745589be30fc0014e83dc2","64e50c2bf8b1ded12752c0c7","","","","","3871",""," ","key"," ","6.944496402877618","500","250","br","-17","-17","205","1","0","27","-5"
"","psychophysics","110","463736","0.0-110.0","5c745589be30fc0014e83dc2","64e50c2bf8b1ded12752c0c7","","","","","2142",""," ","key"," ","6.94454220779219","500","250","br","-17","-23","237","1","0","7","-5"
"","psychophysics","111","469216","0.0-111.0","5c745589be30fc0014e83dc2","64e50c2bf8b1ded12752c0c7","","","","","5479",""," ","key"," ","6.944171319796933","500","250","br","-18","12","248","1","0","-26","16"
"","psychophysics","112","471424","0.0-112.0","5c745589be30fc0014e83dc2","64e50c2bf8b1ded12752c0c7","","","","","2206",""," ","key"," ","6.944829652996841","500","250","br","-23","-28","217","1","0","15","-27"
"","psychophysics","113","474784","0.0-113.0","5c745589be30fc0014e83dc2","64e50c2bf8b1ded12752c0c7","","","","","3359",""," ","key"," ","6.9448778467908685","500","250","br","-16","-17","269","1","0","-15","-6"
"","psychophysics","114","479392","0.0-114.0","5c745589be30fc0014e83dc2","64e50c2bf8b1ded12752c0c7","","","","","4607",""," ","key"," ","6.944520361990956","500","250","br","-22","-28","299","1","0","-30","-4"
"","psychophysics","115","482368","0.0-115.0","5c745589be30fc0014e83dc2","64e50c2bf8b1ded12752c0c7","","","","","2975",""," ","key"," ","6.94416393442622","500","250","br","-20","-27","241","1","0","-6","-17"
"","psychophysics","116","487073","0.0-116.0","5c745589be30fc0014e83dc2","64e50c2bf8b1ded12752c0c7","","","","","4703",""," ","key"," ","6.944465288035437","500","250","br","-12","22","294","1","0","-19","1"
"","psychophysics","117","491521","0.0-117.0","5c745589be30fc0014e83dc2","64e50c2bf8b1ded12752c0c7","","","","","4447",""," ","key"," ","6.944543035993777","500","250","br","-12","24","262","1","0","0","8"
"","psychophysics","118","494785","0.0-118.0","5c745589be30fc0014e83dc2","64e50c2bf8b1ded12752c0c7","","","","","3263",""," ","key"," ","6.94443070362466","500","250","br","-16","14","298","1","0","-22","7"
"","psychophysics","119","497537","0.0-119.0","5c745589be30fc0014e83dc2","64e50c2bf8b1ded12752c0c7","","","","","2751",""," ","key"," ","6.944497474747495","500","250","br","-13","-4","252","1","0","-26","6"
"","psychophysics","120","500065","0.0-120.0","5c745589be30fc0014e83dc2","64e50c2bf8b1ded12752c0c7","","","","","2527",""," ","key"," ","6.944490358126818","500","250","br","-13","17","272","1","0","-27","-6"
"","psychophysics","121","500641","0.0-121.0","5c745589be30fc0014e83dc2","64e50c2bf8b1ded12752c0c7","","","","","575",""," ","key"," ","6.934123456789997","500","250","inst","","","","","","",""
"","psychophysics","122","502977","0.0-122.0","5c745589be30fc0014e83dc2","64e50c2bf8b1ded12752c0c7","","","","","2335",""," ","key"," ","6.944913690476131","500","250","instZol1","1.2","-1.3","","","","0","0"
"","psychophysics","123","511177","0.0-123.0","5c745589be30fc0014e83dc2","64e50c2bf8b1ded12752c0c7","","","","","8198",""," ","key"," ","6.944512711864377","500","250","instZol2","0.5000000000000007","2","","1","","0","0"
"","psychophysics","124","511785","0.0-124.0","5c745589be30fc0014e83dc2","64e50c2bf8b1ded12752c0c7","","","","","607",""," ","key"," ","6.942988372093126","500","250","inst","","","","","","",""
"","psychophysics","125","513737","0.0-125.0","5c745589be30fc0014e83dc2","64e50c2bf8b1ded12752c0c7","","","","","1950",""," ","key"," ","6.9449678571429105","500","250","zol","0.6599999999999999","-0.16","","1","1","19","29"
"","psychophysics","126","517225","0.0-126.0","5c745589be30fc0014e83dc2","64e50c2bf8b1ded12752c0c7","","","","","3486",""," ","key"," ","6.944802788844674","500","250","zol","0.83","0.47","","1","1","-1","24"
"","psychophysics","127","519946","0.0-127.0","5c745589be30fc0014e83dc2","64e50c2bf8b1ded12752c0c7","","","","","2719",""," ","key"," ","6.944800000000023","500","250","zol","1.3600000000000003","-0.56","","1","1","-27","23"
"","psychophysics","128","522218","0.0-128.0","5c745589be30fc0014e83dc2","64e50c2bf8b1ded12752c0c7","","","","","2270",""," ","key"," ","6.944498470948086","500","250","zol","1.4100000000000004","-0.21","","1","1","-5","-11"
"","psychophysics","129","525194","0.0-129.0","5c745589be30fc0014e83dc2","64e50c2bf8b1ded12752c0c7","","","","","2974",""," ","key"," ","6.944468384074942","500","250","zol","0.9199999999999999","0.08","","1","1","-18","8"
"","psychophysics","130","529034","0.0-130.0","5c745589be30fc0014e83dc2","64e50c2bf8b1ded12752c0c7","","","","","3838",""," ","key"," ","6.944293478260869","500","250","zol","0.8799999999999999","0.52","","1","1","-14","4"
"","psychophysics","131","534122","0.0-131.0","5c745589be30fc0014e83dc2","64e50c2bf8b1ded12752c0c7","","","","","5086",""," ","key"," ","6.944322404371514","500","250","zol","1.2","0.2","","1","1","4","-19"
"","psychophysics","132","536970","0.0-132.0","5c745589be30fc0014e83dc2","64e50c2bf8b1ded12752c0c7","","","","","2846",""," ","key"," ","6.944757946210169","500","250","zol","0.9599999999999999","-0.36","","1","1","8","19"
"","psychophysics","133","539594","0.0-133.0","5c745589be30fc0014e83dc2","64e50c2bf8b1ded12752c0c7","","","","","2622",""," ","key"," ","6.943848806366063","500","250","zol","1.19","-0.19","","1","1","11","-5"
"","psychophysics","134","541738","0.0-134.0","5c745589be30fc0014e83dc2","64e50c2bf8b1ded12752c0c7","","","","","2142",""," ","key"," ","6.944309446254232","500","250","zol","0.95","-0.55","","1","1","5","23"
"","psychophysics","135","545930","0.0-135.0","5c745589be30fc0014e83dc2","64e50c2bf8b1ded12752c0c7","","","","","4190",""," ","key"," ","6.944746268656573","500","250","zol","0.9299999999999999","0.17","","1","1","-19","0"
"","psychophysics","136","549106","0.0-136.0","5c745589be30fc0014e83dc2","64e50c2bf8b1ded12752c0c7","","","","","3174",""," ","key"," ","6.944510964912377","500","250","zol","0.9999999999999999","-0.6","","1","1","11","-19"
"","psychophysics","137","551730","0.0-137.0","5c745589be30fc0014e83dc2","64e50c2bf8b1ded12752c0c7","","","","","2622",""," ","key"," ","6.944509283819517","500","250","zol","0.9099999999999999","-0.31","","1","1","-28","-8"
"","psychophysics","138","555411","0.0-138.0","5c745589be30fc0014e83dc2","64e50c2bf8b1ded12752c0c7","","","","","3678",""," ","key"," ","6.94447258979215","500","250","zol","0.9699999999999999","-0.57","","1","1","19","-5"
"","psychophysics","139","558419","0.0-139.0","5c745589be30fc0014e83dc2","64e50c2bf8b1ded12752c0c7","","","","","3006",""," ","key"," ","6.944784722222216","500","250","zol","0.9899999999999999","-0.59","","1","1","21","-7"
"","psychophysics","140","559155","0.0-140.0","5c745589be30fc0014e83dc2","64e50c2bf8b1ded12752c0c7","","","","","735",""," ","key"," ","6.94444761904777","500","250","inst","","","","","","",""
"","psychophysics","141","565235","0.0-141.0","5c745589be30fc0014e83dc2","64e50c2bf8b1ded12752c0c7","","","","","6079",""," ","key"," ","6.9445314285715245","500","250","instEB1","31","40","30","1","","0","0"
"","psychophysics","142","568787","0.0-142.0","5c745589be30fc0014e83dc2","64e50c2bf8b1ded12752c0c7","","","","","3551",""," ","key"," ","6.944415686274514","500","250","instEB2","41","30","40","1","","0","0"
"","psychophysics","143","572883","0.0-143.0","5c745589be30fc0014e83dc2","64e50c2bf8b1ded12752c0c7","","","","","4091",""," ","key"," ","6.944775891341253","500","250","instEB3","40","27","45","1","","0","0"
"","psychophysics","144","577204","0.0-144.0","5c745589be30fc0014e83dc2","64e50c2bf8b1ded12752c0c7","","","","","4319",""," ","key"," ","6.944731078904922","500","250","instEB4","28","40","30","1","","0","0"
"","psychophysics","145","578035","0.0-145.0","5c745589be30fc0014e83dc2","64e50c2bf8b1ded12752c0c7","","","","","831",""," ","key"," ","6.945361344537995","500","250","inst","","","","","","",""
"","psychophysics","146","582196","0.0-146.0","5c745589be30fc0014e83dc2","64e50c2bf8b1ded12752c0c7","","","","","4159",""," ","key"," ","6.9447458193979665","500","250","eb","45","43","47","1","","0","0"
"","psychophysics","147","585748","0.0-147.0","5c745589be30fc0014e83dc2","64e50c2bf8b1ded12752c0c7","","","","","3551",""," ","key"," ","6.9447260273972695","500","250","eb","44","33","48","1","","0","0"
"","psychophysics","148","591228","0.0-148.0","5c745589be30fc0014e83dc2","64e50c2bf8b1ded12752c0c7","","","","","5479",""," ","key"," ","6.944658629441703","500","250","eb","32","27","32","1","","0","0"
"","psychophysics","149","596732","0.0-149.0","5c745589be30fc0014e83dc2","64e50c2bf8b1ded12752c0c7","","","","","5503",""," ","key"," ","6.944694058154268","500","250","eb","21","46","24","1","","0","0"
"","psychophysics","150","600220","0.0-150.0","5c745589be30fc0014e83dc2","64e50c2bf8b1ded12752c0c7","","","","","3486",""," ","key"," ","6.944754980079667","500","250","eb","37","37","41","1","","0","0"
"","psychophysics","151","604668","0.0-151.0","5c745589be30fc0014e83dc2","64e50c2bf8b1ded12752c0c7","","","","","4447",""," ","key"," ","6.944510172144","500","250","eb","32","52","33","1","","0","0"
"","psychophysics","152","607869","0.0-152.0","5c745589be30fc0014e83dc2","64e50c2bf8b1ded12752c0c7","","","","","3196",""," ","key"," ","6.944571739130239","500","250","eb","40","48","43","1","","0","0"
"","psychophysics","153","610524","0.0-153.0","5c745589be30fc0014e83dc2","64e50c2bf8b1ded12752c0c7","","","","","2655",""," ","key"," ","6.944371727748691","500","250","eb","28","38","29","1","","0","0"
"","psychophysics","154","613053","0.0-154.0","5c745589be30fc0014e83dc2","64e50c2bf8b1ded12752c0c7","","","","","2527",""," ","key"," ","6.944867768595264","500","250","eb","27","41","30","1","","0","0"
"","psychophysics","155","617316","0.0-155.0","5c745589be30fc0014e83dc2","64e50c2bf8b1ded12752c0c7","","","","","4263",""," ","key"," ","6.94428058727557","500","250","eb","41","32","43","1","","0","0"
"","psychophysics","156","620580","0.0-156.0","5c745589be30fc0014e83dc2","64e50c2bf8b1ded12752c0c7","","","","","3263",""," ","key"," ","6.944535181236598","500","250","eb","37","53","39","1","","0","0"
"","psychophysics","157","624997","0.0-157.0","5c745589be30fc0014e83dc2","64e50c2bf8b1ded12752c0c7","","","","","4415",""," ","key"," ","6.94435433070872","500","250","eb","47","54","50","1","","0","0"
"","psychophysics","158","628549","0.0-158.0","5c745589be30fc0014e83dc2","64e50c2bf8b1ded12752c0c7","","","","","3551",""," ","key"," ","6.944554901960781","500","250","eb","27","47","29","1","","0","0"
"","psychophysics","159","631269","0.0-159.0","5c745589be30fc0014e83dc2","64e50c2bf8b1ded12752c0c7","","","","","2719",""," ","key"," ","6.9441381074167206","500","250","eb","30","42","33","1","","0","0"
"","psychophysics","160","637989","0.0-160.0","5c745589be30fc0014e83dc2","64e50c2bf8b1ded12752c0c7","","","","","6719",""," ","key"," ","6.9445113871634865","500","250","eb","52","33","51","1","","0","0"
"","psychophysics","161","638693","0.0-161.0","5c745589be30fc0014e83dc2","64e50c2bf8b1ded12752c0c7","","","","","702",""," ","key"," ","6.944673267326843","500","250","inst","","","","","","",""
"","psychophysics","162","643749","0.0-162.0","5c745589be30fc0014e83dc2","64e50c2bf8b1ded12752c0c7","","","","","5055",""," ","key"," ","6.9444910591472055","500","250","instPz1","55","25","50","1","","",""
"","psychophysics","163","646789","0.0-163.0","5c745589be30fc0014e83dc2","64e50c2bf8b1ded12752c0c7","","","","","3039",""," ","key"," ","6.944727688786964","500","250","instPz2","23","35","20","1","","",""
"","psychophysics","164","654830","0.0-164.0","5c745589be30fc0014e83dc2","64e50c2bf8b1ded12752c0c7","","","","","8039",""," ","key"," ","6.944517301038032","500","250","instPz3","32","100","30","1","","",""
"","psychophysics","165","660558","0.0-165.0","5c745589be30fc0014e83dc2","64e50c2bf8b1ded12752c0c7","","","","","5727",""," ","key"," ","6.9446626213592255","500","250","instPz4","35","100","30","1","","",""
"","psychophysics","166","661390","0.0-166.0","5c745589be30fc0014e83dc2","64e50c2bf8b1ded12752c0c7","","","","","831",""," ","key"," ","6.944310924369928","500","250","inst","","","","","","",""
"","psychophysics","167","665550","0.0-167.0","5c745589be30fc0014e83dc2","64e50c2bf8b1ded12752c0c7","","","","","4159",""," ","key"," ","6.9444866220737005","500","250","pz","47","39","38","1","1","",""
"","psychophysics","168","668942","0.0-168.0","5c745589be30fc0014e83dc2","64e50c2bf8b1ded12752c0c7","","","","","3391",""," ","key"," ","6.944782786885254","500","250","pz","40","24","30","1","1","",""
"","psychophysics","169","673870","0.0-169.0","5c745589be30fc0014e83dc2","64e50c2bf8b1ded12752c0c7","","","","","4927",""," ","key"," ","6.944543785310684","500","250","pz","26","54","20","1","1","",""
"","psychophysics","170","678063","0.0-170.0","5c745589be30fc0014e83dc2","64e50c2bf8b1ded12752c0c7","","","","","4191",""," ","key"," ","6.944520729684864","500","250","pz","57","35","43","1","1","",""
"","psychophysics","171","682319","0.0-171.0","5c745589be30fc0014e83dc2","64e50c2bf8b1ded12752c0c7","","","","","4255",""," ","key"," ","6.945055555555668","500","250","pz","51","29","40","1","1","",""
"","psychophysics","172","685295","0.0-172.0","5c745589be30fc0014e83dc2","64e50c2bf8b1ded12752c0c7","","","","","2975",""," ","key"," ","6.944170960187541","500","250","pz","49","54","41","1","1","",""
"","psychophysics","173","687983","0.0-173.0","5c745589be30fc0014e83dc2","64e50c2bf8b1ded12752c0c7","","","","","2686",""," ","key"," ","6.945321243523241","500","250","pz","47","36","40","1","1","",""
"","psychophysics","174","690607","0.0-174.0","5c745589be30fc0014e83dc2","64e50c2bf8b1ded12752c0c7","","","","","2623",""," ","key"," ","6.945002652519748","500","250","pz","59","40","49","1","1","",""
"","psychophysics","175","695343","0.0-175.0","5c745589be30fc0014e83dc2","64e50c2bf8b1ded12752c0c7","","","","","4734",""," ","key"," ","6.944725403817926","500","250","pz","26","57","22","1","1","",""
"","psychophysics","176","698512","0.0-176.0","5c745589be30fc0014e83dc2","64e50c2bf8b1ded12752c0c7","","","","","3166",""," ","key"," ","6.944543859648994","500","250","pz","42","33","35","1","1","",""
"","psychophysics","177","702415","0.0-177.0","5c745589be30fc0014e83dc2","64e50c2bf8b1ded12752c0c7","","","","","3903",""," ","key"," ","6.944242424242375","500","250","pz","58","38","53","1","1","",""
"","psychophysics","178","706736","0.0-178.0","5c745589be30fc0014e83dc2","64e50c2bf8b1ded12752c0c7","","","","","4319",""," ","key"," ","6.944384863123975","500","250","pz","32","59","29","1","1","",""
"","psychophysics","179","709584","0.0-179.0","5c745589be30fc0014e83dc2","64e50c2bf8b1ded12752c0c7","","","","","2847",""," ","key"," ","6.944638141809193","500","250","pz","39","41","33","1","1","",""
"","psychophysics","180","712656","0.0-180.0","5c745589be30fc0014e83dc2","64e50c2bf8b1ded12752c0c7","","","","","3071",""," ","key"," ","6.944226757369834","500","250","pz","32","20","30","1","1","",""
"","psychophysics","181","717072","0.0-181.0","5c745589be30fc0014e83dc2","64e50c2bf8b1ded12752c0c7","","","","","4414",""," ","key"," ","6.9447149606298755","500","250","pz","52","57","47","1","1","",""
"","psychophysics","182","717712","0.0-182.0","5c745589be30fc0014e83dc2","64e50c2bf8b1ded12752c0c7","","","","","639",""," ","key"," ","6.944153846153263","500","250","inst","","","","","","",""
"","psychophysics","183","721424","0.0-183.0","5c745589be30fc0014e83dc2","64e50c2bf8b1ded12752c0c7","","","","","3711",""," ","key"," ","6.944524344569159","500","250","instPog0","160","190","160","1","","0","0"
"","psychophysics","184","724048","0.0-184.0","5c745589be30fc0014e83dc2","64e50c2bf8b1ded12752c0c7","","","","","2623",""," ","key"," ","6.944201591512033","500","250","instPog1","174","190","160","1","","0","0"
"","psychophysics","185","728336","0.0-185.0","5c745589be30fc0014e83dc2","64e50c2bf8b1ded12752c0c7","","","","","4287",""," ","key"," ","6.944504870129779","500","250","instPog2","164","160","160","1","","0","0"
"","psychophysics","186","728944","0.0-186.0","5c745589be30fc0014e83dc2","64e50c2bf8b1ded12752c0c7","","","","","607",""," ","key"," ","6.945609195402759","500","250","inst","","","","","","",""
"","psychophysics","187","731952","0.0-187.0","5c745589be30fc0014e83dc2","64e50c2bf8b1ded12752c0c7","","","","","3007",""," ","key"," ","6.94443287037036","500","250","pog","196","162","185","1","1","0","0"
"","psychophysics","188","735827","0.0-188.0","5c745589be30fc0014e83dc2","64e50c2bf8b1ded12752c0c7","","","","","3871",""," ","key"," ","6.944369838420257","500","250","pog","163","187","138","1","1","0","0"
"","psychophysics","189","743283","0.0-189.0","5c745589be30fc0014e83dc2","64e50c2bf8b1ded12752c0c7","","","","","7455",""," ","key"," ","6.944641791044846","500","250","pog","193","145","179","1","1","0","0"
"","psychophysics","190","745011","0.0-190.0","5c745589be30fc0014e83dc2","64e50c2bf8b1ded12752c0c7","","","","","1727",""," ","key"," ","6.945096774193394","500","250","pog","210","212","199","1","1","0","0"
"","psychophysics","191","747635","0.0-191.0","5c745589be30fc0014e83dc2","64e50c2bf8b1ded12752c0c7","","","","","2623",""," ","key"," ","6.9448249336870616","500","250","pog","206","220","179","1","1","0","0"
"","psychophysics","192","749171","0.0-192.0","5c745589be30fc0014e83dc2","64e50c2bf8b1ded12752c0c7","","","","","1535",""," ","key"," ","6.944254545454169","500","250","pog","207","201","192","1","1","0","0"
"","psychophysics","193","752819","0.0-193.0","5c745589be30fc0014e83dc2","64e50c2bf8b1ded12752c0c7","","","","","3647",""," ","key"," ","6.944656488549619","500","250","pog","210","108","191","1","1","0","0"
"","psychophysics","194","756244","0.0-194.0","5c745589be30fc0014e83dc2","64e50c2bf8b1ded12752c0c7","","","","","3423",""," ","key"," ","6.944464503042447","500","250","pog","179","103","162","1","1","0","0"
"","psychophysics","195","758867","0.0-195.0","5c745589be30fc0014e83dc2","64e50c2bf8b1ded12752c0c7","","","","","2623",""," ","key"," ","6.944249999999847","500","250","pog","165","131","150","1","1","0","0"
"","psychophysics","196","764628","0.0-196.0","5c745589be30fc0014e83dc2","64e50c2bf8b1ded12752c0c7","","","","","5759",""," ","key"," ","6.9446767189384655","500","250","pog","156","216","139","1","1","0","0"
"","psychophysics","197","767860","0.0-197.0","5c745589be30fc0014e83dc2","64e50c2bf8b1ded12752c0c7","","","","","3231",""," ","key"," ","6.944862068965449","500","250","pog","144","126","131","1","1","0","0"
"","psychophysics","198","771444","0.0-198.0","5c745589be30fc0014e83dc2","64e50c2bf8b1ded12752c0c7","","","","","3583",""," ","key"," ","6.9447708737864655","500","250","pog","159","215","134","1","1","0","0"
"","psychophysics","199","774580","0.0-199.0","5c745589be30fc0014e83dc2","64e50c2bf8b1ded12752c0c7","","","","","3135",""," ","key"," ","6.9447804878049215","500","250","pog","186","138","168","1","1","0","0"
"","psychophysics","200","777556","0.0-200.0","5c745589be30fc0014e83dc2","64e50c2bf8b1ded12752c0c7","","","","","2975",""," ","key"," ","6.944415887850652","500","250","pog","184","138","166","1","1","0","0"
"","psychophysics","201","779156","0.0-201.0","5c745589be30fc0014e83dc2","64e50c2bf8b1ded12752c0c7","","","","","1599",""," ","key"," ","6.944502183405976","500","250","pog","171","165","162","1","1","0","0"
"","psychophysics","202","779796","0.0-202.0","5c745589be30fc0014e83dc2","64e50c2bf8b1ded12752c0c7","","","","","639",""," ","key"," ","6.94447252747173","500","250","inst","","","","","","",""
"","psychophysics","203","781844","0.0-203.0","5c745589be30fc0014e83dc2","64e50c2bf8b1ded12752c0c7","","","","","2047",""," ","key"," ","6.944459183673377","500","250","instBr3","25","40","300","2","","0","0"
"","psychophysics","204","782548","0.0-204.0","5c745589be30fc0014e83dc2","64e50c2bf8b1ded12752c0c7","","","","","703",""," ","key"," ","6.941500000000233","500","250","inst","","","","","","",""
"","psychophysics","205","786581","0.0-205.0","5c745589be30fc0014e83dc2","64e50c2bf8b1ded12752c0c7","","","","","4031",""," ","key"," ","6.944772413793093","500","250","br","22","19","253","2","1","-27","24"
"","psychophysics","206","790741","0.0-206.0","5c745589be30fc0014e83dc2","64e50c2bf8b1ded12752c0c7","","","","","4159",""," ","key"," ","6.944608695652254","500","250","br","20","-23","281","2","1","-17","-5"
"","psychophysics","207","792149","0.0-207.0","5c745589be30fc0014e83dc2","64e50c2bf8b1ded12752c0c7","","","","","1407",""," ","key"," ","6.9452772277227535","500","250","br","27","29","251","2","1","-7","-17"
"","psychophysics","208","795482","0.0-208.0","5c745589be30fc0014e83dc2","64e50c2bf8b1ded12752c0c7","","","","","3327",""," ","key"," ","6.944428870292959","500","250","br","22","-16","276","2","1","2","-10"
"","psychophysics","209","797858","0.0-209.0","5c745589be30fc0014e83dc2","64e50c2bf8b1ded12752c0c7","","","","","2375",""," ","key"," ","6.944043988269779","500","250","br","19","5","275","2","1","-23","-10"
"","psychophysics","210","800515","0.0-210.0","5c745589be30fc0014e83dc2","64e50c2bf8b1ded12752c0c7","","","","","2655",""," ","key"," ","6.944882198952746","500","250","br","18","-26","226","2","1","-30","22"
"","psychophysics","211","802979","0.0-211.0","5c745589be30fc0014e83dc2","64e50c2bf8b1ded12752c0c7","","","","","2463",""," ","key"," ","6.9441694915255185","500","250","br","14","-26","210","2","1","18","13"
"","psychophysics","212","806563","0.0-212.0","5c745589be30fc0014e83dc2","64e50c2bf8b1ded12752c0c7","","","","","3582",""," ","key"," ","6.944568932038795","500","250","br","16","-29","240","2","1","12","13"
"","psychophysics","213","809635","0.0-213.0","5c745589be30fc0014e83dc2","64e50c2bf8b1ded12752c0c7","","","","","3071",""," ","key"," ","6.9447641723357405","500","250","br","15","-19","202","2","1","-10","-1"
"","psychophysics","214","813059","0.0-214.0","5c745589be30fc0014e83dc2","64e50c2bf8b1ded12752c0c7","","","","","3423",""," ","key"," ","6.944424796747981","500","250","br","17","-16","219","2","1","13","-11"
"","psychophysics","215","815939","0.0-215.0","5c745589be30fc0014e83dc2","64e50c2bf8b1ded12752c0c7","","","","","2879",""," ","key"," ","6.944543478261075","500","250","br","24","-22","252","2","1","11","-23"
"","psychophysics","216","819619","0.0-216.0","5c745589be30fc0014e83dc2","64e50c2bf8b1ded12752c0c7","","","","","3679",""," ","key"," ","6.944260869565154","500","250","br","19","-9","249","2","1","22","-20"
"","psychophysics","217","820963","0.0-217.0","5c745589be30fc0014e83dc2","64e50c2bf8b1ded12752c0c7","","","","","1343",""," ","key"," ","6.944322916666958","500","250","br","19","17","236","2","1","1","-8"
"","psychophysics","218","822723","0.0-218.0","5c745589be30fc0014e83dc2","64e50c2bf8b1ded12752c0c7","","","","","1758",""," ","key"," ","6.944628458498174","500","250","br","16","7","234","2","1","-29","21"
"","psychophysics","219","825059","0.0-219.0","5c745589be30fc0014e83dc2","64e50c2bf8b1ded12752c0c7","","","","","2335",""," ","key"," ","6.944274626865482","500","250","br","21","10","229","2","1","-19","-2"
