"success","trial_type","trial_index","time_elapsed","internal_node_id","pid","sid","timeout","failed_images","failed_audio","failed_video","rt","stimulus","response","response_type","key_press","avg_frame_time","center_x","center_y","task","resp","version","block","start","jitterX","jitterY","parA"
"true","fullscreen","0","5199","0.0-0.0","5dbe0ca99ea0b1327a2a8d4e","64de821dd255fafe6c7a5292","","","","","","","","","","","","","","","","","","","",""
"true","preload","1","5548","0.0-1.0","5dbe0ca99ea0b1327a2a8d4e","64de821dd255fafe6c7a5292","false","[]","[]","[]","","","","","","","","","","","","","","","",""
"","html-button-response","2","23701","0.0-2.0","5dbe0ca99ea0b1327a2a8d4e","64de821dd255fafe6c7a5292","","","","","18151","Please Make Sure Your Audio Is On.","0","","","","","","","","","","","","",""
"","psychophysics","3","32127","0.0-3.0","5dbe0ca99ea0b1327a2a8d4e","64de821dd255fafe6c7a5292","","","","","8416",""," ","key"," ","16.652920948616593","640","250","","","","","","","",""
"","psychophysics","4","41540","0.0-4.0","5dbe0ca99ea0b1327a2a8d4e","64de821dd255fafe6c7a5292","","","","","9407",""," ","key"," ","16.65273758865248","500","250","inst","","","","","","",""
"","psychophysics","5","73368","0.0-5.0","5dbe0ca99ea0b1327a2a8d4e","64de821dd255fafe6c7a5292","","","","","31808",""," ","key"," ","16.653038219895283","500","250","sample0","","","","","","",""
"","psychophysics","6","76292","0.0-6.0","5dbe0ca99ea0b1327a2a8d4e","64de821dd255fafe6c7a5292","","","","","2908",""," ","key"," ","16.65327999999996","500","250","sample1","","","","","","",""
"","psychophysics","7","91099","0.0-7.0","5dbe0ca99ea0b1327a2a8d4e","64de821dd255fafe6c7a5292","","","","","14773",""," ","key"," ","16.65310247747748","500","250","sample2","128","","","","","",""
"","psychophysics","8","113210","0.0-8.0","5dbe0ca99ea0b1327a2a8d4e","64de821dd255fafe6c7a5292","","","","","22094",""," ","key"," ","16.65295704596834","500","250","sample3","70","","","","","",""
"","psychophysics","9","130834","0.0-9.0","5dbe0ca99ea0b1327a2a8d4e","64de821dd255fafe6c7a5292","","","","","17619",""," ","key"," ","16.653196783349106","500","250","sample4","102","","","","","",""
"","psychophysics","10","141346","0.0-10.0","5dbe0ca99ea0b1327a2a8d4e","64de821dd255fafe6c7a5292","","","","","10492",""," ","key"," ","16.653115873015857","500","250","sample5","","","","","","",""
"","psychophysics","11","165134","0.0-11.0","5dbe0ca99ea0b1327a2a8d4e","64de821dd255fafe6c7a5292","","","","","23773",""," ","key"," ","16.65300140056023","500","250","sample6","500","","","","","",""
"","psychophysics","12","208647","0.0-12.0","5dbe0ca99ea0b1327a2a8d4e","64de821dd255fafe6c7a5292","","","","","43510",""," ","key"," ","16.653026799387433","500","250","inst","","","","","","",""
"","psychophysics","13","213987","0.0-13.0","5dbe0ca99ea0b1327a2a8d4e","64de821dd255fafe6c7a5292","","","","","5335",""," ","key"," ","16.653589341692776","500","250","inst","","","","","","",""
"","psychophysics","14","220430","0.0-14.0","5dbe0ca99ea0b1327a2a8d4e","64de821dd255fafe6c7a5292","","","","","6426",""," ","key"," ","16.653246113989614","500","250","inst","","","","","","",""
"","psychophysics","15","239179","0.0-15.0","5dbe0ca99ea0b1327a2a8d4e","64de821dd255fafe6c7a5292","","","","","18732",""," ","key"," ","16.653084444444445","500","250","inst","","","","","","",""
"","psychophysics","16","250016","0.0-16.0","5dbe0ca99ea0b1327a2a8d4e","64de821dd255fafe6c7a5292","","","","","10819",""," ","key"," ","16.652961538461565","500","250","inst","","","","","","",""
"","psychophysics","17","255889","0.0-17.0","5dbe0ca99ea0b1327a2a8d4e","64de821dd255fafe6c7a5292","","","","","5857",""," ","key"," ","16.65328205128204","500","250","instEB0","40","2","","40","0","0","40"
"","psychophysics","18","266502","0.0-18.0","5dbe0ca99ea0b1327a2a8d4e","64de821dd255fafe6c7a5292","","","","","10601",""," ","key"," ","16.65296546310834","500","250","instEB1","30","2","","30","0","0","40"
"","psychophysics","19","280663","0.0-19.0","5dbe0ca99ea0b1327a2a8d4e","64de821dd255fafe6c7a5292","","","","","14153",""," ","key"," ","16.653049469964678","500","250","instEB2","40","2","","40","0","0","30"
"","psychophysics","20","303267","0.0-20.0","5dbe0ca99ea0b1327a2a8d4e","64de821dd255fafe6c7a5292","","","","","22594",""," ","key"," ","16.65311061946904","500","250","instEB3","45","2","","45","0","0","27"
"","psychophysics","21","312901","0.0-21.0","5dbe0ca99ea0b1327a2a8d4e","64de821dd255fafe6c7a5292","","","","","9623",""," ","key"," ","16.653126297577824","500","250","instEB4","30","2","","30","0","0","40"
"","psychophysics","22","316526","0.0-22.0","5dbe0ca99ea0b1327a2a8d4e","64de821dd255fafe6c7a5292","","","","","3621",""," ","key"," ","16.653433179723695","500","250","inst","","","","","","",""
"","psychophysics","23","324537","0.0-23.0","5dbe0ca99ea0b1327a2a8d4e","64de821dd255fafe6c7a5292","","","","","null","","null","key","null","16.653231249999955","500","250","eb","36","2","","29","0","0","27"
"","psychophysics","24","329372","0.0-24.0","5dbe0ca99ea0b1327a2a8d4e","64de821dd255fafe6c7a5292","","","","","4829",""," ","key"," ","16.65352941176469","500","250","eb","47","2","","45","0","0","38"
"","psychophysics","25","333494","0.0-25.0","5dbe0ca99ea0b1327a2a8d4e","64de821dd255fafe6c7a5292","","","","","4111",""," ","key"," ","16.65330364372485","500","250","eb","53","2","","38","0","0","44"
"","psychophysics","26","341502","0.0-26.0","5dbe0ca99ea0b1327a2a8d4e","64de821dd255fafe6c7a5292","","","","","null","","null","key","null","16.653112500000013","500","250","eb","54","2","","54","0","0","45"
"","psychophysics","27","341776","0.0-27.0","5dbe0ca99ea0b1327a2a8d4e","64de821dd255fafe6c7a5292","","","","","266",""," ","key"," ","16.660333333331316","500","250","eb","26","2","","26","0","0","24"
"","psychophysics","28","349615","0.0-28.0","5dbe0ca99ea0b1327a2a8d4e","64de821dd255fafe6c7a5292","","","","","7832",""," ","key"," ","16.652997872340393","500","250","eb","47","2","","46","0","0","38"
"","psychophysics","29","353904","0.0-29.0","5dbe0ca99ea0b1327a2a8d4e","64de821dd255fafe6c7a5292","","","","","4264",""," ","key"," ","16.653148437500022","500","250","eb","61","2","","49","0","0","49"
"","psychophysics","30","356927","0.0-30.0","5dbe0ca99ea0b1327a2a8d4e","64de821dd255fafe6c7a5292","","","","","3010",""," ","key"," ","16.652861878453066","500","250","eb","45","2","","46","0","0","27"
"","psychophysics","31","360032","0.0-31.0","5dbe0ca99ea0b1327a2a8d4e","64de821dd255fafe6c7a5292","","","","","3098",""," ","key"," ","16.653735135135406","500","250","eb","51","2","","48","0","0","39"
"","psychophysics","32","363438","0.0-32.0","5dbe0ca99ea0b1327a2a8d4e","64de821dd255fafe6c7a5292","","","","","3403",""," ","key"," ","16.65418137254892","500","250","eb","55","2","","27","0","0","43"
"","psychophysics","33","366318","0.0-33.0","5dbe0ca99ea0b1327a2a8d4e","64de821dd255fafe6c7a5292","","","","","2854",""," ","key"," ","16.653308139534918","500","250","eb","47","2","","37","0","0","31"
"","psychophysics","34","369178","0.0-34.0","5dbe0ca99ea0b1327a2a8d4e","64de821dd255fafe6c7a5292","","","","","2838",""," ","key"," ","16.652958823529566","500","250","eb","36","2","","33","0","0","28"
"","psychophysics","35","372029","0.0-35.0","5dbe0ca99ea0b1327a2a8d4e","64de821dd255fafe6c7a5292","","","","","2827",""," ","key"," ","16.65375294117668","500","250","eb","56","2","","50","0","0","49"
"","psychophysics","36","376942","0.0-36.0","5dbe0ca99ea0b1327a2a8d4e","64de821dd255fafe6c7a5292","","","","","4904",""," ","key"," ","16.653145762711716","500","250","eb","60","2","","34","0","0","54"
"","psychophysics","37","380798","0.0-37.0","5dbe0ca99ea0b1327a2a8d4e","64de821dd255fafe6c7a5292","","","","","3836",""," ","key"," ","16.653439130434645","500","250","eb","35","2","","25","0","0","28"
"","psychophysics","38","407686","0.0-38.0","5dbe0ca99ea0b1327a2a8d4e","64de821dd255fafe6c7a5292","","","","","26859",""," ","key"," ","16.65303407682774","500","250","inst","","","","","","",""
"","psychophysics","39","411884","0.0-39.0","5dbe0ca99ea0b1327a2a8d4e","64de821dd255fafe6c7a5292","","","","","4194",""," ","key"," ","16.653498007968093","500","250","instZol0","0","","","0","0","0",""
"","psychophysics","40","439535","0.0-40.0","5dbe0ca99ea0b1327a2a8d4e","64de821dd255fafe6c7a5292","","","","","27636",""," ","key"," ","16.652994575045224","500","250","instZol1","0.2999999999999998","","","-1.3","0","0",""
"","psychophysics","41","458744","0.0-41.0","5dbe0ca99ea0b1327a2a8d4e","64de821dd255fafe6c7a5292","","","","","19195",""," ","key"," ","16.65318039895926","500","250","instZol2","3.700000000000003","1","","2","0","0",""
"","psychophysics","42","464611","0.0-42.0","5dbe0ca99ea0b1327a2a8d4e","64de821dd255fafe6c7a5292","","","","","5862",""," ","key"," ","16.652863247863163","500","250","inst","","","","","","",""
"","psychophysics","43","471330","0.0-43.0","5dbe0ca99ea0b1327a2a8d4e","64de821dd255fafe6c7a5292","","","","","6695",""," ","key"," ","16.653519900497574","500","250","zol","1.8600000000000005","1","0","0.04","30","-21",""
"","psychophysics","44","477235","0.0-44.0","5dbe0ca99ea0b1327a2a8d4e","64de821dd255fafe6c7a5292","","","","","5890",""," ","key"," ","16.65319209039543","500","250","zol","2.8500000000000014","1","0","0.55","29","-26",""
"","psychophysics","45","483871","0.0-45.0","5dbe0ca99ea0b1327a2a8d4e","64de821dd255fafe6c7a5292","","","","","6617",""," ","key"," ","16.653206549118323","500","250","zol","4.230000000000001","1","0","-0.23","9","-7",""
"","psychophysics","46","491881","0.0-46.0","5dbe0ca99ea0b1327a2a8d4e","64de821dd255fafe6c7a5292","","","","","null","","null","key","null","16.65286902286908","500","250","zol","2.6500000000000012","1","0","0.55","22","-19",""
"","psychophysics","47","499892","0.0-47.0","5dbe0ca99ea0b1327a2a8d4e","64de821dd255fafe6c7a5292","","","","","null","","null","key","null","16.653095833333403","500","250","zol","2.290000000000001","1","0","0.31","-18","-25",""
"","psychophysics","48","500187","0.0-48.0","5dbe0ca99ea0b1327a2a8d4e","64de821dd255fafe6c7a5292","","","","","288",""," ","key"," ","16.665375000000495","500","250","zol","-0.73","1","0","0.73","15","-3",""
"","psychophysics","49","505514","0.0-49.0","5dbe0ca99ea0b1327a2a8d4e","64de821dd255fafe6c7a5292","","","","","5288",""," ","key"," ","16.7057106918238","500","250","zol","0.22000000000000022","1","0","0.18","5","-5",""
"","psychophysics","50","510200","0.0-50.0","5dbe0ca99ea0b1327a2a8d4e","64de821dd255fafe6c7a5292","","","","","4671",""," ","key"," ","16.65338790035592","500","250","zol","1.6100000000000005","1","0","0.19","15","21",""
"","psychophysics","51","514214","0.0-51.0","5dbe0ca99ea0b1327a2a8d4e","64de821dd255fafe6c7a5292","","","","","3994",""," ","key"," ","16.653479166666752","500","250","zol","2.8100000000000014","1","0","0.69","25","-21",""
"","psychophysics","52","519096","0.0-52.0","5dbe0ca99ea0b1327a2a8d4e","64de821dd255fafe6c7a5292","","","","","4872",""," ","key"," ","16.65318150684929","500","250","zol","4.210000000000002","1","0","-0.41","1","20",""
"","psychophysics","53","523400","0.0-53.0","5dbe0ca99ea0b1327a2a8d4e","64de821dd255fafe6c7a5292","","","","","4290",""," ","key"," ","16.65347859922186","500","250","zol","3.5000000000000018","1","0","0.3","-19","-13",""
"","psychophysics","54","527986","0.0-54.0","5dbe0ca99ea0b1327a2a8d4e","64de821dd255fafe6c7a5292","","","","","4576",""," ","key"," ","16.65361454545478","500","250","zol","1.9000000000000004","1","0","0.2","-26","-14",""
"","psychophysics","55","534934","0.0-55.0","5dbe0ca99ea0b1327a2a8d4e","64de821dd255fafe6c7a5292","","","","","6923",""," ","key"," ","16.653266826922984","500","250","zol","0.8699999999999999","1","0","0.03","-12","0",""
"","psychophysics","56","540901","0.0-56.0","5dbe0ca99ea0b1327a2a8d4e","64de821dd255fafe6c7a5292","","","","","5953",""," ","key"," ","16.65321568627444","500","250","zol","3.4600000000000017","1","0","-0.36","-8","-19",""
"","psychophysics","57","548908","0.0-57.0","5dbe0ca99ea0b1327a2a8d4e","64de821dd255fafe6c7a5292","","","","","7977",""," ","key"," ","16.653266666666603","500","250","zol","4.310000000000001","1","0","-0.61","-28","24",""
"","psychophysics","58","551446","0.0-58.0","5dbe0ca99ea0b1327a2a8d4e","64de821dd255fafe6c7a5292","","","","","2523",""," ","key"," ","16.653827814569556","500","250","inst","","","","","","",""
"","psychophysics","59","578637","0.0-59.0","5dbe0ca99ea0b1327a2a8d4e","64de821dd255fafe6c7a5292","","","","","27172",""," ","key"," ","16.653025735294126","500","250","instPog0","160","1","","190","0","0","160"
"","psychophysics","60","588025","0.0-60.0","5dbe0ca99ea0b1327a2a8d4e","64de821dd255fafe6c7a5292","","","","","9377",""," ","key"," ","16.65297690941394","500","250","instPog1","190","1","","190","0","0","160"
"","psychophysics","61","596744","0.0-61.0","5dbe0ca99ea0b1327a2a8d4e","64de821dd255fafe6c7a5292","","","","","8705",""," ","key"," ","16.653193486589934","500","250","instPog2","182","1","","160","0","0","160"
"","psychophysics","62","603326","0.0-62.0","5dbe0ca99ea0b1327a2a8d4e","64de821dd255fafe6c7a5292","","","","","6572",""," ","key"," ","16.653313924050654","500","250","inst","","","","","","",""
"","psychophysics","63","609138","0.0-63.0","5dbe0ca99ea0b1327a2a8d4e","64de821dd255fafe6c7a5292","","","","","5794",""," ","key"," ","16.65329310344833","500","250","pog","186","1","0","108","0","0","146"
"","psychophysics","64","613807","0.0-64.0","5dbe0ca99ea0b1327a2a8d4e","64de821dd255fafe6c7a5292","","","","","4651",""," ","key"," ","16.653297491039492","500","250","pog","150","1","0","154","0","0","124"
"","psychophysics","65","616788","0.0-65.0","5dbe0ca99ea0b1327a2a8d4e","64de821dd255fafe6c7a5292","","","","","2965",""," ","key"," ","16.653488764044923","500","250","pog","196","1","0","204","0","0","159"
"","psychophysics","66","621407","0.0-66.0","5dbe0ca99ea0b1327a2a8d4e","64de821dd255fafe6c7a5292","","","","","4606",""," ","key"," ","16.652870036100982","500","250","pog","228","1","0","150","0","0","187"
"","psychophysics","67","626444","0.0-67.0","5dbe0ca99ea0b1327a2a8d4e","64de821dd255fafe6c7a5292","","","","","5026",""," ","key"," ","16.652963455149553","500","250","pog","213","1","0","179","0","0","176"
"","psychophysics","68","630987","0.0-68.0","5dbe0ca99ea0b1327a2a8d4e","64de821dd255fafe6c7a5292","","","","","4538",""," ","key"," ","16.653757352941337","500","250","pog","211","1","0","147","0","0","178"
"","psychophysics","69","635487","0.0-69.0","5dbe0ca99ea0b1327a2a8d4e","64de821dd255fafe6c7a5292","","","","","4485",""," ","key"," ","16.65334944237936","500","250","pog","181","1","0","187","0","0","144"
"","psychophysics","70","640228","0.0-70.0","5dbe0ca99ea0b1327a2a8d4e","64de821dd255fafe6c7a5292","","","","","4728",""," ","key"," ","16.65497887323932","500","250","pog","223","1","0","125","0","0","178"
"","psychophysics","71","644941","0.0-71.0","5dbe0ca99ea0b1327a2a8d4e","64de821dd255fafe6c7a5292","","","","","4705",""," ","key"," ","16.65321985815597","500","250","pog","239","1","0","203","0","0","195"
"","psychophysics","72","648893","0.0-72.0","5dbe0ca99ea0b1327a2a8d4e","64de821dd255fafe6c7a5292","","","","","3945",""," ","key"," ","16.654127118643867","500","250","pog","201","1","0","121","0","0","155"
"","psychophysics","73","652082","0.0-73.0","5dbe0ca99ea0b1327a2a8d4e","64de821dd255fafe6c7a5292","","","","","3176",""," ","key"," ","16.6531361256542","500","250","pog","195","1","0","141","0","0","156"
"","psychophysics","74","657046","0.0-74.0","5dbe0ca99ea0b1327a2a8d4e","64de821dd255fafe6c7a5292","","","","","4953",""," ","key"," ","16.653040404040336","500","250","pog","220","1","0","106","0","0","178"
"","psychophysics","75","662026","0.0-75.0","5dbe0ca99ea0b1327a2a8d4e","64de821dd255fafe6c7a5292","","","","","4969",""," ","key"," ","16.653375838926195","500","250","pog","198","1","0","152","0","0","168"
"","psychophysics","76","665010","0.0-76.0","5dbe0ca99ea0b1327a2a8d4e","64de821dd255fafe6c7a5292","","","","","2976",""," ","key"," ","16.652842696629246","500","250","pog","163","1","0","179","0","0","128"
"","psychophysics","77","669211","0.0-77.0","5dbe0ca99ea0b1327a2a8d4e","64de821dd255fafe6c7a5292","","","","","4184",""," ","key"," ","16.653426294820754","500","250","pog","182","1","0","206","0","0","139"
"","psychophysics","78","670885","0.0-78.0","5dbe0ca99ea0b1327a2a8d4e","64de821dd255fafe6c7a5292","","","","","1658",""," ","key"," ","16.653120000000346","500","250","inst","","","","","","",""
"","psychophysics","79","674449","0.0-79.0","5dbe0ca99ea0b1327a2a8d4e","64de821dd255fafe6c7a5292","","","","","3555",""," ","key"," ","16.653140845070176","500","250","instPzPre","50","0","","50","","","50"
"","psychophysics","80","680516","0.0-80.0","5dbe0ca99ea0b1327a2a8d4e","64de821dd255fafe6c7a5292","","","","","6058",""," ","key"," ","16.65305234159769","500","250","instPz0","50","1","","50","","","50"
"","psychophysics","81","729453","0.0-81.0","5dbe0ca99ea0b1327a2a8d4e","64de821dd255fafe6c7a5292","","","","","48934",""," ","key"," ","16.653055820285932","500","250","instPz1","47","1","","25","","","50"
"","psychophysics","82","738850","0.0-82.0","5dbe0ca99ea0b1327a2a8d4e","64de821dd255fafe6c7a5292","","","","","9387",""," ","key"," ","16.653179396092344","500","250","instPz2","22","1","","35","","","20"
"","psychophysics","83","764928","0.0-83.0","5dbe0ca99ea0b1327a2a8d4e","64de821dd255fafe6c7a5292","","","","","26049",""," ","key"," ","16.653104792332304","500","250","instPz3","100","1","","100","","","30"
"","psychophysics","84","771329","0.0-84.0","5dbe0ca99ea0b1327a2a8d4e","64de821dd255fafe6c7a5292","","","","","6382",""," ","key"," ","16.65327676240228","500","250","instPz4","100","1","","100","","","30"
"","psychophysics","85","773970","0.0-85.0","5dbe0ca99ea0b1327a2a8d4e","64de821dd255fafe6c7a5292","","","","","2628",""," ","key"," ","16.65258860759455","500","250","inst","","","","","","",""
"","psychophysics","86","774151","0.0-86.0","5dbe0ca99ea0b1327a2a8d4e","64de821dd255fafe6c7a5292","","","","","166",""," ","key"," ","16.660599999991245","500","250","pz","31","1","0","31","","","50"
"","psychophysics","87","781270","0.0-87.0","5dbe0ca99ea0b1327a2a8d4e","64de821dd255fafe6c7a5292","","","","","7116",""," ","key"," ","16.65343661971818","500","250","pz","95","1","0","35","","","48"
"","psychophysics","88","786811","0.0-88.0","5dbe0ca99ea0b1327a2a8d4e","64de821dd255fafe6c7a5292","","","","","5515",""," ","key"," ","16.653219879517916","500","250","pz","69","1","0","39","","","36"
"","psychophysics","89","794817","0.0-89.0","5dbe0ca99ea0b1327a2a8d4e","64de821dd255fafe6c7a5292","","","","","null","","null","key","null","16.653247916666682","500","250","pz","114","1","0","29","","","57"
"","psychophysics","90","798226","0.0-90.0","5dbe0ca99ea0b1327a2a8d4e","64de821dd255fafe6c7a5292","","","","","3390",""," ","key"," ","16.734482758620576","500","250","pz","53","1","0","39","","","30"
"","psychophysics","91","801276","0.0-91.0","5dbe0ca99ea0b1327a2a8d4e","64de821dd255fafe6c7a5292","","","","","3044",""," ","key"," ","16.653664835165177","500","250","pz","43","1","0","23","","","23"
"","psychophysics","92","805840","0.0-92.0","5dbe0ca99ea0b1327a2a8d4e","64de821dd255fafe6c7a5292","","","","","4559",""," ","key"," ","16.65364835164834","500","250","pz","57","1","0","55","","","36"
"","psychophysics","93","809778","0.0-93.0","5dbe0ca99ea0b1327a2a8d4e","64de821dd255fafe6c7a5292","","","","","3917",""," ","key"," ","16.653434042553318","500","250","pz","101","1","0","56","","","60"
"","psychophysics","94","812901","0.0-94.0","5dbe0ca99ea0b1327a2a8d4e","64de821dd255fafe6c7a5292","","","","","3107",""," ","key"," ","16.653508021390405","500","250","pz","47","1","0","23","","","27"
"","psychophysics","95","816181","0.0-95.0","5dbe0ca99ea0b1327a2a8d4e","64de821dd255fafe6c7a5292","","","","","3269",""," ","key"," ","16.65367857142879","500","250","pz","61","1","0","45","","","40"
"","psychophysics","96","820652","0.0-96.0","5dbe0ca99ea0b1327a2a8d4e","64de821dd255fafe6c7a5292","","","","","4461",""," ","key"," ","16.652943820224756","500","250","pz","45","1","0","57","","","27"
"","psychophysics","97","824011","0.0-97.0","5dbe0ca99ea0b1327a2a8d4e","64de821dd255fafe6c7a5292","","","","","3341",""," ","key"," ","16.653467661691298","500","250","pz","48","1","0","44","","","36"
"","psychophysics","98","828947","0.0-98.0","5dbe0ca99ea0b1327a2a8d4e","64de821dd255fafe6c7a5292","","","","","4917",""," ","key"," ","16.652942372881412","500","250","pz","38","1","0","22","","","21"
"","psychophysics","99","833241","0.0-99.0","5dbe0ca99ea0b1327a2a8d4e","64de821dd255fafe6c7a5292","","","","","4277",""," ","key"," ","16.653610894941647","500","250","pz","84","1","0","59","","","60"
"","psychophysics","100","836732","0.0-100.0","5dbe0ca99ea0b1327a2a8d4e","64de821dd255fafe6c7a5292","","","","","3474",""," ","key"," ","16.652894736842462","500","250","pz","58","1","0","43","","","43"
"","psychophysics","101","839893","0.0-101.0","5dbe0ca99ea0b1327a2a8d4e","64de821dd255fafe6c7a5292","","","","","3155",""," ","key"," ","16.653994680851067","500","250","inst","","","","","","",""
"","psychophysics","102","844442","0.0-102.0","5dbe0ca99ea0b1327a2a8d4e","64de821dd255fafe6c7a5292","","","","","4529",""," ","key"," ","16.653512820512766","500","250","instBr0","0","","","0","0","0","300"
"","psychophysics","103","858384","0.0-103.0","5dbe0ca99ea0b1327a2a8d4e","64de821dd255fafe6c7a5292","","","","","13932",""," ","key"," ","16.653065789473672","500","250","instBr1","-40","","","-40","0","0","300"
"","psychophysics","104","875158","0.0-104.0","5dbe0ca99ea0b1327a2a8d4e","64de821dd255fafe6c7a5292","","","","","16753",""," ","key"," ","16.65310636182905","500","250","instBr3","29","2","","40","0","0","300"
"","psychophysics","105","878710","0.0-105.0","5dbe0ca99ea0b1327a2a8d4e","64de821dd255fafe6c7a5292","","","","","3540",""," ","key"," ","16.65319811320756","500","250","inst","","","","","","",""
"","psychophysics","106","883822","0.0-106.0","5dbe0ca99ea0b1327a2a8d4e","64de821dd255fafe6c7a5292","","","","","5093",""," ","key"," ","16.653084967320396","500","250","br","32","2","0","-14","-19","-4","261"
"","psychophysics","107","887180","0.0-107.0","5dbe0ca99ea0b1327a2a8d4e","64de821dd255fafe6c7a5292","","","","","3339",""," ","key"," ","16.653527363183773","500","250","br","32","2","0","-3","-11","19","252"
"","psychophysics","108","891588","0.0-108.0","5dbe0ca99ea0b1327a2a8d4e","64de821dd255fafe6c7a5292","","","","","4393",""," ","key"," ","16.6530757575758","500","250","br","26","2","0","-12","8","10","229"
"","psychophysics","109","896033","0.0-109.0","5dbe0ca99ea0b1327a2a8d4e","64de821dd255fafe6c7a5292","","","","","4427",""," ","key"," ","16.65288721804535","500","250","br","26","2","0","-2","-28","21","248"
"","psychophysics","110","901829","0.0-110.0","5dbe0ca99ea0b1327a2a8d4e","64de821dd255fafe6c7a5292","","","","","5788",""," ","key"," ","16.653397694524305","500","250","br","19","2","0","-30","-3","-23","288"
"","psychophysics","111","906222","0.0-111.0","5dbe0ca99ea0b1327a2a8d4e","64de821dd255fafe6c7a5292","","","","","4373",""," ","key"," ","16.65328625954229","500","250","br","29","2","0","-5","-25","6","262"
"","psychophysics","112","909855","0.0-112.0","5dbe0ca99ea0b1327a2a8d4e","64de821dd255fafe6c7a5292","","","","","3612",""," ","key"," ","16.65317431192657","500","250","br","26","2","0","-9","-13","15","203"
"","psychophysics","113","912875","0.0-113.0","5dbe0ca99ea0b1327a2a8d4e","64de821dd255fafe6c7a5292","","","","","3012",""," ","key"," ","16.653711111111463","500","250","br","18","2","0","-21","26","11","235"
"","psychophysics","114","916692","0.0-114.0","5dbe0ca99ea0b1327a2a8d4e","64de821dd255fafe6c7a5292","","","","","3801",""," ","key"," ","16.653425438596617","500","250","br","25","2","0","-12","-21","-24","250"
"","psychophysics","115","920646","0.0-115.0","5dbe0ca99ea0b1327a2a8d4e","64de821dd255fafe6c7a5292","","","","","3939",""," ","key"," ","16.65361181434631","500","250","br","18","2","0","24","-17","13","202"
"","psychophysics","116","924479","0.0-116.0","5dbe0ca99ea0b1327a2a8d4e","64de821dd255fafe6c7a5292","","","","","3816",""," ","key"," ","16.65377292576435","500","250","br","7","2","0","18","-9","25","236"
"","psychophysics","117","927573","0.0-117.0","5dbe0ca99ea0b1327a2a8d4e","64de821dd255fafe6c7a5292","","","","","3064",""," ","key"," ","16.65378378378353","500","250","br","15","2","0","-22","7","-27","233"
"","psychophysics","118","931758","0.0-118.0","5dbe0ca99ea0b1327a2a8d4e","64de821dd255fafe6c7a5292","","","","","4174",""," ","key"," ","16.65349199999962","500","250","br","23","2","0","-7","2","-12","215"
"","psychophysics","119","936984","0.0-119.0","5dbe0ca99ea0b1327a2a8d4e","64de821dd255fafe6c7a5292","","","","","5211",""," ","key"," ","16.653277955271644","500","250","br","13","2","0","-30","29","0","268"
"","psychophysics","120","944185","0.0-120.0","5dbe0ca99ea0b1327a2a8d4e","64de821dd255fafe6c7a5292","","","","","7180",""," ","key"," ","16.653099767981246","500","250","br","22","2","0","-18","-2","-5","205"
"","psychophysics","121","953022","0.0-121.0","5dbe0ca99ea0b1327a2a8d4e","64de821dd255fafe6c7a5292","","","","","8827",""," ","key"," ","16.653239622641628","500","250","inst","","","","","","",""
"","psychophysics","122","967125","0.0-122.0","5dbe0ca99ea0b1327a2a8d4e","64de821dd255fafe6c7a5292","","","","","14095",""," ","key"," ","16.653037825059208","500","250","instBr3","-20","1","","40","0","0","300"
"","psychophysics","123","968715","0.0-123.0","5dbe0ca99ea0b1327a2a8d4e","64de821dd255fafe6c7a5292","","","","","1583",""," ","key"," ","16.653095744681504","500","250","inst","","","","","","",""
"","psychophysics","124","971954","0.0-124.0","5dbe0ca99ea0b1327a2a8d4e","64de821dd255fafe6c7a5292","","","","","3224",""," ","key"," ","16.652721649484672","500","250","br","-21","1","1","13","13","-9","225"
"","psychophysics","125","975452","0.0-125.0","5dbe0ca99ea0b1327a2a8d4e","64de821dd255fafe6c7a5292","","","","","3491",""," ","key"," ","16.653019138756118","500","250","br","-22","1","1","12","27","2","216"
"","psychophysics","126","978731","0.0-126.0","5dbe0ca99ea0b1327a2a8d4e","64de821dd255fafe6c7a5292","","","","","3264",""," ","key"," ","16.653464285714424","500","250","br","-11","1","1","-21","-16","-3","280"
"","psychophysics","127","981950","0.0-127.0","5dbe0ca99ea0b1327a2a8d4e","64de821dd255fafe6c7a5292","","","","","3209",""," ","key"," ","16.653588541666977","500","250","br","-22","1","1","-15","-1","21","203"
"","psychophysics","128","986332","0.0-128.0","5dbe0ca99ea0b1327a2a8d4e","64de821dd255fafe6c7a5292","","","","","4372",""," ","key"," ","16.652744274809493","500","250","br","-18","1","1","13","2","18","264"
"","psychophysics","129","989659","0.0-129.0","5dbe0ca99ea0b1327a2a8d4e","64de821dd255fafe6c7a5292","","","","","3324",""," ","key"," ","16.654140703517584","500","250","br","-11","1","1","16","23","-11","273"
"","psychophysics","130","992620","0.0-130.0","5dbe0ca99ea0b1327a2a8d4e","64de821dd255fafe6c7a5292","","","","","2948",""," ","key"," ","16.653468926553614","500","250","br","-15","1","1","-2","16","5","226"
"","psychophysics","131","995768","0.0-131.0","5dbe0ca99ea0b1327a2a8d4e","64de821dd255fafe6c7a5292","","","","","3140",""," ","key"," ","16.6535106382978","500","250","br","-4","1","1","16","3","-5","232"
"","psychophysics","132","999294","0.0-132.0","5dbe0ca99ea0b1327a2a8d4e","64de821dd255fafe6c7a5292","","","","","3519",""," ","key"," ","16.652961904762336","500","250","br","-22","1","1","-17","-20","-12","255"
"","psychophysics","133","1003551","0.0-133.0","5dbe0ca99ea0b1327a2a8d4e","64de821dd255fafe6c7a5292","","","","","4246",""," ","key"," ","16.653274509803776","500","250","br","-14","1","1","-25","-5","-21","278"
"","psychophysics","134","1007758","0.0-134.0","5dbe0ca99ea0b1327a2a8d4e","64de821dd255fafe6c7a5292","","","","","4194",""," ","key"," ","16.653444444444233","500","250","br","-14","1","1","9","-21","12","253"
"","psychophysics","135","1010493","0.0-135.0","5dbe0ca99ea0b1327a2a8d4e","64de821dd255fafe6c7a5292","","","","","2726",""," ","key"," ","16.653239263803698","500","250","br","-12","1","1","-28","-22","28","226"
"","psychophysics","136","1016157","0.0-136.0","5dbe0ca99ea0b1327a2a8d4e","64de821dd255fafe6c7a5292","","","","","5649",""," ","key"," ","16.653321533923375","500","250","br","-14","1","1","16","-25","27","255"
"","psychophysics","137","1019639","0.0-137.0","5dbe0ca99ea0b1327a2a8d4e","64de821dd255fafe6c7a5292","","","","","3470",""," ","key"," ","16.653250000000227","500","250","br","-18","1","1","-21","1","29","211"
"","psychophysics","138","1023267","0.0-138.0","5dbe0ca99ea0b1327a2a8d4e","64de821dd255fafe6c7a5292","","","","","3602",""," ","key"," ","16.65366359446992","500","250","br","-16","1","1","4","22","-7","281"
"","psychophysics","139","1030014","0.0-139.0","5dbe0ca99ea0b1327a2a8d4e","64de821dd255fafe6c7a5292","","","","","6731",""," ","key"," ","16.6533465346533","500","250","inst","","","","","","",""
"","psychophysics","140","1069311","0.0-140.0","5dbe0ca99ea0b1327a2a8d4e","64de821dd255fafe6c7a5292","","","","","39281",""," ","key"," ","16.653008478168683","500","250","instZol1","0.2999999999999998","","","-1.3","0","0",""
"","psychophysics","141","1077302","0.0-141.0","5dbe0ca99ea0b1327a2a8d4e","64de821dd255fafe6c7a5292","","","","","7971",""," ","key"," ","16.653204592901897","500","250","instZol2","-2.8000000000000007","2","","2","0","0",""
"","psychophysics","142","1080638","0.0-142.0","5dbe0ca99ea0b1327a2a8d4e","64de821dd255fafe6c7a5292","","","","","3329",""," ","key"," ","16.653306532662885","500","250","inst","","","","","","",""
"","psychophysics","143","1086296","0.0-143.0","5dbe0ca99ea0b1327a2a8d4e","64de821dd255fafe6c7a5292","","","","","5635",""," ","key"," ","16.65332448377568","500","250","zol","-0.8000000000000002","2","1","-0.3","17","20",""
"","psychophysics","144","1091581","0.0-144.0","5dbe0ca99ea0b1327a2a8d4e","64de821dd255fafe6c7a5292","","","","","5270",""," ","key"," ","16.653148734177275","500","250","zol","-3.2300000000000018","2","1","0.33","-18","-13",""
"","psychophysics","145","1098081","0.0-145.0","5dbe0ca99ea0b1327a2a8d4e","64de821dd255fafe6c7a5292","","","","","6488",""," ","key"," ","16.653203084832654","500","250","zol","-2.6500000000000012","2","1","0.25","22","23",""
"","psychophysics","146","1103833","0.0-146.0","5dbe0ca99ea0b1327a2a8d4e","64de821dd255fafe6c7a5292","","","","","5732",""," ","key"," ","16.653223188405693","500","250","zol","-1.1199999999999999","2","1","-0.68","-22","1",""
"","psychophysics","147","1108317","0.0-147.0","5dbe0ca99ea0b1327a2a8d4e","64de821dd255fafe6c7a5292","","","","","4463",""," ","key"," ","16.653014925373682","500","250","zol","-2.150000000000001","2","1","-0.55","18","25",""
"","psychophysics","148","1116325","0.0-148.0","5dbe0ca99ea0b1327a2a8d4e","64de821dd255fafe6c7a5292","","","","","null","","null","key","null","16.653250000000117","500","250","zol","-2.0900000000000007","2","1","0.59","-22","-8",""
"","psychophysics","149","1116676","0.0-149.0","5dbe0ca99ea0b1327a2a8d4e","64de821dd255fafe6c7a5292","","","","","333",""," ","key"," ","16.65154999999795","500","250","zol","-0.18","2","1","0.18","-24","-18",""
"","psychophysics","150","1123080","0.0-150.0","5dbe0ca99ea0b1327a2a8d4e","64de821dd255fafe6c7a5292","","","","","6396",""," ","key"," ","16.6539166666668","500","250","zol","-2.580000000000001","2","1","-0.62","-4","-25",""
"","psychophysics","151","1131091","0.0-151.0","5dbe0ca99ea0b1327a2a8d4e","64de821dd255fafe6c7a5292","","","","","null","","null","key","null","16.65307291666686","500","250","zol","-0.07000000000000006","2","1","-0.63","27","-5",""
"","psychophysics","152","1136376","0.0-152.0","5dbe0ca99ea0b1327a2a8d4e","64de821dd255fafe6c7a5292","","","","","5271",""," ","key"," ","16.65346518987377","500","250","zol","-1.0999999999999999","2","1","0.2","-15","-28",""
"","psychophysics","153","1139527","0.0-153.0","5dbe0ca99ea0b1327a2a8d4e","64de821dd255fafe6c7a5292","","","","","3133",""," ","key"," ","16.65379255319118","500","250","zol","-2.0900000000000007","2","1","-0.51","30","18",""
"","psychophysics","154","1142901","0.0-154.0","5dbe0ca99ea0b1327a2a8d4e","64de821dd255fafe6c7a5292","","","","","3351",""," ","key"," ","16.65292574257341","500","250","zol","-2.6400000000000015","2","1","-0.36","20","-24",""
"","psychophysics","155","1150292","0.0-155.0","5dbe0ca99ea0b1327a2a8d4e","64de821dd255fafe6c7a5292","","","","","7376",""," ","key"," ","16.653036117381323","500","250","zol","-2.8900000000000015","2","1","0.69","-15","-26",""
"","psychophysics","156","1156165","0.0-156.0","5dbe0ca99ea0b1327a2a8d4e","64de821dd255fafe6c7a5292","","","","","5847",""," ","key"," ","16.653378917378614","500","250","zol","-2.8800000000000017","2","1","0.68","-14","-4",""
"","psychophysics","157","1160949","0.0-157.0","5dbe0ca99ea0b1327a2a8d4e","64de821dd255fafe6c7a5292","","","","","4755",""," ","key"," ","16.65327177700369","500","250","zol","-0.6799999999999998","2","1","-0.22","30","-10",""
"","psychophysics","158","1163167","0.0-158.0","5dbe0ca99ea0b1327a2a8d4e","64de821dd255fafe6c7a5292","","","","","2211",""," ","key"," ","16.653666666666552","500","250","inst","","","","","","",""
"","psychophysics","159","1174712","0.0-159.0","5dbe0ca99ea0b1327a2a8d4e","64de821dd255fafe6c7a5292","","","","","11539",""," ","key"," ","16.653039017340944","500","250","instPz1","25","2","","25","","","50"
"","psychophysics","160","1182567","0.0-160.0","5dbe0ca99ea0b1327a2a8d4e","64de821dd255fafe6c7a5292","","","","","7841",""," ","key"," ","16.653295116772927","500","250","instPz2","31","2","","20","","","35"
"","psychophysics","161","1186931","0.0-161.0","5dbe0ca99ea0b1327a2a8d4e","64de821dd255fafe6c7a5292","","","","","4340",""," ","key"," ","16.653329501915152","500","250","instPz3","30","2","","30","","","100"
"","psychophysics","162","1212375","0.0-162.0","5dbe0ca99ea0b1327a2a8d4e","64de821dd255fafe6c7a5292","","","","","25410",""," ","key"," ","16.652983628028757","500","250","instPz4","30","2","","30","","","100"
"","psychophysics","163","1215919","0.0-163.0","5dbe0ca99ea0b1327a2a8d4e","64de821dd255fafe6c7a5292","","","","","3540",""," ","key"," ","16.652853773585036","500","250","inst","","","","","","",""
"","psychophysics","164","1223927","0.0-164.0","5dbe0ca99ea0b1327a2a8d4e","64de821dd255fafe6c7a5292","","","","","null","","null","key","null","16.65324008350731","500","250","pz","29","2","1","30","","","55"
"","psychophysics","165","1224033","0.0-165.0","5dbe0ca99ea0b1327a2a8d4e","64de821dd255fafe6c7a5292","","","","","97",""," ","key"," ","16.62400000003011","500","250","pz","37","2","1","37","","","54"
"","psychophysics","166","1229975","0.0-166.0","5dbe0ca99ea0b1327a2a8d4e","64de821dd255fafe6c7a5292","","","","","5937",""," ","key"," ","16.653525280898954","500","250","pz","33","2","1","53","","","45"
"","psychophysics","167","1233608","0.0-167.0","5dbe0ca99ea0b1327a2a8d4e","64de821dd255fafe6c7a5292","","","","","3615",""," ","key"," ","16.653041474654206","500","250","pz","20","2","1","26","","","29"
"","psychophysics","168","1237288","0.0-168.0","5dbe0ca99ea0b1327a2a8d4e","64de821dd255fafe6c7a5292","","","","","3675",""," ","key"," ","16.6532727272726","500","250","pz","24","2","1","43","","","37"
"","psychophysics","169","1242466","0.0-169.0","5dbe0ca99ea0b1327a2a8d4e","64de821dd255fafe6c7a5292","","","","","5159",""," ","key"," ","16.653280645161267","500","250","pz","15","2","1","51","","","21"
"","psychophysics","170","1248217","0.0-170.0","5dbe0ca99ea0b1327a2a8d4e","64de821dd255fafe6c7a5292","","","","","5742",""," ","key"," ","16.653345930233034","500","250","pz","25","2","1","46","","","40"
"","psychophysics","171","1255487","0.0-171.0","5dbe0ca99ea0b1327a2a8d4e","64de821dd255fafe6c7a5292","","","","","7257",""," ","key"," ","16.653362385321454","500","250","pz","28","2","1","56","","","49"
"","psychophysics","172","1259912","0.0-172.0","5dbe0ca99ea0b1327a2a8d4e","64de821dd255fafe6c7a5292","","","","","4406",""," ","key"," ","16.653390151515573","500","250","pz","15","2","1","38","","","21"
"","psychophysics","173","1264884","0.0-173.0","5dbe0ca99ea0b1327a2a8d4e","64de821dd255fafe6c7a5292","","","","","4958",""," ","key"," ","16.653010067113538","500","250","pz","15","2","1","49","","","21"
"","psychophysics","174","1268872","0.0-174.0","5dbe0ca99ea0b1327a2a8d4e","64de821dd255fafe6c7a5292","","","","","3974",""," ","key"," ","16.653516806722735","500","250","pz","38","2","1","54","","","54"
"","psychophysics","175","1273648","0.0-175.0","5dbe0ca99ea0b1327a2a8d4e","64de821dd255fafe6c7a5292","","","","","4764",""," ","key"," ","16.653318181817934","500","250","pz","22","2","1","53","","","33"
"","psychophysics","176","1277918","0.0-176.0","5dbe0ca99ea0b1327a2a8d4e","64de821dd255fafe6c7a5292","","","","","4254",""," ","key"," ","16.653585937499884","500","250","pz","33","2","1","55","","","55"
"","psychophysics","177","1284583","0.0-177.0","5dbe0ca99ea0b1327a2a8d4e","64de821dd255fafe6c7a5292","","","","","6654",""," ","key"," ","16.653285714285914","500","250","pz","22","2","1","55","","","27"
"","psychophysics","178","1288378","0.0-178.0","5dbe0ca99ea0b1327a2a8d4e","64de821dd255fafe6c7a5292","","","","","3777",""," ","key"," ","16.653220264318026","500","250","pz","28","2","1","56","","","40"
"","psychophysics","179","1304333","0.0-179.0","5dbe0ca99ea0b1327a2a8d4e","64de821dd255fafe6c7a5292","","","","","15947",""," ","key"," ","16.652970741901697","500","250","inst","","","","","","",""
"","psychophysics","180","1318053","0.0-180.0","5dbe0ca99ea0b1327a2a8d4e","64de821dd255fafe6c7a5292","","","","","13712",""," ","key"," ","16.652970838396133","500","250","instPog0","340","2","","370","0","0","340"
"","psychophysics","181","1325504","0.0-181.0","5dbe0ca99ea0b1327a2a8d4e","64de821dd255fafe6c7a5292","","","","","7444",""," ","key"," ","16.653165919282326","500","250","instPog1","370","2","","370","0","0","340"
"","psychophysics","182","1329118","0.0-182.0","5dbe0ca99ea0b1327a2a8d4e","64de821dd255fafe6c7a5292","","","","","3601",""," ","key"," ","16.653555555555847","500","250","instPog2","312","2","","340","0","0","340"
"","psychophysics","183","1332075","0.0-183.0","5dbe0ca99ea0b1327a2a8d4e","64de821dd255fafe6c7a5292","","","","","2944",""," ","key"," ","16.65356497175197","500","250","inst","","","","","","",""
"","psychophysics","184","1336035","0.0-184.0","5dbe0ca99ea0b1327a2a8d4e","64de821dd255fafe6c7a5292","","","","","3941",""," ","key"," ","16.652961864407466","500","250","pog","332","2","1","336","0","0","367"
"","psychophysics","185","1339229","0.0-185.0","5dbe0ca99ea0b1327a2a8d4e","64de821dd255fafe6c7a5292","","","","","3183",""," ","key"," ","16.653198952880487","500","250","pog","326","2","1","312","0","0","379"
"","psychophysics","186","1342807","0.0-186.0","5dbe0ca99ea0b1327a2a8d4e","64de821dd255fafe6c7a5292","","","","","3574",""," ","key"," ","16.654116822429497","500","250","pog","291","2","1","315","0","0","321"
"","psychophysics","187","1345519","0.0-187.0","5dbe0ca99ea0b1327a2a8d4e","64de821dd255fafe6c7a5292","","","","","2699",""," ","key"," ","16.653617283951686","500","250","pog","298","2","1","292","0","0","331"
"","psychophysics","188","1350469","0.0-188.0","5dbe0ca99ea0b1327a2a8d4e","64de821dd255fafe6c7a5292","","","","","4936",""," ","key"," ","16.653108108108327","500","250","pog","277","2","1","391","0","0","327"
"","psychophysics","189","1353448","0.0-189.0","5dbe0ca99ea0b1327a2a8d4e","64de821dd255fafe6c7a5292","","","","","2973",""," ","key"," ","16.654056179775395","500","250","pog","305","2","1","313","0","0","348"
"","psychophysics","190","1358508","0.0-190.0","5dbe0ca99ea0b1327a2a8d4e","64de821dd255fafe6c7a5292","","","","","5047",""," ","key"," ","16.653006600660177","500","250","pog","306","2","1","280","0","0","351"
"","psychophysics","191","1365503","0.0-191.0","5dbe0ca99ea0b1327a2a8d4e","64de821dd255fafe6c7a5292","","","","","6982",""," ","key"," ","16.653112171837385","500","250","pog","298","2","1","380","0","0","336"
"","psychophysics","192","1370312","0.0-192.0","5dbe0ca99ea0b1327a2a8d4e","64de821dd255fafe6c7a5292","","","","","4793",""," ","key"," ","16.653319444444303","500","250","pog","318","2","1","282","0","0","368"
"","psychophysics","193","1374385","0.0-193.0","5dbe0ca99ea0b1327a2a8d4e","64de821dd255fafe6c7a5292","","","","","4068",""," ","key"," ","16.653275720164785","500","250","pog","287","2","1","375","0","0","323"
"","psychophysics","194","1377952","0.0-194.0","5dbe0ca99ea0b1327a2a8d4e","64de821dd255fafe6c7a5292","","","","","3552",""," ","key"," ","16.652859813084383","500","250","pog","340","2","1","382","0","0","377"
"","psychophysics","195","1382788","0.0-195.0","5dbe0ca99ea0b1327a2a8d4e","64de821dd255fafe6c7a5292","","","","","4831",""," ","key"," ","16.653131487888885","500","250","pog","276","2","1","350","0","0","320"
"","psychophysics","196","1385755","0.0-196.0","5dbe0ca99ea0b1327a2a8d4e","64de821dd255fafe6c7a5292","","","","","2947",""," ","key"," ","16.653288135593126","500","250","pog","267","2","1","309","0","0","305"
"","psychophysics","197","1388397","0.0-197.0","5dbe0ca99ea0b1327a2a8d4e","64de821dd255fafe6c7a5292","","","","","2630",""," ","key"," ","16.653405063290478","500","250","pog","292","2","1","282","0","0","342"
"","psychophysics","198","1392036","0.0-198.0","5dbe0ca99ea0b1327a2a8d4e","64de821dd255fafe6c7a5292","","","","","3634",""," ","key"," ","16.653493087557422","500","250","pog","343","2","1","363","0","0","371"
"","psychophysics","199","1393941","0.0-199.0","5dbe0ca99ea0b1327a2a8d4e","64de821dd255fafe6c7a5292","","","","","1894",""," ","key"," ","16.654008771930087","500","250","inst","","","","","","",""
"","psychophysics","200","1405757","0.0-200.0","5dbe0ca99ea0b1327a2a8d4e","64de821dd255fafe6c7a5292","","","","","11807",""," ","key"," ","16.653086158192103","500","250","instEB1","29","1","","40","0","0","30"
"","psychophysics","201","1416557","0.0-201.0","5dbe0ca99ea0b1327a2a8d4e","64de821dd255fafe6c7a5292","","","","","10772",""," ","key"," ","16.653061728395254","500","250","instEB2","30","1","","30","0","0","40"
"","psychophysics","202","1422348","0.0-202.0","5dbe0ca99ea0b1327a2a8d4e","64de821dd255fafe6c7a5292","","","","","5787",""," ","key"," ","16.65343352601153","500","250","instEB3","27","1","","27","0","0","45"
"","psychophysics","203","1427634","0.0-203.0","5dbe0ca99ea0b1327a2a8d4e","64de821dd255fafe6c7a5292","","","","","5273",""," ","key"," ","16.65330914826476","500","250","instEB4","40","1","","40","0","0","30"
"","psychophysics","204","1429954","0.0-204.0","5dbe0ca99ea0b1327a2a8d4e","64de821dd255fafe6c7a5292","","","","","2314",""," ","key"," ","16.65438405797223","500","250","inst","","","","","","",""
"","psychophysics","205","1436741","0.0-205.0","5dbe0ca99ea0b1327a2a8d4e","64de821dd255fafe6c7a5292","","","","","6768",""," ","key"," ","16.653014742014747","500","250","eb","31","1","","38","0","0","39"
"","psychophysics","206","1441302","0.0-206.0","5dbe0ca99ea0b1327a2a8d4e","64de821dd255fafe6c7a5292","","","","","4543",""," ","key"," ","16.653695970696088","500","250","eb","36","1","","48","0","0","45"
"","psychophysics","207","1445201","0.0-207.0","5dbe0ca99ea0b1327a2a8d4e","64de821dd255fafe6c7a5292","","","","","3890",""," ","key"," ","16.65336051502049","500","250","eb","31","1","","47","0","0","38"
"","psychophysics","208","1451014","0.0-208.0","5dbe0ca99ea0b1327a2a8d4e","64de821dd255fafe6c7a5292","","","","","5789",""," ","key"," ","16.653327586206917","500","250","eb","26","1","","31","0","0","33"
"","psychophysics","209","1455163","0.0-209.0","5dbe0ca99ea0b1327a2a8d4e","64de821dd255fafe6c7a5292","","","","","4115",""," ","key"," ","16.653008064516115","500","250","eb","45","1","","36","0","0","51"
"","psychophysics","210","1458654","0.0-210.0","5dbe0ca99ea0b1327a2a8d4e","64de821dd255fafe6c7a5292","","","","","3475",""," ","key"," ","16.65316746411422","500","250","eb","42","1","","34","0","0","44"
"","psychophysics","211","1461868","0.0-211.0","5dbe0ca99ea0b1327a2a8d4e","64de821dd255fafe6c7a5292","","","","","3206",""," ","key"," ","16.652562499999476","500","250","eb","53","1","","41","0","0","50"
"","psychophysics","212","1466269","0.0-212.0","5dbe0ca99ea0b1327a2a8d4e","64de821dd255fafe6c7a5292","","","","","4395",""," ","key"," ","16.65362357414512","500","250","eb","37","1","","35","0","0","40"
"","psychophysics","213","1472832","0.0-213.0","5dbe0ca99ea0b1327a2a8d4e","64de821dd255fafe6c7a5292","","","","","6546",""," ","key"," ","16.653015267175597","500","250","eb","21","1","","52","0","0","27"
"","psychophysics","214","1478131","0.0-214.0","5dbe0ca99ea0b1327a2a8d4e","64de821dd255fafe6c7a5292","","","","","5280",""," ","key"," ","16.653261829653097","500","250","eb","53","1","","37","0","0","53"
"","psychophysics","215","1482023","0.0-215.0","5dbe0ca99ea0b1327a2a8d4e","64de821dd255fafe6c7a5292","","","","","3877",""," ","key"," ","16.653442060085247","500","250","eb","50","1","","27","0","0","50"
"","psychophysics","216","1487328","0.0-216.0","5dbe0ca99ea0b1327a2a8d4e","64de821dd255fafe6c7a5292","","","","","5289",""," ","key"," ","16.652698113207425","500","250","eb","35","1","","54","0","0","32"
"","psychophysics","217","1493122","0.0-217.0","5dbe0ca99ea0b1327a2a8d4e","64de821dd255fafe6c7a5292","","","","","5787",""," ","key"," ","16.65290201729115","500","250","eb","34","1","","49","0","0","42"
"","psychophysics","218","1498181","0.0-218.0","5dbe0ca99ea0b1327a2a8d4e","64de821dd255fafe6c7a5292","","","","","5054",""," ","key"," ","16.65303642384088","500","250","eb","39","1","","29","0","0","52"
"","psychophysics","219","1503134","0.0-219.0","5dbe0ca99ea0b1327a2a8d4e","64de821dd255fafe6c7a5292","","","","","4948",""," ","key"," ","16.653437710437696","500","250","eb","53","1","","41","0","0","53"
