"success","trial_type","trial_index","time_elapsed","internal_node_id","pid","sid","timeout","failed_images","failed_audio","failed_video","rt","stimulus","response","response_type","key_press","avg_frame_time","center_x","center_y","task","resp","version","block","jitterX","jitterY","start","parA"
"true","fullscreen","0","2524","0.0-0.0","5a188836087f2e0001eaf744","64e50f8c162b28609215d8d7","","","","","","","","","","","","","","","","","","","",""
"true","preload","1","2614","0.0-1.0","5a188836087f2e0001eaf744","64e50f8c162b28609215d8d7","false","[]","[]","[]","","","","","","","","","","","","","","","",""
"","html-button-response","2","4680","0.0-2.0","5a188836087f2e0001eaf744","64e50f8c162b28609215d8d7","","","","","2065","Please Make Sure Your Audio Is On.","0","","","","","","","","","","","","",""
"","psychophysics","3","11076","0.0-3.0","5a188836087f2e0001eaf744","64e50f8c162b28609215d8d7","","","","","6392",""," ","key"," ","16.683755208333334","853.3333333333334","250","","","","","","","",""
"","psychophysics","4","15031","0.0-4.0","5a188836087f2e0001eaf744","64e50f8c162b28609215d8d7","","","","","3954",""," ","key"," ","16.683398305084744","500","250","inst","","","","","","",""
"","psychophysics","5","18537","0.0-5.0","5a188836087f2e0001eaf744","64e50f8c162b28609215d8d7","","","","","3504",""," ","key"," ","16.683248803827755","500","250","sample0","","","","","","",""
"","psychophysics","6","20438","0.0-6.0","5a188836087f2e0001eaf744","64e50f8c162b28609215d8d7","","","","","1899",""," ","key"," ","16.684150442477854","500","250","sample1","","","","","","",""
"","psychophysics","7","42874","0.0-7.0","5a188836087f2e0001eaf744","64e50f8c162b28609215d8d7","","","","","22435",""," ","key"," ","16.68355100521221","500","250","sample2","100","","","","","",""
"","psychophysics","8","48853","0.0-8.0","5a188836087f2e0001eaf744","64e50f8c162b28609215d8d7","","","","","5976",""," ","key"," ","16.683497206703898","500","250","sample3","100","","","","","",""
"","psychophysics","9","60208","0.0-9.0","5a188836087f2e0001eaf744","64e50f8c162b28609215d8d7","","","","","11353",""," ","key"," ","16.68353166421207","500","250","sample4","100","","","","","",""
"","psychophysics","10","67789","0.0-10.0","5a188836087f2e0001eaf744","64e50f8c162b28609215d8d7","","","","","7578",""," ","key"," ","16.68338105726872","500","250","sample5","","","","","","",""
"","psychophysics","11","75025","0.0-11.0","5a188836087f2e0001eaf744","64e50f8c162b28609215d8d7","","","","","7235",""," ","key"," ","16.683588914549667","500","250","sample6","502","","","","","",""
"","psychophysics","12","82488","0.0-12.0","5a188836087f2e0001eaf744","64e50f8c162b28609215d8d7","","","","","7461",""," ","key"," ","16.68344843049327","500","250","inst","","","","","","",""
"","psychophysics","13","88886","0.0-13.0","5a188836087f2e0001eaf744","64e50f8c162b28609215d8d7","","","","","6397",""," ","key"," ","16.68370680628274","500","250","inst","","","","","","",""
"","psychophysics","14","93088","0.0-14.0","5a188836087f2e0001eaf744","64e50f8c162b28609215d8d7","","","","","4201",""," ","key"," ","16.683498007968147","500","250","inst","","","","","","",""
"","psychophysics","15","96981","0.0-15.0","5a188836087f2e0001eaf744","64e50f8c162b28609215d8d7","","","","","3892",""," ","key"," ","16.683789699570834","500","250","inst","","","","","","",""
"","psychophysics","16","98692","0.0-16.0","5a188836087f2e0001eaf744","64e50f8c162b28609215d8d7","","","","","1710",""," ","key"," ","16.683465346534643","500","250","inst","","","","","","",""
"","psychophysics","17","101623","0.0-17.0","5a188836087f2e0001eaf744","64e50f8c162b28609215d8d7","","","","","2928",""," ","key"," ","16.683731428571377","500","250","instZol0","0","","","0","0","0",""
"","psychophysics","18","112203","0.0-18.0","5a188836087f2e0001eaf744","64e50f8c162b28609215d8d7","","","","","10580",""," ","key"," ","16.683505529225908","500","250","instZol1","-0.09999999999999998","","","0","0","-1.3",""
"","psychophysics","19","127614","0.0-19.0","5a188836087f2e0001eaf744","64e50f8c162b28609215d8d7","","","","","15408",""," ","key"," ","16.683549295774647","500","250","instZol2","1.0000000000000007","1","","0","0","2",""
"","psychophysics","20","168707","0.0-20.0","5a188836087f2e0001eaf744","64e50f8c162b28609215d8d7","","","","","41092",""," ","key"," ","16.683547928513406","500","250","inst","","","","","","",""
"","psychophysics","21","172471","0.0-21.0","5a188836087f2e0001eaf744","64e50f8c162b28609215d8d7","","","","","3760",""," ","key"," ","16.6833794642858","500","250","zol","0.24999999999999992","1","0","-8","30","0.75",""
"","psychophysics","22","180474","0.0-22.0","5a188836087f2e0001eaf744","64e50f8c162b28609215d8d7","","","","","null","","null","key","null","16.683588726513538","500","250","zol","0.41000000000000003","1","0","3","29","-0.31",""
"","psychophysics","23","185945","0.0-23.0","5a188836087f2e0001eaf744","64e50f8c162b28609215d8d7","","","","","5468",""," ","key"," ","16.683611620795098","500","250","zol","0.3","1","0","-5","-23","-0.2",""
"","psychophysics","24","191134","0.0-24.0","5a188836087f2e0001eaf744","64e50f8c162b28609215d8d7","","","","","5188",""," ","key"," ","16.68350000000003","500","250","zol","0.05999999999999994","1","0","-10","-16","0.74",""
"","psychophysics","25","199137","0.0-25.0","5a188836087f2e0001eaf744","64e50f8c162b28609215d8d7","","","","","null","","null","key","null","16.683659707724424","500","250","zol","0.3500000000000001","1","0","28","10","-0.75",""
"","psychophysics","26","205727","0.0-26.0","5a188836087f2e0001eaf744","64e50f8c162b28609215d8d7","","","","","6587",""," ","key"," ","16.683583756345165","500","250","zol","0.6","1","0","-3","25","0.4",""
"","psychophysics","27","212571","0.0-27.0","5a188836087f2e0001eaf744","64e50f8c162b28609215d8d7","","","","","6843",""," ","key"," ","16.683625916870422","500","250","zol","0.71","1","0","-17","-16","-0.21",""
"","psychophysics","28","216930","0.0-28.0","5a188836087f2e0001eaf744","64e50f8c162b28609215d8d7","","","","","4357",""," ","key"," ","16.6837576923077","500","250","zol","0.85","1","0","14","-15","-0.75",""
"","psychophysics","29","222007","0.0-29.0","5a188836087f2e0001eaf744","64e50f8c162b28609215d8d7","","","","","5072",""," ","key"," ","16.683838815789432","500","250","zol","0.74","1","0","-5","15","-0.34",""
"","psychophysics","30","225635","0.0-30.0","5a188836087f2e0001eaf744","64e50f8c162b28609215d8d7","","","","","3626",""," ","key"," ","16.683425925925903","500","250","zol","0.71","1","0","24","28","0.09",""
"","psychophysics","31","233638","0.0-31.0","5a188836087f2e0001eaf744","64e50f8c162b28609215d8d7","","","","","null","","null","key","null","16.68350313152404","500","250","zol","0.9199999999999998","1","0","-2","-29","-0.42",""
"","psychophysics","32","238097","0.0-32.0","5a188836087f2e0001eaf744","64e50f8c162b28609215d8d7","","","","","4456",""," ","key"," ","16.683560150375904","500","250","zol","0.07999999999999996","1","0","-15","-22","0.42",""
"","psychophysics","33","240922","0.0-33.0","5a188836087f2e0001eaf744","64e50f8c162b28609215d8d7","","","","","2822",""," ","key"," ","16.68342857142852","500","250","zol","0.5499999999999999","1","0","9","15","0.25",""
"","psychophysics","34","247794","0.0-34.0","5a188836087f2e0001eaf744","64e50f8c162b28609215d8d7","","","","","6869",""," ","key"," ","16.68367153284672","500","250","zol","0.74","1","0","-18","29","-0.44",""
"","psychophysics","35","249595","0.0-35.0","5a188836087f2e0001eaf744","64e50f8c162b28609215d8d7","","","","","1799",""," ","key"," ","16.68426168224286","500","250","zol","0.9099999999999999","1","0","5","1","-0.61",""
"","psychophysics","36","257161","0.0-36.0","5a188836087f2e0001eaf744","64e50f8c162b28609215d8d7","","","","","7565",""," ","key"," ","16.683666666666667","500","250","inst","","","","","","",""
"","psychophysics","37","259648","0.0-37.0","5a188836087f2e0001eaf744","64e50f8c162b28609215d8d7","","","","","2486",""," ","key"," ","16.683750000000046","500","250","instPzPre","50","0","","","","50","50"
"","psychophysics","38","262504","0.0-38.0","5a188836087f2e0001eaf744","64e50f8c162b28609215d8d7","","","","","2854",""," ","key"," ","16.683611764705752","500","250","instPz0","50","1","","","","50","50"
"","psychophysics","39","272282","0.0-39.0","5a188836087f2e0001eaf744","64e50f8c162b28609215d8d7","","","","","9777",""," ","key"," ","16.68349914529916","500","250","instPz1","47","1","","","","25","50"
"","psychophysics","40","285526","0.0-40.0","5a188836087f2e0001eaf744","64e50f8c162b28609215d8d7","","","","","13243",""," ","key"," ","16.683625472887755","500","250","instPz2","23","1","","","","35","20"
"","psychophysics","41","297135","0.0-41.0","5a188836087f2e0001eaf744","64e50f8c162b28609215d8d7","","","","","11607",""," ","key"," ","16.683559712230164","500","250","instPz3","39","1","","","","100","30"
"","psychophysics","42","301775","0.0-42.0","5a188836087f2e0001eaf744","64e50f8c162b28609215d8d7","","","","","4639",""," ","key"," ","16.683577617328606","500","250","instPz4","44","1","","","","100","30"
"","psychophysics","43","325641","0.0-43.0","5a188836087f2e0001eaf744","64e50f8c162b28609215d8d7","","","","","23865",""," ","key"," ","16.68352554233732","500","250","inst","","","","","","",""
"","psychophysics","44","331429","0.0-44.0","5a188836087f2e0001eaf744","64e50f8c162b28609215d8d7","","","","","5785",""," ","key"," ","16.68354046242776","500","250","pz","34","1","0","","","25","31"
"","psychophysics","45","335915","0.0-45.0","5a188836087f2e0001eaf744","64e50f8c162b28609215d8d7","","","","","4484",""," ","key"," ","16.683820895522263","500","250","pz","49","1","0","","","59","39"
"","psychophysics","46","342723","0.0-46.0","5a188836087f2e0001eaf744","64e50f8c162b28609215d8d7","","","","","6806",""," ","key"," ","16.683678132678093","500","250","pz","50","1","0","","","35","45"
"","psychophysics","47","348142","0.0-47.0","5a188836087f2e0001eaf744","64e50f8c162b28609215d8d7","","","","","5418",""," ","key"," ","16.683608024691363","500","250","pz","38","1","0","","","28","28"
"","psychophysics","48","354879","0.0-48.0","5a188836087f2e0001eaf744","64e50f8c162b28609215d8d7","","","","","6735",""," ","key"," ","16.68367493796528","500","250","pz","82","1","0","","","27","60"
"","psychophysics","49","362881","0.0-49.0","5a188836087f2e0001eaf744","64e50f8c162b28609215d8d7","","","","","null","","null","key","null","16.68361795407094","500","250","pz","77","1","0","","","21","50"
"","psychophysics","50","363287","0.0-50.0","5a188836087f2e0001eaf744","64e50f8c162b28609215d8d7","","","","","404",""," ","key"," ","16.683130434782587","500","250","pz","42","1","0","","","42","52"
"","psychophysics","51","368591","0.0-51.0","5a188836087f2e0001eaf744","64e50f8c162b28609215d8d7","","","","","5303",""," ","key"," ","16.68374447949537","500","250","pz","58","1","0","","","39","45"
"","psychophysics","52","374561","0.0-52.0","5a188836087f2e0001eaf744","64e50f8c162b28609215d8d7","","","","","5968",""," ","key"," ","16.6836526610643","500","250","pz","32","1","0","","","54","21"
"","psychophysics","53","378980","0.0-53.0","5a188836087f2e0001eaf744","64e50f8c162b28609215d8d7","","","","","4416",""," ","key"," ","16.683414448669247","500","250","pz","78","1","0","","","24","55"
"","psychophysics","54","384105","0.0-54.0","5a188836087f2e0001eaf744","64e50f8c162b28609215d8d7","","","","","5123",""," ","key"," ","16.683583061889205","500","250","pz","70","1","0","","","51","57"
"","psychophysics","55","386883","0.0-55.0","5a188836087f2e0001eaf744","64e50f8c162b28609215d8d7","","","","","2776",""," ","key"," ","16.683490909090985","500","250","pz","52","1","0","","","52","45"
"","psychophysics","56","390840","0.0-56.0","5a188836087f2e0001eaf744","64e50f8c162b28609215d8d7","","","","","3955",""," ","key"," ","16.68351271186444","500","250","pz","37","1","0","","","58","25"
"","psychophysics","57","395217","0.0-57.0","5a188836087f2e0001eaf744","64e50f8c162b28609215d8d7","","","","","4374",""," ","key"," ","16.683832061068664","500","250","pz","59","1","0","","","32","45"
"","psychophysics","58","399234","0.0-58.0","5a188836087f2e0001eaf744","64e50f8c162b28609215d8d7","","","","","4015",""," ","key"," ","16.68321249999984","500","250","pz","62","1","0","","","27","45"
"","psychophysics","59","400309","0.0-59.0","5a188836087f2e0001eaf744","64e50f8c162b28609215d8d7","","","","","1072",""," ","key"," ","16.6832063492066","500","250","inst","","","","","","",""
"","psychophysics","60","401592","0.0-60.0","5a188836087f2e0001eaf744","64e50f8c162b28609215d8d7","","","","","1282",""," ","key"," ","16.682842105263262","500","250","instEB0","40","2","","0","0","40","40"
"","psychophysics","61","410264","0.0-61.0","5a188836087f2e0001eaf744","64e50f8c162b28609215d8d7","","","","","8671",""," ","key"," ","16.683585741811207","500","250","instEB1","40","2","","0","0","30","40"
"","psychophysics","62","414834","0.0-62.0","5a188836087f2e0001eaf744","64e50f8c162b28609215d8d7","","","","","4567",""," ","key"," ","16.68349084249082","500","250","instEB2","37","2","","0","0","40","30"
"","psychophysics","63","432548","0.0-63.0","5a188836087f2e0001eaf744","64e50f8c162b28609215d8d7","","","","","17713",""," ","key"," ","16.683466981132053","500","250","instEB3","34","2","","0","0","45","27"
"","psychophysics","64","441929","0.0-64.0","5a188836087f2e0001eaf744","64e50f8c162b28609215d8d7","","","","","9379",""," ","key"," ","19.822807610993706","500","250","instEB4","46","2","","0","0","30","40"
"","psychophysics","65","443176","0.0-65.0","5a188836087f2e0001eaf744","64e50f8c162b28609215d8d7","","","","","1246",""," ","key"," ","16.683630136986682","500","250","inst","","","","","","",""
"","psychophysics","66","448814","0.0-66.0","5a188836087f2e0001eaf744","64e50f8c162b28609215d8d7","","","","","5635",""," ","key"," ","16.733348214285797","500","250","eb","59","2","","0","0","36","51"
"","psychophysics","67","453878","0.0-67.0","5a188836087f2e0001eaf744","64e50f8c162b28609215d8d7","","","","","5062",""," ","key"," ","16.738705298013173","500","250","eb","58","2","","0","0","26","47"
"","psychophysics","68","456349","0.0-68.0","5a188836087f2e0001eaf744","64e50f8c162b28609215d8d7","","","","","2469",""," ","key"," ","16.683673469387756","500","250","eb","36","2","","0","0","32","29"
"","psychophysics","69","461864","0.0-69.0","5a188836087f2e0001eaf744","64e50f8c162b28609215d8d7","","","","","5513",""," ","key"," ","16.6836272727273","500","250","eb","63","2","","0","0","29","54"
"","psychophysics","70","464442","0.0-70.0","5a188836087f2e0001eaf744","64e50f8c162b28609215d8d7","","","","","2575",""," ","key"," ","16.683457516339605","500","250","eb","55","2","","0","0","50","42"
"","psychophysics","71","466644","0.0-71.0","5a188836087f2e0001eaf744","64e50f8c162b28609215d8d7","","","","","2200",""," ","key"," ","16.683702290076354","500","250","eb","44","2","","0","0","40","38"
"","psychophysics","72","471834","0.0-72.0","5a188836087f2e0001eaf744","64e50f8c162b28609215d8d7","","","","","5188",""," ","key"," ","16.683735483870915","500","250","eb","34","2","","0","0","48","28"
"","psychophysics","73","475415","0.0-73.0","5a188836087f2e0001eaf744","64e50f8c162b28609215d8d7","","","","","3580",""," ","key"," ","16.683878504672787","500","250","eb","53","2","","0","0","44","48"
"","psychophysics","74","481281","0.0-74.0","5a188836087f2e0001eaf744","64e50f8c162b28609215d8d7","","","","","5864",""," ","key"," ","16.683648571428577","500","250","eb","58","2","","0","0","43","51"
"","psychophysics","75","482730","0.0-75.0","5a188836087f2e0001eaf744","64e50f8c162b28609215d8d7","","","","","1446",""," ","key"," ","16.684174418605075","500","250","eb","42","2","","0","0","41","33"
"","psychophysics","76","486817","0.0-76.0","5a188836087f2e0001eaf744","64e50f8c162b28609215d8d7","","","","","4085",""," ","key"," ","16.68378278688522","500","250","eb","54","2","","0","0","28","45"
"","psychophysics","77","488932","0.0-77.0","5a188836087f2e0001eaf744","64e50f8c162b28609215d8d7","","","","","2113",""," ","key"," ","16.68397619047605","500","250","eb","56","2","","0","0","46","47"
"","psychophysics","78","491970","0.0-78.0","5a188836087f2e0001eaf744","64e50f8c162b28609215d8d7","","","","","3036",""," ","key"," ","16.683574585635434","500","250","eb","47","2","","0","0","29","39"
"","psychophysics","79","494642","0.0-79.0","5a188836087f2e0001eaf744","64e50f8c162b28609215d8d7","","","","","2670",""," ","key"," ","16.683704402515556","500","250","eb","56","2","","0","0","28","47"
"","psychophysics","80","497373","0.0-80.0","5a188836087f2e0001eaf744","64e50f8c162b28609215d8d7","","","","","2730",""," ","key"," ","16.683920245398724","500","250","eb","39","2","","0","0","39","35"
"","psychophysics","81","498235","0.0-81.0","5a188836087f2e0001eaf744","64e50f8c162b28609215d8d7","","","","","860",""," ","key"," ","16.68433333333358","500","250","inst","","","","","","",""
"","psychophysics","82","508872","0.0-82.0","5a188836087f2e0001eaf744","64e50f8c162b28609215d8d7","","","","","10636",""," ","key"," ","16.683553459119484","500","250","instPog0","160","1","","0","0","190","160"
"","psychophysics","83","514164","0.0-83.0","5a188836087f2e0001eaf744","64e50f8c162b28609215d8d7","","","","","5291",""," ","key"," ","16.683734177215367","500","250","instPog1","174","1","","0","0","190","160"
"","psychophysics","84","519834","0.0-84.0","5a188836087f2e0001eaf744","64e50f8c162b28609215d8d7","","","","","5668",""," ","key"," ","16.683719764011677","500","250","instPog2","160","1","","0","0","160","160"
"","psychophysics","85","520986","0.0-85.0","5a188836087f2e0001eaf744","64e50f8c162b28609215d8d7","","","","","1152",""," ","key"," ","16.684073529411656","500","250","inst","","","","","","",""
"","psychophysics","86","528987","0.0-86.0","5a188836087f2e0001eaf744","64e50f8c162b28609215d8d7","","","","","null","","null","key","null","16.68359498956167","500","250","pog","205","1","0","0","0","155","196"
"","psychophysics","87","535652","0.0-87.0","5a188836087f2e0001eaf744","64e50f8c162b28609215d8d7","","","","","6663",""," ","key"," ","16.683540201005023","500","250","pog","151","1","0","0","0","143","130"
"","psychophysics","88","540457","0.0-88.0","5a188836087f2e0001eaf744","64e50f8c162b28609215d8d7","","","","","4804",""," ","key"," ","16.683588850174022","500","250","pog","143","1","0","0","0","109","124"
"","psychophysics","89","542891","0.0-89.0","5a188836087f2e0001eaf744","64e50f8c162b28609215d8d7","","","","","2433",""," ","key"," ","16.68397241379295","500","250","pog","182","1","0","0","0","188","156"
"","psychophysics","90","550894","0.0-90.0","5a188836087f2e0001eaf744","64e50f8c162b28609215d8d7","","","","","null","","null","key","null","16.683636743215153","500","250","pog","150","1","0","0","0","184","127"
"","psychophysics","91","551216","0.0-91.0","5a188836087f2e0001eaf744","64e50f8c162b28609215d8d7","","","","","320",""," ","key"," ","16.687111111112042","500","250","pog","173","1","0","0","0","173","181"
"","psychophysics","92","559218","0.0-92.0","5a188836087f2e0001eaf744","64e50f8c162b28609215d8d7","","","","","null","","null","key","null","16.68354488517734","500","250","pog","204","1","0","0","0","100","188"
"","psychophysics","93","562784","0.0-93.0","5a188836087f2e0001eaf744","64e50f8c162b28609215d8d7","","","","","3564",""," ","key"," ","16.683633802816633","500","250","pog","200","1","0","0","0","156","184"
"","psychophysics","94","564925","0.0-94.0","5a188836087f2e0001eaf744","64e50f8c162b28609215d8d7","","","","","2139",""," ","key"," ","16.683425196850724","500","250","pog","142","1","0","0","0","146","123"
"","psychophysics","95","568006","0.0-95.0","5a188836087f2e0001eaf744","64e50f8c162b28609215d8d7","","","","","3080",""," ","key"," ","16.683467391304514","500","250","pog","193","1","0","0","0","169","182"
"","psychophysics","96","569989","0.0-96.0","5a188836087f2e0001eaf744","64e50f8c162b28609215d8d7","","","","","1981",""," ","key"," ","16.683632478632358","500","250","pog","202","1","0","0","0","208","186"
"","psychophysics","97","577972","0.0-97.0","5a188836087f2e0001eaf744","64e50f8c162b28609215d8d7","","","","","7978",""," ","key"," ","16.683569037656994","500","250","pog","147","1","0","0","0","167","121"
"","psychophysics","98","581434","0.0-98.0","5a188836087f2e0001eaf744","64e50f8c162b28609215d8d7","","","","","3460",""," ","key"," ","16.683694174756788","500","250","pog","175","1","0","0","0","115","155"
"","psychophysics","99","586301","0.0-99.0","5a188836087f2e0001eaf744","64e50f8c162b28609215d8d7","","","","","4864",""," ","key"," ","16.683570446735377","500","250","pog","207","1","0","0","0","157","190"
"","psychophysics","100","589093","0.0-100.0","5a188836087f2e0001eaf744","64e50f8c162b28609215d8d7","","","","","2791",""," ","key"," ","16.683970059880227","500","250","pog","200","1","0","0","0","166","183"
"","psychophysics","101","589896","0.0-101.0","5a188836087f2e0001eaf744","64e50f8c162b28609215d8d7","","","","","801",""," ","key"," ","16.684574468086097","500","250","inst","","","","","","",""
"","psychophysics","102","592447","0.0-102.0","5a188836087f2e0001eaf744","64e50f8c162b28609215d8d7","","","","","2549",""," ","key"," ","16.68393421052621","500","250","instBr0","0","","","0","0","0","300"
"","psychophysics","103","597533","0.0-103.0","5a188836087f2e0001eaf744","64e50f8c162b28609215d8d7","","","","","5084",""," ","key"," ","16.683709570957063","500","250","instBr1","2","","","0","0","-40","300"
"","psychophysics","104","604257","0.0-104.0","5a188836087f2e0001eaf744","64e50f8c162b28609215d8d7","","","","","6721",""," ","key"," ","16.683402985074633","500","250","instBr3","-2","1","","0","0","40","300"
"","psychophysics","105","605907","0.0-105.0","5a188836087f2e0001eaf744","64e50f8c162b28609215d8d7","","","","","1647",""," ","key"," ","16.68359183673438","500","250","inst","","","","","","",""
"","psychophysics","106","608172","0.0-106.0","5a188836087f2e0001eaf744","64e50f8c162b28609215d8d7","","","","","2263",""," ","key"," ","16.683940740741132","500","250","br","-7","1","0","-20","-11","10","245"
"","psychophysics","107","612487","0.0-107.0","5a188836087f2e0001eaf744","64e50f8c162b28609215d8d7","","","","","4314",""," ","key"," ","16.683658914728536","500","250","br","-2","1","0","12","26","12","220"
"","psychophysics","108","616917","0.0-108.0","5a188836087f2e0001eaf744","64e50f8c162b28609215d8d7","","","","","4428",""," ","key"," ","16.683488636363606","500","250","br","-5","1","0","19","10","13","202"
"","psychophysics","109","620353","0.0-109.0","5a188836087f2e0001eaf744","64e50f8c162b28609215d8d7","","","","","3434",""," ","key"," ","16.683814634146486","500","250","br","-11","1","0","0","-1","-12","293"
"","psychophysics","110","622638","0.0-110.0","5a188836087f2e0001eaf744","64e50f8c162b28609215d8d7","","","","","2283",""," ","key"," ","16.684007352941347","500","250","br","-11","1","0","0","18","-22","214"
"","psychophysics","111","626462","0.0-111.0","5a188836087f2e0001eaf744","64e50f8c162b28609215d8d7","","","","","3823",""," ","key"," ","16.683530701754265","500","250","br","-6","1","0","-3","-4","-9","248"
"","psychophysics","112","630861","0.0-112.0","5a188836087f2e0001eaf744","64e50f8c162b28609215d8d7","","","","","4395",""," ","key"," ","16.683490494296695","500","250","br","-2","1","0","8","-28","13","269"
"","psychophysics","113","633363","0.0-113.0","5a188836087f2e0001eaf744","64e50f8c162b28609215d8d7","","","","","2499",""," ","key"," ","16.683979865771423","500","250","br","-6","1","0","-5","6","17","270"
"","psychophysics","114","636032","0.0-114.0","5a188836087f2e0001eaf744","64e50f8c162b28609215d8d7","","","","","2668",""," ","key"," ","16.6832012578621","500","250","br","-6","1","0","30","-13","17","239"
"","psychophysics","115","639333","0.0-115.0","5a188836087f2e0001eaf744","64e50f8c162b28609215d8d7","","","","","3299",""," ","key"," ","16.683873096446693","500","250","br","-5","1","0","0","1","-22","298"
"","psychophysics","116","641753","0.0-116.0","5a188836087f2e0001eaf744","64e50f8c162b28609215d8d7","","","","","2417",""," ","key"," ","16.683687500000005","500","250","br","-8","1","0","-25","30","-6","226"
"","psychophysics","117","644728","0.0-117.0","5a188836087f2e0001eaf744","64e50f8c162b28609215d8d7","","","","","2973",""," ","key"," ","16.68358192090366","500","250","br","-3","1","0","9","-29","29","233"
"","psychophysics","118","648660","0.0-118.0","5a188836087f2e0001eaf744","64e50f8c162b28609215d8d7","","","","","3931",""," ","key"," ","16.68388510638293","500","250","br","-4","1","0","-3","12","5","280"
"","psychophysics","119","650052","0.0-119.0","5a188836087f2e0001eaf744","64e50f8c162b28609215d8d7","","","","","1390",""," ","key"," ","16.683536585365","500","250","br","-8","1","0","7","17","-6","258"
"","psychophysics","120","653882","0.0-120.0","5a188836087f2e0001eaf744","64e50f8c162b28609215d8d7","","","","","3829",""," ","key"," ","16.6836855895192","500","250","br","-2","1","0","-8","1","21","238"
"","psychophysics","121","654610","0.0-121.0","5a188836087f2e0001eaf744","64e50f8c162b28609215d8d7","","","","","726",""," ","key"," ","16.684744186046924","500","250","inst","","","","","","",""
"","psychophysics","122","661902","0.0-122.0","5a188836087f2e0001eaf744","64e50f8c162b28609215d8d7","","","","","7291",""," ","key"," ","16.683571100917458","500","250","instPog0","340","2","","0","0","370","340"
"","psychophysics","123","665254","0.0-123.0","5a188836087f2e0001eaf744","64e50f8c162b28609215d8d7","","","","","3351",""," ","key"," ","16.683389999999783","500","250","instPog1","346","2","","0","0","370","340"
"","psychophysics","124","667244","0.0-124.0","5a188836087f2e0001eaf744","64e50f8c162b28609215d8d7","","","","","1989",""," ","key"," ","16.683076271186465","500","250","instPog2","330","2","","0","0","340","340"
"","psychophysics","125","668000","0.0-125.0","5a188836087f2e0001eaf744","64e50f8c162b28609215d8d7","","","","","755",""," ","key"," ","16.68450000000038","500","250","inst","","","","","","",""
"","psychophysics","126","670228","0.0-126.0","5a188836087f2e0001eaf744","64e50f8c162b28609215d8d7","","","","","2227",""," ","key"," ","16.68381954887199","500","250","pog","358","2","1","0","0","356","374"
"","psychophysics","127","671904","0.0-127.0","5a188836087f2e0001eaf744","64e50f8c162b28609215d8d7","","","","","1674",""," ","key"," ","16.68413131313182","500","250","pog","340","2","1","0","0","344","349"
"","psychophysics","128","677613","0.0-128.0","5a188836087f2e0001eaf744","64e50f8c162b28609215d8d7","","","","","5708",""," ","key"," ","16.68360117302055","500","250","pog","345","2","1","0","0","299","365"
"","psychophysics","129","680877","0.0-129.0","5a188836087f2e0001eaf744","64e50f8c162b28609215d8d7","","","","","3262",""," ","key"," ","16.68366666666638","500","250","pog","346","2","1","0","0","328","369"
"","psychophysics","130","684189","0.0-130.0","5a188836087f2e0001eaf744","64e50f8c162b28609215d8d7","","","","","3311",""," ","key"," ","16.683904040404336","500","250","pog","329","2","1","0","0","387","336"
"","psychophysics","131","685509","0.0-131.0","5a188836087f2e0001eaf744","64e50f8c162b28609215d8d7","","","","","1318",""," ","key"," ","16.682820512820633","500","250","pog","288","2","1","0","0","286","310"
"","psychophysics","132","687780","0.0-132.0","5a188836087f2e0001eaf744","64e50f8c162b28609215d8d7","","","","","2270",""," ","key"," ","16.683111111111767","500","250","pog","317","2","1","0","0","351","328"
"","psychophysics","133","692557","0.0-133.0","5a188836087f2e0001eaf744","64e50f8c162b28609215d8d7","","","","","4776",""," ","key"," ","16.683340350877526","500","250","pog","317","2","1","0","0","285","334"
"","psychophysics","134","696559","0.0-134.0","5a188836087f2e0001eaf744","64e50f8c162b28609215d8d7","","","","","4001",""," ","key"," ","16.683682008368297","500","250","pog","352","2","1","0","0","398","367"
"","psychophysics","135","700166","0.0-135.0","5a188836087f2e0001eaf744","64e50f8c162b28609215d8d7","","","","","3605",""," ","key"," ","16.68363255813967","500","250","pog","311","2","1","0","0","387","322"
"","psychophysics","136","702137","0.0-136.0","5a188836087f2e0001eaf744","64e50f8c162b28609215d8d7","","","","","1969",""," ","key"," ","16.684128205128747","500","250","pog","361","2","1","0","0","355","371"
"","psychophysics","137","707597","0.0-137.0","5a188836087f2e0001eaf744","64e50f8c162b28609215d8d7","","","","","5459",""," ","key"," ","16.683636085626908","500","250","pog","369","2","1","0","0","325","379"
"","psychophysics","138","712818","0.0-138.0","5a188836087f2e0001eaf744","64e50f8c162b28609215d8d7","","","","","5219",""," ","key"," ","16.68349999999993","500","250","pog","330","2","1","0","0","300","343"
"","psychophysics","139","716250","0.0-139.0","5a188836087f2e0001eaf744","64e50f8c162b28609215d8d7","","","","","3430",""," ","key"," ","16.683495098039025","500","250","pog","316","2","1","0","0","286","321"
"","psychophysics","140","718169","0.0-140.0","5a188836087f2e0001eaf744","64e50f8c162b28609215d8d7","","","","","1917",""," ","key"," ","16.684008771930454","500","250","pog","327","2","1","0","0","333","339"
"","psychophysics","141","718809","0.0-141.0","5a188836087f2e0001eaf744","64e50f8c162b28609215d8d7","","","","","639",""," ","key"," ","16.685394736843207","500","250","inst","","","","","","",""
"","psychophysics","142","723822","0.0-142.0","5a188836087f2e0001eaf744","64e50f8c162b28609215d8d7","","","","","5011",""," ","key"," ","16.683484949832657","500","250","instPz1","43","2","","","","25","50"
"","psychophysics","143","728502","0.0-143.0","5a188836087f2e0001eaf744","64e50f8c162b28609215d8d7","","","","","4679",""," ","key"," ","16.683607142856843","500","250","instPz2","32","2","","","","20","35"
"","psychophysics","144","733903","0.0-144.0","5a188836087f2e0001eaf744","64e50f8c162b28609215d8d7","","","","","5399",""," ","key"," ","16.683602484472036","500","250","instPz3","81","2","","","","30","100"
"","psychophysics","145","740266","0.0-145.0","5a188836087f2e0001eaf744","64e50f8c162b28609215d8d7","","","","","6361",""," ","key"," ","16.683716535433184","500","250","instPz4","83","2","","","","30","100"
"","psychophysics","146","741009","0.0-146.0","5a188836087f2e0001eaf744","64e50f8c162b28609215d8d7","","","","","741",""," ","key"," ","16.683999999997553","500","250","inst","","","","","","",""
"","psychophysics","147","744929","0.0-147.0","5a188836087f2e0001eaf744","64e50f8c162b28609215d8d7","","","","","3918",""," ","key"," ","16.683470085470212","500","250","pz","42","2","1","","","51","54"
"","psychophysics","148","749151","0.0-148.0","5a188836087f2e0001eaf744","64e50f8c162b28609215d8d7","","","","","4220",""," ","key"," ","16.683436507936143","500","250","pz","41","2","1","","","41","49"
"","psychophysics","149","753115","0.0-149.0","5a188836087f2e0001eaf744","64e50f8c162b28609215d8d7","","","","","3962",""," ","key"," ","16.683700421940976","500","250","pz","29","2","1","","","33","31"
"","psychophysics","150","756273","0.0-150.0","5a188836087f2e0001eaf744","64e50f8c162b28609215d8d7","","","","","3155",""," ","key"," ","16.68347872340398","500","250","pz","17","2","1","","","45","20"
"","psychophysics","151","759838","0.0-151.0","5a188836087f2e0001eaf744","64e50f8c162b28609215d8d7","","","","","3564",""," ","key"," ","16.68350234741789","500","250","pz","37","2","1","","","31","43"
"","psychophysics","152","763087","0.0-152.0","5a188836087f2e0001eaf744","64e50f8c162b28609215d8d7","","","","","3247",""," ","key"," ","16.683587628865578","500","250","pz","43","2","1","","","42","46"
"","psychophysics","153","767478","0.0-153.0","5a188836087f2e0001eaf744","64e50f8c162b28609215d8d7","","","","","4389",""," ","key"," ","16.68359541984716","500","250","pz","22","2","1","","","44","21"
"","psychophysics","154","769989","0.0-154.0","5a188836087f2e0001eaf744","64e50f8c162b28609215d8d7","","","","","2508",""," ","key"," ","16.683570469798358","500","250","pz","27","2","1","","","38","30"
"","psychophysics","155","772184","0.0-155.0","5a188836087f2e0001eaf744","64e50f8c162b28609215d8d7","","","","","2194",""," ","key"," ","16.683770992366583","500","250","pz","23","2","1","","","39","35"
"","psychophysics","156","776430","0.0-156.0","5a188836087f2e0001eaf744","64e50f8c162b28609215d8d7","","","","","4244",""," ","key"," ","16.683403162055157","500","250","pz","28","2","1","","","27","31"
"","psychophysics","157","780493","0.0-157.0","5a188836087f2e0001eaf744","64e50f8c162b28609215d8d7","","","","","4059",""," ","key"," ","16.683572016460936","500","250","pz","29","2","1","","","55","49"
"","psychophysics","158","782560","0.0-158.0","5a188836087f2e0001eaf744","64e50f8c162b28609215d8d7","","","","","2066",""," ","key"," ","16.683780487804725","500","250","pz","41","2","1","","","53","55"
"","psychophysics","159","785594","0.0-159.0","5a188836087f2e0001eaf744","64e50f8c162b28609215d8d7","","","","","3032",""," ","key"," ","16.683674033149146","500","250","pz","16","2","1","","","41","21"
"","psychophysics","160","789988","0.0-160.0","5a188836087f2e0001eaf744","64e50f8c162b28609215d8d7","","","","","4392",""," ","key"," ","16.68359541984716","500","250","pz","20","2","1","","","47","23"
"","psychophysics","161","795316","0.0-161.0","5a188836087f2e0001eaf744","64e50f8c162b28609215d8d7","","","","","5326",""," ","key"," ","16.683701257861685","500","250","pz","24","2","1","","","58","24"
"","psychophysics","162","795913","0.0-162.0","5a188836087f2e0001eaf744","64e50f8c162b28609215d8d7","","","","","595",""," ","key"," ","16.68411428571479","500","250","inst","","","","","","",""
"","psychophysics","163","796895","0.0-163.0","5a188836087f2e0001eaf744","64e50f8c162b28609215d8d7","","","","","980",""," ","key"," ","16.683724137930326","500","250","instBr3","40","2","","0","0","40","300"
"","psychophysics","164","797481","0.0-164.0","5a188836087f2e0001eaf744","64e50f8c162b28609215d8d7","","","","","585",""," ","key"," ","16.68449999999789","500","250","inst","","","","","","",""
"","psychophysics","165","800585","0.0-165.0","5a188836087f2e0001eaf744","64e50f8c162b28609215d8d7","","","","","3102",""," ","key"," ","16.68368648648627","500","250","br","15","2","1","28","-25","25","201"
"","psychophysics","166","804050","0.0-166.0","5a188836087f2e0001eaf744","64e50f8c162b28609215d8d7","","","","","3463",""," ","key"," ","16.683700483091567","500","250","br","16","2","1","-15","29","25","291"
"","psychophysics","167","807618","0.0-167.0","5a188836087f2e0001eaf744","64e50f8c162b28609215d8d7","","","","","3566",""," ","key"," ","16.68345070422568","500","250","br","11","2","1","24","-12","-24","226"
"","psychophysics","168","811242","0.0-168.0","5a188836087f2e0001eaf744","64e50f8c162b28609215d8d7","","","","","3623",""," ","key"," ","16.683541666666216","500","250","br","14","2","1","-16","-9","-30","253"
"","psychophysics","169","814911","0.0-169.0","5a188836087f2e0001eaf744","64e50f8c162b28609215d8d7","","","","","3668",""," ","key"," ","16.683639269406147","500","250","br","17","2","1","-28","-24","3","235"
"","psychophysics","170","817809","0.0-170.0","5a188836087f2e0001eaf744","64e50f8c162b28609215d8d7","","","","","2896",""," ","key"," ","16.683849710982557","500","250","br","14","2","1","9","9","18","219"
"","psychophysics","171","821204","0.0-171.0","5a188836087f2e0001eaf744","64e50f8c162b28609215d8d7","","","","","3394",""," ","key"," ","16.68343069306909","500","250","br","13","2","1","-18","27","21","206"
"","psychophysics","172","823596","0.0-172.0","5a188836087f2e0001eaf744","64e50f8c162b28609215d8d7","","","","","2390",""," ","key"," ","16.68350000000021","500","250","br","10","2","1","21","15","0","260"
"","psychophysics","173","826517","0.0-173.0","5a188836087f2e0001eaf744","64e50f8c162b28609215d8d7","","","","","2919",""," ","key"," ","16.683257142857517","500","250","br","11","2","1","14","23","2","247"
"","psychophysics","174","828894","0.0-174.0","5a188836087f2e0001eaf744","64e50f8c162b28609215d8d7","","","","","2375",""," ","key"," ","16.683645390070716","500","250","br","9","2","1","-20","-26","-1","255"
"","psychophysics","175","832325","0.0-175.0","5a188836087f2e0001eaf744","64e50f8c162b28609215d8d7","","","","","3429",""," ","key"," ","16.683843902439424","500","250","br","12","2","1","-6","25","12","286"
"","psychophysics","176","835839","0.0-176.0","5a188836087f2e0001eaf744","64e50f8c162b28609215d8d7","","","","","3512",""," ","key"," ","16.68361722488061","500","250","br","12","2","1","-11","-30","-2","222"
"","psychophysics","177","841942","0.0-177.0","5a188836087f2e0001eaf744","64e50f8c162b28609215d8d7","","","","","6102",""," ","key"," ","16.68364657534267","500","250","br","14","2","1","20","-15","-30","205"
"","psychophysics","178","844643","0.0-178.0","5a188836087f2e0001eaf744","64e50f8c162b28609215d8d7","","","","","2699",""," ","key"," ","16.683906832297755","500","250","br","11","2","1","-28","-4","24","206"
"","psychophysics","179","847440","0.0-179.0","5a188836087f2e0001eaf744","64e50f8c162b28609215d8d7","","","","","2795",""," ","key"," ","16.68373652694616","500","250","br","14","2","1","22","-10","-19","212"
"","psychophysics","180","848105","0.0-180.0","5a188836087f2e0001eaf744","64e50f8c162b28609215d8d7","","","","","664",""," ","key"," ","16.682692307692307","500","250","inst","","","","","","",""
"","psychophysics","181","848770","0.0-181.0","5a188836087f2e0001eaf744","64e50f8c162b28609215d8d7","","","","","663",""," ","key"," ","16.68326315789569","500","250","instZol1","1.3","","","0","0","-1.3",""
"","psychophysics","182","852632","0.0-182.0","5a188836087f2e0001eaf744","64e50f8c162b28609215d8d7","","","","","3858",""," ","key"," ","16.683852813852692","500","250","instZol2","-1.0999999999999992","2","","0","0","2",""
"","psychophysics","183","853408","0.0-183.0","5a188836087f2e0001eaf744","64e50f8c162b28609215d8d7","","","","","776",""," ","key"," ","16.68357777777904","500","250","inst","","","","","","",""
"","psychophysics","184","855172","0.0-184.0","5a188836087f2e0001eaf744","64e50f8c162b28609215d8d7","","","","","1753",""," ","key"," ","16.682961904762003","500","250","zol","-0.34","2","1","7","21","-0.06",""
"","psychophysics","185","856618","0.0-185.0","5a188836087f2e0001eaf744","64e50f8c162b28609215d8d7","","","","","1444",""," ","key"," ","16.68436046511606","500","250","zol","-0.45999999999999996","2","1","26","-5","0.16",""
"","psychophysics","186","860423","0.0-186.0","5a188836087f2e0001eaf744","64e50f8c162b28609215d8d7","","","","","3803",""," ","key"," ","16.68377973568279","500","250","zol","-0.06","2","1","21","14","0.26",""
"","psychophysics","187","868083","0.0-187.0","5a188836087f2e0001eaf744","64e50f8c162b28609215d8d7","","","","","7658",""," ","key"," ","16.68348908296956","500","250","zol","-1.5800000000000003","2","1","20","-18","0.48",""
"","psychophysics","188","870516","0.0-188.0","5a188836087f2e0001eaf744","64e50f8c162b28609215d8d7","","","","","2430",""," ","key"," ","16.683662068965877","500","250","zol","-0.6499999999999999","2","1","2","-12","-0.15",""
"","psychophysics","189","873004","0.0-189.0","5a188836087f2e0001eaf744","64e50f8c162b28609215d8d7","","","","","2487",""," ","key"," ","16.683797297296838","500","250","zol","-0.52","2","1","-25","21","-0.28",""
"","psychophysics","190","878898","0.0-190.0","5a188836087f2e0001eaf744","64e50f8c162b28609215d8d7","","","","","5892",""," ","key"," ","16.683610795454364","500","250","zol","-1.14","2","1","-6","29","0.24",""
"","psychophysics","191","883729","0.0-191.0","5a188836087f2e0001eaf744","64e50f8c162b28609215d8d7","","","","","4829",""," ","key"," ","16.683671280276837","500","250","zol","-0.83","2","1","-25","-27","0.23",""
"","psychophysics","192","888041","0.0-192.0","5a188836087f2e0001eaf744","64e50f8c162b28609215d8d7","","","","","4309",""," ","key"," ","16.68368482490293","500","250","zol","-0.9799999999999999","2","1","19","7","0.58",""
"","psychophysics","193","896043","0.0-193.0","5a188836087f2e0001eaf744","64e50f8c162b28609215d8d7","","","","","null","","null","key","null","16.68360334029227","500","250","zol","-1.8200000000000003","2","1","6","-27","0.02",""
"","psychophysics","194","900799","0.0-194.0","5a188836087f2e0001eaf744","64e50f8c162b28609215d8d7","","","","","4753",""," ","key"," ","16.683767605634017","500","250","zol","-0.7300000000000001","2","1","24","26","-0.27",""
"","psychophysics","195","905173","0.0-195.0","5a188836087f2e0001eaf744","64e50f8c162b28609215d8d7","","","","","4372",""," ","key"," ","16.6837624521075","500","250","zol","-0.41000000000000003","2","1","2","-21","-0.59",""
"","psychophysics","196","912690","0.0-196.0","5a188836087f2e0001eaf744","64e50f8c162b28609215d8d7","","","","","7514",""," ","key"," ","16.6836511111112","500","250","zol","-0.16000000000000028","2","1","4","-9","0.46",""
"","psychophysics","197","914667","0.0-197.0","5a188836087f2e0001eaf744","64e50f8c162b28609215d8d7","","","","","1974",""," ","key"," ","16.68388888888901","500","250","zol","-0.96","2","1","23","-11","-0.44",""
"","psychophysics","198","917580","0.0-198.0","5a188836087f2e0001eaf744","64e50f8c162b28609215d8d7","","","","","2911",""," ","key"," ","16.683965517241433","500","250","zol","-0.8999999999999999","2","1","-3","-28","0.3",""
"","psychophysics","199","918273","0.0-199.0","5a188836087f2e0001eaf744","64e50f8c162b28609215d8d7","","","","","692",""," ","key"," ","16.684249999999885","500","250","inst","","","","","","",""
"","psychophysics","200","919310","0.0-200.0","5a188836087f2e0001eaf744","64e50f8c162b28609215d8d7","","","","","1035",""," ","key"," ","16.683403225807144","500","250","instEB1","40","1","","0","0","40","30"
"","psychophysics","201","925560","0.0-201.0","5a188836087f2e0001eaf744","64e50f8c162b28609215d8d7","","","","","6248",""," ","key"," ","16.683565683646037","500","250","instEB2","40","1","","0","0","30","40"
"","psychophysics","202","929531","0.0-202.0","5a188836087f2e0001eaf744","64e50f8c162b28609215d8d7","","","","","3969",""," ","key"," ","16.683628691983202","500","250","instEB3","44","1","","0","0","27","45"
"","psychophysics","203","934820","0.0-203.0","5a188836087f2e0001eaf744","64e50f8c162b28609215d8d7","","","","","5287",""," ","key"," ","16.683699367088604","500","250","instEB4","30","1","","0","0","40","30"
"","psychophysics","204","935426","0.0-204.0","5a188836087f2e0001eaf744","64e50f8c162b28609215d8d7","","","","","604",""," ","key"," ","16.68672222222085","500","250","inst","","","","","","",""
"","psychophysics","205","937847","0.0-205.0","5a188836087f2e0001eaf744","64e50f8c162b28609215d8d7","","","","","2418",""," ","key"," ","16.68315972222222","500","250","eb","38","1","","0","0","40","44"
"","psychophysics","206","941233","0.0-206.0","5a188836087f2e0001eaf744","64e50f8c162b28609215d8d7","","","","","3385",""," ","key"," ","16.683663366336518","500","250","eb","25","1","","0","0","39","26"
"","psychophysics","207","943810","0.0-207.0","5a188836087f2e0001eaf744","64e50f8c162b28609215d8d7","","","","","2576",""," ","key"," ","16.68324183006512","500","250","eb","32","1","","0","0","26","39"
"","psychophysics","208","946393","0.0-208.0","5a188836087f2e0001eaf744","64e50f8c162b28609215d8d7","","","","","2582",""," ","key"," ","16.68369480519474","500","250","eb","23","1","","0","0","46","28"
"","psychophysics","209","949739","0.0-209.0","5a188836087f2e0001eaf744","64e50f8c162b28609215d8d7","","","","","3344",""," ","key"," ","16.683507537688644","500","250","eb","48","1","","0","0","30","54"
"","psychophysics","210","954384","0.0-210.0","5a188836087f2e0001eaf744","64e50f8c162b28609215d8d7","","","","","4642",""," ","key"," ","16.683374100719433","500","250","eb","27","1","","0","0","36","25"
"","psychophysics","211","956843","0.0-211.0","5a188836087f2e0001eaf744","64e50f8c162b28609215d8d7","","","","","2456",""," ","key"," ","16.68311643835607","500","250","eb","26","1","","0","0","28","26"
"","psychophysics","212","960042","0.0-212.0","5a188836087f2e0001eaf744","64e50f8c162b28609215d8d7","","","","","3197",""," ","key"," ","16.68358115183253","500","250","eb","35","1","","0","0","34","40"
"","psychophysics","213","963618","0.0-213.0","5a188836087f2e0001eaf744","64e50f8c162b28609215d8d7","","","","","3575",""," ","key"," ","16.683478873239462","500","250","eb","35","1","","0","0","34","39"
"","psychophysics","214","968288","0.0-214.0","5a188836087f2e0001eaf744","64e50f8c162b28609215d8d7","","","","","4667",""," ","key"," ","16.683555555555763","500","250","eb","31","1","","0","0","50","33"
"","psychophysics","215","971916","0.0-215.0","5a188836087f2e0001eaf744","64e50f8c162b28609215d8d7","","","","","3626",""," ","key"," ","16.683686635944635","500","250","eb","26","1","","0","0","36","26"
"","psychophysics","216","976221","0.0-216.0","5a188836087f2e0001eaf744","64e50f8c162b28609215d8d7","","","","","4303",""," ","key"," ","16.683408560311506","500","250","eb","27","1","","0","0","40","27"
"","psychophysics","217","978441","0.0-217.0","5a188836087f2e0001eaf744","64e50f8c162b28609215d8d7","","","","","2219",""," ","key"," ","16.683734848485045","500","250","eb","25","1","","0","0","25","26"
"","psychophysics","218","981862","0.0-218.0","5a188836087f2e0001eaf744","64e50f8c162b28609215d8d7","","","","","3419",""," ","key"," ","16.683740196078467","500","250","eb","43","1","","0","0","36","46"
"","psychophysics","219","984905","0.0-219.0","5a188836087f2e0001eaf744","64e50f8c162b28609215d8d7","","","","","3042",""," ","key"," ","16.683530386739914","500","250","eb","26","1","","0","0","40","27"
