"success","trial_type","trial_index","time_elapsed","internal_node_id","pid","sid","timeout","failed_images","failed_audio","failed_video","rt","stimulus","response","response_type","key_press","avg_frame_time","center_x","center_y","task","resp","start","parA","version","block","jitterX","jitterY"
"true","fullscreen","0","2558","0.0-0.0","5f00ec86304f7322eb8dfa41","64e50d5fb60c11b10d5902ff","","","","","","","","","","","","","","","","","","","",""
"true","preload","1","2635","0.0-1.0","5f00ec86304f7322eb8dfa41","64e50d5fb60c11b10d5902ff","false","[]","[]","[]","","","","","","","","","","","","","","","",""
"","html-button-response","2","3790","0.0-2.0","5f00ec86304f7322eb8dfa41","64e50d5fb60c11b10d5902ff","","","","","1152","Please Make Sure Your Audio Is On.","0","","","","","","","","","","","","",""
"","psychophysics","3","9295","0.0-3.0","5f00ec86304f7322eb8dfa41","64e50d5fb60c11b10d5902ff","","","","","5495",""," ","key"," ","16.82262996941896","960","250","","","","","","","",""
"","psychophysics","4","12768","0.0-4.0","5f00ec86304f7322eb8dfa41","64e50d5fb60c11b10d5902ff","","","","","3469",""," ","key"," ","16.781553398058254","500","250","inst","","","","","","",""
"","psychophysics","5","19608","0.0-5.0","5f00ec86304f7322eb8dfa41","64e50d5fb60c11b10d5902ff","","","","","6837",""," ","key"," ","16.684596577017114","500","250","sample0","","","","","","",""
"","psychophysics","6","21016","0.0-6.0","5f00ec86304f7322eb8dfa41","64e50d5fb60c11b10d5902ff","","","","","1405",""," ","key"," ","16.686746987951807","500","250","sample1","","","","","","",""
"","psychophysics","7","39864","0.0-7.0","5f00ec86304f7322eb8dfa41","64e50d5fb60c11b10d5902ff","","","","","18844",""," ","key"," ","16.683790965456154","500","250","sample2","100","","","","","",""
"","psychophysics","8","47554","0.0-8.0","5f00ec86304f7322eb8dfa41","64e50d5fb60c11b10d5902ff","","","","","7687",""," ","key"," ","16.682608695652174","500","250","sample3","102","","","","","",""
"","psychophysics","9","56372","0.0-9.0","5f00ec86304f7322eb8dfa41","64e50d5fb60c11b10d5902ff","","","","","8815",""," ","key"," ","16.683111954459203","500","250","sample4","100","","","","","",""
"","psychophysics","10","59079","0.0-10.0","5f00ec86304f7322eb8dfa41","64e50d5fb60c11b10d5902ff","","","","","2702",""," ","key"," ","16.685185185185187","500","250","sample5","","","","","","",""
"","psychophysics","11","65259","0.0-11.0","5f00ec86304f7322eb8dfa41","64e50d5fb60c11b10d5902ff","","","","","6177",""," ","key"," ","16.685636856368564","500","250","sample6","500","","","","","",""
"","psychophysics","12","68822","0.0-12.0","5f00ec86304f7322eb8dfa41","64e50d5fb60c11b10d5902ff","","","","","3560",""," ","key"," ","16.683962264150942","500","250","inst","","","","","","",""
"","psychophysics","13","72019","0.0-13.0","5f00ec86304f7322eb8dfa41","64e50d5fb60c11b10d5902ff","","","","","3192",""," ","key"," ","16.680628272251308","500","250","inst","","","","","","",""
"","psychophysics","14","75215","0.0-14.0","5f00ec86304f7322eb8dfa41","64e50d5fb60c11b10d5902ff","","","","","3193",""," ","key"," ","16.68586387434555","500","250","inst","","","","","","",""
"","psychophysics","15","76341","0.0-15.0","5f00ec86304f7322eb8dfa41","64e50d5fb60c11b10d5902ff","","","","","1122",""," ","key"," ","16.696969696969695","500","250","inst","","","","","","",""
"","psychophysics","16","77202","0.0-16.0","5f00ec86304f7322eb8dfa41","64e50d5fb60c11b10d5902ff","","","","","859",""," ","key"," ","16.686274509803923","500","250","inst","","","","","","",""
"","psychophysics","17","79086","0.0-17.0","5f00ec86304f7322eb8dfa41","64e50d5fb60c11b10d5902ff","","","","","1881",""," ","key"," ","16.678571428571427","500","250","instPzPre","50","50","50","0","","",""
"","psychophysics","18","80928","0.0-18.0","5f00ec86304f7322eb8dfa41","64e50d5fb60c11b10d5902ff","","","","","1837",""," ","key"," ","16.68807339449541","500","250","instPz0","50","50","50","2","","",""
"","psychophysics","19","90507","0.0-19.0","5f00ec86304f7322eb8dfa41","64e50d5fb60c11b10d5902ff","","","","","9576",""," ","key"," ","16.68411867364747","500","250","instPz1","49","25","50","2","","",""
"","psychophysics","20","98071","0.0-20.0","5f00ec86304f7322eb8dfa41","64e50d5fb60c11b10d5902ff","","","","","7561",""," ","key"," ","16.684326710816777","500","250","instPz2","37","20","35","2","","",""
"","psychophysics","21","109966","0.0-21.0","5f00ec86304f7322eb8dfa41","64e50d5fb60c11b10d5902ff","","","","","11890",""," ","key"," ","16.683988764044944","500","250","instPz3","102","30","100","2","","",""
"","psychophysics","22","119463","0.0-22.0","5f00ec86304f7322eb8dfa41","64e50d5fb60c11b10d5902ff","","","","","9494",""," ","key"," ","16.719576719576718","500","250","instPz4","100","30","100","2","","",""
"","psychophysics","23","121351","0.0-23.0","5f00ec86304f7322eb8dfa41","64e50d5fb60c11b10d5902ff","","","","","1884",""," ","key"," ","16.678571428571427","500","250","inst","","","","","","",""
"","psychophysics","24","128606","0.0-24.0","5f00ec86304f7322eb8dfa41","64e50d5fb60c11b10d5902ff","","","","","7251",""," ","key"," ","16.68433179723502","500","250","pz","34","55","34","2","0","",""
"","psychophysics","25","133235","0.0-25.0","5f00ec86304f7322eb8dfa41","64e50d5fb60c11b10d5902ff","","","","","4625",""," ","key"," ","16.681159420289855","500","250","pz","43","42","46","2","0","",""
"","psychophysics","26","139135","0.0-26.0","5f00ec86304f7322eb8dfa41","64e50d5fb60c11b10d5902ff","","","","","5896",""," ","key"," ","16.68271954674221","500","250","pz","20","26","21","2","0","",""
"","psychophysics","27","147138","0.0-27.0","5f00ec86304f7322eb8dfa41","64e50d5fb60c11b10d5902ff","","","","","null","","null","key","null","16.684100418410043","500","250","pz","45","25","46","2","0","",""
"","psychophysics","28","147234","0.0-28.0","5f00ec86304f7322eb8dfa41","64e50d5fb60c11b10d5902ff","","","","","91",""," ","key"," ","16.6","500","250","pz","47","47","44","2","0","",""
"","psychophysics","29","153857","0.0-29.0","5f00ec86304f7322eb8dfa41","64e50d5fb60c11b10d5902ff","","","","","6620",""," ","key"," ","16.684343434343436","500","250","pz","41","45","44","2","0","",""
"","psychophysics","30","159761","0.0-30.0","5f00ec86304f7322eb8dfa41","64e50d5fb60c11b10d5902ff","","","","","5900",""," ","key"," ","16.744318181818183","500","250","pz","25","33","26","2","0","",""
"","psychophysics","31","167265","0.0-31.0","5f00ec86304f7322eb8dfa41","64e50d5fb60c11b10d5902ff","","","","","7497",""," ","key"," ","16.720982142857142","500","250","pz","46","49","51","2","0","",""
"","psychophysics","32","174319","0.0-32.0","5f00ec86304f7322eb8dfa41","64e50d5fb60c11b10d5902ff","","","","","7050",""," ","key"," ","16.684085510688835","500","250","pz","50","29","47","2","0","",""
"","psychophysics","33","176430","0.0-33.0","5f00ec86304f7322eb8dfa41","64e50d5fb60c11b10d5902ff","","","","","2106",""," ","key"," ","16.682539682539684","500","250","pz","25","25","30","2","0","",""
"","psychophysics","34","182771","0.0-34.0","5f00ec86304f7322eb8dfa41","64e50d5fb60c11b10d5902ff","","","","","6336",""," ","key"," ","16.683377308707126","500","250","pz","52","40","57","2","0","",""
"","psychophysics","35","186598","0.0-35.0","5f00ec86304f7322eb8dfa41","64e50d5fb60c11b10d5902ff","","","","","3824",""," ","key"," ","16.68421052631579","500","250","pz","44","37","44","2","0","",""
"","psychophysics","36","193363","0.0-36.0","5f00ec86304f7322eb8dfa41","64e50d5fb60c11b10d5902ff","","","","","6760",""," ","key"," ","16.68395061728395","500","250","pz","38","48","40","2","0","",""
"","psychophysics","37","198089","0.0-37.0","5f00ec86304f7322eb8dfa41","64e50d5fb60c11b10d5902ff","","","","","4722",""," ","key"," ","16.69858156028369","500","250","pz","31","22","30","2","0","",""
"","psychophysics","38","203125","0.0-38.0","5f00ec86304f7322eb8dfa41","64e50d5fb60c11b10d5902ff","","","","","5033",""," ","key"," ","16.6843853820598","500","250","pz","39","47","42","2","0","",""
"","psychophysics","39","208110","0.0-39.0","5f00ec86304f7322eb8dfa41","64e50d5fb60c11b10d5902ff","","","","","4983",""," ","key"," ","16.75337837837838","500","250","inst","","","","","","",""
"","psychophysics","40","214851","0.0-40.0","5f00ec86304f7322eb8dfa41","64e50d5fb60c11b10d5902ff","","","","","6739",""," ","key"," ","16.682382133995038","500","250","instPog0","160","190","160","1","","0","0"
"","psychophysics","41","223495","0.0-41.0","5f00ec86304f7322eb8dfa41","64e50d5fb60c11b10d5902ff","","","","","8642",""," ","key"," ","16.684719535783366","500","250","instPog1","154","190","160","1","","0","0"
"","psychophysics","42","230878","0.0-42.0","5f00ec86304f7322eb8dfa41","64e50d5fb60c11b10d5902ff","","","","","7379",""," ","key"," ","16.683257918552037","500","250","instPog2","186","160","160","1","","0","0"
"","psychophysics","43","254719","0.0-43.0","5f00ec86304f7322eb8dfa41","64e50d5fb60c11b10d5902ff","","","","","23838",""," ","key"," ","16.683473389355743","500","250","inst","","","","","","",""
"","psychophysics","44","259433","0.0-44.0","5f00ec86304f7322eb8dfa41","64e50d5fb60c11b10d5902ff","","","","","4712",""," ","key"," ","16.683274021352315","500","250","pog","210","100","182","1","0","0","0"
"","psychophysics","45","264602","0.0-45.0","5f00ec86304f7322eb8dfa41","64e50d5fb60c11b10d5902ff","","","","","5165",""," ","key"," ","16.68284789644013","500","250","pog","158","114","137","1","0","0","0"
"","psychophysics","46","269400","0.0-46.0","5f00ec86304f7322eb8dfa41","64e50d5fb60c11b10d5902ff","","","","","4795",""," ","key"," ","16.682926829268293","500","250","pog","150","192","121","1","0","0","0"
"","psychophysics","47","271628","0.0-47.0","5f00ec86304f7322eb8dfa41","64e50d5fb60c11b10d5902ff","","","","","2227",""," ","key"," ","16.681818181818183","500","250","pog","164","164","130","1","0","0","0"
"","psychophysics","48","276881","0.0-48.0","5f00ec86304f7322eb8dfa41","64e50d5fb60c11b10d5902ff","","","","","5248",""," ","key"," ","16.68471337579618","500","250","pog","187","159","164","1","0","0","0"
"","psychophysics","49","281551","0.0-49.0","5f00ec86304f7322eb8dfa41","64e50d5fb60c11b10d5902ff","","","","","4668",""," ","key"," ","16.684587813620073","500","250","pog","150","118","130","1","0","0","0"
"","psychophysics","50","286321","0.0-50.0","5f00ec86304f7322eb8dfa41","64e50d5fb60c11b10d5902ff","","","","","4768",""," ","key"," ","16.68421052631579","500","250","pog","170","200","147","1","0","0","0"
"","psychophysics","51","291473","0.0-51.0","5f00ec86304f7322eb8dfa41","64e50d5fb60c11b10d5902ff","","","","","5150",""," ","key"," ","16.685064935064936","500","250","pog","170","114","138","1","0","0","0"
"","psychophysics","52","297104","0.0-52.0","5f00ec86304f7322eb8dfa41","64e50d5fb60c11b10d5902ff","","","","","5627",""," ","key"," ","16.68154761904762","500","250","pog","172","136","141","1","0","0","0"
"","psychophysics","53","305106","0.0-53.0","5f00ec86304f7322eb8dfa41","64e50d5fb60c11b10d5902ff","","","","","null","","null","key","null","16.684759916492695","500","250","pog","186","120","159","1","0","0","0"
"","psychophysics","54","305190","0.0-54.0","5f00ec86304f7322eb8dfa41","64e50d5fb60c11b10d5902ff","","","","","82",""," ","key"," ","16.75","500","250","pog","200","200","139","1","0","0","0"
"","psychophysics","55","310027","0.0-55.0","5f00ec86304f7322eb8dfa41","64e50d5fb60c11b10d5902ff","","","","","4836",""," ","key"," ","16.68166089965398","500","250","pog","212","140","183","1","0","0","0"
"","psychophysics","56","313922","0.0-56.0","5f00ec86304f7322eb8dfa41","64e50d5fb60c11b10d5902ff","","","","","3892",""," ","key"," ","16.685344827586206","500","250","pog","187","215","163","1","0","0","0"
"","psychophysics","57","318605","0.0-57.0","5f00ec86304f7322eb8dfa41","64e50d5fb60c11b10d5902ff","","","","","4673",""," ","key"," ","16.685714285714287","500","250","pog","155","189","131","1","0","0","0"
"","psychophysics","58","322952","0.0-58.0","5f00ec86304f7322eb8dfa41","64e50d5fb60c11b10d5902ff","","","","","4344",""," ","key"," ","16.684615384615384","500","250","pog","202","104","167","1","0","0","0"
"","psychophysics","59","323834","0.0-59.0","5f00ec86304f7322eb8dfa41","64e50d5fb60c11b10d5902ff","","","","","881",""," ","key"," ","16.692307692307693","500","250","inst","","","","","","",""
"","psychophysics","60","325209","0.0-60.0","5f00ec86304f7322eb8dfa41","64e50d5fb60c11b10d5902ff","","","","","1373",""," ","key"," ","16.691358024691358","500","250","instEB0","40","40","40","2","","0","0"
"","psychophysics","61","333921","0.0-61.0","5f00ec86304f7322eb8dfa41","64e50d5fb60c11b10d5902ff","","","","","8709",""," ","key"," ","16.683301343570058","500","250","instEB1","39","30","40","2","","0","0"
"","psychophysics","62","339234","0.0-62.0","5f00ec86304f7322eb8dfa41","64e50d5fb60c11b10d5902ff","","","","","5310",""," ","key"," ","16.68553459119497","500","250","instEB2","35","40","30","2","","0","0"
"","psychophysics","63","349977","0.0-63.0","5f00ec86304f7322eb8dfa41","64e50d5fb60c11b10d5902ff","","","","","10741",""," ","key"," ","16.684292379471227","500","250","instEB3","34","45","27","2","","0","0"
"","psychophysics","64","355535","0.0-64.0","5f00ec86304f7322eb8dfa41","64e50d5fb60c11b10d5902ff","","","","","5555",""," ","key"," ","16.683734939759034","500","250","instEB4","52","30","40","2","","0","0"
"","psychophysics","65","356501","0.0-65.0","5f00ec86304f7322eb8dfa41","64e50d5fb60c11b10d5902ff","","","","","965",""," ","key"," ","16.68421052631579","500","250","inst","","","","","","",""
"","psychophysics","66","364238","0.0-66.0","5f00ec86304f7322eb8dfa41","64e50d5fb60c11b10d5902ff","","","","","7734",""," ","key"," ","16.72885032537961","500","250","eb","57","35","47","2","","0","0"
"","psychophysics","67","370869","0.0-67.0","5f00ec86304f7322eb8dfa41","64e50d5fb60c11b10d5902ff","","","","","6628",""," ","key"," ","16.736708860759492","500","250","eb","61","37","53","2","","0","0"
"","psychophysics","68","374652","0.0-68.0","5f00ec86304f7322eb8dfa41","64e50d5fb60c11b10d5902ff","","","","","3778",""," ","key"," ","16.6858407079646","500","250","eb","46","51","37","2","","0","0"
"","psychophysics","69","379969","0.0-69.0","5f00ec86304f7322eb8dfa41","64e50d5fb60c11b10d5902ff","","","","","5314",""," ","key"," ","16.68238993710692","500","250","eb","51","37","46","2","","0","0"
"","psychophysics","70","383464","0.0-70.0","5f00ec86304f7322eb8dfa41","64e50d5fb60c11b10d5902ff","","","","","3493",""," ","key"," ","16.682692307692307","500","250","eb","39","31","33","2","","0","0"
"","psychophysics","71","386872","0.0-71.0","5f00ec86304f7322eb8dfa41","64e50d5fb60c11b10d5902ff","","","","","3404",""," ","key"," ","16.679802955665025","500","250","eb","40","45","31","2","","0","0"
"","psychophysics","72","389857","0.0-72.0","5f00ec86304f7322eb8dfa41","64e50d5fb60c11b10d5902ff","","","","","2980",""," ","key"," ","16.685393258426966","500","250","eb","48","50","40","2","","0","0"
"","psychophysics","73","391803","0.0-73.0","5f00ec86304f7322eb8dfa41","64e50d5fb60c11b10d5902ff","","","","","1940",""," ","key"," ","16.68103448275862","500","250","eb","48","46","44","2","","0","0"
"","psychophysics","74","395661","0.0-74.0","5f00ec86304f7322eb8dfa41","64e50d5fb60c11b10d5902ff","","","","","3855",""," ","key"," ","16.68695652173913","500","250","eb","28","39","25","2","","0","0"
"","psychophysics","75","399082","0.0-75.0","5f00ec86304f7322eb8dfa41","64e50d5fb60c11b10d5902ff","","","","","3419",""," ","key"," ","16.686274509803923","500","250","eb","49","53","39","2","","0","0"
"","psychophysics","76","402932","0.0-76.0","5f00ec86304f7322eb8dfa41","64e50d5fb60c11b10d5902ff","","","","","3847",""," ","key"," ","16.682608695652174","500","250","eb","45","41","44","2","","0","0"
"","psychophysics","77","406499","0.0-77.0","5f00ec86304f7322eb8dfa41","64e50d5fb60c11b10d5902ff","","","","","3565",""," ","key"," ","16.68075117370892","500","250","eb","37","30","31","2","","0","0"
"","psychophysics","78","412450","0.0-78.0","5f00ec86304f7322eb8dfa41","64e50d5fb60c11b10d5902ff","","","","","5949",""," ","key"," ","16.68450704225352","500","250","eb","62","41","52","2","","0","0"
"","psychophysics","79","418357","0.0-79.0","5f00ec86304f7322eb8dfa41","64e50d5fb60c11b10d5902ff","","","","","5903",""," ","key"," ","16.6864406779661","500","250","eb","33","26","27","2","","0","0"
"","psychophysics","80","421197","0.0-80.0","5f00ec86304f7322eb8dfa41","64e50d5fb60c11b10d5902ff","","","","","2838",""," ","key"," ","16.68639053254438","500","250","eb","51","47","41","2","","0","0"
"","psychophysics","81","422084","0.0-81.0","5f00ec86304f7322eb8dfa41","64e50d5fb60c11b10d5902ff","","","","","885",""," ","key"," ","16.692307692307693","500","250","inst","","","","","","",""
"","psychophysics","82","424101","0.0-82.0","5f00ec86304f7322eb8dfa41","64e50d5fb60c11b10d5902ff","","","","","2014",""," ","key"," ","16.683333333333334","500","250","instZol0","0","0","","","","0","0"
"","psychophysics","83","430786","0.0-83.0","5f00ec86304f7322eb8dfa41","64e50d5fb60c11b10d5902ff","","","","","6684",""," ","key"," ","16.685","500","250","instZol1","0.20000000000000004","-1.3","","","","0","0"
"","psychophysics","84","441772","0.0-84.0","5f00ec86304f7322eb8dfa41","64e50d5fb60c11b10d5902ff","","","","","10982",""," ","key"," ","16.721036585365855","500","250","instZol2","1.300000000000001","2","","1","","0","0"
"","psychophysics","85","443232","0.0-85.0","5f00ec86304f7322eb8dfa41","64e50d5fb60c11b10d5902ff","","","","","1459",""," ","key"," ","16.686046511627907","500","250","inst","","","","","","",""
"","psychophysics","86","447201","0.0-86.0","5f00ec86304f7322eb8dfa41","64e50d5fb60c11b10d5902ff","","","","","3967",""," ","key"," ","16.68354430379747","500","250","zol","1.8400000000000005","0.56","","1","0","20","-19"
"","psychophysics","87","452171","0.0-87.0","5f00ec86304f7322eb8dfa41","64e50d5fb60c11b10d5902ff","","","","","4965",""," ","key"," ","16.683501683501685","500","250","zol","1.5400000000000005","-0.34","","1","0","-15","6"
"","psychophysics","88","458624","0.0-88.0","5f00ec86304f7322eb8dfa41","64e50d5fb60c11b10d5902ff","","","","","6451",""," ","key"," ","16.683937823834196","500","250","zol","0.99","0.41","","1","0","24","-28"
"","psychophysics","89","463970","0.0-89.0","5f00ec86304f7322eb8dfa41","64e50d5fb60c11b10d5902ff","","","","","5342",""," ","key"," ","16.686520376175547","500","250","zol","1.7500000000000004","-0.55","","1","0","-6","-21"
"","psychophysics","90","466838","0.0-90.0","5f00ec86304f7322eb8dfa41","64e50d5fb60c11b10d5902ff","","","","","2865",""," ","key"," ","16.68421052631579","500","250","zol","1.7100000000000006","-0.61","","1","0","30","10"
"","psychophysics","91","472185","0.0-91.0","5f00ec86304f7322eb8dfa41","64e50d5fb60c11b10d5902ff","","","","","5342",""," ","key"," ","16.748427672955973","500","250","zol","1.0899999999999999","0.51","","1","0","18","14"
"","psychophysics","92","474703","0.0-92.0","5f00ec86304f7322eb8dfa41","64e50d5fb60c11b10d5902ff","","","","","2512",""," ","key"," ","16.68","500","250","zol","1.25","0.25","","1","0","6","8"
"","psychophysics","93","477943","0.0-93.0","5f00ec86304f7322eb8dfa41","64e50d5fb60c11b10d5902ff","","","","","3236",""," ","key"," ","16.683937823834196","500","250","zol","0.9399999999999998","0.66","","1","0","-8","-19"
"","psychophysics","94","480938","0.0-94.0","5f00ec86304f7322eb8dfa41","64e50d5fb60c11b10d5902ff","","","","","2988",""," ","key"," ","16.681564245810055","500","250","zol","1.0799999999999998","0.72","","1","0","8","3"
"","psychophysics","95","484757","0.0-95.0","5f00ec86304f7322eb8dfa41","64e50d5fb60c11b10d5902ff","","","","","3815",""," ","key"," ","16.68421052631579","500","250","zol","1.7700000000000005","-0.67","","1","0","28","-26"
"","psychophysics","96","487905","0.0-96.0","5f00ec86304f7322eb8dfa41","64e50d5fb60c11b10d5902ff","","","","","3145",""," ","key"," ","16.684491978609625","500","250","zol","1.28","-0.28","","1","0","19","27"
"","psychophysics","97","490281","0.0-97.0","5f00ec86304f7322eb8dfa41","64e50d5fb60c11b10d5902ff","","","","","2371",""," ","key"," ","16.683098591549296","500","250","zol","0.87","0.43","","1","0","-10","-7"
"","psychophysics","98","492424","0.0-98.0","5f00ec86304f7322eb8dfa41","64e50d5fb60c11b10d5902ff","","","","","2139",""," ","key"," ","16.677165354330707","500","250","zol","1.4500000000000002","-0.05","","1","0","-10","18"
"","psychophysics","99","495030","0.0-99.0","5f00ec86304f7322eb8dfa41","64e50d5fb60c11b10d5902ff","","","","","2601",""," ","key"," ","16.685897435897434","500","250","zol","1.3300000000000003","-0.53","","1","0","28","-29"
"","psychophysics","100","498089","0.0-100.0","5f00ec86304f7322eb8dfa41","64e50d5fb60c11b10d5902ff","","","","","3055",""," ","key"," ","16.681318681318682","500","250","zol","1.6500000000000006","-0.55","","1","0","2","10"
"","psychophysics","101","501302","0.0-101.0","5f00ec86304f7322eb8dfa41","64e50d5fb60c11b10d5902ff","","","","","3210",""," ","key"," ","16.680628272251308","500","250","inst","","","","","","",""
"","psychophysics","102","503243","0.0-102.0","5f00ec86304f7322eb8dfa41","64e50d5fb60c11b10d5902ff","","","","","1936",""," ","key"," ","16.68103448275862","500","250","instBr0","0","0","300","","","0","0"
"","psychophysics","103","512231","0.0-103.0","5f00ec86304f7322eb8dfa41","64e50d5fb60c11b10d5902ff","","","","","8985",""," ","key"," ","16.684014869888475","500","250","instBr1","-3","-40","300","","","0","0"
"","psychophysics","104","520231","0.0-104.0","5f00ec86304f7322eb8dfa41","64e50d5fb60c11b10d5902ff","","","","","7998",""," ","key"," ","16.682008368200837","500","250","instBr3","7","40","300","2","","0","0"
"","psychophysics","105","521076","0.0-105.0","5f00ec86304f7322eb8dfa41","64e50d5fb60c11b10d5902ff","","","","","843",""," ","key"," ","16.68","500","250","inst","","","","","","",""
"","psychophysics","106","527697","0.0-106.0","5f00ec86304f7322eb8dfa41","64e50d5fb60c11b10d5902ff","","","","","6618",""," ","key"," ","16.68354430379747","500","250","br","14","-28","234","2","0","-2","13"
"","psychophysics","107","530602","0.0-107.0","5f00ec86304f7322eb8dfa41","64e50d5fb60c11b10d5902ff","","","","","2901",""," ","key"," ","16.683908045977013","500","250","br","13","9","246","2","0","7","-4"
"","psychophysics","108","537111","0.0-108.0","5f00ec86304f7322eb8dfa41","64e50d5fb60c11b10d5902ff","","","","","6506",""," ","key"," ","16.68380462724936","500","250","br","19","30","280","2","0","-3","-29"
"","psychophysics","109","541117","0.0-109.0","5f00ec86304f7322eb8dfa41","64e50d5fb60c11b10d5902ff","","","","","4003",""," ","key"," ","16.686192468619247","500","250","br","12","19","238","2","0","-14","5"
"","psychophysics","110","547587","0.0-110.0","5f00ec86304f7322eb8dfa41","64e50d5fb60c11b10d5902ff","","","","","6467",""," ","key"," ","16.684754521963825","500","250","br","9","25","286","2","0","-5","-27"
"","psychophysics","111","549821","0.0-111.0","5f00ec86304f7322eb8dfa41","64e50d5fb60c11b10d5902ff","","","","","2231",""," ","key"," ","16.67669172932331","500","250","br","10","6","259","2","0","-25","8"
"","psychophysics","112","551112","0.0-112.0","5f00ec86304f7322eb8dfa41","64e50d5fb60c11b10d5902ff","","","","","1288",""," ","key"," ","16.68421052631579","500","250","br","0","0","283","2","0","6","-3"
"","psychophysics","113","553404","0.0-113.0","5f00ec86304f7322eb8dfa41","64e50d5fb60c11b10d5902ff","","","","","2290",""," ","key"," ","16.83703703703704","500","250","br","2","-1","283","2","0","14","27"
"","psychophysics","114","559149","0.0-114.0","5f00ec86304f7322eb8dfa41","64e50d5fb60c11b10d5902ff","","","","","5742",""," ","key"," ","16.682215743440235","500","250","br","16","-20","250","2","0","6","-21"
"","psychophysics","115","561855","0.0-115.0","5f00ec86304f7322eb8dfa41","64e50d5fb60c11b10d5902ff","","","","","2703",""," ","key"," ","16.685185185185187","500","250","br","17","20","258","2","0","-19","-24"
"","psychophysics","116","564269","0.0-116.0","5f00ec86304f7322eb8dfa41","64e50d5fb60c11b10d5902ff","","","","","2410",""," ","key"," ","16.685314685314687","500","250","br","15","0","237","2","0","23","24"
"","psychophysics","117","566753","0.0-117.0","5f00ec86304f7322eb8dfa41","64e50d5fb60c11b10d5902ff","","","","","2481",""," ","key"," ","16.68243243243243","500","250","br","13","24","280","2","0","-8","-26"
"","psychophysics","118","568830","0.0-118.0","5f00ec86304f7322eb8dfa41","64e50d5fb60c11b10d5902ff","","","","","2074",""," ","key"," ","16.677419354838708","500","250","br","14","25","254","2","0","13","23"
"","psychophysics","119","573520","0.0-119.0","5f00ec86304f7322eb8dfa41","64e50d5fb60c11b10d5902ff","","","","","4688",""," ","key"," ","16.685714285714287","500","250","br","15","-22","249","2","0","-21","16"
"","psychophysics","120","576345","0.0-120.0","5f00ec86304f7322eb8dfa41","64e50d5fb60c11b10d5902ff","","","","","2822",""," ","key"," ","16.68452380952381","500","250","br","16","20","209","2","0","22","1"
"","psychophysics","121","577191","0.0-121.0","5f00ec86304f7322eb8dfa41","64e50d5fb60c11b10d5902ff","","","","","844",""," ","key"," ","16.68","500","250","inst","","","","","","",""
"","psychophysics","122","584822","0.0-122.0","5f00ec86304f7322eb8dfa41","64e50d5fb60c11b10d5902ff","","","","","7628",""," ","key"," ","16.72967032967033","500","250","instBr3","-21","40","300","1","","0","0"
"","psychophysics","123","585624","0.0-123.0","5f00ec86304f7322eb8dfa41","64e50d5fb60c11b10d5902ff","","","","","800",""," ","key"," ","16.680851063829788","500","250","inst","","","","","","",""
"","psychophysics","124","591299","0.0-124.0","5f00ec86304f7322eb8dfa41","64e50d5fb60c11b10d5902ff","","","","","5672",""," ","key"," ","16.684365781710916","500","250","br","-18","25","220","1","1","0","17"
"","psychophysics","125","594887","0.0-125.0","5f00ec86304f7322eb8dfa41","64e50d5fb60c11b10d5902ff","","","","","3586",""," ","key"," ","16.682242990654206","500","250","br","-15","-2","221","1","1","-13","3"
"","psychophysics","126","600312","0.0-126.0","5f00ec86304f7322eb8dfa41","64e50d5fb60c11b10d5902ff","","","","","5423",""," ","key"," ","16.682098765432098","500","250","br","-15","-19","250","1","1","6","-26"
"","psychophysics","127","604485","0.0-127.0","5f00ec86304f7322eb8dfa41","64e50d5fb60c11b10d5902ff","","","","","4168",""," ","key"," ","16.684","500","250","br","-17","15","211","1","1","26","16"
"","psychophysics","128","608190","0.0-128.0","5f00ec86304f7322eb8dfa41","64e50d5fb60c11b10d5902ff","","","","","3703",""," ","key"," ","16.687782805429865","500","250","br","-17","-9","210","1","1","-16","-19"
"","psychophysics","129","613045","0.0-129.0","5f00ec86304f7322eb8dfa41","64e50d5fb60c11b10d5902ff","","","","","4852",""," ","key"," ","16.686206896551724","500","250","br","-24","5","288","1","1","-7","7"
"","psychophysics","130","616421","0.0-130.0","5f00ec86304f7322eb8dfa41","64e50d5fb60c11b10d5902ff","","","","","3374",""," ","key"," ","16.686567164179106","500","250","br","-16","9","275","1","1","11","26"
"","psychophysics","131","620372","0.0-131.0","5f00ec86304f7322eb8dfa41","64e50d5fb60c11b10d5902ff","","","","","3949",""," ","key"," ","16.6864406779661","500","250","br","-22","29","258","1","1","18","6"
"","psychophysics","132","625415","0.0-132.0","5f00ec86304f7322eb8dfa41","64e50d5fb60c11b10d5902ff","","","","","5039",""," ","key"," ","16.6843853820598","500","250","br","-24","10","247","1","1","3","-22"
"","psychophysics","133","629386","0.0-133.0","5f00ec86304f7322eb8dfa41","64e50d5fb60c11b10d5902ff","","","","","3968",""," ","key"," ","16.68354430379747","500","250","br","-21","29","274","1","1","-26","-21"
"","psychophysics","134","633631","0.0-134.0","5f00ec86304f7322eb8dfa41","64e50d5fb60c11b10d5902ff","","","","","4243",""," ","key"," ","16.681102362204726","500","250","br","-14","-6","203","1","1","11","-24"
"","psychophysics","135","636751","0.0-135.0","5f00ec86304f7322eb8dfa41","64e50d5fb60c11b10d5902ff","","","","","3119",""," ","key"," ","16.686486486486487","500","250","br","-11","16","238","1","1","-24","-19"
"","psychophysics","136","638315","0.0-136.0","5f00ec86304f7322eb8dfa41","64e50d5fb60c11b10d5902ff","","","","","1559",""," ","key"," ","16.688172043010752","500","250","br","-19","-19","200","1","1","-28","-27"
"","psychophysics","137","640834","0.0-137.0","5f00ec86304f7322eb8dfa41","64e50d5fb60c11b10d5902ff","","","","","2517",""," ","key"," ","16.68","500","250","br","-20","0","269","1","1","-3","2"
"","psychophysics","138","643563","0.0-138.0","5f00ec86304f7322eb8dfa41","64e50d5fb60c11b10d5902ff","","","","","2726",""," ","key"," ","16.680981595092025","500","250","br","-12","9","233","1","1","-14","-21"
"","psychophysics","139","644288","0.0-139.0","5f00ec86304f7322eb8dfa41","64e50d5fb60c11b10d5902ff","","","","","724",""," ","key"," ","16.69047619047619","500","250","inst","","","","","","",""
"","psychophysics","140","654049","0.0-140.0","5f00ec86304f7322eb8dfa41","64e50d5fb60c11b10d5902ff","","","","","9755",""," ","key"," ","16.684931506849313","500","250","instPz1","48","25","50","1","","",""
"","psychophysics","141","660200","0.0-141.0","5f00ec86304f7322eb8dfa41","64e50d5fb60c11b10d5902ff","","","","","6148",""," ","key"," ","16.682065217391305","500","250","instPz2","21","35","20","1","","",""
"","psychophysics","142","668097","0.0-142.0","5f00ec86304f7322eb8dfa41","64e50d5fb60c11b10d5902ff","","","","","7894",""," ","key"," ","16.68220338983051","500","250","instPz3","38","100","30","1","","",""
"","psychophysics","143","681427","0.0-143.0","5f00ec86304f7322eb8dfa41","64e50d5fb60c11b10d5902ff","","","","","13326",""," ","key"," ","16.68421052631579","500","250","instPz4","33","100","30","1","","",""
"","psychophysics","144","735602","0.0-144.0","5f00ec86304f7322eb8dfa41","64e50d5fb60c11b10d5902ff","","","","","54172",""," ","key"," ","16.70305272895467","500","250","inst","","","","","","",""
"","psychophysics","145","740229","0.0-145.0","5f00ec86304f7322eb8dfa41","64e50d5fb60c11b10d5902ff","","","","","4625",""," ","key"," ","16.684782608695652","500","250","pz","36","46","32","1","1","",""
"","psychophysics","146","745306","0.0-146.0","5f00ec86304f7322eb8dfa41","64e50d5fb60c11b10d5902ff","","","","","5074",""," ","key"," ","16.686468646864686","500","250","pz","45","20","39","1","1","",""
"","psychophysics","147","751260","0.0-147.0","5f00ec86304f7322eb8dfa41","64e50d5fb60c11b10d5902ff","","","","","5950",""," ","key"," ","16.68258426966292","500","250","pz","66","36","56","1","1","",""
"","psychophysics","148","754490","0.0-148.0","5f00ec86304f7322eb8dfa41","64e50d5fb60c11b10d5902ff","","","","","3225",""," ","key"," ","16.678756476683937","500","250","pz","33","43","27","1","1","",""
"","psychophysics","149","761393","0.0-149.0","5f00ec86304f7322eb8dfa41","64e50d5fb60c11b10d5902ff","","","","","6901",""," ","key"," ","16.685230024213077","500","250","pz","62","57","58","1","1","",""
"","psychophysics","150","767284","0.0-150.0","5f00ec86304f7322eb8dfa41","64e50d5fb60c11b10d5902ff","","","","","5889",""," ","key"," ","16.68465909090909","500","250","pz","56","56","45","1","1","",""
"","psychophysics","151","770648","0.0-151.0","5f00ec86304f7322eb8dfa41","64e50d5fb60c11b10d5902ff","","","","","3359",""," ","key"," ","16.68","500","250","pz","55","21","36","1","1","",""
"","psychophysics","152","775331","0.0-152.0","5f00ec86304f7322eb8dfa41","64e50d5fb60c11b10d5902ff","","","","","4677",""," ","key"," ","16.685714285714287","500","250","pz","31","47","23","1","1","",""
"","psychophysics","153","779918","0.0-153.0","5f00ec86304f7322eb8dfa41","64e50d5fb60c11b10d5902ff","","","","","4585",""," ","key"," ","16.686131386861312","500","250","pz","40","26","36","1","1","",""
"","psychophysics","154","783014","0.0-154.0","5f00ec86304f7322eb8dfa41","64e50d5fb60c11b10d5902ff","","","","","3094",""," ","key"," ","16.686486486486487","500","250","pz","63","35","57","1","1","",""
"","psychophysics","155","788382","0.0-155.0","5f00ec86304f7322eb8dfa41","64e50d5fb60c11b10d5902ff","","","","","5364",""," ","key"," ","16.684375","500","250","pz","28","58","22","1","1","",""
"","psychophysics","156","793790","0.0-156.0","5f00ec86304f7322eb8dfa41","64e50d5fb60c11b10d5902ff","","","","","5402",""," ","key"," ","16.68421052631579","500","250","pz","59","39","47","1","1","",""
"","psychophysics","157","798384","0.0-157.0","5f00ec86304f7322eb8dfa41","64e50d5fb60c11b10d5902ff","","","","","4590",""," ","key"," ","16.687272727272727","500","250","pz","32","45","26","1","1","",""
"","psychophysics","158","806295","0.0-158.0","5f00ec86304f7322eb8dfa41","64e50d5fb60c11b10d5902ff","","","","","7908",""," ","key"," ","16.684989429175477","500","250","pz","63","44","55","1","1","",""
"","psychophysics","159","813586","0.0-159.0","5f00ec86304f7322eb8dfa41","64e50d5fb60c11b10d5902ff","","","","","7287",""," ","key"," ","16.68577981651376","500","250","pz","25","47","22","1","1","",""
"","psychophysics","160","814464","0.0-160.0","5f00ec86304f7322eb8dfa41","64e50d5fb60c11b10d5902ff","","","","","875",""," ","key"," ","16.686274509803923","500","250","inst","","","","","","",""
"","psychophysics","161","820427","0.0-161.0","5f00ec86304f7322eb8dfa41","64e50d5fb60c11b10d5902ff","","","","","5960",""," ","key"," ","16.741573033707866","500","250","instZol1","-0.2000000000000002","-1.3","","","","0","0"
"","psychophysics","162","826062","0.0-162.0","5f00ec86304f7322eb8dfa41","64e50d5fb60c11b10d5902ff","","","","","5631",""," ","key"," ","16.68154761904762","500","250","instZol2","-1.0999999999999992","2","","2","","0","0"
"","psychophysics","163","826830","0.0-163.0","5f00ec86304f7322eb8dfa41","64e50d5fb60c11b10d5902ff","","","","","763",""," ","key"," ","16.695652173913043","500","250","inst","","","","","","",""
"","psychophysics","164","833370","0.0-164.0","5f00ec86304f7322eb8dfa41","64e50d5fb60c11b10d5902ff","","","","","6537",""," ","key"," ","16.685421994884912","500","250","zol","-1.5300000000000005","-0.27","","2","1","8","11"
"","psychophysics","165","838277","0.0-165.0","5f00ec86304f7322eb8dfa41","64e50d5fb60c11b10d5902ff","","","","","4904",""," ","key"," ","16.686006825938566","500","250","zol","-1.36","-0.74","","2","1","-23","-10"
"","psychophysics","166","842802","0.0-166.0","5f00ec86304f7322eb8dfa41","64e50d5fb60c11b10d5902ff","","","","","4522",""," ","key"," ","16.685185185185187","500","250","zol","-2.240000000000001","0.44","","2","1","-22","29"
"","psychophysics","167","847252","0.0-167.0","5f00ec86304f7322eb8dfa41","64e50d5fb60c11b10d5902ff","","","","","4447",""," ","key"," ","16.68421052631579","500","250","zol","-1.5400000000000005","0.44","","2","1","-24","-26"
"","psychophysics","168","849874","0.0-168.0","5f00ec86304f7322eb8dfa41","64e50d5fb60c11b10d5902ff","","","","","2620",""," ","key"," ","16.685897435897434","500","250","zol","-1.3200000000000003","0.52","","2","1","6","-21"
"","psychophysics","169","852362","0.0-169.0","5f00ec86304f7322eb8dfa41","64e50d5fb60c11b10d5902ff","","","","","2483",""," ","key"," ","16.68243243243243","500","250","zol","-1.6500000000000006","0.55","","2","1","-8","22"
"","psychophysics","170","855994","0.0-170.0","5f00ec86304f7322eb8dfa41","64e50d5fb60c11b10d5902ff","","","","","3629",""," ","key"," ","16.68663594470046","500","250","zol","-1.5000000000000002","-0.2","","2","1","16","-25"
"","psychophysics","171","858872","0.0-171.0","5f00ec86304f7322eb8dfa41","64e50d5fb60c11b10d5902ff","","","","","2874",""," ","key"," ","16.68421052631579","500","250","zol","-1.6000000000000003","0.7","","2","1","11","8"
"","psychophysics","172","862583","0.0-172.0","5f00ec86304f7322eb8dfa41","64e50d5fb60c11b10d5902ff","","","","","3708",""," ","key"," ","16.683257918552037","500","250","zol","-1.6200000000000006","0.02","","2","1","8","-24"
"","psychophysics","173","867705","0.0-173.0","5f00ec86304f7322eb8dfa41","64e50d5fb60c11b10d5902ff","","","","","5117",""," ","key"," ","16.68300653594771","500","250","zol","-1.4600000000000002","-0.14","","2","1","8","17"
"","psychophysics","174","870075","0.0-174.0","5f00ec86304f7322eb8dfa41","64e50d5fb60c11b10d5902ff","","","","","2363",""," ","key"," ","16.683098591549296","500","250","zol","-1.8000000000000005","0.5","","2","1","1","5"
"","psychophysics","175","877352","0.0-175.0","5f00ec86304f7322eb8dfa41","64e50d5fb60c11b10d5902ff","","","","","7274",""," ","key"," ","16.682758620689654","500","250","zol","-1.4300000000000004","0.63","","2","1","-23","-30"
"","psychophysics","176","881693","0.0-176.0","5f00ec86304f7322eb8dfa41","64e50d5fb60c11b10d5902ff","","","","","4337",""," ","key"," ","16.683397683397683","500","250","zol","-1.6000000000000003","0.5","","2","1","-21","-17"
"","psychophysics","177","887189","0.0-177.0","5f00ec86304f7322eb8dfa41","64e50d5fb60c11b10d5902ff","","","","","5493",""," ","key"," ","16.682926829268293","500","250","zol","-1.2100000000000002","-0.59","","2","1","8","0"
"","psychophysics","178","895194","0.0-178.0","5f00ec86304f7322eb8dfa41","64e50d5fb60c11b10d5902ff","","","","","null","","null","key","null","16.68267223382046","500","250","zol","-0.6200000000000001","-0.18","","2","1","15","13"
"","psychophysics","179","895274","0.0-179.0","5f00ec86304f7322eb8dfa41","64e50d5fb60c11b10d5902ff","","","","","77",""," ","key"," ","16.75","500","250","inst","","","","","","",""
"","psychophysics","180","899848","0.0-180.0","5f00ec86304f7322eb8dfa41","64e50d5fb60c11b10d5902ff","","","","","4571",""," ","key"," ","16.761029411764707","500","250","instPog0","340","370","340","2","","0","0"
"","psychophysics","181","903649","0.0-181.0","5f00ec86304f7322eb8dfa41","64e50d5fb60c11b10d5902ff","","","","","3800",""," ","key"," ","16.68281938325991","500","250","instPog1","340","370","340","2","","0","0"
"","psychophysics","182","906358","0.0-182.0","5f00ec86304f7322eb8dfa41","64e50d5fb60c11b10d5902ff","","","","","2707",""," ","key"," ","16.68944099378882","500","250","instPog2","324","340","340","2","","0","0"
"","psychophysics","183","907177","0.0-183.0","5f00ec86304f7322eb8dfa41","64e50d5fb60c11b10d5902ff","","","","","817",""," ","key"," ","16.6875","500","250","inst","","","","","","",""
"","psychophysics","184","912090","0.0-184.0","5f00ec86304f7322eb8dfa41","64e50d5fb60c11b10d5902ff","","","","","4911",""," ","key"," ","16.683673469387756","500","250","pog","336","390","354","2","1","0","0"
"","psychophysics","185","916154","0.0-185.0","5f00ec86304f7322eb8dfa41","64e50d5fb60c11b10d5902ff","","","","","4061",""," ","key"," ","16.771784232365146","500","250","pog","354","400","371","2","1","0","0"
"","psychophysics","186","919471","0.0-186.0","5f00ec86304f7322eb8dfa41","64e50d5fb60c11b10d5902ff","","","","","3314",""," ","key"," ","16.681818181818183","500","250","pog","304","320","316","2","1","0","0"
"","psychophysics","187","920540","0.0-187.0","5f00ec86304f7322eb8dfa41","64e50d5fb60c11b10d5902ff","","","","","1067",""," ","key"," ","16.682539682539684","500","250","pog","351","351","379","2","1","0","0"
"","psychophysics","188","923752","0.0-188.0","5f00ec86304f7322eb8dfa41","64e50d5fb60c11b10d5902ff","","","","","3209",""," ","key"," ","16.680628272251308","500","250","pog","340","374","358","2","1","0","0"
"","psychophysics","189","928935","0.0-189.0","5f00ec86304f7322eb8dfa41","64e50d5fb60c11b10d5902ff","","","","","5179",""," ","key"," ","16.683870967741935","500","250","pog","318","290","341","2","1","0","0"
"","psychophysics","190","933221","0.0-190.0","5f00ec86304f7322eb8dfa41","64e50d5fb60c11b10d5902ff","","","","","4284",""," ","key"," ","16.68359375","500","250","pog","315","339","335","2","1","0","0"
"","psychophysics","191","936453","0.0-191.0","5f00ec86304f7322eb8dfa41","64e50d5fb60c11b10d5902ff","","","","","3228",""," ","key"," ","16.683937823834196","500","250","pog","289","363","317","2","1","0","0"
"","psychophysics","192","944244","0.0-192.0","5f00ec86304f7322eb8dfa41","64e50d5fb60c11b10d5902ff","","","","","7789",""," ","key"," ","16.684549356223176","500","250","pog","280","372","309","2","1","0","0"
"","psychophysics","193","947708","0.0-193.0","5f00ec86304f7322eb8dfa41","64e50d5fb60c11b10d5902ff","","","","","3460",""," ","key"," ","16.684466019417474","500","250","pog","334","304","366","2","1","0","0"
"","psychophysics","194","950887","0.0-194.0","5f00ec86304f7322eb8dfa41","64e50d5fb60c11b10d5902ff","","","","","3174",""," ","key"," ","16.68421052631579","500","250","pog","317","399","347","2","1","0","0"
"","psychophysics","195","955595","0.0-195.0","5f00ec86304f7322eb8dfa41","64e50d5fb60c11b10d5902ff","","","","","4706",""," ","key"," ","16.683274021352315","500","250","pog","277","375","308","2","1","0","0"
"","psychophysics","196","958413","0.0-196.0","5f00ec86304f7322eb8dfa41","64e50d5fb60c11b10d5902ff","","","","","2816",""," ","key"," ","16.678571428571427","500","250","pog","296","386","317","2","1","0","0"
"","psychophysics","197","963381","0.0-197.0","5f00ec86304f7322eb8dfa41","64e50d5fb60c11b10d5902ff","","","","","4964",""," ","key"," ","16.683501683501685","500","250","pog","317","285","343","2","1","0","0"
"","psychophysics","198","967641","0.0-198.0","5f00ec86304f7322eb8dfa41","64e50d5fb60c11b10d5902ff","","","","","4257",""," ","key"," ","16.681102362204726","500","250","pog","350","374","375","2","1","0","0"
"","psychophysics","199","968525","0.0-199.0","5f00ec86304f7322eb8dfa41","64e50d5fb60c11b10d5902ff","","","","","882",""," ","key"," ","16.692307692307693","500","250","inst","","","","","","",""
"","psychophysics","200","972788","0.0-200.0","5f00ec86304f7322eb8dfa41","64e50d5fb60c11b10d5902ff","","","","","4262",""," ","key"," ","16.686274509803923","500","250","instEB1","29","40","30","1","","0","0"
"","psychophysics","201","977050","0.0-201.0","5f00ec86304f7322eb8dfa41","64e50d5fb60c11b10d5902ff","","","","","4259",""," ","key"," ","16.68503937007874","500","250","instEB2","40","30","40","1","","0","0"
"","psychophysics","202","980017","0.0-202.0","5f00ec86304f7322eb8dfa41","64e50d5fb60c11b10d5902ff","","","","","2963",""," ","key"," ","16.683615819209038","500","250","instEB3","37","27","45","1","","0","0"
"","psychophysics","203","983493","0.0-203.0","5f00ec86304f7322eb8dfa41","64e50d5fb60c11b10d5902ff","","","","","3473",""," ","key"," ","16.685990338164252","500","250","instEB4","29","40","30","1","","0","0"
"","psychophysics","204","984154","0.0-204.0","5f00ec86304f7322eb8dfa41","64e50d5fb60c11b10d5902ff","","","","","659",""," ","key"," ","16.666666666666668","500","250","inst","","","","","","",""
"","psychophysics","205","986771","0.0-205.0","5f00ec86304f7322eb8dfa41","64e50d5fb60c11b10d5902ff","","","","","2614",""," ","key"," ","16.685897435897434","500","250","eb","27","28","28","1","","0","0"
"","psychophysics","206","990323","0.0-206.0","5f00ec86304f7322eb8dfa41","64e50d5fb60c11b10d5902ff","","","","","3549",""," ","key"," ","16.683962264150942","500","250","eb","30","36","36","1","","0","0"
"","psychophysics","207","993516","0.0-207.0","5f00ec86304f7322eb8dfa41","64e50d5fb60c11b10d5902ff","","","","","3192",""," ","key"," ","16.68421052631579","500","250","eb","40","46","49","1","","0","0"
"","psychophysics","208","996039","0.0-208.0","5f00ec86304f7322eb8dfa41","64e50d5fb60c11b10d5902ff","","","","","2520",""," ","key"," ","16.68","500","250","eb","41","34","50","1","","0","0"
"","psychophysics","209","998732","0.0-209.0","5f00ec86304f7322eb8dfa41","64e50d5fb60c11b10d5902ff","","","","","2689",""," ","key"," ","16.683229813664596","500","250","eb","23","35","29","1","","0","0"
"","psychophysics","210","1002184","0.0-210.0","5f00ec86304f7322eb8dfa41","64e50d5fb60c11b10d5902ff","","","","","3451",""," ","key"," ","16.682926829268293","500","250","eb","43","30","51","1","","0","0"
"","psychophysics","211","1006212","0.0-211.0","5f00ec86304f7322eb8dfa41","64e50d5fb60c11b10d5902ff","","","","","4022",""," ","key"," ","16.684647302904565","500","250","eb","25","45","28","1","","0","0"
"","psychophysics","212","1009443","0.0-212.0","5f00ec86304f7322eb8dfa41","64e50d5fb60c11b10d5902ff","","","","","3228",""," ","key"," ","16.683937823834196","500","250","eb","28","49","33","1","","0","0"
"","psychophysics","213","1013254","0.0-213.0","5f00ec86304f7322eb8dfa41","64e50d5fb60c11b10d5902ff","","","","","3806",""," ","key"," ","16.68281938325991","500","250","eb","31","41","36","1","","0","0"
"","psychophysics","214","1017627","0.0-214.0","5f00ec86304f7322eb8dfa41","64e50d5fb60c11b10d5902ff","","","","","4370",""," ","key"," ","16.685823754789272","500","250","eb","30","49","36","1","","0","0"
"","psychophysics","215","1020973","0.0-215.0","5f00ec86304f7322eb8dfa41","64e50d5fb60c11b10d5902ff","","","","","3343",""," ","key"," ","16.685","500","250","eb","49","29","48","1","","0","0"
"","psychophysics","216","1023274","0.0-216.0","5f00ec86304f7322eb8dfa41","64e50d5fb60c11b10d5902ff","","","","","2299",""," ","key"," ","16.686131386861312","500","250","eb","37","53","48","1","","0","0"
"","psychophysics","217","1025788","0.0-217.0","5f00ec86304f7322eb8dfa41","64e50d5fb60c11b10d5902ff","","","","","2513",""," ","key"," ","16.677852348993287","500","250","eb","33","41","39","1","","0","0"
"","psychophysics","218","1028807","0.0-218.0","5f00ec86304f7322eb8dfa41","64e50d5fb60c11b10d5902ff","","","","","3017",""," ","key"," ","16.683333333333334","500","250","eb","34","43","43","1","","0","0"
"","psychophysics","219","1031899","0.0-219.0","5f00ec86304f7322eb8dfa41","64e50d5fb60c11b10d5902ff","","","","","3090",""," ","key"," ","16.681081081081082","500","250","eb","29","50","33","1","","0","0"
