"success","trial_type","trial_index","time_elapsed","internal_node_id","pid","sid","timeout","failed_images","failed_audio","failed_video","rt","stimulus","response","response_type","key_press","avg_frame_time","center_x","center_y","task","resp","version","block","start","jitterX","jitterY","parA"
"true","fullscreen","0","9464","0.0-0.0","60fcd5602ff7c8f0866ecd0c","64e509e5c98a57cb2900cf53","","","","","","","","","","","","","","","","","","","",""
"true","preload","1","9740","0.0-1.0","60fcd5602ff7c8f0866ecd0c","64e509e5c98a57cb2900cf53","false","[]","[]","[]","","","","","","","","","","","","","","","",""
"","html-button-response","2","12751","0.0-2.0","60fcd5602ff7c8f0866ecd0c","64e509e5c98a57cb2900cf53","","","","","3010","Please Make Sure Your Audio Is On.","0","","","","","","","","","","","","",""
"","psychophysics","3","16035","0.0-3.0","60fcd5602ff7c8f0866ecd0c","64e509e5c98a57cb2900cf53","","","","","3281",""," ","key"," ","4.258332036316471","853.3333333333334","250","","","","","","","",""
"","psychophysics","4","18555","0.0-4.0","60fcd5602ff7c8f0866ecd0c","64e509e5c98a57cb2900cf53","","","","","2519",""," ","key"," ","4.669168831168832","500","250","inst","","","","","","",""
"","psychophysics","5","22392","0.0-5.0","60fcd5602ff7c8f0866ecd0c","64e509e5c98a57cb2900cf53","","","","","3835",""," ","key"," ","4.792704630788484","500","250","sample0","","","","","","",""
"","psychophysics","6","24507","0.0-6.0","60fcd5602ff7c8f0866ecd0c","64e509e5c98a57cb2900cf53","","","","","2114",""," ","key"," ","4.652825991189423","500","250","sample1","","","","","","",""
"","psychophysics","7","36075","0.0-7.0","60fcd5602ff7c8f0866ecd0c","64e509e5c98a57cb2900cf53","","","","","11567",""," ","key"," ","4.724000817995912","500","250","sample2","100","","","","","",""
"","psychophysics","8","42050","0.0-8.0","60fcd5602ff7c8f0866ecd0c","64e509e5c98a57cb2900cf53","","","","","5974",""," ","key"," ","4.548035795887284","500","250","sample3","98","","","","","",""
"","psychophysics","9","48402","0.0-9.0","60fcd5602ff7c8f0866ecd0c","64e509e5c98a57cb2900cf53","","","","","6351",""," ","key"," ","4.735944734876774","500","250","sample4","100","","","","","",""
"","psychophysics","10","57514","0.0-10.0","60fcd5602ff7c8f0866ecd0c","64e509e5c98a57cb2900cf53","","","","","9111",""," ","key"," ","4.661647209421403","500","250","sample5","","","","","","",""
"","psychophysics","11","64929","0.0-11.0","60fcd5602ff7c8f0866ecd0c","64e509e5c98a57cb2900cf53","","","","","7414",""," ","key"," ","4.7765248226950305","500","250","sample6","502","","","","","",""
"","psychophysics","12","69787","0.0-12.0","60fcd5602ff7c8f0866ecd0c","64e509e5c98a57cb2900cf53","","","","","4856",""," ","key"," ","4.722128404669259","500","250","inst","","","","","","",""
"","psychophysics","13","73923","0.0-13.0","60fcd5602ff7c8f0866ecd0c","64e509e5c98a57cb2900cf53","","","","","4134",""," ","key"," ","4.756655926352129","500","250","inst","","","","","","",""
"","psychophysics","14","76447","0.0-14.0","60fcd5602ff7c8f0866ecd0c","64e509e5c98a57cb2900cf53","","","","","2524",""," ","key"," ","4.756183018867928","500","250","inst","","","","","","",""
"","psychophysics","15","78280","0.0-15.0","60fcd5602ff7c8f0866ecd0c","64e509e5c98a57cb2900cf53","","","","","1832",""," ","key"," ","4.689938303341899","500","250","inst","","","","","","",""
"","psychophysics","16","79428","0.0-16.0","60fcd5602ff7c8f0866ecd0c","64e509e5c98a57cb2900cf53","","","","","1147",""," ","key"," ","4.6405243902439155","500","250","inst","","","","","","",""
"","psychophysics","17","86210","0.0-17.0","60fcd5602ff7c8f0866ecd0c","64e509e5c98a57cb2900cf53","","","","","6781",""," ","key"," ","4.621266530334016","500","250","instPog0","340","2","","370","0","0","340"
"","psychophysics","18","96642","0.0-18.0","60fcd5602ff7c8f0866ecd0c","64e509e5c98a57cb2900cf53","","","","","10432",""," ","key"," ","4.7173099547511335","500","250","instPog1","342","2","","370","0","0","340"
"","psychophysics","19","113675","0.0-19.0","60fcd5602ff7c8f0866ecd0c","64e509e5c98a57cb2900cf53","","","","","17032",""," ","key"," ","4.656787199124729","500","250","instPog2","328","2","","340","0","0","340"
"","psychophysics","20","118678","0.0-20.0","60fcd5602ff7c8f0866ecd0c","64e509e5c98a57cb2900cf53","","","","","5002",""," ","key"," ","4.793924256951097","500","250","inst","","","","","","",""
"","psychophysics","21","126680","0.0-21.0","60fcd5602ff7c8f0866ecd0c","64e509e5c98a57cb2900cf53","","","","","null","","null","key","null","4.678752486834405","500","250","pog","336","2","0","398","0","0","341"
"","psychophysics","22","134681","0.0-22.0","60fcd5602ff7c8f0866ecd0c","64e509e5c98a57cb2900cf53","","","","","null","","null","key","null","4.681211234640142","500","250","pog","305","2","0","301","0","0","322"
"","psychophysics","23","142682","0.0-23.0","60fcd5602ff7c8f0866ecd0c","64e509e5c98a57cb2900cf53","","","","","null","","null","key","null","4.675920467836271","500","250","pog","312","2","0","378","0","0","327"
"","psychophysics","24","150684","0.0-24.0","60fcd5602ff7c8f0866ecd0c","64e509e5c98a57cb2900cf53","","","","","null","","null","key","null","4.706567726737325","500","250","pog","362","2","0","328","0","0","370"
"","psychophysics","25","158684","0.0-25.0","60fcd5602ff7c8f0866ecd0c","64e509e5c98a57cb2900cf53","","","","","null","","null","key","null","4.77375641791044","500","250","pog","322","2","0","292","0","0","331"
"","psychophysics","26","166685","0.0-26.0","60fcd5602ff7c8f0866ecd0c","64e509e5c98a57cb2900cf53","","","","","null","","null","key","null","4.653939499709135","500","250","pog","367","2","0","355","0","0","374"
"","psychophysics","27","174686","0.0-27.0","60fcd5602ff7c8f0866ecd0c","64e509e5c98a57cb2900cf53","","","","","null","","null","key","null","4.700955294117653","500","250","pog","300","2","0","342","0","0","307"
"","psychophysics","28","182687","0.0-28.0","60fcd5602ff7c8f0866ecd0c","64e509e5c98a57cb2900cf53","","","","","null","","null","key","null","4.742502372479239","500","250","pog","340","2","0","288","0","0","348"
"","psychophysics","29","190688","0.0-29.0","60fcd5602ff7c8f0866ecd0c","64e509e5c98a57cb2900cf53","","","","","null","","null","key","null","4.700721928277492","500","250","pog","332","2","0","296","0","0","342"
"","psychophysics","30","198689","0.0-30.0","60fcd5602ff7c8f0866ecd0c","64e509e5c98a57cb2900cf53","","","","","null","","null","key","null","4.787916167664657","500","250","pog","354","2","0","284","0","0","364"
"","psychophysics","31","206690","0.0-31.0","60fcd5602ff7c8f0866ecd0c","64e509e5c98a57cb2900cf53","","","","","null","","null","key","null","4.708674514420247","500","250","pog","359","2","0","341","0","0","370"
"","psychophysics","32","214692","0.0-32.0","60fcd5602ff7c8f0866ecd0c","64e509e5c98a57cb2900cf53","","","","","null","","null","key","null","4.706271924661569","500","250","pog","300","2","0","298","0","0","307"
"","psychophysics","33","222693","0.0-33.0","60fcd5602ff7c8f0866ecd0c","64e509e5c98a57cb2900cf53","","","","","null","","null","key","null","4.701137058823541","500","250","pog","371","2","0","293","0","0","375"
"","psychophysics","34","230694","0.0-34.0","60fcd5602ff7c8f0866ecd0c","64e509e5c98a57cb2900cf53","","","","","null","","null","key","null","4.684291154071466","500","250","pog","371","2","0","377","0","0","377"
"","psychophysics","35","238697","0.0-35.0","60fcd5602ff7c8f0866ecd0c","64e509e5c98a57cb2900cf53","","","","","null","","null","key","null","4.65963053613054","500","250","pog","328","2","0","322","0","0","337"
"","psychophysics","36","241309","0.0-36.0","60fcd5602ff7c8f0866ecd0c","64e509e5c98a57cb2900cf53","","","","","2607",""," ","key"," ","4.552102966841205","500","250","inst","","","","","","",""
"","psychophysics","37","244307","0.0-37.0","60fcd5602ff7c8f0866ecd0c","64e509e5c98a57cb2900cf53","","","","","2997",""," ","key"," ","4.618365325077366","500","250","instPzPre","50","0","","50","","","50"
"","psychophysics","38","248443","0.0-38.0","60fcd5602ff7c8f0866ecd0c","64e509e5c98a57cb2900cf53","","","","","4136",""," ","key"," ","4.700888382687933","500","250","instPz0","51","1","","50","","","50"
"","psychophysics","39","256337","0.0-39.0","60fcd5602ff7c8f0866ecd0c","64e509e5c98a57cb2900cf53","","","","","7893",""," ","key"," ","4.6700331557134325","500","250","instPz1","50","1","","25","","","50"
"","psychophysics","40","261683","0.0-40.0","60fcd5602ff7c8f0866ecd0c","64e509e5c98a57cb2900cf53","","","","","5345",""," ","key"," ","4.723192749778941","500","250","instPz2","20","1","","35","","","20"
"","psychophysics","41","270058","0.0-41.0","60fcd5602ff7c8f0866ecd0c","64e509e5c98a57cb2900cf53","","","","","8373",""," ","key"," ","4.698836700336694","500","250","instPz3","66","1","","100","","","30"
"","psychophysics","42","282486","0.0-42.0","60fcd5602ff7c8f0866ecd0c","64e509e5c98a57cb2900cf53","","","","","12427",""," ","key"," ","4.676520331325297","500","250","instPz4","34","1","","100","","","30"
"","psychophysics","43","283884","0.0-43.0","60fcd5602ff7c8f0866ecd0c","64e509e5c98a57cb2900cf53","","","","","1398",""," ","key"," ","4.83174305555561","500","250","inst","","","","","","",""
"","psychophysics","44","291885","0.0-44.0","60fcd5602ff7c8f0866ecd0c","64e509e5c98a57cb2900cf53","","","","","null","","null","key","null","4.697849500293954","500","250","pz","45","1","0","27","","","40"
"","psychophysics","45","299887","0.0-45.0","60fcd5602ff7c8f0866ecd0c","64e509e5c98a57cb2900cf53","","","","","null","","null","key","null","4.556141310541306","500","250","pz","36","1","0","49","","","33"
"","psychophysics","46","307888","0.0-46.0","60fcd5602ff7c8f0866ecd0c","64e509e5c98a57cb2900cf53","","","","","null","","null","key","null","4.6162550490478775","500","250","pz","62","1","0","24","","","55"
"","psychophysics","47","315890","0.0-47.0","60fcd5602ff7c8f0866ecd0c","64e509e5c98a57cb2900cf53","","","","","null","","null","key","null","4.640738247243163","500","250","pz","43","1","0","21","","","38"
"","psychophysics","48","323892","0.0-48.0","60fcd5602ff7c8f0866ecd0c","64e509e5c98a57cb2900cf53","","","","","null","","null","key","null","4.748322446555813","500","250","pz","50","1","0","49","","","48"
"","psychophysics","49","331893","0.0-49.0","60fcd5602ff7c8f0866ecd0c","64e509e5c98a57cb2900cf53","","","","","null","","null","key","null","4.645844947735169","500","250","pz","39","1","0","49","","","35"
"","psychophysics","50","339895","0.0-50.0","60fcd5602ff7c8f0866ecd0c","64e509e5c98a57cb2900cf53","","","","","null","","null","key","null","4.728549970431699","500","250","pz","34","1","0","35","","","33"
"","psychophysics","51","347896","0.0-51.0","60fcd5602ff7c8f0866ecd0c","64e509e5c98a57cb2900cf53","","","","","null","","null","key","null","4.665108518086339","500","250","pz","39","1","0","55","","","37"
"","psychophysics","52","355897","0.0-52.0","60fcd5602ff7c8f0866ecd0c","64e509e5c98a57cb2900cf53","","","","","null","","null","key","null","4.714051266941659","500","250","pz","49","1","0","32","","","44"
"","psychophysics","53","363899","0.0-53.0","60fcd5602ff7c8f0866ecd0c","64e509e5c98a57cb2900cf53","","","","","null","","null","key","null","4.662207580174919","500","250","pz","49","1","0","25","","","48"
"","psychophysics","54","371901","0.0-54.0","60fcd5602ff7c8f0866ecd0c","64e509e5c98a57cb2900cf53","","","","","null","","null","key","null","4.60177100115073","500","250","pz","42","1","0","25","","","38"
"","psychophysics","55","379903","0.0-55.0","60fcd5602ff7c8f0866ecd0c","64e509e5c98a57cb2900cf53","","","","","null","","null","key","null","4.659616550116551","500","250","pz","30","1","0","59","","","29"
"","psychophysics","56","387904","0.0-56.0","60fcd5602ff7c8f0866ecd0c","64e509e5c98a57cb2900cf53","","","","","null","","null","key","null","4.648796511627903","500","250","pz","61","1","0","46","","","56"
"","psychophysics","57","395905","0.0-57.0","60fcd5602ff7c8f0866ecd0c","64e509e5c98a57cb2900cf53","","","","","null","","null","key","null","4.574354118993113","500","250","pz","45","1","0","31","","","42"
"","psychophysics","58","403906","0.0-58.0","60fcd5602ff7c8f0866ecd0c","64e509e5c98a57cb2900cf53","","","","","null","","null","key","null","4.66517327887979","500","250","pz","49","1","0","45","","","46"
"","psychophysics","59","405914","0.0-59.0","60fcd5602ff7c8f0866ecd0c","64e509e5c98a57cb2900cf53","","","","","2003",""," ","key"," ","4.866330900243393","500","250","inst","","","","","","",""
"","psychophysics","60","408336","0.0-60.0","60fcd5602ff7c8f0866ecd0c","64e509e5c98a57cb2900cf53","","","","","2421",""," ","key"," ","4.812980119284302","500","250","instBr0","0","","","0","0","0","300"
"","psychophysics","61","416579","0.0-61.0","60fcd5602ff7c8f0866ecd0c","64e509e5c98a57cb2900cf53","","","","","8243",""," ","key"," ","4.675180476730991","500","250","instBr1","3","","","-40","0","0","300"
"","psychophysics","62","429716","0.0-62.0","60fcd5602ff7c8f0866ecd0c","64e509e5c98a57cb2900cf53","","","","","13137",""," ","key"," ","4.715880071813273","500","250","instBr3","-11","1","","40","0","0","300"
"","psychophysics","63","431062","0.0-63.0","60fcd5602ff7c8f0866ecd0c","64e509e5c98a57cb2900cf53","","","","","1345",""," ","key"," ","4.776874999999875","500","250","inst","","","","","","",""
"","psychophysics","64","439064","0.0-64.0","60fcd5602ff7c8f0866ecd0c","64e509e5c98a57cb2900cf53","","","","","null","","null","key","null","4.6710122663551665","500","250","br","-5","1","0","-19","-1","8","204"
"","psychophysics","65","447065","0.0-65.0","60fcd5602ff7c8f0866ecd0c","64e509e5c98a57cb2900cf53","","","","","null","","null","key","null","4.6675816802800725","500","250","br","-12","1","0","26","7","27","204"
"","psychophysics","66","455067","0.0-66.0","60fcd5602ff7c8f0866ecd0c","64e509e5c98a57cb2900cf53","","","","","null","","null","key","null","4.71173011196231","500","250","br","-11","1","0","-29","-8","26","275"
"","psychophysics","67","463068","0.0-67.0","60fcd5602ff7c8f0866ecd0c","64e509e5c98a57cb2900cf53","","","","","null","","null","key","null","4.622010404624266","500","250","br","-10","1","0","5","-29","16","213"
"","psychophysics","68","471069","0.0-68.0","60fcd5602ff7c8f0866ecd0c","64e509e5c98a57cb2900cf53","","","","","null","","null","key","null","4.694839788732384","500","250","br","-15","1","0","10","-29","0","260"
"","psychophysics","69","479072","0.0-69.0","60fcd5602ff7c8f0866ecd0c","64e509e5c98a57cb2900cf53","","","","","null","","null","key","null","4.600585730724988","500","250","br","-11","1","0","-13","-24","29","200"
"","psychophysics","70","487073","0.0-70.0","60fcd5602ff7c8f0866ecd0c","64e509e5c98a57cb2900cf53","","","","","null","","null","key","null","4.756693634741213","500","250","br","-8","1","0","-25","14","18","229"
"","psychophysics","71","495075","0.0-71.0","60fcd5602ff7c8f0866ecd0c","64e509e5c98a57cb2900cf53","","","","","null","","null","key","null","4.725635342789578","500","250","br","-6","1","0","30","23","9","250"
"","psychophysics","72","503077","0.0-72.0","60fcd5602ff7c8f0866ecd0c","64e509e5c98a57cb2900cf53","","","","","null","","null","key","null","4.731288757396465","500","250","br","-11","1","0","-14","-27","-20","236"
"","psychophysics","73","511078","0.0-73.0","60fcd5602ff7c8f0866ecd0c","64e509e5c98a57cb2900cf53","","","","","null","","null","key","null","4.745010083036773","500","250","br","-14","1","0","12","29","-9","202"
"","psychophysics","74","519079","0.0-74.0","60fcd5602ff7c8f0866ecd0c","64e509e5c98a57cb2900cf53","","","","","null","","null","key","null","4.789762732174956","500","250","br","-16","1","0","-1","24","-21","259"
"","psychophysics","75","527080","0.0-75.0","60fcd5602ff7c8f0866ecd0c","64e509e5c98a57cb2900cf53","","","","","null","","null","key","null","4.68141042154566","500","250","br","-19","1","0","-14","-10","0","248"
"","psychophysics","76","535081","0.0-76.0","60fcd5602ff7c8f0866ecd0c","64e509e5c98a57cb2900cf53","","","","","null","","null","key","null","4.624655870445293","500","250","br","-19","1","0","8","-6","-26","266"
"","psychophysics","77","543082","0.0-77.0","60fcd5602ff7c8f0866ecd0c","64e509e5c98a57cb2900cf53","","","","","null","","null","key","null","4.799052189562099","500","250","br","-14","1","0","-11","-22","-28","231"
"","psychophysics","78","551083","0.0-78.0","60fcd5602ff7c8f0866ecd0c","64e509e5c98a57cb2900cf53","","","","","null","","null","key","null","4.69257394366201","500","250","br","-15","1","0","-25","29","-7","234"
"","psychophysics","79","608805","0.0-79.0","60fcd5602ff7c8f0866ecd0c","64e509e5c98a57cb2900cf53","","","","","57717",""," ","key"," ","4.661780227768349","500","250","inst","","","","","","",""
"","psychophysics","80","611373","0.0-80.0","60fcd5602ff7c8f0866ecd0c","64e509e5c98a57cb2900cf53","","","","","2567",""," ","key"," ","4.634030741410604","500","250","instZol0","0","","","0","0","0",""
"","psychophysics","81","624482","0.0-81.0","60fcd5602ff7c8f0866ecd0c","64e509e5c98a57cb2900cf53","","","","","13109",""," ","key"," ","4.673435805991446","500","250","instZol1","0.09999999999999981","","","-1.3","0","0",""
"","psychophysics","82","641465","0.0-82.0","60fcd5602ff7c8f0866ecd0c","64e509e5c98a57cb2900cf53","","","","","16982",""," ","key"," ","4.636768096148589","500","250","instZol2","0.20000000000000082","1","","2","0","0",""
"","psychophysics","83","643105","0.0-83.0","60fcd5602ff7c8f0866ecd0c","64e509e5c98a57cb2900cf53","","","","","1639",""," ","key"," ","4.875838805970375","500","250","inst","","","","","","",""
"","psychophysics","84","651108","0.0-84.0","60fcd5602ff7c8f0866ecd0c","64e509e5c98a57cb2900cf53","","","","","null","","null","key","null","4.739444312796158","500","250","zol","0.01999999999999999","1","0","-0.22","-20","4",""
"","psychophysics","85","659108","0.0-85.0","60fcd5602ff7c8f0866ecd0c","64e509e5c98a57cb2900cf53","","","","","null","","null","key","null","4.762296605122066","500","250","zol","-0.03","1","0","-0.17","27","24",""
"","psychophysics","86","667111","0.0-86.0","60fcd5602ff7c8f0866ecd0c","64e509e5c98a57cb2900cf53","","","","","null","","null","key","null","4.700425381903683","500","250","zol","0.23000000000000007","1","0","-0.43","11","23",""
"","psychophysics","87","675112","0.0-87.0","60fcd5602ff7c8f0866ecd0c","64e509e5c98a57cb2900cf53","","","","","null","","null","key","null","4.676000584795328","500","250","zol","0.22","1","0","0.28","-24","7",""
"","psychophysics","88","683114","0.0-88.0","60fcd5602ff7c8f0866ecd0c","64e509e5c98a57cb2900cf53","","","","","null","","null","key","null","4.648613596746058","500","250","zol","-0.16","1","0","0.36","18","23",""
"","psychophysics","89","691115","0.0-89.0","60fcd5602ff7c8f0866ecd0c","64e509e5c98a57cb2900cf53","","","","","null","","null","key","null","4.714914454277302","500","250","zol","0.3599999999999999","1","0","-0.36","26","-11",""
"","psychophysics","90","699116","0.0-90.0","60fcd5602ff7c8f0866ecd0c","64e509e5c98a57cb2900cf53","","","","","null","","null","key","null","4.692525234741832","500","250","zol","0.6799999999999998","1","0","0.52","30","10",""
"","psychophysics","91","707118","0.0-91.0","60fcd5602ff7c8f0866ecd0c","64e509e5c98a57cb2900cf53","","","","","null","","null","key","null","4.742932937685428","500","250","zol","0.3400000000000002","1","0","0.36","-5","-22",""
"","psychophysics","92","715120","0.0-92.0","60fcd5602ff7c8f0866ecd0c","64e509e5c98a57cb2900cf53","","","","","null","","null","key","null","4.695202583675828","500","250","zol","-0.0500000000000001","1","0","0.65","-7","-16",""
"","psychophysics","93","723122","0.0-93.0","60fcd5602ff7c8f0866ecd0c","64e509e5c98a57cb2900cf53","","","","","null","","null","key","null","4.703634705882355","500","250","zol","0.12","1","0","-0.42","-12","-13",""
"","psychophysics","94","731123","0.0-94.0","60fcd5602ff7c8f0866ecd0c","64e509e5c98a57cb2900cf53","","","","","null","","null","key","null","4.730965700768755","500","250","zol","0.010000000000000148","1","0","-0.71","-4","-20",""
"","psychophysics","95","739125","0.0-95.0","60fcd5602ff7c8f0866ecd0c","64e509e5c98a57cb2900cf53","","","","","null","","null","key","null","4.7369330568720205","500","250","zol","0.85","1","0","0.15","30","-6",""
"","psychophysics","96","747126","0.0-96.0","60fcd5602ff7c8f0866ecd0c","64e509e5c98a57cb2900cf53","","","","","null","","null","key","null","4.611265859284923","500","250","zol","1.8300000000000007","1","0","-0.63","1","23",""
"","psychophysics","97","755128","0.0-97.0","60fcd5602ff7c8f0866ecd0c","64e509e5c98a57cb2900cf53","","","","","null","","null","key","null","4.697612448620074","500","250","zol","1.26","1","0","-0.16","23","-17",""
"","psychophysics","98","763130","0.0-98.0","60fcd5602ff7c8f0866ecd0c","64e509e5c98a57cb2900cf53","","","","","null","","null","key","null","4.6655382370111145","500","250","zol","0.8899999999999999","1","0","-0.59","24","14",""
"","psychophysics","99","764316","0.0-99.0","60fcd5602ff7c8f0866ecd0c","64e509e5c98a57cb2900cf53","","","","","1182",""," ","key"," ","4.86970781893019","500","250","inst","","","","","","",""
"","psychophysics","100","766514","0.0-100.0","60fcd5602ff7c8f0866ecd0c","64e509e5c98a57cb2900cf53","","","","","2197",""," ","key"," ","4.673059701492617","500","250","instEB0","40","1","","40","0","0","40"
"","psychophysics","101","770666","0.0-101.0","60fcd5602ff7c8f0866ecd0c","64e509e5c98a57cb2900cf53","","","","","4151",""," ","key"," ","4.6523621076233255","500","250","instEB1","29","1","","40","0","0","30"
"","psychophysics","102","776777","0.0-102.0","60fcd5602ff7c8f0866ecd0c","64e509e5c98a57cb2900cf53","","","","","6110",""," ","key"," ","4.70285439137129","500","250","instEB2","40","1","","30","0","0","40"
"","psychophysics","103","784792","0.0-103.0","60fcd5602ff7c8f0866ecd0c","64e509e5c98a57cb2900cf53","","","","","8014",""," ","key"," ","4.666644729178775","500","250","instEB3","40","1","","27","0","0","45"
"","psychophysics","104","794347","0.0-104.0","60fcd5602ff7c8f0866ecd0c","64e509e5c98a57cb2900cf53","","","","","9554",""," ","key"," ","4.644982003891043","500","250","instEB4","28","1","","40","0","0","30"
"","psychophysics","105","796372","0.0-105.0","60fcd5602ff7c8f0866ecd0c","64e509e5c98a57cb2900cf53","","","","","2025",""," ","key"," ","4.635066513761658","500","250","inst","","","","","","",""
"","psychophysics","106","804374","0.0-106.0","60fcd5602ff7c8f0866ecd0c","64e509e5c98a57cb2900cf53","","","","","null","","null","key","null","4.658050669772872","500","250","eb","49","1","","41","0","0","50"
"","psychophysics","107","812375","0.0-107.0","60fcd5602ff7c8f0866ecd0c","64e509e5c98a57cb2900cf53","","","","","null","","null","key","null","4.645923344947751","500","250","eb","32","1","","51","0","0","32"
"","psychophysics","108","820377","0.0-108.0","60fcd5602ff7c8f0866ecd0c","64e509e5c98a57cb2900cf53","","","","","null","","null","key","null","4.640601276842679","500","250","eb","47","1","","30","0","0","47"
"","psychophysics","109","828378","0.0-109.0","60fcd5602ff7c8f0866ecd0c","64e509e5c98a57cb2900cf53","","","","","null","","null","key","null","4.629885350318491","500","250","eb","46","1","","31","0","0","46"
"","psychophysics","110","836379","0.0-110.0","60fcd5602ff7c8f0866ecd0c","64e509e5c98a57cb2900cf53","","","","","null","","null","key","null","4.67569082407953","500","250","eb","41","1","","47","0","0","42"
"","psychophysics","111","844381","0.0-111.0","60fcd5602ff7c8f0866ecd0c","64e509e5c98a57cb2900cf53","","","","","null","","null","key","null","4.678734932709177","500","250","eb","51","1","","36","0","0","54"
"","psychophysics","112","852383","0.0-112.0","60fcd5602ff7c8f0866ecd0c","64e509e5c98a57cb2900cf53","","","","","null","","null","key","null","4.711795521508554","500","250","eb","41","1","","53","0","0","48"
"","psychophysics","113","860383","0.0-113.0","60fcd5602ff7c8f0866ecd0c","64e509e5c98a57cb2900cf53","","","","","null","","null","key","null","4.640450116009314","500","250","eb","50","1","","29","0","0","53"
"","psychophysics","114","868386","0.0-114.0","60fcd5602ff7c8f0866ecd0c","64e509e5c98a57cb2900cf53","","","","","null","","null","key","null","4.638035382830625","500","250","eb","26","1","","26","0","0","28"
"","psychophysics","115","876386","0.0-115.0","60fcd5602ff7c8f0866ecd0c","64e509e5c98a57cb2900cf53","","","","","null","","null","key","null","4.611521061742611","500","250","eb","40","1","","30","0","0","41"
"","psychophysics","116","884387","0.0-116.0","60fcd5602ff7c8f0866ecd0c","64e509e5c98a57cb2900cf53","","","","","null","","null","key","null","4.7000869565217105","500","250","eb","48","1","","50","0","0","51"
"","psychophysics","117","892389","0.0-117.0","60fcd5602ff7c8f0866ecd0c","64e509e5c98a57cb2900cf53","","","","","null","","null","key","null","4.682151230949589","500","250","eb","43","1","","45","0","0","44"
"","psychophysics","118","900389","0.0-118.0","60fcd5602ff7c8f0866ecd0c","64e509e5c98a57cb2900cf53","","","","","null","","null","key","null","4.6710531852717825","500","250","eb","28","1","","50","0","0","29"
"","psychophysics","119","908390","0.0-119.0","60fcd5602ff7c8f0866ecd0c","64e509e5c98a57cb2900cf53","","","","","null","","null","key","null","4.714494103773589","500","250","eb","49","1","","25","0","0","52"
"","psychophysics","120","916391","0.0-120.0","60fcd5602ff7c8f0866ecd0c","64e509e5c98a57cb2900cf53","","","","","null","","null","key","null","4.676304856641341","500","250","eb","31","1","","32","0","0","31"
"","psychophysics","121","917554","0.0-121.0","60fcd5602ff7c8f0866ecd0c","64e509e5c98a57cb2900cf53","","","","","1158",""," ","key"," ","4.671415322580405","500","250","inst","","","","","","",""
"","psychophysics","122","921081","0.0-122.0","60fcd5602ff7c8f0866ecd0c","64e509e5c98a57cb2900cf53","","","","","3527",""," ","key"," ","4.690399732620313","500","250","instEB1","42","2","","30","0","0","40"
"","psychophysics","123","924038","0.0-123.0","60fcd5602ff7c8f0866ecd0c","64e509e5c98a57cb2900cf53","","","","","2956",""," ","key"," ","4.674275752773365","500","250","instEB2","37","2","","40","0","0","30"
"","psychophysics","124","927773","0.0-124.0","60fcd5602ff7c8f0866ecd0c","64e509e5c98a57cb2900cf53","","","","","3734",""," ","key"," ","4.7376598984771","500","250","instEB3","34","2","","45","0","0","27"
"","psychophysics","125","931172","0.0-125.0","60fcd5602ff7c8f0866ecd0c","64e509e5c98a57cb2900cf53","","","","","3399",""," ","key"," ","4.652434842249657","500","250","instEB4","45","2","","30","0","0","40"
"","psychophysics","126","931782","0.0-126.0","60fcd5602ff7c8f0866ecd0c","64e509e5c98a57cb2900cf53","","","","","610",""," ","key"," ","4.865688000000082","500","250","inst","","","","","","",""
"","psychophysics","127","939784","0.0-127.0","60fcd5602ff7c8f0866ecd0c","64e509e5c98a57cb2900cf53","","","","","null","","null","key","null","4.726002956830331","500","250","eb","42","2","","54","0","0","38"
"","psychophysics","128","947785","0.0-128.0","60fcd5602ff7c8f0866ecd0c","64e509e5c98a57cb2900cf53","","","","","null","","null","key","null","4.6216707105719035","500","250","eb","42","2","","26","0","0","41"
"","psychophysics","129","955786","0.0-129.0","60fcd5602ff7c8f0866ecd0c","64e509e5c98a57cb2900cf53","","","","","null","","null","key","null","4.659552447552457","500","250","eb","33","2","","42","0","0","29"
"","psychophysics","130","963787","0.0-130.0","60fcd5602ff7c8f0866ecd0c","64e509e5c98a57cb2900cf53","","","","","null","","null","key","null","4.624617698091403","500","250","eb","48","2","","29","0","0","45"
"","psychophysics","131","971788","0.0-131.0","60fcd5602ff7c8f0866ecd0c","64e509e5c98a57cb2900cf53","","","","","null","","null","key","null","4.622020231213857","500","250","eb","36","2","","39","0","0","31"
"","psychophysics","132","979791","0.0-132.0","60fcd5602ff7c8f0866ecd0c","64e509e5c98a57cb2900cf53","","","","","null","","null","key","null","4.694807511737049","500","250","eb","45","2","","30","0","0","39"
"","psychophysics","133","987792","0.0-133.0","60fcd5602ff7c8f0866ecd0c","64e509e5c98a57cb2900cf53","","","","","null","","null","key","null","4.6869999999999985","500","250","eb","51","2","","24","0","0","49"
"","psychophysics","134","995795","0.0-134.0","60fcd5602ff7c8f0866ecd0c","64e509e5c98a57cb2900cf53","","","","","null","","null","key","null","4.670523948598083","500","250","eb","48","2","","26","0","0","47"
"","psychophysics","135","1003796","0.0-135.0","60fcd5602ff7c8f0866ecd0c","64e509e5c98a57cb2900cf53","","","","","null","","null","key","null","4.681468969555048","500","250","eb","28","2","","53","0","0","25"
"","psychophysics","136","1011797","0.0-136.0","60fcd5602ff7c8f0866ecd0c","64e509e5c98a57cb2900cf53","","","","","null","","null","key","null","4.635340869565211","500","250","eb","51","2","","46","0","0","50"
"","psychophysics","137","1019798","0.0-137.0","60fcd5602ff7c8f0866ecd0c","64e509e5c98a57cb2900cf53","","","","","null","","null","key","null","4.656692083818419","500","250","eb","28","2","","30","0","0","26"
"","psychophysics","138","1027801","0.0-138.0","60fcd5602ff7c8f0866ecd0c","64e509e5c98a57cb2900cf53","","","","","null","","null","key","null","4.635607308584693","500","250","eb","38","2","","41","0","0","36"
"","psychophysics","139","1035802","0.0-139.0","60fcd5602ff7c8f0866ecd0c","64e509e5c98a57cb2900cf53","","","","","null","","null","key","null","4.5845157593123105","500","250","eb","46","2","","54","0","0","42"
"","psychophysics","140","1043803","0.0-140.0","60fcd5602ff7c8f0866ecd0c","64e509e5c98a57cb2900cf53","","","","","null","","null","key","null","4.686635618043317","500","250","eb","33","2","","54","0","0","29"
"","psychophysics","141","1051805","0.0-141.0","60fcd5602ff7c8f0866ecd0c","64e509e5c98a57cb2900cf53","","","","","null","","null","key","null","4.600696777905604","500","250","eb","60","2","","30","0","0","54"
"","psychophysics","142","1052935","0.0-142.0","60fcd5602ff7c8f0866ecd0c","64e509e5c98a57cb2900cf53","","","","","1125",""," ","key"," ","4.852186147186067","500","250","inst","","","","","","",""
"","psychophysics","143","1057813","0.0-143.0","60fcd5602ff7c8f0866ecd0c","64e509e5c98a57cb2900cf53","","","","","4876",""," ","key"," ","4.660817399617671","500","250","instPog0","160","1","","190","0","0","160"
"","psychophysics","144","1064008","0.0-144.0","60fcd5602ff7c8f0866ecd0c","64e509e5c98a57cb2900cf53","","","","","6195",""," ","key"," ","4.701459377372939","500","250","instPog1","162","1","","190","0","0","160"
"","psychophysics","145","1068733","0.0-145.0","60fcd5602ff7c8f0866ecd0c","64e509e5c98a57cb2900cf53","","","","","4725",""," ","key"," ","4.660198420533259","500","250","instPog2","164","1","","160","0","0","160"
"","psychophysics","146","1070126","0.0-146.0","60fcd5602ff7c8f0866ecd0c","64e509e5c98a57cb2900cf53","","","","","1392",""," ","key"," ","4.627006688963522","500","250","inst","","","","","","",""
"","psychophysics","147","1075288","0.0-147.0","60fcd5602ff7c8f0866ecd0c","64e509e5c98a57cb2900cf53","","","","","5161",""," ","key"," ","4.728142071494194","500","250","pog","133","1","1","157","0","0","130"
"","psychophysics","148","1077725","0.0-148.0","60fcd5602ff7c8f0866ecd0c","64e509e5c98a57cb2900cf53","","","","","2437",""," ","key"," ","4.771545098039468","500","250","pog","166","1","1","164","0","0","167"
"","psychophysics","149","1080763","0.0-149.0","60fcd5602ff7c8f0866ecd0c","64e509e5c98a57cb2900cf53","","","","","3038",""," ","key"," ","4.754681818181763","500","250","pog","190","1","1","208","0","0","186"
"","psychophysics","150","1083461","0.0-150.0","60fcd5602ff7c8f0866ecd0c","64e509e5c98a57cb2900cf53","","","","","2697",""," ","key"," ","4.763718584070674","500","250","pog","145","1","1","197","0","0","145"
"","psychophysics","151","1085277","0.0-151.0","60fcd5602ff7c8f0866ecd0c","64e509e5c98a57cb2900cf53","","","","","1815",""," ","key"," ","4.671646907216313","500","250","pog","165","1","1","155","0","0","166"
"","psychophysics","152","1088188","0.0-152.0","60fcd5602ff7c8f0866ecd0c","64e509e5c98a57cb2900cf53","","","","","2910",""," ","key"," ","4.815081125828021","500","250","pog","161","1","1","129","0","0","164"
"","psychophysics","153","1091902","0.0-153.0","60fcd5602ff7c8f0866ecd0c","64e509e5c98a57cb2900cf53","","","","","3713",""," ","key"," ","4.784909677419271","500","250","pog","145","1","1","121","0","0","151"
"","psychophysics","154","1096950","0.0-154.0","60fcd5602ff7c8f0866ecd0c","64e509e5c98a57cb2900cf53","","","","","5047",""," ","key"," ","4.558308039747082","500","250","pog","182","1","1","218","0","0","174"
"","psychophysics","155","1099522","0.0-155.0","60fcd5602ff7c8f0866ecd0c","64e509e5c98a57cb2900cf53","","","","","2571",""," ","key"," ","4.736166975881251","500","250","pog","182","1","1","116","0","0","173"
"","psychophysics","156","1101294","0.0-156.0","60fcd5602ff7c8f0866ecd0c","64e509e5c98a57cb2900cf53","","","","","1771",""," ","key"," ","4.736841823056779","500","250","pog","149","1","1","145","0","0","142"
"","psychophysics","157","1108868","0.0-157.0","60fcd5602ff7c8f0866ecd0c","64e509e5c98a57cb2900cf53","","","","","7572",""," ","key"," ","4.684992574257338","500","250","pog","160","1","1","208","0","0","161"
"","psychophysics","158","1111172","0.0-158.0","60fcd5602ff7c8f0866ecd0c","64e509e5c98a57cb2900cf53","","","","","2303",""," ","key"," ","4.684629327902104","500","250","pog","149","1","1","143","0","0","150"
"","psychophysics","159","1115492","0.0-159.0","60fcd5602ff7c8f0866ecd0c","64e509e5c98a57cb2900cf53","","","","","4319",""," ","key"," ","4.651798491379254","500","250","pog","177","1","1","127","0","0","171"
"","psychophysics","160","1120457","0.0-160.0","60fcd5602ff7c8f0866ecd0c","64e509e5c98a57cb2900cf53","","","","","4965",""," ","key"," ","4.767025936599356","500","250","pog","201","1","1","115","0","0","200"
"","psychophysics","161","1122419","0.0-161.0","60fcd5602ff7c8f0866ecd0c","64e509e5c98a57cb2900cf53","","","","","1961",""," ","key"," ","4.7664292682927645","500","250","pog","134","1","1","128","0","0","139"
"","psychophysics","162","1123110","0.0-162.0","60fcd5602ff7c8f0866ecd0c","64e509e5c98a57cb2900cf53","","","","","691",""," ","key"," ","4.807295774647468","500","250","inst","","","","","","",""
"","psychophysics","163","1126328","0.0-163.0","60fcd5602ff7c8f0866ecd0c","64e509e5c98a57cb2900cf53","","","","","3217",""," ","key"," ","4.77611309523837","500","250","instZol1","0.20000000000000004","","","-1.3","0","0",""
"","psychophysics","164","1127485","0.0-164.0","60fcd5602ff7c8f0866ecd0c","64e509e5c98a57cb2900cf53","","","","","1155",""," ","key"," ","4.789410788382314","500","250","instZol2","-2.6000000000000005","2","","2","0","0",""
"","psychophysics","165","1128046","0.0-165.0","60fcd5602ff7c8f0866ecd0c","64e509e5c98a57cb2900cf53","","","","","561",""," ","key"," ","4.6126859504133","500","250","inst","","","","","","",""
"","psychophysics","166","1130745","0.0-166.0","60fcd5602ff7c8f0866ecd0c","64e509e5c98a57cb2900cf53","","","","","2698",""," ","key"," ","4.690275741710179","500","250","zol","-0.6499999999999999","2","1","0.15","3","19",""
"","psychophysics","167","1132361","0.0-167.0","60fcd5602ff7c8f0866ecd0c","64e509e5c98a57cb2900cf53","","","","","1615",""," ","key"," ","4.7851552238806025","500","250","zol","-2.530000000000001","2","1","0.73","-8","-7",""
"","psychophysics","168","1133791","0.0-168.0","60fcd5602ff7c8f0866ecd0c","64e509e5c98a57cb2900cf53","","","","","1428",""," ","key"," ","4.770464646465362","500","250","zol","-1.7300000000000006","2","1","0.73","-14","-6",""
"","psychophysics","169","1135137","0.0-169.0","60fcd5602ff7c8f0866ecd0c","64e509e5c98a57cb2900cf53","","","","","1344",""," ","key"," ","4.7736750000006785","500","250","zol","-1.16","2","1","-0.24","26","9",""
"","psychophysics","170","1136625","0.0-170.0","60fcd5602ff7c8f0866ecd0c","64e509e5c98a57cb2900cf53","","","","","1486",""," ","key"," ","4.725795527156919","500","250","zol","-1.2600000000000002","2","1","-0.44","-30","-19",""
"","psychophysics","171","1138171","0.0-171.0","60fcd5602ff7c8f0866ecd0c","64e509e5c98a57cb2900cf53","","","","","1546",""," ","key"," ","4.667406060605902","500","250","zol","-1.9700000000000006","2","1","-0.03","-13","-7",""
"","psychophysics","172","1139685","0.0-172.0","60fcd5602ff7c8f0866ecd0c","64e509e5c98a57cb2900cf53","","","","","1514",""," ","key"," ","4.834509615384143","500","250","zol","-1.9900000000000007","2","1","0.69","27","8",""
"","psychophysics","173","1141101","0.0-173.0","60fcd5602ff7c8f0866ecd0c","64e509e5c98a57cb2900cf53","","","","","1415",""," ","key"," ","4.571935275080539","500","250","zol","-1.3100000000000003","2","1","-0.49","-21","29",""
"","psychophysics","174","1142604","0.0-174.0","60fcd5602ff7c8f0866ecd0c","64e509e5c98a57cb2900cf53","","","","","1501",""," ","key"," ","4.794022435897764","500","250","zol","-1.8800000000000006","2","1","0.28","-18","-30",""
"","psychophysics","175","1143940","0.0-175.0","60fcd5602ff7c8f0866ecd0c","64e509e5c98a57cb2900cf53","","","","","1335",""," ","key"," ","4.642958188152837","500","250","zol","-1.5000000000000002","2","1","0.3","23","9",""
"","psychophysics","176","1146262","0.0-176.0","60fcd5602ff7c8f0866ecd0c","64e509e5c98a57cb2900cf53","","","","","2320",""," ","key"," ","4.679975757575735","500","250","zol","-1.7500000000000007","2","1","0.75","-26","-2",""
"","psychophysics","177","1148227","0.0-177.0","60fcd5602ff7c8f0866ecd0c","64e509e5c98a57cb2900cf53","","","","","1964",""," ","key"," ","4.85830198019849","500","250","zol","-0.7999999999999999","2","1","-0.2","-11","2",""
"","psychophysics","178","1149839","0.0-178.0","60fcd5602ff7c8f0866ecd0c","64e509e5c98a57cb2900cf53","","","","","1611",""," ","key"," ","4.661614492753575","500","250","zol","-0.6599999999999999","2","1","-0.74","3","0",""
"","psychophysics","179","1151559","0.0-179.0","60fcd5602ff7c8f0866ecd0c","64e509e5c98a57cb2900cf53","","","","","1719",""," ","key"," ","4.665298913043048","500","250","zol","-1.6300000000000006","2","1","0.23","-25","-19",""
"","psychophysics","180","1153328","0.0-180.0","60fcd5602ff7c8f0866ecd0c","64e509e5c98a57cb2900cf53","","","","","1767",""," ","key"," ","4.687752659574394","500","250","zol","-1.2200000000000002","2","1","-0.18","29","23",""
"","psychophysics","181","1153976","0.0-181.0","60fcd5602ff7c8f0866ecd0c","64e509e5c98a57cb2900cf53","","","","","648",""," ","key"," ","4.581468085107783","500","250","inst","","","","","","",""
"","psychophysics","182","1159268","0.0-182.0","60fcd5602ff7c8f0866ecd0c","64e509e5c98a57cb2900cf53","","","","","5291",""," ","key"," ","4.721065178571319","500","250","instBr3","9","2","","40","0","0","300"
"","psychophysics","183","1159762","0.0-183.0","60fcd5602ff7c8f0866ecd0c","64e509e5c98a57cb2900cf53","","","","","494",""," ","key"," ","4.604247619047584","500","250","inst","","","","","","",""
"","psychophysics","184","1161637","0.0-184.0","60fcd5602ff7c8f0866ecd0c","64e509e5c98a57cb2900cf53","","","","","1872",""," ","key"," ","4.619528395061692","500","250","br","15","2","1","23","-20","-23","241"
"","psychophysics","185","1162954","0.0-185.0","60fcd5602ff7c8f0866ecd0c","64e509e5c98a57cb2900cf53","","","","","1316",""," ","key"," ","4.6547943262411415","500","250","br","14","2","1","8","-18","-26","235"
"","psychophysics","186","1165436","0.0-186.0","60fcd5602ff7c8f0866ecd0c","64e509e5c98a57cb2900cf53","","","","","2482",""," ","key"," ","4.740277246653991","500","250","br","11","2","1","-8","10","-7","230"
"","psychophysics","187","1167302","0.0-187.0","60fcd5602ff7c8f0866ecd0c","64e509e5c98a57cb2900cf53","","","","","1864",""," ","key"," ","4.61023267326729","500","250","br","10","2","1","-8","28","28","293"
"","psychophysics","188","1171534","0.0-188.0","60fcd5602ff7c8f0866ecd0c","64e509e5c98a57cb2900cf53","","","","","4232",""," ","key"," ","4.709420935412089","500","250","br","14","2","1","12","-17","20","201"
"","psychophysics","189","1175399","0.0-189.0","60fcd5602ff7c8f0866ecd0c","64e509e5c98a57cb2900cf53","","","","","3863",""," ","key"," ","4.671222760290478","500","250","br","8","2","1","-12","10","14","245"
"","psychophysics","190","1177903","0.0-190.0","60fcd5602ff7c8f0866ecd0c","64e509e5c98a57cb2900cf53","","","","","2503",""," ","key"," ","4.513683544303868","500","250","br","9","2","1","-14","-19","24","270"
"","psychophysics","191","1179635","0.0-191.0","60fcd5602ff7c8f0866ecd0c","64e509e5c98a57cb2900cf53","","","","","1732",""," ","key"," ","4.612639037432786","500","250","br","16","2","1","23","-6","-10","273"
"","psychophysics","192","1181699","0.0-192.0","60fcd5602ff7c8f0866ecd0c","64e509e5c98a57cb2900cf53","","","","","2063",""," ","key"," ","4.699570776255733","500","250","br","14","2","1","-1","-28","-25","227"
"","psychophysics","193","1185312","0.0-193.0","60fcd5602ff7c8f0866ecd0c","64e509e5c98a57cb2900cf53","","","","","3612",""," ","key"," ","4.686254545454505","500","250","br","10","2","1","-24","1","-20","264"
"","psychophysics","194","1188609","0.0-194.0","60fcd5602ff7c8f0866ecd0c","64e509e5c98a57cb2900cf53","","","","","3295",""," ","key"," ","4.565006925207833","500","250","br","7","2","1","13","17","19","246"
"","psychophysics","195","1191992","0.0-195.0","60fcd5602ff7c8f0866ecd0c","64e509e5c98a57cb2900cf53","","","","","3382",""," ","key"," ","4.641773351648205","500","250","br","7","2","1","-30","-8","-22","257"
"","psychophysics","196","1194093","0.0-196.0","60fcd5602ff7c8f0866ecd0c","64e509e5c98a57cb2900cf53","","","","","2100",""," ","key"," ","4.679469798657714","500","250","br","13","2","1","-17","-9","27","221"
"","psychophysics","197","1195227","0.0-197.0","60fcd5602ff7c8f0866ecd0c","64e509e5c98a57cb2900cf53","","","","","1133",""," ","key"," ","4.77249152542455","500","250","br","13","2","1","13","11","3","242"
"","psychophysics","198","1196976","0.0-198.0","60fcd5602ff7c8f0866ecd0c","64e509e5c98a57cb2900cf53","","","","","1747",""," ","key"," ","4.47709768637536","500","250","br","12","2","1","-11","-21","-13","262"
"","psychophysics","199","1197746","0.0-199.0","60fcd5602ff7c8f0866ecd0c","64e509e5c98a57cb2900cf53","","","","","769",""," ","key"," ","4.913442307692141","500","250","inst","","","","","","",""
"","psychophysics","200","1202151","0.0-200.0","60fcd5602ff7c8f0866ecd0c","64e509e5c98a57cb2900cf53","","","","","4404",""," ","key"," ","4.792438520130502","500","250","instPz1","44","2","","25","","","50"
"","psychophysics","201","1203456","0.0-201.0","60fcd5602ff7c8f0866ecd0c","64e509e5c98a57cb2900cf53","","","","","1304",""," ","key"," ","4.693151624548831","500","250","instPz2","35","2","","20","","","35"
"","psychophysics","202","1203847","0.0-202.0","60fcd5602ff7c8f0866ecd0c","64e509e5c98a57cb2900cf53","","","","","390",""," ","key"," ","4.78445679012594","500","250","instPz3","30","2","","30","","","100"
"","psychophysics","203","1204263","0.0-203.0","60fcd5602ff7c8f0866ecd0c","64e509e5c98a57cb2900cf53","","","","","416",""," ","key"," ","4.741471264366831","500","250","instPz4","30","2","","30","","","100"
"","psychophysics","204","1205489","0.0-204.0","60fcd5602ff7c8f0866ecd0c","64e509e5c98a57cb2900cf53","","","","","1225",""," ","key"," ","4.677111111111204","500","250","inst","","","","","","",""
"","psychophysics","205","1210687","0.0-205.0","60fcd5602ff7c8f0866ecd0c","64e509e5c98a57cb2900cf53","","","","","5197",""," ","key"," ","4.660522012578689","500","250","pz","40","2","1","29","","","50"
"","psychophysics","206","1212979","0.0-206.0","60fcd5602ff7c8f0866ecd0c","64e509e5c98a57cb2900cf53","","","","","2291",""," ","key"," ","4.639969574036284","500","250","pz","49","2","1","46","","","59"
"","psychophysics","207","1218576","0.0-207.0","60fcd5602ff7c8f0866ecd0c","64e509e5c98a57cb2900cf53","","","","","5597",""," ","key"," ","4.71435973041286","500","250","pz","20","2","1","42","","","22"
"","psychophysics","208","1221272","0.0-208.0","60fcd5602ff7c8f0866ecd0c","64e509e5c98a57cb2900cf53","","","","","2695",""," ","key"," ","4.7136567425567515","500","250","pz","26","2","1","36","","","29"
"","psychophysics","209","1226350","0.0-209.0","60fcd5602ff7c8f0866ecd0c","64e509e5c98a57cb2900cf53","","","","","5077",""," ","key"," ","4.843981835563992","500","250","pz","53","2","1","32","","","54"
"","psychophysics","210","1226797","0.0-210.0","60fcd5602ff7c8f0866ecd0c","64e509e5c98a57cb2900cf53","","","","","445",""," ","key"," ","4.649347368421916","500","250","pz","59","2","1","59","","","30"
"","psychophysics","211","1230755","0.0-211.0","60fcd5602ff7c8f0866ecd0c","64e509e5c98a57cb2900cf53","","","","","3957",""," ","key"," ","4.6141540256710325","500","250","pz","28","2","1","58","","","32"
"","psychophysics","212","1234272","0.0-212.0","60fcd5602ff7c8f0866ecd0c","64e509e5c98a57cb2900cf53","","","","","3516",""," ","key"," ","4.640313077939163","500","250","pz","50","2","1","25","","","60"
"","psychophysics","213","1236758","0.0-213.0","60fcd5602ff7c8f0866ecd0c","64e509e5c98a57cb2900cf53","","","","","2485",""," ","key"," ","4.659495309568369","500","250","pz","26","2","1","42","","","29"
"","psychophysics","214","1239168","0.0-214.0","60fcd5602ff7c8f0866ecd0c","64e509e5c98a57cb2900cf53","","","","","2407",""," ","key"," ","4.679236328124716","500","250","pz","55","2","1","34","","","58"
"","psychophysics","215","1242822","0.0-215.0","60fcd5602ff7c8f0866ecd0c","64e509e5c98a57cb2900cf53","","","","","3653",""," ","key"," ","4.668253521126708","500","250","pz","50","2","1","24","","","58"
"","psychophysics","216","1246695","0.0-216.0","60fcd5602ff7c8f0866ecd0c","64e509e5c98a57cb2900cf53","","","","","3872",""," ","key"," ","4.774013563501677","500","250","pz","23","2","1","52","","","24"
"","psychophysics","217","1249373","0.0-217.0","60fcd5602ff7c8f0866ecd0c","64e509e5c98a57cb2900cf53","","","","","2678",""," ","key"," ","4.764028520499308","500","250","pz","53","2","1","29","","","56"
"","psychophysics","218","1252190","0.0-218.0","60fcd5602ff7c8f0866ecd0c","64e509e5c98a57cb2900cf53","","","","","2815",""," ","key"," ","4.712256711409209","500","250","pz","36","2","1","60","","","42"
"","psychophysics","219","1254229","0.0-219.0","60fcd5602ff7c8f0866ecd0c","64e509e5c98a57cb2900cf53","","","","","2039",""," ","key"," ","4.794235294117756","500","250","pz","38","2","1","28","","","43"
