"success","trial_type","trial_index","time_elapsed","internal_node_id","pid","sid","timeout","failed_images","failed_audio","failed_video","rt","stimulus","response","response_type","key_press","avg_frame_time","center_x","center_y","task","resp","version","block","jitterX","jitterY","start","parA"
"true","fullscreen","0","4567","0.0-0.0","633ec4ab1ea0f8f0e863ae3e","64e50a45fe6a54d56721ae7f","","","","","","","","","","","","","","","","","","","",""
"true","preload","1","4682","0.0-1.0","633ec4ab1ea0f8f0e863ae3e","64e50a45fe6a54d56721ae7f","false","[]","[]","[]","","","","","","","","","","","","","","","",""
"","html-button-response","2","11826","0.0-2.0","633ec4ab1ea0f8f0e863ae3e","64e50a45fe6a54d56721ae7f","","","","","7140","Please Make Sure Your Audio Is On.","0","","","","","","","","","","","","",""
"","psychophysics","3","18764","0.0-3.0","633ec4ab1ea0f8f0e863ae3e","64e50a45fe6a54d56721ae7f","","","","","6922",""," ","key"," ","16.672706024096392","1280","250","","","","","","","",""
"","psychophysics","4","21283","0.0-4.0","633ec4ab1ea0f8f0e863ae3e","64e50a45fe6a54d56721ae7f","","","","","2517",""," ","key"," ","16.672713333333327","500","250","inst","","","","","","",""
"","psychophysics","5","24363","0.0-5.0","633ec4ab1ea0f8f0e863ae3e","64e50a45fe6a54d56721ae7f","","","","","3078",""," ","key"," ","16.672652173913043","500","250","sample0","","","","","","",""
"","psychophysics","6","26499","0.0-6.0","633ec4ab1ea0f8f0e863ae3e","64e50a45fe6a54d56721ae7f","","","","","2119",""," ","key"," ","16.67270078740158","500","250","sample1","","","","","","",""
"","psychophysics","7","38012","0.0-7.0","633ec4ab1ea0f8f0e863ae3e","64e50a45fe6a54d56721ae7f","","","","","11510",""," ","key"," ","16.672699999999995","500","250","sample2","100","","","","","",""
"","psychophysics","8","42499","0.0-8.0","633ec4ab1ea0f8f0e863ae3e","64e50a45fe6a54d56721ae7f","","","","","4484",""," ","key"," ","16.672690298507444","500","250","sample3","124","","","","","",""
"","psychophysics","9","49843","0.0-9.0","633ec4ab1ea0f8f0e863ae3e","64e50a45fe6a54d56721ae7f","","","","","7342",""," ","key"," ","16.672667425968108","500","250","sample4","100","","","","","",""
"","psychophysics","10","53243","0.0-10.0","633ec4ab1ea0f8f0e863ae3e","64e50a45fe6a54d56721ae7f","","","","","3397",""," ","key"," ","16.672645320197038","500","250","sample5","","","","","","",""
"","psychophysics","11","67075","0.0-11.0","633ec4ab1ea0f8f0e863ae3e","64e50a45fe6a54d56721ae7f","","","","","13830",""," ","key"," ","16.672702050663457","500","250","sample6","502","","","","","",""
"","psychophysics","12","72356","0.0-12.0","633ec4ab1ea0f8f0e863ae3e","64e50a45fe6a54d56721ae7f","","","","","5278",""," ","key"," ","16.672666666666665","500","250","inst","","","","","","",""
"","psychophysics","13","76203","0.0-13.0","633ec4ab1ea0f8f0e863ae3e","64e50a45fe6a54d56721ae7f","","","","","3843",""," ","key"," ","16.672726086956516","500","250","inst","","","","","","",""
"","psychophysics","14","81379","0.0-14.0","633ec4ab1ea0f8f0e863ae3e","64e50a45fe6a54d56721ae7f","","","","","5174",""," ","key"," ","16.67267419354837","500","250","inst","","","","","","",""
"","psychophysics","15","84276","0.0-15.0","633ec4ab1ea0f8f0e863ae3e","64e50a45fe6a54d56721ae7f","","","","","2895",""," ","key"," ","16.672691860465168","500","250","inst","","","","","","",""
"","psychophysics","16","85963","0.0-16.0","633ec4ab1ea0f8f0e863ae3e","64e50a45fe6a54d56721ae7f","","","","","1683",""," ","key"," ","16.672643564356488","500","250","inst","","","","","","",""
"","psychophysics","17","88571","0.0-17.0","633ec4ab1ea0f8f0e863ae3e","64e50a45fe6a54d56721ae7f","","","","","2606",""," ","key"," ","16.672741935483927","500","250","instZol0","0","","","0","0","0",""
"","psychophysics","18","99300","0.0-18.0","633ec4ab1ea0f8f0e863ae3e","64e50a45fe6a54d56721ae7f","","","","","10727",""," ","key"," ","16.67268740279938","500","250","instZol1","-0.30000000000000004","","","0","0","-1.3",""
"","psychophysics","19","121155","0.0-19.0","633ec4ab1ea0f8f0e863ae3e","64e50a45fe6a54d56721ae7f","","","","","21851",""," ","key"," ","16.672693659281894","500","250","instZol2","1.3000000000000007","1","","0","0","2",""
"","psychophysics","20","123459","0.0-20.0","633ec4ab1ea0f8f0e863ae3e","64e50a45fe6a54d56721ae7f","","","","","2299",""," ","key"," ","16.672637681159372","500","250","inst","","","","","","",""
"","psychophysics","21","127587","0.0-21.0","633ec4ab1ea0f8f0e863ae3e","64e50a45fe6a54d56721ae7f","","","","","4123",""," ","key"," ","16.672691056910583","500","250","zol","1.3500000000000003","1","0","-27","6","-0.55",""
"","psychophysics","22","134619","0.0-22.0","633ec4ab1ea0f8f0e863ae3e","64e50a45fe6a54d56721ae7f","","","","","7028",""," ","key"," ","16.672676959619917","500","250","zol","1.5300000000000005","1","0","7","4","0.27",""
"","psychophysics","23","142631","0.0-23.0","633ec4ab1ea0f8f0e863ae3e","64e50a45fe6a54d56721ae7f","","","","","null","","null","key","null","16.672699373695195","500","250","zol","1.11","1","0","17","-20","-0.01",""
"","psychophysics","24","146771","0.0-24.0","633ec4ab1ea0f8f0e863ae3e","64e50a45fe6a54d56721ae7f","","","","","4134",""," ","key"," ","16.672641129032268","500","250","zol","1.18","1","0","17","25","-0.48",""
"","psychophysics","25","152235","0.0-25.0","633ec4ab1ea0f8f0e863ae3e","64e50a45fe6a54d56721ae7f","","","","","5459",""," ","key"," ","16.672691131498475","500","250","zol","1.27","1","0","-23","24","-0.07",""
"","psychophysics","26","155100","0.0-26.0","633ec4ab1ea0f8f0e863ae3e","64e50a45fe6a54d56721ae7f","","","","","2860",""," ","key"," ","16.672729411764713","500","250","zol","0.8099999999999999","1","0","-25","30","0.09",""
"","psychophysics","27","160715","0.0-27.0","633ec4ab1ea0f8f0e863ae3e","64e50a45fe6a54d56721ae7f","","","","","5609",""," ","key"," ","16.67266964285712","500","250","zol","1.16","1","0","-5","-16","0.34",""
"","psychophysics","28","166571","0.0-28.0","633ec4ab1ea0f8f0e863ae3e","64e50a45fe6a54d56721ae7f","","","","","5853",""," ","key"," ","16.672682857142895","500","250","zol","1.3300000000000003","1","0","18","13","0.07",""
"","psychophysics","29","170371","0.0-29.0","633ec4ab1ea0f8f0e863ae3e","64e50a45fe6a54d56721ae7f","","","","","3796",""," ","key"," ","16.672634361233456","500","250","zol","1.4400000000000004","1","0","-1","8","-0.14",""
"","psychophysics","30","174331","0.0-30.0","633ec4ab1ea0f8f0e863ae3e","64e50a45fe6a54d56721ae7f","","","","","3953",""," ","key"," ","16.672691983122302","500","250","zol","1.11","1","0","-15","13","0.39",""
"","psychophysics","31","177739","0.0-31.0","633ec4ab1ea0f8f0e863ae3e","64e50a45fe6a54d56721ae7f","","","","","3405",""," ","key"," ","16.672650246305324","500","250","zol","0.9599999999999999","1","0","-18","-30","0.04",""
"","psychophysics","32","181188","0.0-32.0","633ec4ab1ea0f8f0e863ae3e","64e50a45fe6a54d56721ae7f","","","","","3445",""," ","key"," ","16.672674757281534","500","250","zol","1.3200000000000003","1","0","1","-8","-0.62",""
"","psychophysics","33","184067","0.0-33.0","633ec4ab1ea0f8f0e863ae3e","64e50a45fe6a54d56721ae7f","","","","","2876",""," ","key"," ","16.67268604651174","500","250","zol","1.35","1","0","24","3","-0.35",""
"","psychophysics","34","187475","0.0-34.0","633ec4ab1ea0f8f0e863ae3e","64e50a45fe6a54d56721ae7f","","","","","3404",""," ","key"," ","16.67269458128079","500","250","zol","1.3500000000000003","1","0","-5","17","0.35",""
"","psychophysics","35","190435","0.0-35.0","633ec4ab1ea0f8f0e863ae3e","64e50a45fe6a54d56721ae7f","","","","","2956",""," ","key"," ","16.672627118644193","500","250","zol","1.3100000000000003","1","0","26","26","-0.31",""
"","psychophysics","36","194947","0.0-36.0","633ec4ab1ea0f8f0e863ae3e","64e50a45fe6a54d56721ae7f","","","","","4511",""," ","key"," ","16.672676579925692","500","250","inst","","","","","","",""
"","psychophysics","37","206419","0.0-37.0","633ec4ab1ea0f8f0e863ae3e","64e50a45fe6a54d56721ae7f","","","","","11470",""," ","key"," ","16.672682678311503","500","250","instPog0","340","2","","0","0","370","340"
"","psychophysics","38","213204","0.0-38.0","633ec4ab1ea0f8f0e863ae3e","64e50a45fe6a54d56721ae7f","","","","","6780",""," ","key"," ","16.672669950738896","500","250","instPog1","370","2","","0","0","370","340"
"","psychophysics","39","219923","0.0-39.0","633ec4ab1ea0f8f0e863ae3e","64e50a45fe6a54d56721ae7f","","","","","6718",""," ","key"," ","16.672689054726373","500","250","instPog2","330","2","","0","0","340","340"
"","psychophysics","40","222483","0.0-40.0","633ec4ab1ea0f8f0e863ae3e","64e50a45fe6a54d56721ae7f","","","","","2558",""," ","key"," ","16.67269281045746","500","250","inst","","","","","","",""
"","psychophysics","41","227507","0.0-41.0","633ec4ab1ea0f8f0e863ae3e","64e50a45fe6a54d56721ae7f","","","","","5022",""," ","key"," ","16.672656666666736","500","250","pog","296","2","0","0","0","364","309"
"","psychophysics","42","231019","0.0-42.0","633ec4ab1ea0f8f0e863ae3e","64e50a45fe6a54d56721ae7f","","","","","3510",""," ","key"," ","16.67265238095244","500","250","pog","302","2","0","0","0","290","317"
"","psychophysics","43","235747","0.0-43.0","633ec4ab1ea0f8f0e863ae3e","64e50a45fe6a54d56721ae7f","","","","","4726",""," ","key"," ","16.672687943262424","500","250","pog","342","2","0","0","0","330","358"
"","psychophysics","44","240468","0.0-44.0","633ec4ab1ea0f8f0e863ae3e","64e50a45fe6a54d56721ae7f","","","","","4717",""," ","key"," ","16.672706713780983","500","250","pog","360","2","0","0","0","338","377"
"","psychophysics","45","244907","0.0-45.0","633ec4ab1ea0f8f0e863ae3e","64e50a45fe6a54d56721ae7f","","","","","4437",""," ","key"," ","16.672683018867918","500","250","pog","326","2","0","0","0","366","336"
"","psychophysics","46","250715","0.0-46.0","633ec4ab1ea0f8f0e863ae3e","64e50a45fe6a54d56721ae7f","","","","","5805",""," ","key"," ","16.672711815561993","500","250","pog","375","2","0","0","0","289","380"
"","psychophysics","47","256715","0.0-47.0","633ec4ab1ea0f8f0e863ae3e","64e50a45fe6a54d56721ae7f","","","","","5998",""," ","key"," ","16.67268802228411","500","250","pog","336","2","0","0","0","396","342"
"","psychophysics","48","261987","0.0-48.0","633ec4ab1ea0f8f0e863ae3e","64e50a45fe6a54d56721ae7f","","","","","5270",""," ","key"," ","16.672653968253965","500","250","pog","342","2","0","0","0","306","350"
"","psychophysics","49","264843","0.0-49.0","633ec4ab1ea0f8f0e863ae3e","64e50a45fe6a54d56721ae7f","","","","","2853",""," ","key"," ","16.672649122806938","500","250","pog","297","2","0","0","0","325","302"
"","psychophysics","50","267435","0.0-50.0","633ec4ab1ea0f8f0e863ae3e","64e50a45fe6a54d56721ae7f","","","","","2590",""," ","key"," ","16.672701298701426","500","250","pog","297","2","0","0","0","311","306"
"","psychophysics","51","270563","0.0-51.0","633ec4ab1ea0f8f0e863ae3e","64e50a45fe6a54d56721ae7f","","","","","3125",""," ","key"," ","16.67270053475958","500","250","pog","354","2","0","0","0","294","352"
"","psychophysics","52","272883","0.0-52.0","633ec4ab1ea0f8f0e863ae3e","64e50a45fe6a54d56721ae7f","","","","","2318",""," ","key"," ","16.672710144927766","500","250","pog","336","2","0","0","0","324","348"
"","psychophysics","53","275115","0.0-53.0","633ec4ab1ea0f8f0e863ae3e","64e50a45fe6a54d56721ae7f","","","","","2230",""," ","key"," ","16.672706766917084","500","250","pog","328","2","0","0","0","314","334"
"","psychophysics","54","278675","0.0-54.0","633ec4ab1ea0f8f0e863ae3e","64e50a45fe6a54d56721ae7f","","","","","3556",""," ","key"," ","16.672669811320617","500","250","pog","338","2","0","0","0","294","353"
"","psychophysics","55","280635","0.0-55.0","633ec4ab1ea0f8f0e863ae3e","64e50a45fe6a54d56721ae7f","","","","","1958",""," ","key"," ","16.67276068376059","500","250","pog","338","2","0","0","0","352","340"
"","psychophysics","56","281891","0.0-56.0","633ec4ab1ea0f8f0e863ae3e","64e50a45fe6a54d56721ae7f","","","","","1255",""," ","key"," ","16.67271621621645","500","250","inst","","","","","","",""
"","psychophysics","57","284587","0.0-57.0","633ec4ab1ea0f8f0e863ae3e","64e50a45fe6a54d56721ae7f","","","","","2693",""," ","key"," ","16.672645962733114","500","250","instBr0","0","","","0","0","0","300"
"","psychophysics","58","291187","0.0-58.0","633ec4ab1ea0f8f0e863ae3e","64e50a45fe6a54d56721ae7f","","","","","6597",""," ","key"," ","16.672713924050655","500","250","instBr1","-1","","","0","0","-40","300"
"","psychophysics","59","297116","0.0-59.0","633ec4ab1ea0f8f0e863ae3e","64e50a45fe6a54d56721ae7f","","","","","5926",""," ","key"," ","16.672694915254294","500","250","instBr3","9","2","","0","0","40","300"
"","psychophysics","60","297979","0.0-60.0","633ec4ab1ea0f8f0e863ae3e","64e50a45fe6a54d56721ae7f","","","","","862",""," ","key"," ","16.672725490196243","500","250","inst","","","","","","",""
"","psychophysics","61","301315","0.0-61.0","633ec4ab1ea0f8f0e863ae3e","64e50a45fe6a54d56721ae7f","","","","","3333",""," ","key"," ","16.672673366833994","500","250","br","18","2","0","-5","19","-5","239"
"","psychophysics","62","306211","0.0-62.0","633ec4ab1ea0f8f0e863ae3e","64e50a45fe6a54d56721ae7f","","","","","4894",""," ","key"," ","16.672713310580143","500","250","br","22","2","0","-21","16","-29","247"
"","psychophysics","63","310179","0.0-63.0","633ec4ab1ea0f8f0e863ae3e","64e50a45fe6a54d56721ae7f","","","","","3966",""," ","key"," ","16.672666666666508","500","250","br","20","2","0","-26","3","-23","268"
"","psychophysics","64","312891","0.0-64.0","633ec4ab1ea0f8f0e863ae3e","64e50a45fe6a54d56721ae7f","","","","","2710",""," ","key"," ","16.67265838509323","500","250","br","20","2","0","16","-29","-3","213"
"","psychophysics","65","315179","0.0-65.0","633ec4ab1ea0f8f0e863ae3e","64e50a45fe6a54d56721ae7f","","","","","2283",""," ","key"," ","16.67266423357642","500","250","br","20","2","0","-16","6","25","203"
"","psychophysics","66","318235","0.0-66.0","633ec4ab1ea0f8f0e863ae3e","64e50a45fe6a54d56721ae7f","","","","","3054",""," ","key"," ","16.672631868131838","500","250","br","21","2","0","15","28","-3","282"
"","psychophysics","67","322499","0.0-67.0","633ec4ab1ea0f8f0e863ae3e","64e50a45fe6a54d56721ae7f","","","","","4261",""," ","key"," ","16.67269803921569","500","250","br","15","2","0","15","-22","-18","245"
"","psychophysics","68","324139","0.0-68.0","633ec4ab1ea0f8f0e863ae3e","64e50a45fe6a54d56721ae7f","","","","","1637",""," ","key"," ","16.672721649484693","500","250","br","25","2","0","11","-20","24","225"
"","psychophysics","69","327627","0.0-69.0","633ec4ab1ea0f8f0e863ae3e","64e50a45fe6a54d56721ae7f","","","","","3485",""," ","key"," ","16.672721153846048","500","250","br","20","2","0","29","25","9","285"
"","psychophysics","70","329419","0.0-70.0","633ec4ab1ea0f8f0e863ae3e","64e50a45fe6a54d56721ae7f","","","","","1789",""," ","key"," ","16.672682242990238","500","250","br","22","2","0","-24","2","13","221"
"","psychophysics","71","333179","0.0-71.0","633ec4ab1ea0f8f0e863ae3e","64e50a45fe6a54d56721ae7f","","","","","3755",""," ","key"," ","16.672745535714316","500","250","br","17","2","0","4","-10","-28","231"
"","psychophysics","72","335203","0.0-72.0","633ec4ab1ea0f8f0e863ae3e","64e50a45fe6a54d56721ae7f","","","","","2020",""," ","key"," ","16.672685950413378","500","250","br","17","2","0","19","0","1","230"
"","psychophysics","73","338203","0.0-73.0","633ec4ab1ea0f8f0e863ae3e","64e50a45fe6a54d56721ae7f","","","","","2998",""," ","key"," ","16.672614525139913","500","250","br","23","2","0","10","24","-4","227"
"","psychophysics","74","341555","0.0-74.0","633ec4ab1ea0f8f0e863ae3e","64e50a45fe6a54d56721ae7f","","","","","3349",""," ","key"," ","16.672685000000055","500","250","br","17","2","0","25","-25","-23","242"
"","psychophysics","75","345099","0.0-75.0","633ec4ab1ea0f8f0e863ae3e","64e50a45fe6a54d56721ae7f","","","","","3542",""," ","key"," ","16.672696682464515","500","250","br","26","2","0","-30","16","1","269"
"","psychophysics","76","346275","0.0-76.0","633ec4ab1ea0f8f0e863ae3e","64e50a45fe6a54d56721ae7f","","","","","1173",""," ","key"," ","16.672742857142918","500","250","inst","","","","","","",""
"","psychophysics","77","348019","0.0-77.0","633ec4ab1ea0f8f0e863ae3e","64e50a45fe6a54d56721ae7f","","","","","1741",""," ","key"," ","16.67266019417461","500","250","instPzPre","50","0","","","","50","50"
"","psychophysics","78","350259","0.0-78.0","633ec4ab1ea0f8f0e863ae3e","64e50a45fe6a54d56721ae7f","","","","","2232",""," ","key"," ","16.67269402985077","500","250","instPz0","50","1","","","","50","50"
"","psychophysics","79","357747","0.0-79.0","633ec4ab1ea0f8f0e863ae3e","64e50a45fe6a54d56721ae7f","","","","","7485",""," ","key"," ","16.672696428571335","500","250","instPz1","46","1","","","","25","50"
"","psychophysics","80","362091","0.0-80.0","633ec4ab1ea0f8f0e863ae3e","64e50a45fe6a54d56721ae7f","","","","","4342",""," ","key"," ","16.672683397683308","500","250","instPz2","21","1","","","","35","20"
"","psychophysics","81","367628","0.0-81.0","633ec4ab1ea0f8f0e863ae3e","64e50a45fe6a54d56721ae7f","","","","","5529",""," ","key"," ","16.67270090634438","500","250","instPz3","100","1","","","","100","30"
"","psychophysics","82","373811","0.0-82.0","633ec4ab1ea0f8f0e863ae3e","64e50a45fe6a54d56721ae7f","","","","","6177",""," ","key"," ","16.67268918918924","500","250","instPz4","37","1","","","","100","30"
"","psychophysics","83","374611","0.0-83.0","633ec4ab1ea0f8f0e863ae3e","64e50a45fe6a54d56721ae7f","","","","","798",""," ","key"," ","16.67270212766016","500","250","inst","","","","","","",""
"","psychophysics","84","378387","0.0-84.0","633ec4ab1ea0f8f0e863ae3e","64e50a45fe6a54d56721ae7f","","","","","3773",""," ","key"," ","16.672663716814146","500","250","pz","49","1","0","","","30","49"
"","psychophysics","85","381963","0.0-85.0","633ec4ab1ea0f8f0e863ae3e","64e50a45fe6a54d56721ae7f","","","","","3574",""," ","key"," ","16.672657276995363","500","250","pz","56","1","0","","","35","58"
"","psychophysics","86","384547","0.0-86.0","633ec4ab1ea0f8f0e863ae3e","64e50a45fe6a54d56721ae7f","","","","","2580",""," ","key"," ","16.672688311688578","500","250","pz","32","1","0","","","45","26"
"","psychophysics","87","387947","0.0-87.0","633ec4ab1ea0f8f0e863ae3e","64e50a45fe6a54d56721ae7f","","","","","3398",""," ","key"," ","16.672660098522112","500","250","pz","22","1","0","","","44","20"
"","psychophysics","88","390355","0.0-88.0","633ec4ab1ea0f8f0e863ae3e","64e50a45fe6a54d56721ae7f","","","","","2405",""," ","key"," ","16.672783216783106","500","250","pz","47","1","0","","","53","46"
"","psychophysics","89","393131","0.0-89.0","633ec4ab1ea0f8f0e863ae3e","64e50a45fe6a54d56721ae7f","","","","","2771",""," ","key"," ","16.672638554216842","500","250","pz","36","1","0","","","42","39"
"","psychophysics","90","396003","0.0-90.0","633ec4ab1ea0f8f0e863ae3e","64e50a45fe6a54d56721ae7f","","","","","2856",""," ","key"," ","16.67271345029231","500","250","pz","36","1","0","","","36","36"
"","psychophysics","91","400795","0.0-91.0","633ec4ab1ea0f8f0e863ae3e","64e50a45fe6a54d56721ae7f","","","","","4787",""," ","key"," ","16.672665505226455","500","250","pz","45","1","0","","","23","49"
"","psychophysics","92","403707","0.0-92.0","633ec4ab1ea0f8f0e863ae3e","64e50a45fe6a54d56721ae7f","","","","","2909",""," ","key"," ","16.672658959537547","500","250","pz","46","1","0","","","35","52"
"","psychophysics","93","406235","0.0-93.0","633ec4ab1ea0f8f0e863ae3e","64e50a45fe6a54d56721ae7f","","","","","2523",""," ","key"," ","16.67268874172186","500","250","pz","27","1","0","","","35","21"
"","psychophysics","94","409899","0.0-94.0","633ec4ab1ea0f8f0e863ae3e","64e50a45fe6a54d56721ae7f","","","","","3662",""," ","key"," ","16.672689497716977","500","250","pz","47","1","0","","","59","45"
"","psychophysics","95","412371","0.0-95.0","633ec4ab1ea0f8f0e863ae3e","64e50a45fe6a54d56721ae7f","","","","","2469",""," ","key"," ","16.672687074829994","500","250","pz","37","1","0","","","43","39"
"","psychophysics","96","415355","0.0-96.0","633ec4ab1ea0f8f0e863ae3e","64e50a45fe6a54d56721ae7f","","","","","2982",""," ","key"," ","16.672691011235962","500","250","pz","47","1","0","","","37","43"
"","psychophysics","97","417499","0.0-97.0","633ec4ab1ea0f8f0e863ae3e","64e50a45fe6a54d56721ae7f","","","","","2141",""," ","key"," ","16.672687499999938","500","250","pz","54","1","0","","","45","58"
"","psychophysics","98","420587","0.0-98.0","633ec4ab1ea0f8f0e863ae3e","64e50a45fe6a54d56721ae7f","","","","","3086",""," ","key"," ","16.67265760869581","500","250","pz","45","1","0","","","30","48"
"","psychophysics","99","421187","0.0-99.0","633ec4ab1ea0f8f0e863ae3e","64e50a45fe6a54d56721ae7f","","","","","599",""," ","key"," ","16.672771428572013","500","250","inst","","","","","","",""
"","psychophysics","100","422819","0.0-100.0","633ec4ab1ea0f8f0e863ae3e","64e50a45fe6a54d56721ae7f","","","","","1629",""," ","key"," ","16.672659793814653","500","250","instEB0","40","2","","0","0","40","40"
"","psychophysics","101","427635","0.0-101.0","633ec4ab1ea0f8f0e863ae3e","64e50a45fe6a54d56721ae7f","","","","","4814",""," ","key"," ","16.672704861111114","500","250","instEB1","42","2","","0","0","30","40"
"","psychophysics","102","431931","0.0-102.0","633ec4ab1ea0f8f0e863ae3e","64e50a45fe6a54d56721ae7f","","","","","4293",""," ","key"," ","16.672664062499962","500","250","instEB2","35","2","","0","0","40","30"
"","psychophysics","103","443003","0.0-103.0","633ec4ab1ea0f8f0e863ae3e","64e50a45fe6a54d56721ae7f","","","","","11070",""," ","key"," ","16.672687782805383","500","250","instEB3","29","2","","0","0","45","27"
"","psychophysics","104","449395","0.0-104.0","633ec4ab1ea0f8f0e863ae3e","64e50a45fe6a54d56721ae7f","","","","","6389",""," ","key"," ","16.672673629242873","500","250","instEB4","48","2","","0","0","30","40"
"","psychophysics","105","450379","0.0-105.0","633ec4ab1ea0f8f0e863ae3e","64e50a45fe6a54d56721ae7f","","","","","982",""," ","key"," ","16.672741379309848","500","250","inst","","","","","","",""
"","psychophysics","106","454315","0.0-106.0","633ec4ab1ea0f8f0e863ae3e","64e50a45fe6a54d56721ae7f","","","","","3933",""," ","key"," ","16.67269361702121","500","250","eb","50","2","","0","0","24","44"
"","psychophysics","107","456571","0.0-107.0","633ec4ab1ea0f8f0e863ae3e","64e50a45fe6a54d56721ae7f","","","","","2253",""," ","key"," ","16.67279850746246","500","250","eb","48","2","","0","0","37","44"
"","psychophysics","108","460796","0.0-108.0","633ec4ab1ea0f8f0e863ae3e","64e50a45fe6a54d56721ae7f","","","","","4221",""," ","key"," ","16.672678571428627","500","250","eb","55","2","","0","0","26","54"
"","psychophysics","109","462995","0.0-109.0","633ec4ab1ea0f8f0e863ae3e","64e50a45fe6a54d56721ae7f","","","","","2194",""," ","key"," ","16.672725190839532","500","250","eb","47","2","","0","0","50","47"
"","psychophysics","110","466147","0.0-110.0","633ec4ab1ea0f8f0e863ae3e","64e50a45fe6a54d56721ae7f","","","","","3146",""," ","key"," ","16.67269148936178","500","250","eb","27","2","","0","0","29","28"
"","psychophysics","111","468219","0.0-111.0","633ec4ab1ea0f8f0e863ae3e","64e50a45fe6a54d56721ae7f","","","","","2065",""," ","key"," ","16.672766129032336","500","250","eb","42","2","","0","0","39","39"
"","psychophysics","112","470515","0.0-112.0","633ec4ab1ea0f8f0e863ae3e","64e50a45fe6a54d56721ae7f","","","","","2294",""," ","key"," ","16.672661764706017","500","250","eb","43","2","","0","0","47","38"
"","psychophysics","113","473348","0.0-113.0","633ec4ab1ea0f8f0e863ae3e","64e50a45fe6a54d56721ae7f","","","","","2826",""," ","key"," ","16.672686390532593","500","250","eb","41","2","","0","0","37","39"
"","psychophysics","114","477219","0.0-114.0","633ec4ab1ea0f8f0e863ae3e","64e50a45fe6a54d56721ae7f","","","","","3865",""," ","key"," ","16.67267965367951","500","250","eb","38","2","","0","0","53","32"
"","psychophysics","115","480699","0.0-115.0","633ec4ab1ea0f8f0e863ae3e","64e50a45fe6a54d56721ae7f","","","","","3472",""," ","key"," ","16.672663461538413","500","250","eb","56","2","","0","0","52","53"
"","psychophysics","116","482851","0.0-116.0","633ec4ab1ea0f8f0e863ae3e","64e50a45fe6a54d56721ae7f","","","","","2149",""," ","key"," ","16.67276562500001","500","250","eb","48","2","","0","0","33","43"
"","psychophysics","117","485075","0.0-117.0","633ec4ab1ea0f8f0e863ae3e","64e50a45fe6a54d56721ae7f","","","","","2218",""," ","key"," ","16.67260150375944","500","250","eb","43","2","","0","0","49","46"
"","psychophysics","118","489331","0.0-118.0","633ec4ab1ea0f8f0e863ae3e","64e50a45fe6a54d56721ae7f","","","","","4254",""," ","key"," ","16.672673228346444","500","250","eb","25","2","","0","0","45","26"
"","psychophysics","119","492859","0.0-119.0","633ec4ab1ea0f8f0e863ae3e","64e50a45fe6a54d56721ae7f","","","","","3525",""," ","key"," ","16.672682464454915","500","250","eb","47","2","","0","0","32","49"
"","psychophysics","120","496715","0.0-120.0","633ec4ab1ea0f8f0e863ae3e","64e50a45fe6a54d56721ae7f","","","","","3853",""," ","key"," ","16.67265217391288","500","250","eb","55","2","","0","0","27","54"
"","psychophysics","121","497435","0.0-121.0","633ec4ab1ea0f8f0e863ae3e","64e50a45fe6a54d56721ae7f","","","","","719",""," ","key"," ","16.672738095238206","500","250","inst","","","","","","",""
"","psychophysics","122","509987","0.0-122.0","633ec4ab1ea0f8f0e863ae3e","64e50a45fe6a54d56721ae7f","","","","","12549",""," ","key"," ","16.6727007978724","500","250","instPz1","37","2","","","","25","50"
"","psychophysics","123","512835","0.0-123.0","633ec4ab1ea0f8f0e863ae3e","64e50a45fe6a54d56721ae7f","","","","","2846",""," ","key"," ","16.672723529411837","500","250","instPz2","29","2","","","","20","35"
"","psychophysics","124","519139","0.0-124.0","633ec4ab1ea0f8f0e863ae3e","64e50a45fe6a54d56721ae7f","","","","","6301",""," ","key"," ","16.672679045092778","500","250","instPz3","96","2","","","","30","100"
"","psychophysics","125","524939","0.0-125.0","633ec4ab1ea0f8f0e863ae3e","64e50a45fe6a54d56721ae7f","","","","","5797",""," ","key"," ","16.67266570605198","500","250","instPz4","93","2","","","","30","100"
"","psychophysics","126","525611","0.0-126.0","633ec4ab1ea0f8f0e863ae3e","64e50a45fe6a54d56721ae7f","","","","","671",""," ","key"," ","16.6729487179486","500","250","inst","","","","","","",""
"","psychophysics","127","527971","0.0-127.0","633ec4ab1ea0f8f0e863ae3e","64e50a45fe6a54d56721ae7f","","","","","2357",""," ","key"," ","16.672659574467886","500","250","pz","36","2","1","","","30","38"
"","psychophysics","128","530211","0.0-128.0","633ec4ab1ea0f8f0e863ae3e","64e50a45fe6a54d56721ae7f","","","","","2238",""," ","key"," ","16.672699248120608","500","250","pz","46","2","1","","","39","50"
"","psychophysics","129","534067","0.0-129.0","633ec4ab1ea0f8f0e863ae3e","64e50a45fe6a54d56721ae7f","","","","","3853",""," ","key"," ","16.67267391304384","500","250","pz","26","2","1","","","59","23"
"","psychophysics","130","537771","0.0-130.0","633ec4ab1ea0f8f0e863ae3e","64e50a45fe6a54d56721ae7f","","","","","3702",""," ","key"," ","16.672669683258064","500","250","pz","47","2","1","","","31","53"
"","psychophysics","131","540451","0.0-131.0","633ec4ab1ea0f8f0e863ae3e","64e50a45fe6a54d56721ae7f","","","","","2675",""," ","key"," ","16.672637499999837","500","250","pz","22","2","1","","","35","24"
"","psychophysics","132","543035","0.0-132.0","633ec4ab1ea0f8f0e863ae3e","64e50a45fe6a54d56721ae7f","","","","","2581",""," ","key"," ","16.672727272727123","500","250","pz","25","2","1","","","33","25"
"","psychophysics","133","546307","0.0-133.0","633ec4ab1ea0f8f0e863ae3e","64e50a45fe6a54d56721ae7f","","","","","3268",""," ","key"," ","16.672656410256735","500","250","pz","34","2","1","","","56","24"
"","psychophysics","134","549203","0.0-134.0","633ec4ab1ea0f8f0e863ae3e","64e50a45fe6a54d56721ae7f","","","","","2890",""," ","key"," ","16.672670520231062","500","250","pz","33","2","1","","","54","43"
"","psychophysics","135","551403","0.0-135.0","633ec4ab1ea0f8f0e863ae3e","64e50a45fe6a54d56721ae7f","","","","","2195",""," ","key"," ","16.672702290075975","500","250","pz","42","2","1","","","54","44"
"","psychophysics","136","554283","0.0-136.0","633ec4ab1ea0f8f0e863ae3e","64e50a45fe6a54d56721ae7f","","","","","2878",""," ","key"," ","16.672622093023207","500","250","pz","36","2","1","","","47","40"
"","psychophysics","137","555899","0.0-137.0","633ec4ab1ea0f8f0e863ae3e","64e50a45fe6a54d56721ae7f","","","","","1614",""," ","key"," ","16.67279166666655","500","250","pz","43","2","1","","","48","50"
"","psychophysics","138","558355","0.0-138.0","633ec4ab1ea0f8f0e863ae3e","64e50a45fe6a54d56721ae7f","","","","","2453",""," ","key"," ","16.672684931507245","500","250","pz","17","2","1","","","26","21"
"","psychophysics","139","564068","0.0-139.0","633ec4ab1ea0f8f0e863ae3e","64e50a45fe6a54d56721ae7f","","","","","5710",""," ","key"," ","16.672684210526203","500","250","pz","24","2","1","","","57","23"
"","psychophysics","140","566915","0.0-140.0","633ec4ab1ea0f8f0e863ae3e","64e50a45fe6a54d56721ae7f","","","","","2845",""," ","key"," ","16.672680473373237","500","250","pz","47","2","1","","","44","53"
"","psychophysics","141","570004","0.0-141.0","633ec4ab1ea0f8f0e863ae3e","64e50a45fe6a54d56721ae7f","","","","","3085",""," ","key"," ","16.672708108108115","500","250","pz","22","2","1","","","27","25"
"","psychophysics","142","570787","0.0-142.0","633ec4ab1ea0f8f0e863ae3e","64e50a45fe6a54d56721ae7f","","","","","781",""," ","key"," ","16.67258695652202","500","250","inst","","","","","","",""
"","psychophysics","143","576675","0.0-143.0","633ec4ab1ea0f8f0e863ae3e","64e50a45fe6a54d56721ae7f","","","","","5881",""," ","key"," ","16.67269318181802","500","250","instBr3","-17","1","","0","0","40","300"
"","psychophysics","144","577243","0.0-144.0","633ec4ab1ea0f8f0e863ae3e","64e50a45fe6a54d56721ae7f","","","","","567",""," ","key"," ","16.672939393941004","500","250","inst","","","","","","",""
"","psychophysics","145","579763","0.0-145.0","633ec4ab1ea0f8f0e863ae3e","64e50a45fe6a54d56721ae7f","","","","","2518",""," ","key"," ","16.672680000000014","500","250","br","-11","1","1","-26","-19","-24","255"
"","psychophysics","146","582115","0.0-146.0","633ec4ab1ea0f8f0e863ae3e","64e50a45fe6a54d56721ae7f","","","","","2349",""," ","key"," ","16.672671428571423","500","250","br","-16","1","1","0","-8","-17","275"
"","psychophysics","147","585139","0.0-147.0","633ec4ab1ea0f8f0e863ae3e","64e50a45fe6a54d56721ae7f","","","","","3022",""," ","key"," ","16.672683333333893","500","250","br","-15","1","1","-4","10","7","211"
"","psychophysics","148","588667","0.0-148.0","633ec4ab1ea0f8f0e863ae3e","64e50a45fe6a54d56721ae7f","","","","","3524",""," ","key"," ","16.672687203791632","500","250","br","-22","1","1","15","2","1","294"
"","psychophysics","149","593067","0.0-149.0","633ec4ab1ea0f8f0e863ae3e","64e50a45fe6a54d56721ae7f","","","","","4398",""," ","key"," ","16.672692015208924","500","250","br","-15","1","1","27","-14","30","280"
"","psychophysics","150","595427","0.0-150.0","633ec4ab1ea0f8f0e863ae3e","64e50a45fe6a54d56721ae7f","","","","","2356",""," ","key"," ","16.672692857143037","500","250","br","-6","1","1","-18","-9","13","243"
"","psychophysics","151","598107","0.0-151.0","633ec4ab1ea0f8f0e863ae3e","64e50a45fe6a54d56721ae7f","","","","","2676",""," ","key"," ","16.672643750000134","500","250","br","-14","1","1","29","-6","13","293"
"","psychophysics","152","599675","0.0-152.0","633ec4ab1ea0f8f0e863ae3e","64e50a45fe6a54d56721ae7f","","","","","1566",""," ","key"," ","16.672709677419725","500","250","br","-17","1","1","16","14","-13","207"
"","psychophysics","153","603619","0.0-153.0","633ec4ab1ea0f8f0e863ae3e","64e50a45fe6a54d56721ae7f","","","","","3941",""," ","key"," ","16.672733050847516","500","250","br","-12","1","1","28","-5","30","300"
"","psychophysics","154","606651","0.0-154.0","633ec4ab1ea0f8f0e863ae3e","64e50a45fe6a54d56721ae7f","","","","","3030",""," ","key"," ","16.672646408839515","500","250","br","-15","1","1","23","-14","16","245"
"","psychophysics","155","609715","0.0-155.0","633ec4ab1ea0f8f0e863ae3e","64e50a45fe6a54d56721ae7f","","","","","3061",""," ","key"," ","16.672637362637595","500","250","br","-9","1","1","25","25","18","288"
"","psychophysics","156","611923","0.0-156.0","633ec4ab1ea0f8f0e863ae3e","64e50a45fe6a54d56721ae7f","","","","","2204",""," ","key"," ","16.6727045454547","500","250","br","-14","1","1","20","-20","-28","276"
"","psychophysics","157","616147","0.0-157.0","633ec4ab1ea0f8f0e863ae3e","64e50a45fe6a54d56721ae7f","","","","","4222",""," ","key"," ","16.672738095238206","500","250","br","-13","1","1","29","-2","18","246"
"","psychophysics","158","618579","0.0-158.0","633ec4ab1ea0f8f0e863ae3e","64e50a45fe6a54d56721ae7f","","","","","2416",""," ","key"," ","16.672751724137925","500","250","br","-13","1","1","11","-7","-3","221"
"","psychophysics","159","621499","0.0-159.0","633ec4ab1ea0f8f0e863ae3e","64e50a45fe6a54d56721ae7f","","","","","2918",""," ","key"," ","16.672729885057098","500","250","br","-8","1","1","-4","-9","29","232"
"","psychophysics","160","622083","0.0-160.0","633ec4ab1ea0f8f0e863ae3e","64e50a45fe6a54d56721ae7f","","","","","582",""," ","key"," ","16.672735294118276","500","250","inst","","","","","","",""
"","psychophysics","161","625507","0.0-161.0","633ec4ab1ea0f8f0e863ae3e","64e50a45fe6a54d56721ae7f","","","","","3421",""," ","key"," ","16.672707317073307","500","250","instEB1","34","1","","0","0","40","30"
"","psychophysics","162","629139","0.0-162.0","633ec4ab1ea0f8f0e863ae3e","64e50a45fe6a54d56721ae7f","","","","","3630",""," ","key"," ","16.6726851851854","500","250","instEB2","38","1","","0","0","30","40"
"","psychophysics","163","632563","0.0-163.0","633ec4ab1ea0f8f0e863ae3e","64e50a45fe6a54d56721ae7f","","","","","3418",""," ","key"," ","16.67268292682938","500","250","instEB3","38","1","","0","0","27","45"
"","psychophysics","164","637462","0.0-164.0","633ec4ab1ea0f8f0e863ae3e","64e50a45fe6a54d56721ae7f","","","","","4896",""," ","key"," ","16.67268600682617","500","250","instEB4","25","1","","0","0","40","30"
"","psychophysics","165","638291","0.0-165.0","633ec4ab1ea0f8f0e863ae3e","64e50a45fe6a54d56721ae7f","","","","","828",""," ","key"," ","16.67275000000033","500","250","inst","","","","","","",""
"","psychophysics","166","642635","0.0-166.0","633ec4ab1ea0f8f0e863ae3e","64e50a45fe6a54d56721ae7f","","","","","4337",""," ","key"," ","16.67268461538434","500","250","eb","30","1","","0","0","47","36"
"","psychophysics","167","644795","0.0-167.0","633ec4ab1ea0f8f0e863ae3e","64e50a45fe6a54d56721ae7f","","","","","2154",""," ","key"," ","16.672710937499687","500","250","eb","31","1","","0","0","28","34"
"","psychophysics","168","648939","0.0-168.0","633ec4ab1ea0f8f0e863ae3e","64e50a45fe6a54d56721ae7f","","","","","4138",""," ","key"," ","16.67268951612876","500","250","eb","33","1","","0","0","52","37"
"","psychophysics","169","651684","0.0-169.0","633ec4ab1ea0f8f0e863ae3e","64e50a45fe6a54d56721ae7f","","","","","2742",""," ","key"," ","16.672646341463494","500","250","eb","34","1","","0","0","51","38"
"","psychophysics","170","655515","0.0-170.0","633ec4ab1ea0f8f0e863ae3e","64e50a45fe6a54d56721ae7f","","","","","3829",""," ","key"," ","16.67265789473701","500","250","eb","48","1","","0","0","41","53"
"","psychophysics","171","655636","0.0-171.0","633ec4ab1ea0f8f0e863ae3e","64e50a45fe6a54d56721ae7f","","","","","114",""," ","key"," ","16.672285714286513","500","250","eb","46","1","","0","0","46","52"
"","psychophysics","172","659763","0.0-172.0","633ec4ab1ea0f8f0e863ae3e","64e50a45fe6a54d56721ae7f","","","","","4125",""," ","key"," ","16.672727642276577","500","250","eb","44","1","","0","0","34","48"
"","psychophysics","173","663019","0.0-173.0","633ec4ab1ea0f8f0e863ae3e","64e50a45fe6a54d56721ae7f","","","","","3252",""," ","key"," ","16.672659793814653","500","250","eb","30","1","","0","0","48","34"
"","psychophysics","174","665195","0.0-174.0","633ec4ab1ea0f8f0e863ae3e","64e50a45fe6a54d56721ae7f","","","","","2169",""," ","key"," ","16.672730769230448","500","250","eb","41","1","","0","0","39","44"
"","psychophysics","175","669195","0.0-175.0","633ec4ab1ea0f8f0e863ae3e","64e50a45fe6a54d56721ae7f","","","","","3998",""," ","key"," ","16.672665271966498","500","250","eb","46","1","","0","0","26","52"
"","psychophysics","176","672308","0.0-176.0","633ec4ab1ea0f8f0e863ae3e","64e50a45fe6a54d56721ae7f","","","","","3110",""," ","key"," ","16.672666666666245","500","250","eb","24","1","","0","0","45","24"
"","psychophysics","177","674683","0.0-177.0","633ec4ab1ea0f8f0e863ae3e","64e50a45fe6a54d56721ae7f","","","","","2373",""," ","key"," ","16.67270921985784","500","250","eb","34","1","","0","0","28","37"
"","psychophysics","178","677683","0.0-178.0","633ec4ab1ea0f8f0e863ae3e","64e50a45fe6a54d56721ae7f","","","","","2998",""," ","key"," ","16.67272067039115","500","250","eb","23","1","","0","0","40","24"
"","psychophysics","179","679828","0.0-179.0","633ec4ab1ea0f8f0e863ae3e","64e50a45fe6a54d56721ae7f","","","","","2143",""," ","key"," ","16.672687500000393","500","250","eb","32","1","","0","0","41","38"
"","psychophysics","180","681499","0.0-180.0","633ec4ab1ea0f8f0e863ae3e","64e50a45fe6a54d56721ae7f","","","","","1668",""," ","key"," ","16.67269696969647","500","250","eb","39","1","","0","0","35","39"
"","psychophysics","181","682443","0.0-181.0","633ec4ab1ea0f8f0e863ae3e","64e50a45fe6a54d56721ae7f","","","","","942",""," ","key"," ","16.672672727272253","500","250","inst","","","","","","",""
"","psychophysics","182","687228","0.0-182.0","633ec4ab1ea0f8f0e863ae3e","64e50a45fe6a54d56721ae7f","","","","","4781",""," ","key"," ","16.672727272727354","500","250","instZol1","-0.10000000000000003","","","0","0","-1.3",""
"","psychophysics","183","692987","0.0-183.0","633ec4ab1ea0f8f0e863ae3e","64e50a45fe6a54d56721ae7f","","","","","5754",""," ","key"," ","16.67268405797102","500","250","instZol2","-0.9999999999999992","2","","0","0","2",""
"","psychophysics","184","694027","0.0-184.0","633ec4ab1ea0f8f0e863ae3e","64e50a45fe6a54d56721ae7f","","","","","1037",""," ","key"," ","16.672737704916308","500","250","inst","","","","","","",""
"","psychophysics","185","700501","0.0-185.0","633ec4ab1ea0f8f0e863ae3e","64e50a45fe6a54d56721ae7f","","","","","6467",""," ","key"," ","16.672680412371133","500","250","zol","-0.8599999999999999","2","1","9","5","-0.04",""
"","psychophysics","186","705299","0.0-186.0","633ec4ab1ea0f8f0e863ae3e","64e50a45fe6a54d56721ae7f","","","","","4795",""," ","key"," ","16.672699300699275","500","250","zol","-1.1300000000000001","2","1","24","23","0.73",""
"","psychophysics","187","707859","0.0-187.0","633ec4ab1ea0f8f0e863ae3e","64e50a45fe6a54d56721ae7f","","","","","2554",""," ","key"," ","16.67269281045689","500","250","zol","-1.0599999999999998","2","1","4","26","0.06",""
"","psychophysics","188","711667","0.0-188.0","633ec4ab1ea0f8f0e863ae3e","64e50a45fe6a54d56721ae7f","","","","","3805",""," ","key"," ","16.672696035242502","500","250","zol","-1.25","2","1","-11","26","0.35",""
"","psychophysics","189","714787","0.0-189.0","633ec4ab1ea0f8f0e863ae3e","64e50a45fe6a54d56721ae7f","","","","","3113",""," ","key"," ","16.672650537634475","500","250","zol","-0.6699999999999999","2","1","-16","-20","-0.63",""
"","psychophysics","190","717579","0.0-190.0","633ec4ab1ea0f8f0e863ae3e","64e50a45fe6a54d56721ae7f","","","","","2787",""," ","key"," ","16.672718562874497","500","250","zol","-1.2400000000000002","2","1","-17","-18","0.44",""
"","psychophysics","191","721052","0.0-191.0","633ec4ab1ea0f8f0e863ae3e","64e50a45fe6a54d56721ae7f","","","","","3468",""," ","key"," ","16.672671497584624","500","250","zol","-1.5100000000000005","2","1","-20","18","0.21",""
"","psychophysics","192","724691","0.0-192.0","633ec4ab1ea0f8f0e863ae3e","64e50a45fe6a54d56721ae7f","","","","","3636",""," ","key"," ","16.672654377880253","500","250","zol","-1.23","2","1","25","8","-0.67",""
"","psychophysics","193","726867","0.0-193.0","633ec4ab1ea0f8f0e863ae3e","64e50a45fe6a54d56721ae7f","","","","","2170",""," ","key"," ","16.672676923077624","500","250","zol","-1.4200000000000004","2","1","4","-7","0.12",""
"","psychophysics","194","733196","0.0-194.0","633ec4ab1ea0f8f0e863ae3e","64e50a45fe6a54d56721ae7f","","","","","6325",""," ","key"," ","16.672691292876173","500","250","zol","-1.29","2","1","-9","26","-0.11",""
"","psychophysics","195","735635","0.0-195.0","633ec4ab1ea0f8f0e863ae3e","64e50a45fe6a54d56721ae7f","","","","","2435",""," ","key"," ","16.67266206896607","500","250","zol","-1.4400000000000004","2","1","-16","30","-0.06",""
"","psychophysics","196","738507","0.0-196.0","633ec4ab1ea0f8f0e863ae3e","64e50a45fe6a54d56721ae7f","","","","","2869",""," ","key"," ","16.672707602338818","500","250","zol","-1.03","2","1","18","16","-0.27",""
"","psychophysics","197","741060","0.0-197.0","633ec4ab1ea0f8f0e863ae3e","64e50a45fe6a54d56721ae7f","","","","","2548",""," ","key"," ","16.67271710526333","500","250","zol","-1.5300000000000005","2","1","0","-4","0.43",""
"","psychophysics","198","744100","0.0-198.0","633ec4ab1ea0f8f0e863ae3e","64e50a45fe6a54d56721ae7f","","","","","3036",""," ","key"," ","16.672686813186832","500","250","zol","-1.5300000000000002","2","1","-12","-1","-0.67",""
"","psychophysics","199","746419","0.0-199.0","633ec4ab1ea0f8f0e863ae3e","64e50a45fe6a54d56721ae7f","","","","","2315",""," ","key"," ","16.672608695652645","500","250","zol","-1.4300000000000004","2","1","29","-8","-0.47",""
"","psychophysics","200","747323","0.0-200.0","633ec4ab1ea0f8f0e863ae3e","64e50a45fe6a54d56721ae7f","","","","","903",""," ","key"," ","16.672773584905784","500","250","inst","","","","","","",""
"","psychophysics","201","752507","0.0-201.0","633ec4ab1ea0f8f0e863ae3e","64e50a45fe6a54d56721ae7f","","","","","5182",""," ","key"," ","16.67269677419343","500","250","instPog0","160","1","","0","0","190","160"
"","psychophysics","202","757443","0.0-202.0","633ec4ab1ea0f8f0e863ae3e","64e50a45fe6a54d56721ae7f","","","","","4935",""," ","key"," ","16.67267118644056","500","250","instPog1","166","1","","0","0","190","160"
"","psychophysics","203","759859","0.0-203.0","633ec4ab1ea0f8f0e863ae3e","64e50a45fe6a54d56721ae7f","","","","","2414",""," ","key"," ","16.67266666666708","500","250","instPog2","178","1","","0","0","160","160"
"","psychophysics","204","760340","0.0-204.0","633ec4ab1ea0f8f0e863ae3e","64e50a45fe6a54d56721ae7f","","","","","479",""," ","key"," ","16.67310714285954","500","250","inst","","","","","","",""
"","psychophysics","205","764027","0.0-205.0","633ec4ab1ea0f8f0e863ae3e","64e50a45fe6a54d56721ae7f","","","","","3674",""," ","key"," ","16.67269090909077","500","250","pog","155","1","1","0","0","197","130"
"","psychophysics","206","766051","0.0-206.0","633ec4ab1ea0f8f0e863ae3e","64e50a45fe6a54d56721ae7f","","","","","2022",""," ","key"," ","16.672599999999512","500","250","pog","194","1","1","0","0","174","177"
"","psychophysics","207","769211","0.0-207.0","633ec4ab1ea0f8f0e863ae3e","64e50a45fe6a54d56721ae7f","","","","","3157",""," ","key"," ","16.672703703703412","500","250","pog","164","1","1","0","0","198","142"
"","psychophysics","208","772187","0.0-208.0","633ec4ab1ea0f8f0e863ae3e","64e50a45fe6a54d56721ae7f","","","","","2974",""," ","key"," ","16.6726949152538","500","250","pog","171","1","1","0","0","117","155"
"","psychophysics","209","776307","0.0-209.0","633ec4ab1ea0f8f0e863ae3e","64e50a45fe6a54d56721ae7f","","","","","4118",""," ","key"," ","16.672662601626396","500","250","pog","140","1","1","0","0","198","124"
"","psychophysics","210","779027","0.0-210.0","633ec4ab1ea0f8f0e863ae3e","64e50a45fe6a54d56721ae7f","","","","","2718",""," ","key"," ","16.6727160493826","500","250","pog","164","1","1","0","0","216","139"
"","psychophysics","211","781692","0.0-211.0","633ec4ab1ea0f8f0e863ae3e","64e50a45fe6a54d56721ae7f","","","","","2661",""," ","key"," ","16.67269182389927","500","250","pog","204","1","1","0","0","168","179"
"","psychophysics","212","785435","0.0-212.0","633ec4ab1ea0f8f0e863ae3e","64e50a45fe6a54d56721ae7f","","","","","3741",""," ","key"," ","16.672709821428207","500","250","pog","168","1","1","0","0","212","144"
"","psychophysics","213","790931","0.0-213.0","633ec4ab1ea0f8f0e863ae3e","64e50a45fe6a54d56721ae7f","","","","","5494",""," ","key"," ","16.67268292682931","500","250","pog","219","1","1","0","0","107","196"
"","psychophysics","214","792699","0.0-214.0","633ec4ab1ea0f8f0e863ae3e","64e50a45fe6a54d56721ae7f","","","","","1764",""," ","key"," ","16.67264761904787","500","250","pog","140","1","1","0","0","132","122"
"","psychophysics","215","794515","0.0-215.0","633ec4ab1ea0f8f0e863ae3e","64e50a45fe6a54d56721ae7f","","","","","1810",""," ","key"," ","16.672777777777","500","250","pog","156","1","1","0","0","174","142"
"","psychophysics","216","798619","0.0-216.0","633ec4ab1ea0f8f0e863ae3e","64e50a45fe6a54d56721ae7f","","","","","4100",""," ","key"," ","16.67264227642265","500","250","pog","184","1","1","0","0","214","166"
"","psychophysics","217","801851","0.0-217.0","633ec4ab1ea0f8f0e863ae3e","64e50a45fe6a54d56721ae7f","","","","","3230",""," ","key"," ","16.672687500000393","500","250","pog","177","1","1","0","0","115","161"
"","psychophysics","218","804707","0.0-218.0","633ec4ab1ea0f8f0e863ae3e","64e50a45fe6a54d56721ae7f","","","","","2851",""," ","key"," ","16.672701754386004","500","250","pog","174","1","1","0","0","200","166"
"","psychophysics","219","806651","0.0-219.0","633ec4ab1ea0f8f0e863ae3e","64e50a45fe6a54d56721ae7f","","","","","1942",""," ","key"," ","16.672686956522217","500","250","pog","216","1","1","0","0","206","192"
