"success","trial_type","trial_index","time_elapsed","internal_node_id","pid","sid","timeout","failed_images","failed_audio","failed_video","rt","stimulus","response","response_type","key_press","avg_frame_time","center_x","center_y","task","resp","version","block","jitterX","jitterY","start","parA"
"true","fullscreen","0","2504","0.0-0.0","5cac937cd889c700010d7c65","64de7d54bd2e0ee3fdb796e3","","","","","","","","","","","","","","","","","","","",""
"true","preload","1","2565","0.0-1.0","5cac937cd889c700010d7c65","64de7d54bd2e0ee3fdb796e3","false","[]","[]","[]","","","","","","","","","","","","","","","",""
"","html-button-response","2","5072","0.0-2.0","5cac937cd889c700010d7c65","64de7d54bd2e0ee3fdb796e3","","","","","2506","Please Make Sure Your Audio Is On.","0","","","","","","","","","","","","",""
"","psychophysics","3","22505","0.0-3.0","5cac937cd889c700010d7c65","64de7d54bd2e0ee3fdb796e3","","","","","17422",""," ","key"," ","16.76302403846154","896","250","","","","","","","",""
"","psychophysics","4","31357","0.0-4.0","5cac937cd889c700010d7c65","64de7d54bd2e0ee3fdb796e3","","","","","8850",""," ","key"," ","16.66685660377359","500","250","inst","","","","","","",""
"","psychophysics","5","35019","0.0-5.0","5cac937cd889c700010d7c65","64de7d54bd2e0ee3fdb796e3","","","","","3661",""," ","key"," ","16.66599999999998","500","250","sample0","","","","","","",""
"","psychophysics","6","37744","0.0-6.0","5cac937cd889c700010d7c65","64de7d54bd2e0ee3fdb796e3","","","","","2724",""," ","key"," ","16.666","500","250","sample1","","","","","","",""
"","psychophysics","7","56035","0.0-7.0","5cac937cd889c700010d7c65","64de7d54bd2e0ee3fdb796e3","","","","","18287",""," ","key"," ","16.666828623518686","500","250","sample2","102","","","","","",""
"","psychophysics","8","64172","0.0-8.0","5cac937cd889c700010d7c65","64de7d54bd2e0ee3fdb796e3","","","","","8136",""," ","key"," ","16.666934291581107","500","250","sample3","102","","","","","",""
"","psychophysics","9","73671","0.0-9.0","5cac937cd889c700010d7c65","64de7d54bd2e0ee3fdb796e3","","","","","9495",""," ","key"," ","16.66679789103691","500","250","sample4","100","","","","","",""
"","psychophysics","10","78018","0.0-10.0","5cac937cd889c700010d7c65","64de7d54bd2e0ee3fdb796e3","","","","","4346",""," ","key"," ","16.666000000000015","500","250","sample5","","","","","","",""
"","psychophysics","11","85366","0.0-11.0","5cac937cd889c700010d7c65","64de7d54bd2e0ee3fdb796e3","","","","","7347",""," ","key"," ","16.66703409090908","500","250","sample6","502","","","","","",""
"","psychophysics","12","88836","0.0-12.0","5cac937cd889c700010d7c65","64de7d54bd2e0ee3fdb796e3","","","","","3469",""," ","key"," ","16.66599999999997","500","250","inst","","","","","","",""
"","psychophysics","13","92551","0.0-13.0","5cac937cd889c700010d7c65","64de7d54bd2e0ee3fdb796e3","","","","","3714",""," ","key"," ","16.66804504504503","500","250","inst","","","","","","",""
"","psychophysics","14","96534","0.0-14.0","5cac937cd889c700010d7c65","64de7d54bd2e0ee3fdb796e3","","","","","3982",""," ","key"," ","16.665999999999947","500","250","inst","","","","","","",""
"","psychophysics","15","98827","0.0-15.0","5cac937cd889c700010d7c65","64de7d54bd2e0ee3fdb796e3","","","","","2291",""," ","key"," ","16.666000000000007","500","250","inst","","","","","","",""
"","psychophysics","16","100266","0.0-16.0","5cac937cd889c700010d7c65","64de7d54bd2e0ee3fdb796e3","","","","","1436",""," ","key"," ","16.666000000000007","500","250","inst","","","","","","",""
"","psychophysics","17","104283","0.0-17.0","5cac937cd889c700010d7c65","64de7d54bd2e0ee3fdb796e3","","","","","4009",""," ","key"," ","16.667895833333326","500","250","instZol0","0","","","0","0","0",""
"","psychophysics","18","116285","0.0-18.0","5cac937cd889c700010d7c65","64de7d54bd2e0ee3fdb796e3","","","","","12000",""," ","key"," ","16.666630555555557","500","250","instZol1","0.10000000000000003","","","0","0","-1.3",""
"","psychophysics","19","128550","0.0-19.0","5cac937cd889c700010d7c65","64de7d54bd2e0ee3fdb796e3","","","","","12262",""," ","key"," ","16.666619047619044","500","250","instZol2","-0.5999999999999993","2","","0","0","2",""
"","psychophysics","20","130972","0.0-20.0","5cac937cd889c700010d7c65","64de7d54bd2e0ee3fdb796e3","","","","","2421",""," ","key"," ","16.6691597222222","500","250","inst","","","","","","",""
"","psychophysics","21","138381","0.0-21.0","5cac937cd889c700010d7c65","64de7d54bd2e0ee3fdb796e3","","","","","7405",""," ","key"," ","16.666","500","250","zol","-0.30000000000000004","2","0","-27","-27","-0.5",""
"","psychophysics","22","146383","0.0-22.0","5cac937cd889c700010d7c65","64de7d54bd2e0ee3fdb796e3","","","","","null","","null","key","null","16.666945833333315","500","250","zol","-0.63","2","0","30","1","0.23",""
"","psychophysics","23","151245","0.0-23.0","5cac937cd889c700010d7c65","64de7d54bd2e0ee3fdb796e3","","","","","4859",""," ","key"," ","16.667568965517244","500","250","zol","-0.44999999999999996","2","0","-2","-8","-0.65",""
"","psychophysics","24","153961","0.0-24.0","5cac937cd889c700010d7c65","64de7d54bd2e0ee3fdb796e3","","","","","2714",""," ","key"," ","16.665999999999954","500","250","zol","-0.63","2","0","19","-30","0.53",""
"","psychophysics","25","161174","0.0-25.0","5cac937cd889c700010d7c65","64de7d54bd2e0ee3fdb796e3","","","","","7210",""," ","key"," ","16.66705092592592","500","250","zol","-0.57","2","0","20","5","-0.63",""
"","psychophysics","26","168326","0.0-26.0","5cac937cd889c700010d7c65","64de7d54bd2e0ee3fdb796e3","","","","","7150",""," ","key"," ","16.66600000000002","500","250","zol","-0.31","2","0","-5","-20","0.01",""
"","psychophysics","27","170123","0.0-27.0","5cac937cd889c700010d7c65","64de7d54bd2e0ee3fdb796e3","","","","","1794",""," ","key"," ","16.665999999999887","500","250","zol","-0.55","2","0","20","-21","0.55",""
"","psychophysics","28","176019","0.0-28.0","5cac937cd889c700010d7c65","64de7d54bd2e0ee3fdb796e3","","","","","5893",""," ","key"," ","16.6672889518414","500","250","zol","-0.10999999999999999","2","0","8","12","-0.39",""
"","psychophysics","29","184024","0.0-29.0","5cac937cd889c700010d7c65","64de7d54bd2e0ee3fdb796e3","","","","","null","","null","key","null","16.66694780793318","500","250","zol","-0.2399999999999999","2","0","-2","24","-0.56",""
"","psychophysics","30","190881","0.0-30.0","5cac937cd889c700010d7c65","64de7d54bd2e0ee3fdb796e3","","","","","6853",""," ","key"," ","16.665999999999993","500","250","zol","-0.6","2","0","-4","-9","0.1",""
"","psychophysics","31","197069","0.0-31.0","5cac937cd889c700010d7c65","64de7d54bd2e0ee3fdb796e3","","","","","6185",""," ","key"," ","16.667226415094333","500","250","zol","-0.12","2","0","-26","-23","-0.48",""
"","psychophysics","32","201487","0.0-32.0","5cac937cd889c700010d7c65","64de7d54bd2e0ee3fdb796e3","","","","","4416",""," ","key"," ","16.667719696969662","500","250","zol","-0.25000000000000006","2","0","20","30","-0.45",""
"","psychophysics","33","205033","0.0-33.0","5cac937cd889c700010d7c65","64de7d54bd2e0ee3fdb796e3","","","","","3543",""," ","key"," ","16.666000000000047","500","250","zol","-0.61","2","0","-24","27","0.21",""
"","psychophysics","34","212080","0.0-34.0","5cac937cd889c700010d7c65","64de7d54bd2e0ee3fdb796e3","","","","","7044",""," ","key"," ","16.66708076009498","500","250","zol","-0.6200000000000001","2","0","0","-29","0.42",""
"","psychophysics","35","220083","0.0-35.0","5cac937cd889c700010d7c65","64de7d54bd2e0ee3fdb796e3","","","","","null","","null","key","null","16.66599999999999","500","250","zol","-0.13","2","0","15","-10","-0.37",""
"","psychophysics","36","222169","0.0-36.0","5cac937cd889c700010d7c65","64de7d54bd2e0ee3fdb796e3","","","","","2083",""," ","key"," ","16.669632000000217","500","250","inst","","","","","","",""
"","psychophysics","37","225044","0.0-37.0","5cac937cd889c700010d7c65","64de7d54bd2e0ee3fdb796e3","","","","","2871",""," ","key"," ","16.665999999999993","500","250","instEB0","40","1","","0","0","40","40"
"","psychophysics","38","228365","0.0-38.0","5cac937cd889c700010d7c65","64de7d54bd2e0ee3fdb796e3","","","","","3320",""," ","key"," ","16.665999999999936","500","250","instEB1","40","1","","0","0","40","30"
"","psychophysics","39","233607","0.0-39.0","5cac937cd889c700010d7c65","64de7d54bd2e0ee3fdb796e3","","","","","5238",""," ","key"," ","16.66744904458598","500","250","instEB2","35","1","","0","0","30","40"
"","psychophysics","40","238596","0.0-40.0","5cac937cd889c700010d7c65","64de7d54bd2e0ee3fdb796e3","","","","","4987",""," ","key"," ","16.666000000000075","500","250","instEB3","36","1","","0","0","27","45"
"","psychophysics","41","245041","0.0-41.0","5cac937cd889c700010d7c65","64de7d54bd2e0ee3fdb796e3","","","","","6443",""," ","key"," ","16.667176165803106","500","250","instEB4","27","1","","0","0","40","30"
"","psychophysics","42","247228","0.0-42.0","5cac937cd889c700010d7c65","64de7d54bd2e0ee3fdb796e3","","","","","2186",""," ","key"," ","16.6659999999999","500","250","inst","","","","","","",""
"","psychophysics","43","254610","0.0-43.0","5cac937cd889c700010d7c65","64de7d54bd2e0ee3fdb796e3","","","","","7379",""," ","key"," ","16.667029411764748","500","250","eb","26","1","","0","0","34","28"
"","psychophysics","44","260764","0.0-44.0","5cac937cd889c700010d7c65","64de7d54bd2e0ee3fdb796e3","","","","","6152",""," ","key"," ","16.66599999999997","500","250","eb","31","1","","0","0","39","34"
"","psychophysics","45","265402","0.0-45.0","5cac937cd889c700010d7c65","64de7d54bd2e0ee3fdb796e3","","","","","4637",""," ","key"," ","16.66763309352523","500","250","eb","44","1","","0","0","40","53"
"","psychophysics","46","272282","0.0-46.0","5cac937cd889c700010d7c65","64de7d54bd2e0ee3fdb796e3","","","","","6877",""," ","key"," ","16.667107055961168","500","250","eb","42","1","","0","0","50","49"
"","psychophysics","47","276363","0.0-47.0","5cac937cd889c700010d7c65","64de7d54bd2e0ee3fdb796e3","","","","","4078",""," ","key"," ","16.666000000000064","500","250","eb","33","1","","0","0","30","38"
"","psychophysics","48","281086","0.0-48.0","5cac937cd889c700010d7c65","64de7d54bd2e0ee3fdb796e3","","","","","4720",""," ","key"," ","16.66600000000001","500","250","eb","31","1","","0","0","46","32"
"","psychophysics","49","283727","0.0-49.0","5cac937cd889c700010d7c65","64de7d54bd2e0ee3fdb796e3","","","","","2639",""," ","key"," ","16.668891719745243","500","250","eb","32","1","","0","0","34","35"
"","psychophysics","50","288679","0.0-50.0","5cac937cd889c700010d7c65","64de7d54bd2e0ee3fdb796e3","","","","","4950",""," ","key"," ","16.665999999999997","500","250","eb","39","1","","0","0","33","44"
"","psychophysics","51","295015","0.0-51.0","5cac937cd889c700010d7c65","64de7d54bd2e0ee3fdb796e3","","","","","6334",""," ","key"," ","16.6672005277045","500","250","eb","43","1","","0","0","32","51"
"","psychophysics","52","301587","0.0-52.0","5cac937cd889c700010d7c65","64de7d54bd2e0ee3fdb796e3","","","","","6570",""," ","key"," ","16.66715228426383","500","250","eb","30","1","","0","0","49","33"
"","psychophysics","53","305609","0.0-53.0","5cac937cd889c700010d7c65","64de7d54bd2e0ee3fdb796e3","","","","","4020",""," ","key"," ","16.666000000000107","500","250","eb","37","1","","0","0","33","42"
"","psychophysics","54","312387","0.0-54.0","5cac937cd889c700010d7c65","64de7d54bd2e0ee3fdb796e3","","","","","6776",""," ","key"," ","16.66712068965523","500","250","eb","31","1","","0","0","53","35"
"","psychophysics","55","316823","0.0-55.0","5cac937cd889c700010d7c65","64de7d54bd2e0ee3fdb796e3","","","","","4434",""," ","key"," ","16.665999999999965","500","250","eb","24","1","","0","0","31","26"
"","psychophysics","56","321320","0.0-56.0","5cac937cd889c700010d7c65","64de7d54bd2e0ee3fdb796e3","","","","","4495",""," ","key"," ","16.665999999999926","500","250","eb","43","1","","0","0","51","49"
"","psychophysics","57","324293","0.0-57.0","5cac937cd889c700010d7c65","64de7d54bd2e0ee3fdb796e3","","","","","2971",""," ","key"," ","16.66856497175147","500","250","eb","29","1","","0","0","31","32"
"","psychophysics","58","327163","0.0-58.0","5cac937cd889c700010d7c65","64de7d54bd2e0ee3fdb796e3","","","","","2868",""," ","key"," ","16.665999999999993","500","250","inst","","","","","","",""
"","psychophysics","59","330153","0.0-59.0","5cac937cd889c700010d7c65","64de7d54bd2e0ee3fdb796e3","","","","","2988",""," ","key"," ","16.665999999999876","500","250","instBr0","0","","","0","0","0","300"
"","psychophysics","60","333201","0.0-60.0","5cac937cd889c700010d7c65","64de7d54bd2e0ee3fdb796e3","","","","","3047",""," ","key"," ","16.668513812154636","500","250","instBr1","-40","","","0","0","-40","300"
"","psychophysics","61","339456","0.0-61.0","5cac937cd889c700010d7c65","64de7d54bd2e0ee3fdb796e3","","","","","6253",""," ","key"," ","16.666","500","250","instBr3","29","2","","0","0","40","300"
"","psychophysics","62","340849","0.0-62.0","5cac937cd889c700010d7c65","64de7d54bd2e0ee3fdb796e3","","","","","1392",""," ","key"," ","16.666000000000277","500","250","inst","","","","","","",""
"","psychophysics","63","345090","0.0-63.0","5cac937cd889c700010d7c65","64de7d54bd2e0ee3fdb796e3","","","","","4239",""," ","key"," ","16.66778740157487","500","250","br","19","2","0","9","-21","9","230"
"","psychophysics","64","347744","0.0-64.0","5cac937cd889c700010d7c65","64de7d54bd2e0ee3fdb796e3","","","","","2651",""," ","key"," ","16.666000000000018","500","250","br","14","2","0","-3","-4","11","251"
"","psychophysics","65","354435","0.0-65.0","5cac937cd889c700010d7c65","64de7d54bd2e0ee3fdb796e3","","","","","6690",""," ","key"," ","16.667137499999953","500","250","br","16","2","0","21","-14","-17","219"
"","psychophysics","66","358918","0.0-66.0","5cac937cd889c700010d7c65","64de7d54bd2e0ee3fdb796e3","","","","","4481",""," ","key"," ","16.665999999999926","500","250","br","12","2","0","0","5","0","202"
"","psychophysics","67","363821","0.0-67.0","5cac937cd889c700010d7c65","64de7d54bd2e0ee3fdb796e3","","","","","4901",""," ","key"," ","16.66754948805462","500","250","br","12","2","0","0","4","-16","208"
"","psychophysics","68","367562","0.0-68.0","5cac937cd889c700010d7c65","64de7d54bd2e0ee3fdb796e3","","","","","3739",""," ","key"," ","16.66599999999992","500","250","br","15","2","0","-27","-11","7","276"
"","psychophysics","69","372732","0.0-69.0","5cac937cd889c700010d7c65","64de7d54bd2e0ee3fdb796e3","","","","","5168",""," ","key"," ","16.667472491909418","500","250","br","18","2","0","-19","7","30","285"
"","psychophysics","70","375999","0.0-70.0","5cac937cd889c700010d7c65","64de7d54bd2e0ee3fdb796e3","","","","","3265",""," ","key"," ","16.665999999999976","500","250","br","15","2","0","25","13","-1","237"
"","psychophysics","71","379085","0.0-71.0","5cac937cd889c700010d7c65","64de7d54bd2e0ee3fdb796e3","","","","","3081",""," ","key"," ","16.666000000000114","500","250","br","20","2","0","-18","29","27","239"
"","psychophysics","72","384610","0.0-72.0","5cac937cd889c700010d7c65","64de7d54bd2e0ee3fdb796e3","","","","","5523",""," ","key"," ","16.667375757575748","500","250","br","17","2","0","25","2","-15","295"
"","psychophysics","73","391158","0.0-73.0","5cac937cd889c700010d7c65","64de7d54bd2e0ee3fdb796e3","","","","","6547",""," ","key"," ","16.665999999999965","500","250","br","16","2","0","2","-4","-30","285"
"","psychophysics","74","397085","0.0-74.0","5cac937cd889c700010d7c65","64de7d54bd2e0ee3fdb796e3","","","","","5926",""," ","key"," ","16.66728169014087","500","250","br","16","2","0","17","-17","-11","278"
"","psychophysics","75","401615","0.0-75.0","5cac937cd889c700010d7c65","64de7d54bd2e0ee3fdb796e3","","","","","4529",""," ","key"," ","16.666000000000025","500","250","br","22","2","0","-29","23","1","264"
"","psychophysics","76","406907","0.0-76.0","5cac937cd889c700010d7c65","64de7d54bd2e0ee3fdb796e3","","","","","5290",""," ","key"," ","16.667432176656153","500","250","br","8","2","0","6","-16","-27","201"
"","psychophysics","77","409345","0.0-77.0","5cac937cd889c700010d7c65","64de7d54bd2e0ee3fdb796e3","","","","","2437",""," ","key"," ","16.666000000000047","500","250","br","16","2","0","11","8","15","294"
"","psychophysics","78","410615","0.0-78.0","5cac937cd889c700010d7c65","64de7d54bd2e0ee3fdb796e3","","","","","1266",""," ","key"," ","16.666000000000157","500","250","inst","","","","","","",""
"","psychophysics","79","412085","0.0-79.0","5cac937cd889c700010d7c65","64de7d54bd2e0ee3fdb796e3","","","","","1469",""," ","key"," ","16.67122988505744","500","250","instPzPre","50","0","","","","50","50"
"","psychophysics","80","415441","0.0-80.0","5cac937cd889c700010d7c65","64de7d54bd2e0ee3fdb796e3","","","","","3346",""," ","key"," ","16.66600000000019","500","250","instPz0","50","1","","","","50","50"
"","psychophysics","81","421939","0.0-81.0","5cac937cd889c700010d7c65","64de7d54bd2e0ee3fdb796e3","","","","","6497",""," ","key"," ","16.66716709511566","500","250","instPz1","44","1","","","","25","50"
"","psychophysics","82","427203","0.0-82.0","5cac937cd889c700010d7c65","64de7d54bd2e0ee3fdb796e3","","","","","5263",""," ","key"," ","16.665999999999933","500","250","instPz2","22","1","","","","35","20"
"","psychophysics","83","431591","0.0-83.0","5cac937cd889c700010d7c65","64de7d54bd2e0ee3fdb796e3","","","","","4386",""," ","key"," ","16.665999999999883","500","250","instPz3","94","1","","","","100","30"
"","psychophysics","84","441291","0.0-84.0","5cac937cd889c700010d7c65","64de7d54bd2e0ee3fdb796e3","","","","","9698",""," ","key"," ","16.666783132530142","500","250","instPz4","35","1","","","","100","30"
"","psychophysics","85","442663","0.0-85.0","5cac937cd889c700010d7c65","64de7d54bd2e0ee3fdb796e3","","","","","1371",""," ","key"," ","16.67160493827189","500","250","inst","","","","","","",""
"","psychophysics","86","446520","0.0-86.0","5cac937cd889c700010d7c65","64de7d54bd2e0ee3fdb796e3","","","","","3855",""," ","key"," ","16.666000000000086","500","250","pz","71","1","0","","","59","59"
"","psychophysics","87","451733","0.0-87.0","5cac937cd889c700010d7c65","64de7d54bd2e0ee3fdb796e3","","","","","5211",""," ","key"," ","16.666000000000153","500","250","pz","53","1","0","","","32","49"
"","psychophysics","88","454562","0.0-88.0","5cac937cd889c700010d7c65","64de7d54bd2e0ee3fdb796e3","","","","","2828",""," ","key"," ","16.668692307692424","500","250","pz","29","1","0","","","34","24"
"","psychophysics","89","462214","0.0-89.0","5cac937cd889c700010d7c65","64de7d54bd2e0ee3fdb796e3","","","","","7648",""," ","key"," ","16.666991266375586","500","250","pz","67","1","0","","","29","50"
"","psychophysics","90","465876","0.0-90.0","5cac937cd889c700010d7c65","64de7d54bd2e0ee3fdb796e3","","","","","3660",""," ","key"," ","16.665999999999965","500","250","pz","35","1","0","","","29","29"
"","psychophysics","91","469659","0.0-91.0","5cac937cd889c700010d7c65","64de7d54bd2e0ee3fdb796e3","","","","","3778",""," ","key"," ","16.666000000000015","500","250","pz","51","1","0","","","38","44"
"","psychophysics","92","473560","0.0-92.0","5cac937cd889c700010d7c65","64de7d54bd2e0ee3fdb796e3","","","","","3899",""," ","key"," ","16.667952789699452","500","250","pz","37","1","0","","","41","31"
"","psychophysics","93","479043","0.0-93.0","5cac937cd889c700010d7c65","64de7d54bd2e0ee3fdb796e3","","","","","5481",""," ","key"," ","16.665999999999922","500","250","pz","23","1","0","","","52","20"
"","psychophysics","94","482075","0.0-94.0","5cac937cd889c700010d7c65","64de7d54bd2e0ee3fdb796e3","","","","","3030",""," ","key"," ","16.668508287292816","500","250","pz","37","1","0","","","36","31"
"","psychophysics","95","487398","0.0-95.0","5cac937cd889c700010d7c65","64de7d54bd2e0ee3fdb796e3","","","","","5322",""," ","key"," ","16.666","500","250","pz","49","1","0","","","41","42"
"","psychophysics","96","490687","0.0-96.0","5cac937cd889c700010d7c65","64de7d54bd2e0ee3fdb796e3","","","","","3287",""," ","key"," ","16.66599999999995","500","250","pz","51","1","0","","","47","42"
"","psychophysics","97","494188","0.0-97.0","5cac937cd889c700010d7c65","64de7d54bd2e0ee3fdb796e3","","","","","3499",""," ","key"," ","16.668177033492707","500","250","pz","30","1","0","","","24","24"
"","psychophysics","98","498966","0.0-98.0","5cac937cd889c700010d7c65","64de7d54bd2e0ee3fdb796e3","","","","","4775",""," ","key"," ","16.666000000000196","500","250","pz","31","1","0","","","60","22"
"","psychophysics","99","504937","0.0-99.0","5cac937cd889c700010d7c65","64de7d54bd2e0ee3fdb796e3","","","","","5969",""," ","key"," ","16.667268156424534","500","250","pz","61","1","0","","","31","51"
"","psychophysics","100","509067","0.0-100.0","5cac937cd889c700010d7c65","64de7d54bd2e0ee3fdb796e3","","","","","4127",""," ","key"," ","16.666000000000043","500","250","pz","64","1","0","","","52","57"
"","psychophysics","101","510352","0.0-101.0","5cac937cd889c700010d7c65","64de7d54bd2e0ee3fdb796e3","","","","","1285",""," ","key"," ","16.666000000000086","500","250","inst","","","","","","",""
"","psychophysics","102","513043","0.0-102.0","5cac937cd889c700010d7c65","64de7d54bd2e0ee3fdb796e3","","","","","2689",""," ","key"," ","16.668843749999724","500","250","instPog0","370","2","","0","0","370","340"
"","psychophysics","103","514614","0.0-103.0","5cac937cd889c700010d7c65","64de7d54bd2e0ee3fdb796e3","","","","","1567",""," ","key"," ","16.666000000000256","500","250","instPog1","370","2","","0","0","370","340"
"","psychophysics","104","518071","0.0-104.0","5cac937cd889c700010d7c65","64de7d54bd2e0ee3fdb796e3","","","","","3456",""," ","key"," ","16.66600000000011","500","250","instPog2","328","2","","0","0","340","340"
"","psychophysics","105","519227","0.0-105.0","5cac937cd889c700010d7c65","64de7d54bd2e0ee3fdb796e3","","","","","1155",""," ","key"," ","16.666000000000007","500","250","inst","","","","","","",""
"","psychophysics","106","523252","0.0-106.0","5cac937cd889c700010d7c65","64de7d54bd2e0ee3fdb796e3","","","","","4023",""," ","key"," ","16.66788381742723","500","250","pog","338","2","0","0","0","350","346"
"","psychophysics","107","528519","0.0-107.0","5cac937cd889c700010d7c65","64de7d54bd2e0ee3fdb796e3","","","","","5266",""," ","key"," ","16.665999999999933","500","250","pog","333","2","0","0","0","327","350"
"","psychophysics","108","533437","0.0-108.0","5cac937cd889c700010d7c65","64de7d54bd2e0ee3fdb796e3","","","","","4917",""," ","key"," ","16.667547619047884","500","250","pog","300","2","0","0","0","328","321"
"","psychophysics","109","538481","0.0-109.0","5cac937cd889c700010d7c65","64de7d54bd2e0ee3fdb796e3","","","","","5042",""," ","key"," ","16.66600000000005","500","250","pog","339","2","0","0","0","373","356"
"","psychophysics","110","543206","0.0-110.0","5cac937cd889c700010d7c65","64de7d54bd2e0ee3fdb796e3","","","","","4723",""," ","key"," ","16.66760424028279","500","250","pog","308","2","0","0","0","326","328"
"","psychophysics","111","547036","0.0-111.0","5cac937cd889c700010d7c65","64de7d54bd2e0ee3fdb796e3","","","","","3829",""," ","key"," ","16.666000000000363","500","250","pog","341","2","0","0","0","329","370"
"","psychophysics","112","549536","0.0-112.0","5cac937cd889c700010d7c65","64de7d54bd2e0ee3fdb796e3","","","","","2498",""," ","key"," ","16.665999999999798","500","250","pog","342","2","0","0","0","344","370"
"","psychophysics","113","552075","0.0-113.0","5cac937cd889c700010d7c65","64de7d54bd2e0ee3fdb796e3","","","","","2537",""," ","key"," ","16.6660000000005","500","250","pog","316","2","0","0","0","322","339"
"","psychophysics","114","557738","0.0-114.0","5cac937cd889c700010d7c65","64de7d54bd2e0ee3fdb796e3","","","","","5661",""," ","key"," ","16.66734218289066","500","250","pog","332","2","0","0","0","286","367"
"","psychophysics","115","561206","0.0-115.0","5cac937cd889c700010d7c65","64de7d54bd2e0ee3fdb796e3","","","","","3467",""," ","key"," ","16.66599999999983","500","250","pog","326","2","0","0","0","324","346"
"","psychophysics","116","568869","0.0-116.0","5cac937cd889c700010d7c65","64de7d54bd2e0ee3fdb796e3","","","","","7659",""," ","key"," ","16.666991266375714","500","250","pog","293","2","0","0","0","367","303"
"","psychophysics","117","568938","0.0-117.0","5cac937cd889c700010d7c65","64de7d54bd2e0ee3fdb796e3","","","","","68",""," ","key"," ","16.66599999999744","500","250","pog","324","2","0","0","0","324","342"
"","psychophysics","118","572322","0.0-118.0","5cac937cd889c700010d7c65","64de7d54bd2e0ee3fdb796e3","","","","","3383",""," ","key"," ","16.668252475247925","500","250","pog","357","2","0","0","0","385","378"
"","psychophysics","119","574484","0.0-119.0","5cac937cd889c700010d7c65","64de7d54bd2e0ee3fdb796e3","","","","","2161",""," ","key"," ","16.666000000000167","500","250","pog","320","2","0","0","0","314","345"
"","psychophysics","120","578892","0.0-120.0","5cac937cd889c700010d7c65","64de7d54bd2e0ee3fdb796e3","","","","","4406",""," ","key"," ","16.666000000000086","500","250","pog","355","2","0","0","0","379","373"
"","psychophysics","121","579797","0.0-121.0","5cac937cd889c700010d7c65","64de7d54bd2e0ee3fdb796e3","","","","","902",""," ","key"," ","16.665999999999087","500","250","inst","","","","","","",""
"","psychophysics","122","581419","0.0-122.0","5cac937cd889c700010d7c65","64de7d54bd2e0ee3fdb796e3","","","","","1621",""," ","key"," ","16.66599999999954","500","250","instPz1","25","2","","","","25","50"
"","psychophysics","123","582188","0.0-123.0","5cac937cd889c700010d7c65","64de7d54bd2e0ee3fdb796e3","","","","","767",""," ","key"," ","16.666000000001965","500","250","instPz2","20","2","","","","20","35"
"","psychophysics","124","591200","0.0-124.0","5cac937cd889c700010d7c65","64de7d54bd2e0ee3fdb796e3","","","","","9010",""," ","key"," ","16.666842300556507","500","250","instPz3","75","2","","","","30","100"
"","psychophysics","125","598539","0.0-125.0","5cac937cd889c700010d7c65","64de7d54bd2e0ee3fdb796e3","","","","","7333",""," ","key"," ","16.66703409090908","500","250","instPz4","72","2","","","","30","100"
"","psychophysics","126","599367","0.0-126.0","5cac937cd889c700010d7c65","64de7d54bd2e0ee3fdb796e3","","","","","827",""," ","key"," ","16.665999999999865","500","250","inst","","","","","","",""
"","psychophysics","127","603301","0.0-127.0","5cac937cd889c700010d7c65","64de7d54bd2e0ee3fdb796e3","","","","","3932",""," ","key"," ","16.66793191489377","500","250","pz","34","2","1","","","40","41"
"","psychophysics","128","607911","0.0-128.0","5cac937cd889c700010d7c65","64de7d54bd2e0ee3fdb796e3","","","","","4609",""," ","key"," ","16.66599999999997","500","250","pz","27","2","1","","","43","28"
"","psychophysics","129","610061","0.0-129.0","5cac937cd889c700010d7c65","64de7d54bd2e0ee3fdb796e3","","","","","2148",""," ","key"," ","16.665999999999258","500","250","pz","31","2","1","","","32","39"
"","psychophysics","130","616053","0.0-130.0","5cac937cd889c700010d7c65","64de7d54bd2e0ee3fdb796e3","","","","","5991",""," ","key"," ","16.66726740947075","500","250","pz","40","2","1","","","29","53"
"","psychophysics","131","620332","0.0-131.0","5cac937cd889c700010d7c65","64de7d54bd2e0ee3fdb796e3","","","","","4277",""," ","key"," ","16.665999999999837","500","250","pz","27","2","1","","","44","31"
"","psychophysics","132","623350","0.0-132.0","5cac937cd889c700010d7c65","64de7d54bd2e0ee3fdb796e3","","","","","3016",""," ","key"," ","16.66852777777757","500","250","pz","34","2","1","","","39","42"
"","psychophysics","133","626810","0.0-133.0","5cac937cd889c700010d7c65","64de7d54bd2e0ee3fdb796e3","","","","","3456",""," ","key"," ","16.66599999999983","500","250","pz","35","2","1","","","32","36"
"","psychophysics","134","631440","0.0-134.0","5cac937cd889c700010d7c65","64de7d54bd2e0ee3fdb796e3","","","","","4628",""," ","key"," ","16.665999999999855","500","250","pz","37","2","1","","","51","45"
"","psychophysics","135","634994","0.0-135.0","5cac937cd889c700010d7c65","64de7d54bd2e0ee3fdb796e3","","","","","3553",""," ","key"," ","16.668141509434275","500","250","pz","37","2","1","","","55","46"
"","psychophysics","136","637738","0.0-136.0","5cac937cd889c700010d7c65","64de7d54bd2e0ee3fdb796e3","","","","","2742",""," ","key"," ","16.666000000000277","500","250","pz","45","2","1","","","38","52"
"","psychophysics","137","641367","0.0-137.0","5cac937cd889c700010d7c65","64de7d54bd2e0ee3fdb796e3","","","","","3627",""," ","key"," ","16.666000000000135","500","250","pz","39","2","1","","","35","47"
"","psychophysics","138","644741","0.0-138.0","5cac937cd889c700010d7c65","64de7d54bd2e0ee3fdb796e3","","","","","3373",""," ","key"," ","16.66825247524735","500","250","pz","39","2","1","","","54","52"
"","psychophysics","139","647616","0.0-139.0","5cac937cd889c700010d7c65","64de7d54bd2e0ee3fdb796e3","","","","","2873",""," ","key"," ","16.66600000000033","500","250","pz","33","2","1","","","34","38"
"","psychophysics","140","652445","0.0-140.0","5cac937cd889c700010d7c65","64de7d54bd2e0ee3fdb796e3","","","","","4826",""," ","key"," ","16.666000000000157","500","250","pz","28","2","1","","","52","30"
"","psychophysics","141","655208","0.0-141.0","5cac937cd889c700010d7c65","64de7d54bd2e0ee3fdb796e3","","","","","2761",""," ","key"," ","16.668751515151765","500","250","pz","31","2","1","","","37","40"
"","psychophysics","142","656085","0.0-142.0","5cac937cd889c700010d7c65","64de7d54bd2e0ee3fdb796e3","","","","","875",""," ","key"," ","16.66600000000029","500","250","inst","","","","","","",""
"","psychophysics","143","656824","0.0-143.0","5cac937cd889c700010d7c65","64de7d54bd2e0ee3fdb796e3","","","","","738",""," ","key"," ","16.666000000000086","500","250","instZol1","1.3","","","0","0","-1.3",""
"","psychophysics","144","657536","0.0-144.0","5cac937cd889c700010d7c65","64de7d54bd2e0ee3fdb796e3","","","","","710",""," ","key"," ","16.66600000000241","500","250","instZol2","-2","1","","0","0","2",""
"","psychophysics","145","659720","0.0-145.0","5cac937cd889c700010d7c65","64de7d54bd2e0ee3fdb796e3","","","","","2183",""," ","key"," ","16.666000000000327","500","250","inst","","","","","","",""
"","psychophysics","146","667728","0.0-146.0","5cac937cd889c700010d7c65","64de7d54bd2e0ee3fdb796e3","","","","","null","","null","key","null","16.66694989561571","500","250","zol","-0.10000000000000003","1","1","-4","19","0.4",""
"","psychophysics","147","674237","0.0-147.0","5cac937cd889c700010d7c65","64de7d54bd2e0ee3fdb796e3","","","","","6506",""," ","key"," ","16.667164102564147","500","250","zol","0.31","1","1","9","-3","0.59",""
"","psychophysics","148","679707","0.0-148.0","5cac937cd889c700010d7c65","64de7d54bd2e0ee3fdb796e3","","","","","5468",""," ","key"," ","16.66600000000002","500","250","zol","0.23","1","1","-3","10","0.47",""
"","psychophysics","149","682874","0.0-149.0","5cac937cd889c700010d7c65","64de7d54bd2e0ee3fdb796e3","","","","","3164",""," ","key"," ","16.66840740740755","500","250","zol","0.44999999999999996","1","1","5","27","-0.15",""
"","psychophysics","150","690881","0.0-150.0","5cac937cd889c700010d7c65","64de7d54bd2e0ee3fdb796e3","","","","","null","","null","key","null","16.66599999999993","500","250","zol","0.36","1","1","-22","10","-0.36",""
"","psychophysics","151","695646","0.0-151.0","5cac937cd889c700010d7c65","64de7d54bd2e0ee3fdb796e3","","","","","4762",""," ","key"," ","16.66759298245602","500","250","zol","0.33","1","1","-25","0","0.27",""
"","psychophysics","152","699938","0.0-152.0","5cac937cd889c700010d7c65","64de7d54bd2e0ee3fdb796e3","","","","","4290",""," ","key"," ","16.666000000000043","500","250","zol","0.28","1","1","5","12","-0.58",""
"","psychophysics","153","706237","0.0-153.0","5cac937cd889c700010d7c65","64de7d54bd2e0ee3fdb796e3","","","","","6296",""," ","key"," ","16.667206896551754","500","250","zol","0.31000000000000005","1","1","-29","-24","-0.61",""
"","psychophysics","154","711791","0.0-154.0","5cac937cd889c700010d7c65","64de7d54bd2e0ee3fdb796e3","","","","","5552",""," ","key"," ","16.665999999999894","500","250","zol","0.3400000000000001","1","1","-3","10","-0.34",""
"","psychophysics","155","717326","0.0-155.0","5cac937cd889c700010d7c65","64de7d54bd2e0ee3fdb796e3","","","","","5533",""," ","key"," ","16.66737160120853","500","250","zol","0.17999999999999997","1","1","28","2","0.62",""
"","psychophysics","156","719872","0.0-156.0","5cac937cd889c700010d7c65","64de7d54bd2e0ee3fdb796e3","","","","","2544",""," ","key"," ","16.6660000000005","500","250","zol","0.62","1","1","-4","1","-0.52",""
"","psychophysics","157","724093","0.0-157.0","5cac937cd889c700010d7c65","64de7d54bd2e0ee3fdb796e3","","","","","4218",""," ","key"," ","16.6678055555556","500","250","zol","0.24000000000000002","1","1","23","-17","0.46",""
"","psychophysics","158","728824","0.0-158.0","5cac937cd889c700010d7c65","64de7d54bd2e0ee3fdb796e3","","","","","4729",""," ","key"," ","16.66600000000001","500","250","zol","0.42000000000000004","1","1","-15","0","-0.62",""
"","psychophysics","159","734960","0.0-159.0","5cac937cd889c700010d7c65","64de7d54bd2e0ee3fdb796e3","","","","","6133",""," ","key"," ","16.667237057220838","500","250","zol","0.10000000000000003","1","1","-13","28","0.3",""
"","psychophysics","160","737957","0.0-160.0","5cac937cd889c700010d7c65","64de7d54bd2e0ee3fdb796e3","","","","","2995",""," ","key"," ","16.666000000000203","500","250","zol","0.09000000000000002","1","1","7","7","0.31",""
"","psychophysics","161","738982","0.0-161.0","5cac937cd889c700010d7c65","64de7d54bd2e0ee3fdb796e3","","","","","1024",""," ","key"," ","16.66599999999938","500","250","inst","","","","","","",""
"","psychophysics","162","740254","0.0-162.0","5cac937cd889c700010d7c65","64de7d54bd2e0ee3fdb796e3","","","","","1268",""," ","key"," ","16.66599999999897","500","250","instBr3","40","1","","0","0","40","300"
"","psychophysics","163","740872","0.0-163.0","5cac937cd889c700010d7c65","64de7d54bd2e0ee3fdb796e3","","","","","617",""," ","key"," ","16.66599999999744","500","250","inst","","","","","","",""
"","psychophysics","164","747461","0.0-164.0","5cac937cd889c700010d7c65","64de7d54bd2e0ee3fdb796e3","","","","","6587",""," ","key"," ","16.66715482233487","500","250","br","-6","1","1","-27","25","15","281"
"","psychophysics","165","752965","0.0-165.0","5cac937cd889c700010d7c65","64de7d54bd2e0ee3fdb796e3","","","","","5503",""," ","key"," ","16.66737993920999","500","250","br","-6","1","1","6","-16","17","236"
"","psychophysics","166","758868","0.0-166.0","5cac937cd889c700010d7c65","64de7d54bd2e0ee3fdb796e3","","","","","5901",""," ","key"," ","16.665999999999993","500","250","br","-3","1","1","15","19","27","247"
"","psychophysics","167","763204","0.0-167.0","5cac937cd889c700010d7c65","64de7d54bd2e0ee3fdb796e3","","","","","4334",""," ","key"," ","16.667749999999963","500","250","br","-21","1","1","17","4","-30","217"
"","psychophysics","168","765823","0.0-168.0","5cac937cd889c700010d7c65","64de7d54bd2e0ee3fdb796e3","","","","","2617",""," ","key"," ","16.665999999999677","500","250","br","-22","1","1","21","-22","-26","270"
"","psychophysics","169","771687","0.0-169.0","5cac937cd889c700010d7c65","64de7d54bd2e0ee3fdb796e3","","","","","5863",""," ","key"," ","16.666000000000174","500","250","br","-12","1","1","13","-14","28","277"
"","psychophysics","170","774206","0.0-170.0","5cac937cd889c700010d7c65","64de7d54bd2e0ee3fdb796e3","","","","","2514",""," ","key"," ","16.669026666667","500","250","br","-13","1","1","-10","17","-11","240"
"","psychophysics","171","777937","0.0-171.0","5cac937cd889c700010d7c65","64de7d54bd2e0ee3fdb796e3","","","","","3729",""," ","key"," ","16.666000000000178","500","250","br","-11","1","1","8","6","-6","222"
"","psychophysics","172","781187","0.0-172.0","5cac937cd889c700010d7c65","64de7d54bd2e0ee3fdb796e3","","","","","3249",""," ","key"," ","16.66600000000014","500","250","br","-21","1","1","-20","8","-27","279"
"","psychophysics","173","787673","0.0-173.0","5cac937cd889c700010d7c65","64de7d54bd2e0ee3fdb796e3","","","","","6484",""," ","key"," ","16.667172680412403","500","250","br","-8","1","1","-8","-16","17","218"
"","psychophysics","174","790915","0.0-174.0","5cac937cd889c700010d7c65","64de7d54bd2e0ee3fdb796e3","","","","","3240",""," ","key"," ","16.666000000000302","500","250","br","-13","1","1","-29","6","3","205"
"","psychophysics","175","792682","0.0-175.0","5cac937cd889c700010d7c65","64de7d54bd2e0ee3fdb796e3","","","","","1765",""," ","key"," ","16.66599999999938","500","250","br","-23","1","1","1","-3","-24","213"
"","psychophysics","176","795018","0.0-176.0","5cac937cd889c700010d7c65","64de7d54bd2e0ee3fdb796e3","","","","","2335",""," ","key"," ","16.669266187049878","500","250","br","-14","1","1","30","-24","-7","210"
"","psychophysics","177","797349","0.0-177.0","5cac937cd889c700010d7c65","64de7d54bd2e0ee3fdb796e3","","","","","2330",""," ","key"," ","16.66600000000016","500","250","br","-21","1","1","-4","8","-24","274"
"","psychophysics","178","801178","0.0-178.0","5cac937cd889c700010d7c65","64de7d54bd2e0ee3fdb796e3","","","","","3827",""," ","key"," ","16.665999999999855","500","250","br","-11","1","1","9","-22","9","254"
"","psychophysics","179","802131","0.0-179.0","5cac937cd889c700010d7c65","64de7d54bd2e0ee3fdb796e3","","","","","952",""," ","key"," ","16.665999999999517","500","250","inst","","","","","","",""
"","psychophysics","180","805590","0.0-180.0","5cac937cd889c700010d7c65","64de7d54bd2e0ee3fdb796e3","","","","","3458",""," ","key"," ","16.668198067632478","500","250","instEB1","39","2","","0","0","30","40"
"","psychophysics","181","806235","0.0-181.0","5cac937cd889c700010d7c65","64de7d54bd2e0ee3fdb796e3","","","","","643",""," ","key"," ","16.665999999999798","500","250","instEB2","40","2","","0","0","40","30"
"","psychophysics","182","806918","0.0-182.0","5cac937cd889c700010d7c65","64de7d54bd2e0ee3fdb796e3","","","","","677",""," ","key"," ","16.66600000000035","500","250","instEB3","45","2","","0","0","45","27"
"","psychophysics","183","807866","0.0-183.0","5cac937cd889c700010d7c65","64de7d54bd2e0ee3fdb796e3","","","","","947",""," ","key"," ","16.665999999999517","500","250","instEB4","30","2","","0","0","30","40"
"","psychophysics","184","808887","0.0-184.0","5cac937cd889c700010d7c65","64de7d54bd2e0ee3fdb796e3","","","","","1020",""," ","key"," ","16.66599999999887","500","250","inst","","","","","","",""
"","psychophysics","185","814192","0.0-185.0","5cac937cd889c700010d7c65","64de7d54bd2e0ee3fdb796e3","","","","","5300",""," ","key"," ","16.667432176656153","500","250","eb","42","2","","0","0","46","33"
"","psychophysics","186","818389","0.0-186.0","5cac937cd889c700010d7c65","64de7d54bd2e0ee3fdb796e3","","","","","4195",""," ","key"," ","16.665999999999872","500","250","eb","43","2","","0","0","33","38"
"","psychophysics","187","822595","0.0-187.0","5cac937cd889c700010d7c65","64de7d54bd2e0ee3fdb796e3","","","","","4204",""," ","key"," ","16.666000000000338","500","250","eb","57","2","","0","0","39","50"
"","psychophysics","188","826128","0.0-188.0","5cac937cd889c700010d7c65","64de7d54bd2e0ee3fdb796e3","","","","","3531",""," ","key"," ","16.6681563981044","500","250","eb","34","2","","0","0","24","27"
"","psychophysics","189","829740","0.0-189.0","5cac937cd889c700010d7c65","64de7d54bd2e0ee3fdb796e3","","","","","3610",""," ","key"," ","16.666000000000135","500","250","eb","32","2","","0","0","32","26"
"","psychophysics","190","836997","0.0-190.0","5cac937cd889c700010d7c65","64de7d54bd2e0ee3fdb796e3","","","","","7255",""," ","key"," ","16.66704608294936","500","250","eb","32","2","","0","0","51","26"
"","psychophysics","191","840993","0.0-191.0","5cac937cd889c700010d7c65","64de7d54bd2e0ee3fdb796e3","","","","","3994",""," ","key"," ","16.665999999999997","500","250","eb","36","2","","0","0","41","30"
"","psychophysics","192","845407","0.0-192.0","5cac937cd889c700010d7c65","64de7d54bd2e0ee3fdb796e3","","","","","4412",""," ","key"," ","16.66772348484841","500","250","eb","59","2","","0","0","38","52"
"","psychophysics","193","848516","0.0-193.0","5cac937cd889c700010d7c65","64de7d54bd2e0ee3fdb796e3","","","","","3107",""," ","key"," ","16.665999999999798","500","250","eb","37","2","","0","0","34","31"
"","psychophysics","194","852868","0.0-194.0","5cac937cd889c700010d7c65","64de7d54bd2e0ee3fdb796e3","","","","","4350",""," ","key"," ","16.666000000000125","500","250","eb","59","2","","0","0","41","53"
"","psychophysics","195","857067","0.0-195.0","5cac937cd889c700010d7c65","64de7d54bd2e0ee3fdb796e3","","","","","4197",""," ","key"," ","16.667808764940222","500","250","eb","44","2","","0","0","50","35"
"","psychophysics","196","860309","0.0-196.0","5cac937cd889c700010d7c65","64de7d54bd2e0ee3fdb796e3","","","","","3240",""," ","key"," ","16.66599999999954","500","250","eb","45","2","","0","0","41","40"
"","psychophysics","197","862890","0.0-197.0","5cac937cd889c700010d7c65","64de7d54bd2e0ee3fdb796e3","","","","","2579",""," ","key"," ","16.66599999999933","500","250","eb","35","2","","0","0","26","31"
"","psychophysics","198","865892","0.0-198.0","5cac937cd889c700010d7c65","64de7d54bd2e0ee3fdb796e3","","","","","2999",""," ","key"," ","16.66854189944131","500","250","eb","37","2","","0","0","39","29"
"","psychophysics","199","868054","0.0-199.0","5cac937cd889c700010d7c65","64de7d54bd2e0ee3fdb796e3","","","","","2158",""," ","key"," ","16.666000000000167","500","250","eb","35","2","","0","0","37","27"
"","psychophysics","200","869338","0.0-200.0","5cac937cd889c700010d7c65","64de7d54bd2e0ee3fdb796e3","","","","","1280",""," ","key"," ","16.6660000000005","500","250","inst","","","","","","",""
"","psychophysics","201","870276","0.0-201.0","5cac937cd889c700010d7c65","64de7d54bd2e0ee3fdb796e3","","","","","935",""," ","key"," ","16.666000000000086","500","250","instPog0","190","1","","0","0","190","160"
"","psychophysics","202","871310","0.0-202.0","5cac937cd889c700010d7c65","64de7d54bd2e0ee3fdb796e3","","","","","1032",""," ","key"," ","16.666000000000256","500","250","instPog1","190","1","","0","0","190","160"
"","psychophysics","203","872980","0.0-203.0","5cac937cd889c700010d7c65","64de7d54bd2e0ee3fdb796e3","","","","","1665",""," ","key"," ","16.666000000000086","500","250","instPog2","160","1","","0","0","160","160"
"","psychophysics","204","873840","0.0-204.0","5cac937cd889c700010d7c65","64de7d54bd2e0ee3fdb796e3","","","","","859",""," ","key"," ","16.67507999999914","500","250","inst","","","","","","",""
"","psychophysics","205","876972","0.0-205.0","5cac937cd889c700010d7c65","64de7d54bd2e0ee3fdb796e3","","","","","3128",""," ","key"," ","16.666000000000086","500","250","pog","153","1","1","0","0","141","142"
"","psychophysics","206","883160","0.0-206.0","5cac937cd889c700010d7c65","64de7d54bd2e0ee3fdb796e3","","","","","6184",""," ","key"," ","16.666000000000114","500","250","pog","200","1","1","0","0","170","198"
"","psychophysics","207","886404","0.0-207.0","5cac937cd889c700010d7c65","64de7d54bd2e0ee3fdb796e3","","","","","3242",""," ","key"," ","16.668345360824667","500","250","pog","203","1","1","0","0","193","198"
"","psychophysics","208","890985","0.0-208.0","5cac937cd889c700010d7c65","64de7d54bd2e0ee3fdb796e3","","","","","4576",""," ","key"," ","16.665999999999777","500","250","pog","146","1","1","0","0","110","147"
"","psychophysics","209","893231","0.0-209.0","5cac937cd889c700010d7c65","64de7d54bd2e0ee3fdb796e3","","","","","2245",""," ","key"," ","16.665999999999848","500","250","pog","136","1","1","0","0","128","137"
"","psychophysics","210","896499","0.0-210.0","5cac937cd889c700010d7c65","64de7d54bd2e0ee3fdb796e3","","","","","3266",""," ","key"," ","16.66832820512832","500","250","pog","200","1","1","0","0","212","180"
"","psychophysics","211","902200","0.0-211.0","5cac937cd889c700010d7c65","64de7d54bd2e0ee3fdb796e3","","","","","5699",""," ","key"," ","16.666000000000086","500","250","pog","163","1","1","0","0","213","128"
"","psychophysics","212","908316","0.0-212.0","5cac937cd889c700010d7c65","64de7d54bd2e0ee3fdb796e3","","","","","6114",""," ","key"," ","16.667243169398937","500","250","pog","208","1","1","0","0","144","200"
"","psychophysics","213","913601","0.0-213.0","5cac937cd889c700010d7c65","64de7d54bd2e0ee3fdb796e3","","","","","5283",""," ","key"," ","16.667436708860862","500","250","pog","169","1","1","0","0","201","151"
"","psychophysics","214","920915","0.0-214.0","5cac937cd889c700010d7c65","64de7d54bd2e0ee3fdb796e3","","","","","7312",""," ","key"," ","16.665999999999965","500","250","pog","189","1","1","0","0","129","177"
"","psychophysics","215","925228","0.0-215.0","5cac937cd889c700010d7c65","64de7d54bd2e0ee3fdb796e3","","","","","4311",""," ","key"," ","16.66776356589123","500","250","pog","172","1","1","0","0","138","163"
"","psychophysics","216","930346","0.0-216.0","5cac937cd889c700010d7c65","64de7d54bd2e0ee3fdb796e3","","","","","5116",""," ","key"," ","16.66600000000029","500","250","pog","181","1","1","0","0","133","177"
"","psychophysics","217","937750","0.0-217.0","5cac937cd889c700010d7c65","64de7d54bd2e0ee3fdb796e3","","","","","7403",""," ","key"," ","16.667024830699706","500","250","pog","195","1","1","0","0","105","194"
"","psychophysics","218","941377","0.0-218.0","5cac937cd889c700010d7c65","64de7d54bd2e0ee3fdb796e3","","","","","3626",""," ","key"," ","16.665999999999986","500","250","pog","193","1","1","0","0","189","186"
"","psychophysics","219","944867","0.0-219.0","5cac937cd889c700010d7c65","64de7d54bd2e0ee3fdb796e3","","","","","3489",""," ","key"," ","16.668187500000037","500","250","pog","158","1","1","0","0","152","156"
