"success","trial_type","trial_index","time_elapsed","internal_node_id","pid","sid","timeout","failed_images","failed_audio","failed_video","rt","stimulus","response","response_type","key_press","avg_frame_time","center_x","center_y","task","resp","version","block","start","jitterX","jitterY","parA"
"true","fullscreen","0","3213","0.0-0.0","5ffcb14c1355de105db73934","64de7c1dc02bea47129e17e3","","","","","","","","","","","","","","","","","","","",""
"true","preload","1","3307","0.0-1.0","5ffcb14c1355de105db73934","64de7c1dc02bea47129e17e3","false","[]","[]","[]","","","","","","","","","","","","","","","",""
"","html-button-response","2","4562","0.0-2.0","5ffcb14c1355de105db73934","64de7c1dc02bea47129e17e3","","","","","1254","Please Make Sure Your Audio Is On.","0","","","","","","","","","","","","",""
"","psychophysics","3","10704","0.0-3.0","5ffcb14c1355de105db73934","64de7c1dc02bea47129e17e3","","","","","6139",""," ","key"," ","6.944632768361582","960","250","","","","","","","",""
"","psychophysics","4","13753","0.0-4.0","5ffcb14c1355de105db73934","64de7c1dc02bea47129e17e3","","","","","3049",""," ","key"," ","6.945205479452055","500","250","inst","","","","","","",""
"","psychophysics","5","17507","0.0-5.0","5ffcb14c1355de105db73934","64de7c1dc02bea47129e17e3","","","","","3752",""," ","key"," ","6.944341372912802","500","250","sample0","","","","","","",""
"","psychophysics","6","20480","0.0-6.0","5ffcb14c1355de105db73934","64de7c1dc02bea47129e17e3","","","","","2970",""," ","key"," ","6.943793911007026","500","250","sample1","","","","","","",""
"","psychophysics","7","35447","0.0-7.0","5ffcb14c1355de105db73934","64de7c1dc02bea47129e17e3","","","","","14963",""," ","key"," ","6.944779582366589","500","250","sample2","100","","","","","",""
"","psychophysics","8","42464","0.0-8.0","5ffcb14c1355de105db73934","64de7c1dc02bea47129e17e3","","","","","7016",""," ","key"," ","6.944499504459861","500","250","sample3","100","","","","","",""
"","psychophysics","9","62784","0.0-9.0","5ffcb14c1355de105db73934","64de7c1dc02bea47129e17e3","","","","","20319",""," ","key"," ","6.944273504273505","500","250","sample4","100","","","","","",""
"","psychophysics","10","66173","0.0-10.0","5ffcb14c1355de105db73934","64de7c1dc02bea47129e17e3","","","","","3387",""," ","key"," ","6.944558521560575","500","250","sample5","","","","","","",""
"","psychophysics","11","77398","0.0-11.0","5ffcb14c1355de105db73934","64de7c1dc02bea47129e17e3","","","","","11223",""," ","key"," ","6.944925742574258","500","250","sample6","502","","","","","",""
"","psychophysics","12","84400","0.0-12.0","5ffcb14c1355de105db73934","64de7c1dc02bea47129e17e3","","","","","7000",""," ","key"," ","6.945382323733863","500","250","inst","","","","","","",""
"","psychophysics","13","88571","0.0-13.0","5ffcb14c1355de105db73934","64de7c1dc02bea47129e17e3","","","","","4170",""," ","key"," ","6.943333333333333","500","250","inst","","","","","","",""
"","psychophysics","14","94384","0.0-14.0","5ffcb14c1355de105db73934","64de7c1dc02bea47129e17e3","","","","","5812",""," ","key"," ","6.944976076555024","500","250","inst","","","","","","",""
"","psychophysics","15","96478","0.0-15.0","5ffcb14c1355de105db73934","64de7c1dc02bea47129e17e3","","","","","2093",""," ","key"," ","6.943333333333333","500","250","inst","","","","","","",""
"","psychophysics","16","98127","0.0-16.0","5ffcb14c1355de105db73934","64de7c1dc02bea47129e17e3","","","","","1649",""," ","key"," ","6.9451476793248945","500","250","inst","","","","","","",""
"","psychophysics","17","101396","0.0-17.0","5ffcb14c1355de105db73934","64de7c1dc02bea47129e17e3","","","","","3268",""," ","key"," ","6.9445628997867805","500","250","instEB0","40","1","","40","0","0","40"
"","psychophysics","18","110265","0.0-18.0","5ffcb14c1355de105db73934","64de7c1dc02bea47129e17e3","","","","","8868",""," ","key"," ","6.94435736677116","500","250","instEB1","30","1","","40","0","0","30"
"","psychophysics","19","122573","0.0-19.0","5ffcb14c1355de105db73934","64de7c1dc02bea47129e17e3","","","","","12304",""," ","key"," ","6.944695259593679","500","250","instEB2","40","1","","30","0","0","40"
"","psychophysics","20","136306","0.0-20.0","5ffcb14c1355de105db73934","64de7c1dc02bea47129e17e3","","","","","13732",""," ","key"," ","6.944331983805668","500","250","instEB3","42","1","","27","0","0","45"
"","psychophysics","21","149708","0.0-21.0","5ffcb14c1355de105db73934","64de7c1dc02bea47129e17e3","","","","","13402",""," ","key"," ","6.944530844997408","500","250","instEB4","28","1","","40","0","0","30"
"","psychophysics","22","152741","0.0-22.0","5ffcb14c1355de105db73934","64de7c1dc02bea47129e17e3","","","","","3032",""," ","key"," ","6.944954128440367","500","250","inst","","","","","","",""
"","psychophysics","23","157708","0.0-23.0","5ffcb14c1355de105db73934","64de7c1dc02bea47129e17e3","","","","","4964",""," ","key"," ","6.943977591036415","500","250","eb","34","1","","38","0","0","37"
"","psychophysics","24","164302","0.0-24.0","5ffcb14c1355de105db73934","64de7c1dc02bea47129e17e3","","","","","6594",""," ","key"," ","6.944151738672287","500","250","eb","50","1","","28","0","0","53"
"","psychophysics","25","170005","0.0-25.0","5ffcb14c1355de105db73934","64de7c1dc02bea47129e17e3","","","","","5701",""," ","key"," ","6.945121951219512","500","250","eb","25","1","","35","0","0","25"
"","psychophysics","26","175566","0.0-26.0","5ffcb14c1355de105db73934","64de7c1dc02bea47129e17e3","","","","","5560",""," ","key"," ","6.94375","500","250","eb","33","1","","24","0","0","36"
"","psychophysics","27","182884","0.0-27.0","5ffcb14c1355de105db73934","64de7c1dc02bea47129e17e3","","","","","7317",""," ","key"," ","6.944866920152092","500","250","eb","28","1","","52","0","0","30"
"","psychophysics","28","187373","0.0-28.0","5ffcb14c1355de105db73934","64de7c1dc02bea47129e17e3","","","","","4488",""," ","key"," ","6.944272445820434","500","250","eb","27","1","","27","0","0","28"
"","psychophysics","29","194650","0.0-29.0","5ffcb14c1355de105db73934","64de7c1dc02bea47129e17e3","","","","","7275",""," ","key"," ","6.944603629417383","500","250","eb","29","1","","47","0","0","30"
"","psychophysics","30","199357","0.0-30.0","5ffcb14c1355de105db73934","64de7c1dc02bea47129e17e3","","","","","4705",""," ","key"," ","6.943786982248521","500","250","eb","34","1","","24","0","0","34"
"","psychophysics","31","206042","0.0-31.0","5ffcb14c1355de105db73934","64de7c1dc02bea47129e17e3","","","","","6683",""," ","key"," ","6.944906444906445","500","250","eb","40","1","","49","0","0","42"
"","psychophysics","32","211920","0.0-32.0","5ffcb14c1355de105db73934","64de7c1dc02bea47129e17e3","","","","","5876",""," ","key"," ","6.944378698224852","500","250","eb","49","1","","38","0","0","52"
"","psychophysics","33","217436","0.0-33.0","5ffcb14c1355de105db73934","64de7c1dc02bea47129e17e3","","","","","5514",""," ","key"," ","6.944584382871536","500","250","eb","24","1","","45","0","0","27"
"","psychophysics","34","223125","0.0-34.0","5ffcb14c1355de105db73934","64de7c1dc02bea47129e17e3","","","","","5687",""," ","key"," ","6.944987775061125","500","250","eb","47","1","","52","0","0","51"
"","psychophysics","35","227534","0.0-35.0","5ffcb14c1355de105db73934","64de7c1dc02bea47129e17e3","","","","","4409",""," ","key"," ","6.943217665615142","500","250","eb","47","1","","54","0","0","47"
"","psychophysics","36","234002","0.0-36.0","5ffcb14c1355de105db73934","64de7c1dc02bea47129e17e3","","","","","6467",""," ","key"," ","6.945161290322581","500","250","eb","41","1","","33","0","0","44"
"","psychophysics","37","241704","0.0-37.0","5ffcb14c1355de105db73934","64de7c1dc02bea47129e17e3","","","","","7700",""," ","key"," ","6.944043321299639","500","250","eb","25","1","","50","0","0","25"
"","psychophysics","38","246055","0.0-38.0","5ffcb14c1355de105db73934","64de7c1dc02bea47129e17e3","","","","","4349",""," ","key"," ","6.944089456869009","500","250","inst","","","","","","",""
"","psychophysics","39","251883","0.0-39.0","5ffcb14c1355de105db73934","64de7c1dc02bea47129e17e3","","","","","5827",""," ","key"," ","6.945107398568019","500","250","instZol0","0","","","0","0","0",""
"","psychophysics","40","265077","0.0-40.0","5ffcb14c1355de105db73934","64de7c1dc02bea47129e17e3","","","","","13192",""," ","key"," ","6.944181147972617","500","250","instZol1","-0.09999999999999998","","","-1.3","0","0",""
"","psychophysics","41","285195","0.0-41.0","5ffcb14c1355de105db73934","64de7c1dc02bea47129e17e3","","","","","20115",""," ","key"," ","6.9444060773480665","500","250","instZol2","2.2000000000000015","1","","2","0","0",""
"","psychophysics","42","286880","0.0-42.0","5ffcb14c1355de105db73934","64de7c1dc02bea47129e17e3","","","","","1683",""," ","key"," ","6.9421487603305785","500","250","inst","","","","","","",""
"","psychophysics","43","294882","0.0-43.0","5ffcb14c1355de105db73934","64de7c1dc02bea47129e17e3","","","","","null","","null","key","null","6.944396177237185","500","250","zol","2.1600000000000006","1","0","-0.36","-3","2",""
"","psychophysics","44","300681","0.0-44.0","5ffcb14c1355de105db73934","64de7c1dc02bea47129e17e3","","","","","5798",""," ","key"," ","6.94484412470024","500","250","zol","1.9900000000000007","1","0","-0.69","-13","-26",""
"","psychophysics","45","306067","0.0-45.0","5ffcb14c1355de105db73934","64de7c1dc02bea47129e17e3","","","","","5384",""," ","key"," ","6.944516129032258","500","250","zol","1.4600000000000002","1","0","0.14","-21","-10",""
"","psychophysics","46","311274","0.0-46.0","5ffcb14c1355de105db73934","64de7c1dc02bea47129e17e3","","","","","5204",""," ","key"," ","6.945187165775401","500","250","zol","2.210000000000001","1","0","-0.41","-24","-4",""
"","psychophysics","47","319275","0.0-47.0","5ffcb14c1355de105db73934","64de7c1dc02bea47129e17e3","","","","","null","","null","key","null","6.945264986967854","500","250","zol","1.1400000000000001","1","0","-0.64","17","-15",""
"","psychophysics","48","323465","0.0-48.0","5ffcb14c1355de105db73934","64de7c1dc02bea47129e17e3","","","","","4188",""," ","key"," ","6.9436152570480925","500","250","zol","1.8800000000000006","1","0","-0.58","-14","7",""
"","psychophysics","49","327596","0.0-49.0","5ffcb14c1355de105db73934","64de7c1dc02bea47129e17e3","","","","","4129",""," ","key"," ","6.944444444444445","500","250","zol","1.4","1","0","-0.4","5","11",""
"","psychophysics","50","333766","0.0-50.0","5ffcb14c1355de105db73934","64de7c1dc02bea47129e17e3","","","","","6168",""," ","key"," ","6.944757609921083","500","250","zol","0.91","1","0","-0.41","-12","15",""
"","psychophysics","51","338556","0.0-51.0","5ffcb14c1355de105db73934","64de7c1dc02bea47129e17e3","","","","","4788",""," ","key"," ","6.944847605224964","500","250","zol","1.6900000000000004","1","0","0.11","12","8",""
"","psychophysics","52","343209","0.0-52.0","5ffcb14c1355de105db73934","64de7c1dc02bea47129e17e3","","","","","4651",""," ","key"," ","6.943198804185351","500","250","zol","1.6900000000000004","1","0","-0.59","-8","5",""
"","psychophysics","53","347078","0.0-53.0","5ffcb14c1355de105db73934","64de7c1dc02bea47129e17e3","","","","","3867",""," ","key"," ","6.946043165467626","500","250","zol","2.0500000000000007","1","0","0.45","4","-20",""
"","psychophysics","54","350539","0.0-54.0","5ffcb14c1355de105db73934","64de7c1dc02bea47129e17e3","","","","","3459",""," ","key"," ","6.943661971830986","500","250","zol","2.1100000000000008","1","0","-0.01","17","7",""
"","psychophysics","55","355008","0.0-55.0","5ffcb14c1355de105db73934","64de7c1dc02bea47129e17e3","","","","","4464",""," ","key"," ","6.944012441679627","500","250","zol","1.8800000000000008","1","0","-0.68","23","14",""
"","psychophysics","56","358620","0.0-56.0","5ffcb14c1355de105db73934","64de7c1dc02bea47129e17e3","","","","","3610",""," ","key"," ","6.944123314065511","500","250","zol","2.020000000000001","1","0","-0.32","12","26",""
"","psychophysics","57","361156","0.0-57.0","5ffcb14c1355de105db73934","64de7c1dc02bea47129e17e3","","","","","2533",""," ","key"," ","6.945054945054945","500","250","zol","1.9100000000000008","1","0","-0.41","-4","24",""
"","psychophysics","58","361995","0.0-58.0","5ffcb14c1355de105db73934","64de7c1dc02bea47129e17e3","","","","","838",""," ","key"," ","6.941666666666666","500","250","inst","","","","","","",""
"","psychophysics","59","372496","0.0-59.0","5ffcb14c1355de105db73934","64de7c1dc02bea47129e17e3","","","","","10499",""," ","key"," ","6.945069490403706","500","250","instPog0","340","2","","370","0","0","340"
"","psychophysics","60","381314","0.0-60.0","5ffcb14c1355de105db73934","64de7c1dc02bea47129e17e3","","","","","8817",""," ","key"," ","6.944050433412135","500","250","instPog1","348","2","","370","0","0","340"
"","psychophysics","61","384509","0.0-61.0","5ffcb14c1355de105db73934","64de7c1dc02bea47129e17e3","","","","","3193",""," ","key"," ","6.94553376906318","500","250","instPog2","326","2","","340","0","0","340"
"","psychophysics","62","385466","0.0-62.0","5ffcb14c1355de105db73934","64de7c1dc02bea47129e17e3","","","","","957",""," ","key"," ","6.9416058394160585","500","250","inst","","","","","","",""
"","psychophysics","63","389928","0.0-63.0","5ffcb14c1355de105db73934","64de7c1dc02bea47129e17e3","","","","","4460",""," ","key"," ","6.943837753510141","500","250","pog","343","2","0","289","0","0","362"
"","psychophysics","64","392065","0.0-64.0","5ffcb14c1355de105db73934","64de7c1dc02bea47129e17e3","","","","","2135",""," ","key"," ","6.944625407166124","500","250","pog","318","2","0","324","0","0","339"
"","psychophysics","65","395494","0.0-65.0","5ffcb14c1355de105db73934","64de7c1dc02bea47129e17e3","","","","","3427",""," ","key"," ","6.9452332657200815","500","250","pog","348","2","0","360","0","0","367"
"","psychophysics","66","399517","0.0-66.0","5ffcb14c1355de105db73934","64de7c1dc02bea47129e17e3","","","","","4021",""," ","key"," ","6.944636678200692","500","250","pog","289","2","0","345","0","0","305"
"","psychophysics","67","403754","0.0-67.0","5ffcb14c1355de105db73934","64de7c1dc02bea47129e17e3","","","","","4235",""," ","key"," ","6.944170771756979","500","250","pog","292","2","0","360","0","0","308"
"","psychophysics","68","407314","0.0-68.0","5ffcb14c1355de105db73934","64de7c1dc02bea47129e17e3","","","","","3559",""," ","key"," ","6.943359375","500","250","pog","347","2","0","381","0","0","367"
"","psychophysics","69","411197","0.0-69.0","5ffcb14c1355de105db73934","64de7c1dc02bea47129e17e3","","","","","3881",""," ","key"," ","6.944444444444445","500","250","pog","287","2","0","321","0","0","311"
"","psychophysics","70","414914","0.0-70.0","5ffcb14c1355de105db73934","64de7c1dc02bea47129e17e3","","","","","3716",""," ","key"," ","6.9456928838951315","500","250","pog","322","2","0","366","0","0","335"
"","psychophysics","71","417592","0.0-71.0","5ffcb14c1355de105db73934","64de7c1dc02bea47129e17e3","","","","","2677",""," ","key"," ","6.942857142857143","500","250","pog","355","2","0","389","0","0","371"
"","psychophysics","72","420264","0.0-72.0","5ffcb14c1355de105db73934","64de7c1dc02bea47129e17e3","","","","","2670",""," ","key"," ","6.9453125","500","250","pog","308","2","0","324","0","0","333"
"","psychophysics","73","423488","0.0-73.0","5ffcb14c1355de105db73934","64de7c1dc02bea47129e17e3","","","","","3223",""," ","key"," ","6.943844492440605","500","250","pog","299","2","0","311","0","0","321"
"","psychophysics","74","426827","0.0-74.0","5ffcb14c1355de105db73934","64de7c1dc02bea47129e17e3","","","","","3338",""," ","key"," ","6.945833333333334","500","250","pog","290","2","0","332","0","0","310"
"","psychophysics","75","430004","0.0-75.0","5ffcb14c1355de105db73934","64de7c1dc02bea47129e17e3","","","","","3174",""," ","key"," ","6.942982456140351","500","250","pog","331","2","0","373","0","0","359"
"","psychophysics","76","434280","0.0-76.0","5ffcb14c1355de105db73934","64de7c1dc02bea47129e17e3","","","","","4274",""," ","key"," ","6.944715447154471","500","250","pog","328","2","0","372","0","0","353"
"","psychophysics","77","438493","0.0-77.0","5ffcb14c1355de105db73934","64de7c1dc02bea47129e17e3","","","","","4212",""," ","key"," ","6.9438943894389435","500","250","pog","340","2","0","334","0","0","357"
"","psychophysics","78","439778","0.0-78.0","5ffcb14c1355de105db73934","64de7c1dc02bea47129e17e3","","","","","1284",""," ","key"," ","6.945652173913044","500","250","inst","","","","","","",""
"","psychophysics","79","441539","0.0-79.0","5ffcb14c1355de105db73934","64de7c1dc02bea47129e17e3","","","","","1760",""," ","key"," ","6.944444444444445","500","250","instPzPre","50","0","","50","","","50"
"","psychophysics","80","444194","0.0-80.0","5ffcb14c1355de105db73934","64de7c1dc02bea47129e17e3","","","","","2654",""," ","key"," ","6.945026178010472","500","250","instPz0","50","2","","50","","","50"
"","psychophysics","81","456955","0.0-81.0","5ffcb14c1355de105db73934","64de7c1dc02bea47129e17e3","","","","","12759",""," ","key"," ","6.944444444444445","500","250","instPz1","46","2","","25","","","50"
"","psychophysics","82","464007","0.0-82.0","5ffcb14c1355de105db73934","64de7c1dc02bea47129e17e3","","","","","7051",""," ","key"," ","6.944827586206896","500","250","instPz2","33","2","","20","","","35"
"","psychophysics","83","479011","0.0-83.0","5ffcb14c1355de105db73934","64de7c1dc02bea47129e17e3","","","","","15000",""," ","key"," ","6.957308584686775","500","250","instPz3","30","2","","30","","","100"
"","psychophysics","84","486355","0.0-84.0","5ffcb14c1355de105db73934","64de7c1dc02bea47129e17e3","","","","","7343",""," ","key"," ","6.944181646168401","500","250","instPz4","59","2","","30","","","100"
"","psychophysics","85","487549","0.0-85.0","5ffcb14c1355de105db73934","64de7c1dc02bea47129e17e3","","","","","1192",""," ","key"," ","6.947058823529412","500","250","inst","","","","","","",""
"","psychophysics","86","492124","0.0-86.0","5ffcb14c1355de105db73934","64de7c1dc02bea47129e17e3","","","","","4574",""," ","key"," ","6.943768996960486","500","250","pz","36","2","0","35","","","46"
"","psychophysics","87","493258","0.0-87.0","5ffcb14c1355de105db73934","64de7c1dc02bea47129e17e3","","","","","1133",""," ","key"," ","6.9447852760736195","500","250","pz","39","2","0","40","","","41"
"","psychophysics","88","494071","0.0-88.0","5ffcb14c1355de105db73934","64de7c1dc02bea47129e17e3","","","","","812",""," ","key"," ","6.939655172413793","500","250","pz","34","2","0","34","","","44"
"","psychophysics","89","500323","0.0-89.0","5ffcb14c1355de105db73934","64de7c1dc02bea47129e17e3","","","","","6250",""," ","key"," ","6.945494994438265","500","250","pz","22","2","0","52","","","32"
"","psychophysics","90","503781","0.0-90.0","5ffcb14c1355de105db73934","64de7c1dc02bea47129e17e3","","","","","3457",""," ","key"," ","6.943661971830986","500","250","pz","37","2","0","37","","","50"
"","psychophysics","91","506367","0.0-91.0","5ffcb14c1355de105db73934","64de7c1dc02bea47129e17e3","","","","","2584",""," ","key"," ","6.943396226415095","500","250","pz","33","2","0","30","","","51"
"","psychophysics","92","510920","0.0-92.0","5ffcb14c1355de105db73934","64de7c1dc02bea47129e17e3","","","","","4550",""," ","key"," ","6.9450381679389315","500","250","pz","25","2","0","45","","","32"
"","psychophysics","93","512858","0.0-93.0","5ffcb14c1355de105db73934","64de7c1dc02bea47129e17e3","","","","","1938",""," ","key"," ","6.942446043165468","500","250","pz","21","2","0","22","","","29"
"","psychophysics","94","516048","0.0-94.0","5ffcb14c1355de105db73934","64de7c1dc02bea47129e17e3","","","","","3189",""," ","key"," ","6.945414847161572","500","250","pz","21","2","0","25","","","28"
"","psychophysics","95","519942","0.0-95.0","5ffcb14c1355de105db73934","64de7c1dc02bea47129e17e3","","","","","3894",""," ","key"," ","6.944642857142857","500","250","pz","38","2","0","52","","","45"
"","psychophysics","96","524057","0.0-96.0","5ffcb14c1355de105db73934","64de7c1dc02bea47129e17e3","","","","","4113",""," ","key"," ","6.944256756756757","500","250","pz","29","2","0","20","","","53"
"","psychophysics","97","525318","0.0-97.0","5ffcb14c1355de105db73934","64de7c1dc02bea47129e17e3","","","","","1260",""," ","key"," ","6.944444444444445","500","250","pz","31","2","0","28","","","53"
"","psychophysics","98","528587","0.0-98.0","5ffcb14c1355de105db73934","64de7c1dc02bea47129e17e3","","","","","3269",""," ","key"," ","6.94468085106383","500","250","pz","39","2","0","56","","","50"
"","psychophysics","99","532830","0.0-99.0","5ffcb14c1355de105db73934","64de7c1dc02bea47129e17e3","","","","","4241",""," ","key"," ","6.944262295081967","500","250","pz","27","2","0","59","","","28"
"","psychophysics","100","534525","0.0-100.0","5ffcb14c1355de105db73934","64de7c1dc02bea47129e17e3","","","","","1693",""," ","key"," ","6.94238683127572","500","250","pz","23","2","0","27","","","34"
"","psychophysics","101","535471","0.0-101.0","5ffcb14c1355de105db73934","64de7c1dc02bea47129e17e3","","","","","946",""," ","key"," ","6.948148148148148","500","250","inst","","","","","","",""
"","psychophysics","102","538536","0.0-102.0","5ffcb14c1355de105db73934","64de7c1dc02bea47129e17e3","","","","","3064",""," ","key"," ","6.9433106575963714","500","250","instBr0","0","","","0","0","0","300"
"","psychophysics","103","545690","0.0-103.0","5ffcb14c1355de105db73934","64de7c1dc02bea47129e17e3","","","","","7151",""," ","key"," ","6.944606413994169","500","250","instBr1","4","","","-40","0","0","300"
"","psychophysics","104","553510","0.0-104.0","5ffcb14c1355de105db73934","64de7c1dc02bea47129e17e3","","","","","7819",""," ","key"," ","6.9448888888888884","500","250","instBr3","-20","1","","40","0","0","300"
"","psychophysics","105","554345","0.0-105.0","5ffcb14c1355de105db73934","64de7c1dc02bea47129e17e3","","","","","835",""," ","key"," ","6.9411764705882355","500","250","inst","","","","","","",""
"","psychophysics","106","558454","0.0-106.0","5ffcb14c1355de105db73934","64de7c1dc02bea47129e17e3","","","","","4107",""," ","key"," ","6.944162436548224","500","250","br","-24","1","0","2","1","-26","250"
"","psychophysics","107","561161","0.0-107.0","5ffcb14c1355de105db73934","64de7c1dc02bea47129e17e3","","","","","2706",""," ","key"," ","6.946015424164524","500","250","br","-19","1","0","23","-23","15","255"
"","psychophysics","108","564426","0.0-108.0","5ffcb14c1355de105db73934","64de7c1dc02bea47129e17e3","","","","","3264",""," ","key"," ","6.9445628997867805","500","250","br","-15","1","0","11","27","8","221"
"","psychophysics","109","566636","0.0-109.0","5ffcb14c1355de105db73934","64de7c1dc02bea47129e17e3","","","","","2209",""," ","key"," ","6.946372239747634","500","250","br","-14","1","0","23","-21","-4","263"
"","psychophysics","110","568717","0.0-110.0","5ffcb14c1355de105db73934","64de7c1dc02bea47129e17e3","","","","","2078",""," ","key"," ","6.94314381270903","500","250","br","-17","1","0","15","11","10","212"
"","psychophysics","111","572378","0.0-111.0","5ffcb14c1355de105db73934","64de7c1dc02bea47129e17e3","","","","","3660",""," ","key"," ","6.944866920152092","500","250","br","-20","1","0","-13","-15","8","208"
"","psychophysics","112","573976","0.0-112.0","5ffcb14c1355de105db73934","64de7c1dc02bea47129e17e3","","","","","1596",""," ","key"," ","6.943231441048035","500","250","br","-27","1","0","-7","11","-21","210"
"","psychophysics","113","576831","0.0-113.0","5ffcb14c1355de105db73934","64de7c1dc02bea47129e17e3","","","","","2854",""," ","key"," ","6.943902439024391","500","250","br","-24","1","0","-6","17","10","298"
"","psychophysics","114","578855","0.0-114.0","5ffcb14c1355de105db73934","64de7c1dc02bea47129e17e3","","","","","2023",""," ","key"," ","6.944827586206896","500","250","br","-23","1","0","1","26","-2","269"
"","psychophysics","115","580644","0.0-115.0","5ffcb14c1355de105db73934","64de7c1dc02bea47129e17e3","","","","","1787",""," ","key"," ","6.945525291828794","500","250","br","-4","1","0","22","-4","-21","205"
"","psychophysics","116","582074","0.0-116.0","5ffcb14c1355de105db73934","64de7c1dc02bea47129e17e3","","","","","1428",""," ","key"," ","6.946341463414634","500","250","br","-27","1","0","-12","-11","-21","231"
"","psychophysics","117","583162","0.0-117.0","5ffcb14c1355de105db73934","64de7c1dc02bea47129e17e3","","","","","1085",""," ","key"," ","6.9423076923076925","500","250","br","-26","1","0","-19","29","2","220"
"","psychophysics","118","585582","0.0-118.0","5ffcb14c1355de105db73934","64de7c1dc02bea47129e17e3","","","","","2418",""," ","key"," ","6.945244956772334","500","250","br","-15","1","0","16","-4","-24","216"
"","psychophysics","119","588408","0.0-119.0","5ffcb14c1355de105db73934","64de7c1dc02bea47129e17e3","","","","","2825",""," ","key"," ","6.943349753694581","500","250","br","-19","1","0","-29","3","16","241"
"","psychophysics","120","589563","0.0-120.0","5ffcb14c1355de105db73934","64de7c1dc02bea47129e17e3","","","","","1152",""," ","key"," ","6.945454545454545","500","250","br","-27","1","0","-26","26","-22","236"
"","psychophysics","121","590420","0.0-121.0","5ffcb14c1355de105db73934","64de7c1dc02bea47129e17e3","","","","","856",""," ","key"," ","6.943089430894309","500","250","inst","","","","","","",""
"","psychophysics","122","595976","0.0-122.0","5ffcb14c1355de105db73934","64de7c1dc02bea47129e17e3","","","","","5556",""," ","key"," ","6.944931163954943","500","250","instEB1","40","2","","30","0","0","40"
"","psychophysics","123","599717","0.0-123.0","5ffcb14c1355de105db73934","64de7c1dc02bea47129e17e3","","","","","3740",""," ","key"," ","6.946096654275093","500","250","instEB2","34","2","","40","0","0","30"
"","psychophysics","124","603612","0.0-124.0","5ffcb14c1355de105db73934","64de7c1dc02bea47129e17e3","","","","","3893",""," ","key"," ","6.9445438282647585","500","250","instEB3","35","2","","45","0","0","27"
"","psychophysics","125","607471","0.0-125.0","5ffcb14c1355de105db73934","64de7c1dc02bea47129e17e3","","","","","3857",""," ","key"," ","6.944144144144144","500","250","instEB4","44","2","","30","0","0","40"
"","psychophysics","126","608227","0.0-126.0","5ffcb14c1355de105db73934","64de7c1dc02bea47129e17e3","","","","","755",""," ","key"," ","6.944444444444445","500","250","inst","","","","","","",""
"","psychophysics","127","611838","0.0-127.0","5ffcb14c1355de105db73934","64de7c1dc02bea47129e17e3","","","","","3609",""," ","key"," ","6.944123314065511","500","250","eb","55","2","","27","0","0","50"
"","psychophysics","128","614424","0.0-128.0","5ffcb14c1355de105db73934","64de7c1dc02bea47129e17e3","","","","","2586",""," ","key"," ","6.943396226415095","500","250","eb","35","2","","52","0","0","28"
"","psychophysics","129","617076","0.0-129.0","5ffcb14c1355de105db73934","64de7c1dc02bea47129e17e3","","","","","2649",""," ","key"," ","6.94488188976378","500","250","eb","50","2","","35","0","0","46"
"","psychophysics","130","619330","0.0-130.0","5ffcb14c1355de105db73934","64de7c1dc02bea47129e17e3","","","","","2253",""," ","key"," ","6.944444444444445","500","250","eb","36","2","","41","0","0","28"
"","psychophysics","131","621887","0.0-131.0","5ffcb14c1355de105db73934","64de7c1dc02bea47129e17e3","","","","","2556",""," ","key"," ","6.94550408719346","500","250","eb","44","2","","47","0","0","38"
"","psychophysics","132","624360","0.0-132.0","5ffcb14c1355de105db73934","64de7c1dc02bea47129e17e3","","","","","2470",""," ","key"," ","6.943661971830986","500","250","eb","38","2","","29","0","0","29"
"","psychophysics","133","627182","0.0-133.0","5ffcb14c1355de105db73934","64de7c1dc02bea47129e17e3","","","","","2821",""," ","key"," ","6.94320987654321","500","250","eb","41","2","","30","0","0","36"
"","psychophysics","134","630703","0.0-134.0","5ffcb14c1355de105db73934","64de7c1dc02bea47129e17e3","","","","","3518",""," ","key"," ","6.944664031620554","500","250","eb","52","2","","25","0","0","48"
"","psychophysics","135","633942","0.0-135.0","5ffcb14c1355de105db73934","64de7c1dc02bea47129e17e3","","","","","3238",""," ","key"," ","6.944206008583691","500","250","eb","24","2","","36","0","0","24"
"","psychophysics","136","637069","0.0-136.0","5ffcb14c1355de105db73934","64de7c1dc02bea47129e17e3","","","","","3124",""," ","key"," ","6.944320712694878","500","250","eb","51","2","","28","0","0","41"
"","psychophysics","137","639596","0.0-137.0","5ffcb14c1355de105db73934","64de7c1dc02bea47129e17e3","","","","","2527",""," ","key"," ","6.9449035812672175","500","250","eb","32","2","","40","0","0","28"
"","psychophysics","138","641695","0.0-138.0","5ffcb14c1355de105db73934","64de7c1dc02bea47129e17e3","","","","","2098",""," ","key"," ","6.943521594684386","500","250","eb","57","2","","49","0","0","51"
"","psychophysics","139","644880","0.0-139.0","5ffcb14c1355de105db73934","64de7c1dc02bea47129e17e3","","","","","3182",""," ","key"," ","6.945414847161572","500","250","eb","40","2","","48","0","0","36"
"","psychophysics","140","646794","0.0-140.0","5ffcb14c1355de105db73934","64de7c1dc02bea47129e17e3","","","","","1911",""," ","key"," ","6.945454545454545","500","250","eb","41","2","","51","0","0","32"
"","psychophysics","141","649546","0.0-141.0","5ffcb14c1355de105db73934","64de7c1dc02bea47129e17e3","","","","","2751",""," ","key"," ","6.944303797468354","500","250","eb","37","2","","49","0","0","29"
"","psychophysics","142","650386","0.0-142.0","5ffcb14c1355de105db73934","64de7c1dc02bea47129e17e3","","","","","838",""," ","key"," ","6.941666666666666","500","250","inst","","","","","","",""
"","psychophysics","143","656199","0.0-143.0","5ffcb14c1355de105db73934","64de7c1dc02bea47129e17e3","","","","","5812",""," ","key"," ","6.94377990430622","500","250","instPz1","50","1","","25","","","50"
"","psychophysics","144","660115","0.0-144.0","5ffcb14c1355de105db73934","64de7c1dc02bea47129e17e3","","","","","3914",""," ","key"," ","6.9449378330373","500","250","instPz2","25","1","","35","","","20"
"","psychophysics","145","666280","0.0-145.0","5ffcb14c1355de105db73934","64de7c1dc02bea47129e17e3","","","","","6164",""," ","key"," ","6.944695259593679","500","250","instPz3","51","1","","100","","","30"
"","psychophysics","146","670656","0.0-146.0","5ffcb14c1355de105db73934","64de7c1dc02bea47129e17e3","","","","","4373",""," ","key"," ","6.944444444444445","500","250","instPz4","50","1","","100","","","30"
"","psychophysics","147","673263","0.0-147.0","5ffcb14c1355de105db73934","64de7c1dc02bea47129e17e3","","","","","2605",""," ","key"," ","6.94385026737968","500","250","inst","","","","","","",""
"","psychophysics","148","676861","0.0-148.0","5ffcb14c1355de105db73934","64de7c1dc02bea47129e17e3","","","","","3595",""," ","key"," ","6.943907156673114","500","250","pz","75","1","1","53","","","55"
"","psychophysics","149","679805","0.0-149.0","5ffcb14c1355de105db73934","64de7c1dc02bea47129e17e3","","","","","2943",""," ","key"," ","6.945626477541371","500","250","pz","48","1","1","21","","","32"
"","psychophysics","150","681918","0.0-150.0","5ffcb14c1355de105db73934","64de7c1dc02bea47129e17e3","","","","","2111",""," ","key"," ","6.9438943894389435","500","250","pz","47","1","1","33","","","39"
"","psychophysics","151","683319","0.0-151.0","5ffcb14c1355de105db73934","64de7c1dc02bea47129e17e3","","","","","1400",""," ","key"," ","6.945273631840796","500","250","pz","37","1","1","35","","","24"
"","psychophysics","152","685017","0.0-152.0","5ffcb14c1355de105db73934","64de7c1dc02bea47129e17e3","","","","","1696",""," ","key"," ","6.942622950819672","500","250","pz","28","1","1","28","","","21"
"","psychophysics","153","687115","0.0-153.0","5ffcb14c1355de105db73934","64de7c1dc02bea47129e17e3","","","","","2097",""," ","key"," ","6.946843853820598","500","250","pz","59","1","1","34","","","49"
"","psychophysics","154","688333","0.0-154.0","5ffcb14c1355de105db73934","64de7c1dc02bea47129e17e3","","","","","1217",""," ","key"," ","6.942528735632184","500","250","pz","56","1","1","55","","","50"
"","psychophysics","155","690276","0.0-155.0","5ffcb14c1355de105db73934","64de7c1dc02bea47129e17e3","","","","","1942",""," ","key"," ","6.942652329749104","500","250","pz","46","1","1","27","","","34"
"","psychophysics","156","691848","0.0-156.0","5ffcb14c1355de105db73934","64de7c1dc02bea47129e17e3","","","","","1571",""," ","key"," ","6.946666666666666","500","250","pz","61","1","1","51","","","51"
"","psychophysics","157","694064","0.0-157.0","5ffcb14c1355de105db73934","64de7c1dc02bea47129e17e3","","","","","2214",""," ","key"," ","6.943396226415095","500","250","pz","39","1","1","20","","","24"
"","psychophysics","158","696744","0.0-158.0","5ffcb14c1355de105db73934","64de7c1dc02bea47129e17e3","","","","","2678",""," ","key"," ","6.945454545454545","500","250","pz","69","1","1","24","","","56"
"","psychophysics","159","698228","0.0-159.0","5ffcb14c1355de105db73934","64de7c1dc02bea47129e17e3","","","","","1483",""," ","key"," ","6.943661971830986","500","250","pz","39","1","1","36","","","38"
"","psychophysics","160","699994","0.0-160.0","5ffcb14c1355de105db73934","64de7c1dc02bea47129e17e3","","","","","1764",""," ","key"," ","6.944664031620554","500","250","pz","41","1","1","29","","","27"
"","psychophysics","161","701970","0.0-161.0","5ffcb14c1355de105db73934","64de7c1dc02bea47129e17e3","","","","","1976",""," ","key"," ","6.943661971830986","500","250","pz","58","1","1","30","","","46"
"","psychophysics","162","703856","0.0-162.0","5ffcb14c1355de105db73934","64de7c1dc02bea47129e17e3","","","","","1885",""," ","key"," ","6.944444444444445","500","250","pz","64","1","1","37","","","51"
"","psychophysics","163","704840","0.0-163.0","5ffcb14c1355de105db73934","64de7c1dc02bea47129e17e3","","","","","983",""," ","key"," ","6.943262411347518","500","250","inst","","","","","","",""
"","psychophysics","164","715006","0.0-164.0","5ffcb14c1355de105db73934","64de7c1dc02bea47129e17e3","","","","","10164",""," ","key"," ","6.944634313055365","500","250","instZol1","0.2999999999999998","","","-1.3","0","0",""
"","psychophysics","165","716996","0.0-165.0","5ffcb14c1355de105db73934","64de7c1dc02bea47129e17e3","","","","","1988",""," ","key"," ","6.943859649122807","500","250","instZol2","-2.7000000000000006","2","","2","0","0",""
"","psychophysics","166","720066","0.0-166.0","5ffcb14c1355de105db73934","64de7c1dc02bea47129e17e3","","","","","3069",""," ","key"," ","6.9434389140271495","500","250","inst","","","","","","",""
"","psychophysics","167","723611","0.0-167.0","5ffcb14c1355de105db73934","64de7c1dc02bea47129e17e3","","","","","3542",""," ","key"," ","6.944990176817289","500","250","zol","-1.25","2","1","-0.45","6","8",""
"","psychophysics","168","726278","0.0-168.0","5ffcb14c1355de105db73934","64de7c1dc02bea47129e17e3","","","","","2665",""," ","key"," ","6.945169712793733","500","250","zol","-1.7700000000000005","2","1","0.57","9","3",""
"","psychophysics","169","728591","0.0-169.0","5ffcb14c1355de105db73934","64de7c1dc02bea47129e17e3","","","","","2310",""," ","key"," ","6.942771084337349","500","250","zol","-2.3000000000000007","2","1","0.7","24","10",""
"","psychophysics","170","731056","0.0-170.0","5ffcb14c1355de105db73934","64de7c1dc02bea47129e17e3","","","","","2463",""," ","key"," ","6.946327683615819","500","250","zol","-1.4100000000000004","2","1","-0.69","22","-13",""
"","psychophysics","171","734867","0.0-171.0","5ffcb14c1355de105db73934","64de7c1dc02bea47129e17e3","","","","","3810",""," ","key"," ","6.943430656934306","500","250","zol","-1.7900000000000005","2","1","0.29","-16","-5",""
"","psychophysics","172","738152","0.0-172.0","5ffcb14c1355de105db73934","64de7c1dc02bea47129e17e3","","","","","3283",""," ","key"," ","6.944915254237288","500","250","zol","-2.0100000000000007","2","1","0.51","-12","-16",""
"","psychophysics","173","741127","0.0-173.0","5ffcb14c1355de105db73934","64de7c1dc02bea47129e17e3","","","","","2973",""," ","key"," ","6.943793911007026","500","250","zol","-2.160000000000001","2","1","0.46","-13","-26",""
"","psychophysics","174","743383","0.0-174.0","5ffcb14c1355de105db73934","64de7c1dc02bea47129e17e3","","","","","2254",""," ","key"," ","6.944444444444445","500","250","zol","-2.1000000000000005","2","1","0","-5","-19",""
"","psychophysics","175","745541","0.0-175.0","5ffcb14c1355de105db73934","64de7c1dc02bea47129e17e3","","","","","2157",""," ","key"," ","6.945161290322581","500","250","zol","-2.0700000000000007","2","1","-0.13","2","9",""
"","psychophysics","176","748712","0.0-176.0","5ffcb14c1355de105db73934","64de7c1dc02bea47129e17e3","","","","","3168",""," ","key"," ","6.945054945054945","500","250","zol","-2.370000000000001","2","1","-0.53","1","-13",""
"","psychophysics","177","750372","0.0-177.0","5ffcb14c1355de105db73934","64de7c1dc02bea47129e17e3","","","","","1657",""," ","key"," ","6.941422594142259","500","250","zol","-2.0700000000000007","2","1","-0.63","-1","21",""
"","psychophysics","178","752040","0.0-178.0","5ffcb14c1355de105db73934","64de7c1dc02bea47129e17e3","","","","","1666",""," ","key"," ","6.945606694560669","500","250","zol","-3.0300000000000016","2","1","0.73","29","-10",""
"","psychophysics","179","754309","0.0-179.0","5ffcb14c1355de105db73934","64de7c1dc02bea47129e17e3","","","","","2267",""," ","key"," ","6.9447852760736195","500","250","zol","-2.600000000000001","2","1","0.4","3","-13",""
"","psychophysics","180","756185","0.0-180.0","5ffcb14c1355de105db73934","64de7c1dc02bea47129e17e3","","","","","1874",""," ","key"," ","6.944237918215613","500","250","zol","-3.310000000000002","2","1","0.21","28","-21",""
"","psychophysics","181","757665","0.0-181.0","5ffcb14c1355de105db73934","64de7c1dc02bea47129e17e3","","","","","1478",""," ","key"," ","6.943396226415095","500","250","zol","-2.7500000000000013","2","1","0.45","1","-10",""
"","psychophysics","182","758719","0.0-182.0","5ffcb14c1355de105db73934","64de7c1dc02bea47129e17e3","","","","","1054",""," ","key"," ","6.947019867549669","500","250","inst","","","","","","",""
"","psychophysics","183","764620","0.0-183.0","5ffcb14c1355de105db73934","64de7c1dc02bea47129e17e3","","","","","5899",""," ","key"," ","6.943396226415095","500","250","instPog0","160","1","","190","0","0","160"
"","psychophysics","184","767989","0.0-184.0","5ffcb14c1355de105db73934","64de7c1dc02bea47129e17e3","","","","","3369",""," ","key"," ","6.946280991735537","500","250","instPog1","158","1","","190","0","0","160"
"","psychophysics","185","771066","0.0-185.0","5ffcb14c1355de105db73934","64de7c1dc02bea47129e17e3","","","","","3075",""," ","key"," ","6.9434389140271495","500","250","instPog2","162","1","","160","0","0","160"
"","psychophysics","186","773117","0.0-186.0","5ffcb14c1355de105db73934","64de7c1dc02bea47129e17e3","","","","","2050",""," ","key"," ","6.945762711864407","500","250","inst","","","","","","",""
"","psychophysics","187","775821","0.0-187.0","5ffcb14c1355de105db73934","64de7c1dc02bea47129e17e3","","","","","2702",""," ","key"," ","6.943298969072165","500","250","pog","170","1","1","126","0","0","161"
"","psychophysics","188","778031","0.0-188.0","5ffcb14c1355de105db73934","64de7c1dc02bea47129e17e3","","","","","2208",""," ","key"," ","6.943217665615142","500","250","pog","154","1","1","148","0","0","153"
"","psychophysics","189","779866","0.0-189.0","5ffcb14c1355de105db73934","64de7c1dc02bea47129e17e3","","","","","1834",""," ","key"," ","6.946969696969697","500","250","pog","199","1","1","165","0","0","199"
"","psychophysics","190","781855","0.0-190.0","5ffcb14c1355de105db73934","64de7c1dc02bea47129e17e3","","","","","1988",""," ","key"," ","6.943859649122807","500","250","pog","142","1","1","102","0","0","137"
"","psychophysics","191","784088","0.0-191.0","5ffcb14c1355de105db73934","64de7c1dc02bea47129e17e3","","","","","2231",""," ","key"," ","6.94392523364486","500","250","pog","142","1","1","172","0","0","142"
"","psychophysics","192","785516","0.0-192.0","5ffcb14c1355de105db73934","64de7c1dc02bea47129e17e3","","","","","1425",""," ","key"," ","6.946078431372549","500","250","pog","167","1","1","183","0","0","165"
"","psychophysics","193","787716","0.0-193.0","5ffcb14c1355de105db73934","64de7c1dc02bea47129e17e3","","","","","2199",""," ","key"," ","6.943037974683544","500","250","pog","165","1","1","153","0","0","163"
"","psychophysics","194","789425","0.0-194.0","5ffcb14c1355de105db73934","64de7c1dc02bea47129e17e3","","","","","1708",""," ","key"," ","6.942857142857143","500","250","pog","168","1","1","152","0","0","158"
"","psychophysics","195","790887","0.0-195.0","5ffcb14c1355de105db73934","64de7c1dc02bea47129e17e3","","","","","1460",""," ","key"," ","6.947619047619048","500","250","pog","183","1","1","151","0","0","167"
"","psychophysics","196","791689","0.0-196.0","5ffcb14c1355de105db73934","64de7c1dc02bea47129e17e3","","","","","801",""," ","key"," ","6.93859649122807","500","250","pog","200","1","1","202","0","0","181"
"","psychophysics","197","795654","0.0-197.0","5ffcb14c1355de105db73934","64de7c1dc02bea47129e17e3","","","","","3963",""," ","key"," ","6.945614035087719","500","250","pog","194","1","1","118","0","0","179"
"","psychophysics","198","799192","0.0-198.0","5ffcb14c1355de105db73934","64de7c1dc02bea47129e17e3","","","","","3537",""," ","key"," ","6.943025540275049","500","250","pog","187","1","1","123","0","0","182"
"","psychophysics","199","801722","0.0-199.0","5ffcb14c1355de105db73934","64de7c1dc02bea47129e17e3","","","","","2528",""," ","key"," ","6.9449035812672175","500","250","pog","163","1","1","203","0","0","155"
"","psychophysics","200","804853","0.0-200.0","5ffcb14c1355de105db73934","64de7c1dc02bea47129e17e3","","","","","3130",""," ","key"," ","6.944444444444445","500","250","pog","184","1","1","106","0","0","182"
"","psychophysics","201","806535","0.0-201.0","5ffcb14c1355de105db73934","64de7c1dc02bea47129e17e3","","","","","1680",""," ","key"," ","6.946058091286307","500","250","pog","207","1","1","199","0","0","198"
"","psychophysics","202","808146","0.0-202.0","5ffcb14c1355de105db73934","64de7c1dc02bea47129e17e3","","","","","1610",""," ","key"," ","6.9437229437229435","500","250","inst","","","","","","",""
"","psychophysics","203","816194","0.0-203.0","5ffcb14c1355de105db73934","64de7c1dc02bea47129e17e3","","","","","8048",""," ","key"," ","6.944732297063903","500","250","instBr3","23","2","","40","0","0","300"
"","psychophysics","204","816868","0.0-204.0","5ffcb14c1355de105db73934","64de7c1dc02bea47129e17e3","","","","","673",""," ","key"," ","6.947916666666667","500","250","inst","","","","","","",""
"","psychophysics","205","818470","0.0-205.0","5ffcb14c1355de105db73934","64de7c1dc02bea47129e17e3","","","","","1600",""," ","key"," ","6.943478260869565","500","250","br","23","2","1","19","-22","5","258"
"","psychophysics","206","820337","0.0-206.0","5ffcb14c1355de105db73934","64de7c1dc02bea47129e17e3","","","","","1865",""," ","key"," ","6.947565543071161","500","250","br","19","2","1","-3","30","-5","208"
"","psychophysics","207","821863","0.0-207.0","5ffcb14c1355de105db73934","64de7c1dc02bea47129e17e3","","","","","1525",""," ","key"," ","6.945205479452055","500","250","br","22","2","1","13","-22","15","245"
"","psychophysics","208","823365","0.0-208.0","5ffcb14c1355de105db73934","64de7c1dc02bea47129e17e3","","","","","1501",""," ","key"," ","6.944186046511628","500","250","br","21","2","1","12","17","22","225"
"","psychophysics","209","825103","0.0-209.0","5ffcb14c1355de105db73934","64de7c1dc02bea47129e17e3","","","","","1737",""," ","key"," ","6.944","500","250","br","12","2","1","-13","24","-27","214"
"","psychophysics","210","826867","0.0-210.0","5ffcb14c1355de105db73934","64de7c1dc02bea47129e17e3","","","","","1764",""," ","key"," ","6.944664031620554","500","250","br","19","2","1","-9","-27","26","247"
"","psychophysics","211","828285","0.0-211.0","5ffcb14c1355de105db73934","64de7c1dc02bea47129e17e3","","","","","1416",""," ","key"," ","6.945812807881773","500","250","br","18","2","1","29","30","-13","233"
"","psychophysics","212","829916","0.0-212.0","5ffcb14c1355de105db73934","64de7c1dc02bea47129e17e3","","","","","1630",""," ","key"," ","6.944444444444445","500","250","br","16","2","1","-9","-8","1","240"
"","psychophysics","213","832095","0.0-213.0","5ffcb14c1355de105db73934","64de7c1dc02bea47129e17e3","","","","","2178",""," ","key"," ","6.945686900958466","500","250","br","11","2","1","-19","-26","27","297"
"","psychophysics","214","833046","0.0-214.0","5ffcb14c1355de105db73934","64de7c1dc02bea47129e17e3","","","","","951",""," ","key"," ","6.948529411764706","500","250","br","18","2","1","17","-2","23","246"
"","psychophysics","215","834384","0.0-215.0","5ffcb14c1355de105db73934","64de7c1dc02bea47129e17e3","","","","","1336",""," ","key"," ","6.942408376963351","500","250","br","25","2","1","8","-24","-10","226"
"","psychophysics","216","836290","0.0-216.0","5ffcb14c1355de105db73934","64de7c1dc02bea47129e17e3","","","","","1903",""," ","key"," ","6.945255474452555","500","250","br","17","2","1","-15","28","-15","208"
"","psychophysics","217","838058","0.0-217.0","5ffcb14c1355de105db73934","64de7c1dc02bea47129e17e3","","","","","1768",""," ","key"," ","6.944664031620554","500","250","br","15","2","1","-14","-3","21","236"
"","psychophysics","218","839610","0.0-218.0","5ffcb14c1355de105db73934","64de7c1dc02bea47129e17e3","","","","","1551",""," ","key"," ","6.946188340807175","500","250","br","31","2","1","6","-29","18","261"
"","psychophysics","219","840670","0.0-219.0","5ffcb14c1355de105db73934","64de7c1dc02bea47129e17e3","","","","","1058",""," ","key"," ","6.940397350993377","500","250","br","19","2","1","12","-11","-19","297"
