"success","trial_type","trial_index","time_elapsed","internal_node_id","pid","sid","timeout","failed_images","failed_audio","failed_video","rt","stimulus","response","response_type","key_press","avg_frame_time","center_x","center_y","task","resp","start","parA","version","block","jitterX","jitterY"
"true","fullscreen","0","2095","0.0-0.0","5cc3f0f9fdb33500018c5eeb","64e5087da7278dc3ffc22541","","","","","","","","","","","","","","","","","","","",""
"true","preload","1","2180","0.0-1.0","5cc3f0f9fdb33500018c5eeb","64e5087da7278dc3ffc22541","false","[]","[]","[]","","","","","","","","","","","","","","","",""
"","html-button-response","2","3267","0.0-2.0","5cc3f0f9fdb33500018c5eeb","64e5087da7278dc3ffc22541","","","","","1084","Please Make Sure Your Audio Is On.","0","","","","","","","","","","","","",""
"","psychophysics","3","10863","0.0-3.0","5cc3f0f9fdb33500018c5eeb","64e5087da7278dc3ffc22541","","","","","7588",""," ","key"," ","16.65625438596491","768","250","","","","","","","",""
"","psychophysics","4","14770","0.0-4.0","5cc3f0f9fdb33500018c5eeb","64e5087da7278dc3ffc22541","","","","","3876",""," ","key"," ","16.658623931623932","500","250","inst","","","","","","",""
"","psychophysics","5","17236","0.0-5.0","5cc3f0f9fdb33500018c5eeb","64e5087da7278dc3ffc22541","","","","","2460",""," ","key"," ","16.656557823129248","500","250","sample0","","","","","","",""
"","psychophysics","6","19175","0.0-6.0","5cc3f0f9fdb33500018c5eeb","64e5087da7278dc3ffc22541","","","","","1935",""," ","key"," ","16.652573913043465","500","250","sample1","","","","","","",""
"","psychophysics","7","37769","0.0-7.0","5cc3f0f9fdb33500018c5eeb","64e5087da7278dc3ffc22541","","","","","18575",""," ","key"," ","16.6567311827957","500","250","sample2","100","","","","","",""
"","psychophysics","8","43924","0.0-8.0","5cc3f0f9fdb33500018c5eeb","64e5087da7278dc3ffc22541","","","","","6149",""," ","key"," ","16.65757336956522","500","250","sample3","98","","","","","",""
"","psychophysics","9","50318","0.0-9.0","5cc3f0f9fdb33500018c5eeb","64e5087da7278dc3ffc22541","","","","","6376",""," ","key"," ","16.657052219321145","500","250","sample4","102","","","","","",""
"","psychophysics","10","54022","0.0-10.0","5cc3f0f9fdb33500018c5eeb","64e5087da7278dc3ffc22541","","","","","3684",""," ","key"," ","16.656687782805417","500","250","sample5","","","","","","",""
"","psychophysics","11","59917","0.0-11.0","5cc3f0f9fdb33500018c5eeb","64e5087da7278dc3ffc22541","","","","","5886",""," ","key"," ","16.657243626062318","500","250","sample6","498","","","","","",""
"","psychophysics","12","63156","0.0-12.0","5cc3f0f9fdb33500018c5eeb","64e5087da7278dc3ffc22541","","","","","3227",""," ","key"," ","16.65761340206184","500","250","inst","","","","","","",""
"","psychophysics","13","67088","0.0-13.0","5cc3f0f9fdb33500018c5eeb","64e5087da7278dc3ffc22541","","","","","3928",""," ","key"," ","16.658404255319113","500","250","inst","","","","","","",""
"","psychophysics","14","69691","0.0-14.0","5cc3f0f9fdb33500018c5eeb","64e5087da7278dc3ffc22541","","","","","2598",""," ","key"," ","16.658612903225755","500","250","inst","","","","","","",""
"","psychophysics","15","71195","0.0-15.0","5cc3f0f9fdb33500018c5eeb","64e5087da7278dc3ffc22541","","","","","1500",""," ","key"," ","16.66119101123601","500","250","inst","","","","","","",""
"","psychophysics","16","72227","0.0-16.0","5cc3f0f9fdb33500018c5eeb","64e5087da7278dc3ffc22541","","","","","1023",""," ","key"," ","16.655950819672235","500","250","inst","","","","","","",""
"","psychophysics","17","76054","0.0-17.0","5cc3f0f9fdb33500018c5eeb","64e5087da7278dc3ffc22541","","","","","3820",""," ","key"," ","16.657912663755443","500","250","instPzPre","50","50","50","0","","",""
"","psychophysics","18","78609","0.0-18.0","5cc3f0f9fdb33500018c5eeb","64e5087da7278dc3ffc22541","","","","","2542",""," ","key"," ","16.656581699346372","500","250","instPz0","50","50","50","2","","",""
"","psychophysics","19","86424","0.0-19.0","5cc3f0f9fdb33500018c5eeb","64e5087da7278dc3ffc22541","","","","","7805",""," ","key"," ","16.656726495726492","500","250","instPz1","44","25","50","2","","",""
"","psychophysics","20","92520","0.0-20.0","5cc3f0f9fdb33500018c5eeb","64e5087da7278dc3ffc22541","","","","","6088",""," ","key"," ","16.65661095890411","500","250","instPz2","32","20","35","2","","",""
"","psychophysics","21","106808","0.0-21.0","5cc3f0f9fdb33500018c5eeb","64e5087da7278dc3ffc22541","","","","","14278",""," ","key"," ","16.656585764294036","500","250","instPz3","73","30","100","2","","",""
"","psychophysics","22","117873","0.0-22.0","5cc3f0f9fdb33500018c5eeb","64e5087da7278dc3ffc22541","","","","","11054",""," ","key"," ","16.656929110105594","500","250","instPz4","71","30","100","2","","",""
"","psychophysics","23","119803","0.0-23.0","5cc3f0f9fdb33500018c5eeb","64e5087da7278dc3ffc22541","","","","","1925",""," ","key"," ","16.656860869565254","500","250","inst","","","","","","",""
"","psychophysics","24","122926","0.0-24.0","5cc3f0f9fdb33500018c5eeb","64e5087da7278dc3ffc22541","","","","","3114",""," ","key"," ","16.658204301075305","500","250","pz","36","21","59","2","0","",""
"","psychophysics","25","127787","0.0-25.0","5cc3f0f9fdb33500018c5eeb","64e5087da7278dc3ffc22541","","","","","4842",""," ","key"," ","16.657931271477658","500","250","pz","34","38","49","2","0","",""
"","psychophysics","26","131415","0.0-26.0","5cc3f0f9fdb33500018c5eeb","64e5087da7278dc3ffc22541","","","","","3622",""," ","key"," ","16.65851152073738","500","250","pz","38","42","50","2","0","",""
"","psychophysics","27","135592","0.0-27.0","5cc3f0f9fdb33500018c5eeb","64e5087da7278dc3ffc22541","","","","","4171",""," ","key"," ","16.656576","500","250","pz","25","23","30","2","0","",""
"","psychophysics","28","140797","0.0-28.0","5cc3f0f9fdb33500018c5eeb","64e5087da7278dc3ffc22541","","","","","5199",""," ","key"," ","16.656247588424417","500","250","pz","38","48","52","2","0","",""
"","psychophysics","29","143840","0.0-29.0","5cc3f0f9fdb33500018c5eeb","64e5087da7278dc3ffc22541","","","","","3034",""," ","key"," ","16.6568296703297","500","250","pz","22","21","28","2","0","",""
"","psychophysics","30","148106","0.0-30.0","5cc3f0f9fdb33500018c5eeb","64e5087da7278dc3ffc22541","","","","","4260",""," ","key"," ","16.65690196078435","500","250","pz","38","49","50","2","0","",""
"","psychophysics","31","153500","0.0-31.0","5cc3f0f9fdb33500018c5eeb","64e5087da7278dc3ffc22541","","","","","5388",""," ","key"," ","16.65704024767798","500","250","pz","29","47","36","2","0","",""
"","psychophysics","32","158668","0.0-32.0","5cc3f0f9fdb33500018c5eeb","64e5087da7278dc3ffc22541","","","","","5162",""," ","key"," ","16.656747572815526","500","250","pz","17","52","21","2","0","",""
"","psychophysics","33","160901","0.0-33.0","5cc3f0f9fdb33500018c5eeb","64e5087da7278dc3ffc22541","","","","","2227",""," ","key"," ","16.659609022556193","500","250","pz","24","26","34","2","0","",""
"","psychophysics","34","165196","0.0-34.0","5cc3f0f9fdb33500018c5eeb","64e5087da7278dc3ffc22541","","","","","4289",""," ","key"," ","16.656513618676993","500","250","pz","20","60","28","2","0","",""
"","psychophysics","35","168254","0.0-35.0","5cc3f0f9fdb33500018c5eeb","64e5087da7278dc3ffc22541","","","","","3051",""," ","key"," ","16.656666666666737","500","250","pz","28","37","39","2","0","",""
"","psychophysics","36","171535","0.0-36.0","5cc3f0f9fdb33500018c5eeb","64e5087da7278dc3ffc22541","","","","","3275",""," ","key"," ","16.65698469387755","500","250","pz","21","36","25","2","0","",""
"","psychophysics","37","175707","0.0-37.0","5cc3f0f9fdb33500018c5eeb","64e5087da7278dc3ffc22541","","","","","4165",""," ","key"," ","16.65846184738954","500","250","pz","22","58","29","2","0","",""
"","psychophysics","38","178807","0.0-38.0","5cc3f0f9fdb33500018c5eeb","64e5087da7278dc3ffc22541","","","","","3094",""," ","key"," ","16.657978378378353","500","250","pz","26","60","29","2","0","",""
"","psychophysics","39","179310","0.0-39.0","5cc3f0f9fdb33500018c5eeb","64e5087da7278dc3ffc22541","","","","","499",""," ","key"," ","16.657862068965816","500","250","inst","","","","","","",""
"","psychophysics","40","181415","0.0-40.0","5cc3f0f9fdb33500018c5eeb","64e5087da7278dc3ffc22541","","","","","2096",""," ","key"," ","16.657619047619168","500","250","instZol0","0","0","","","","0","0"
"","psychophysics","41","188931","0.0-41.0","5cc3f0f9fdb33500018c5eeb","64e5087da7278dc3ffc22541","","","","","7512",""," ","key"," ","16.656611111111125","500","250","instZol1","0.10000000000000003","-1.3","","","","0","0"
"","psychophysics","42","191761","0.0-42.0","5cc3f0f9fdb33500018c5eeb","64e5087da7278dc3ffc22541","","","","","2816",""," ","key"," ","16.656378698224767","500","250","instZol2","-2.5000000000000004","2","","2","","0","0"
"","psychophysics","43","192502","0.0-43.0","5cc3f0f9fdb33500018c5eeb","64e5087da7278dc3ffc22541","","","","","737",""," ","key"," ","16.657860465115615","500","250","inst","","","","","","",""
"","psychophysics","44","200516","0.0-44.0","5cc3f0f9fdb33500018c5eeb","64e5087da7278dc3ffc22541","","","","","null","","null","key","null","16.657327083333318","500","250","zol","-1.7100000000000006","-0.69","","2","0","6","5"
"","psychophysics","45","206266","0.0-45.0","5cc3f0f9fdb33500018c5eeb","64e5087da7278dc3ffc22541","","","","","5725",""," ","key"," ","16.65634492753627","500","250","zol","-1.7700000000000007","-0.43","","2","0","9","13"
"","psychophysics","46","210479","0.0-46.0","5cc3f0f9fdb33500018c5eeb","64e5087da7278dc3ffc22541","","","","","4203",""," ","key"," ","16.65688095238089","500","250","zol","-1.9800000000000006","0.28","","2","0","27","-13"
"","psychophysics","47","214090","0.0-47.0","5cc3f0f9fdb33500018c5eeb","64e5087da7278dc3ffc22541","","","","","3601",""," ","key"," ","16.65791162790698","500","250","zol","-1.4000000000000001","0.6","","2","0","18","4"
"","psychophysics","48","218684","0.0-48.0","5cc3f0f9fdb33500018c5eeb","64e5087da7278dc3ffc22541","","","","","4583",""," ","key"," ","16.65686545454548","500","250","zol","-1.02","-0.58","","2","0","1","21"
"","psychophysics","49","222068","0.0-49.0","5cc3f0f9fdb33500018c5eeb","64e5087da7278dc3ffc22541","","","","","3369",""," ","key"," ","16.657198019802056","500","250","zol","-1.3","0.2","","2","0","3","3"
"","psychophysics","50","226766","0.0-50.0","5cc3f0f9fdb33500018c5eeb","64e5087da7278dc3ffc22541","","","","","4685",""," ","key"," ","16.656491103202804","500","250","zol","-1.3800000000000001","-0.62","","2","0","-29","-22"
"","psychophysics","51","232753","0.0-51.0","5cc3f0f9fdb33500018c5eeb","64e5087da7278dc3ffc22541","","","","","5976",""," ","key"," ","16.65741782729807","500","250","zol","-1.2","-0.6","","2","0","-9","27"
"","psychophysics","52","236063","0.0-52.0","5cc3f0f9fdb33500018c5eeb","64e5087da7278dc3ffc22541","","","","","3301",""," ","key"," ","16.656343434343462","500","250","zol","-1.1300000000000001","0.13","","2","0","-4","-11"
"","psychophysics","53","239986","0.0-53.0","5cc3f0f9fdb33500018c5eeb","64e5087da7278dc3ffc22541","","","","","3914",""," ","key"," ","16.6570427350427","500","250","zol","-1.0999999999999999","0.3","","2","0","30","-17"
"","psychophysics","54","244866","0.0-54.0","5cc3f0f9fdb33500018c5eeb","64e5087da7278dc3ffc22541","","","","","4868",""," ","key"," ","16.656544520547982","500","250","zol","-1.28","-0.32","","2","0","17","-14"
"","psychophysics","55","247464","0.0-55.0","5cc3f0f9fdb33500018c5eeb","64e5087da7278dc3ffc22541","","","","","2585",""," ","key"," ","16.658993548387098","500","250","zol","-0.83","-0.17","","2","0","8","-25"
"","psychophysics","56","255301","0.0-56.0","5cc3f0f9fdb33500018c5eeb","64e5087da7278dc3ffc22541","","","","","7825",""," ","key"," ","16.6565021276596","500","250","zol","-1.4600000000000002","-0.14","","2","0","-2","1"
"","psychophysics","57","261804","0.0-57.0","5cc3f0f9fdb33500018c5eeb","64e5087da7278dc3ffc22541","","","","","6481",""," ","key"," ","16.657221079691478","500","250","zol","-1.4600000000000002","-0.34","","2","0","21","-13"
"","psychophysics","58","266749","0.0-58.0","5cc3f0f9fdb33500018c5eeb","64e5087da7278dc3ffc22541","","","","","4925",""," ","key"," ","16.656875000000188","500","250","zol","-1.6100000000000005","0.11","","2","0","2","-10"
"","psychophysics","59","267538","0.0-59.0","5cc3f0f9fdb33500018c5eeb","64e5087da7278dc3ffc22541","","","","","784",""," ","key"," ","16.663978260869676","500","250","inst","","","","","","",""
"","psychophysics","60","271943","0.0-60.0","5cc3f0f9fdb33500018c5eeb","64e5087da7278dc3ffc22541","","","","","4397",""," ","key"," ","16.656560606060587","500","250","instPog0","192","190","160","1","","0","0"
"","psychophysics","61","280051","0.0-61.0","5cc3f0f9fdb33500018c5eeb","64e5087da7278dc3ffc22541","","","","","8100",""," ","key"," ","16.656901030927852","500","250","instPog1","168","190","160","1","","0","0"
"","psychophysics","62","286615","0.0-62.0","5cc3f0f9fdb33500018c5eeb","64e5087da7278dc3ffc22541","","","","","6542",""," ","key"," ","16.656520304568513","500","250","instPog2","178","160","160","1","","0","0"
"","psychophysics","63","287127","0.0-63.0","5cc3f0f9fdb33500018c5eeb","64e5087da7278dc3ffc22541","","","","","505",""," ","key"," ","16.658862068966144","500","250","inst","","","","","","",""
"","psychophysics","64","290812","0.0-64.0","5cc3f0f9fdb33500018c5eeb","64e5087da7278dc3ffc22541","","","","","3677",""," ","key"," ","16.65633031674208","500","250","pog","148","110","122","1","0","0","0"
"","psychophysics","65","293580","0.0-65.0","5cc3f0f9fdb33500018c5eeb","64e5087da7278dc3ffc22541","","","","","2759",""," ","key"," ","16.657345454545453","500","250","pog","168","180","145","1","0","0","0"
"","psychophysics","66","297473","0.0-66.0","5cc3f0f9fdb33500018c5eeb","64e5087da7278dc3ffc22541","","","","","3888",""," ","key"," ","16.65652586206902","500","250","pog","217","171","195","1","0","0","0"
"","psychophysics","67","300581","0.0-67.0","5cc3f0f9fdb33500018c5eeb","64e5087da7278dc3ffc22541","","","","","3100",""," ","key"," ","16.656650537634345","500","250","pog","147","131","125","1","0","0","0"
"","psychophysics","68","304610","0.0-68.0","5cc3f0f9fdb33500018c5eeb","64e5087da7278dc3ffc22541","","","","","4023",""," ","key"," ","16.657502074688974","500","250","pog","214","188","184","1","0","0","0"
"","psychophysics","69","311797","0.0-69.0","5cc3f0f9fdb33500018c5eeb","64e5087da7278dc3ffc22541","","","","","7182",""," ","key"," ","16.656495348837222","500","250","pog","201","119","183","1","0","0","0"
"","psychophysics","70","315354","0.0-70.0","5cc3f0f9fdb33500018c5eeb","64e5087da7278dc3ffc22541","","","","","3550",""," ","key"," ","16.657460093896667","500","250","pog","160","130","139","1","0","0","0"
"","psychophysics","71","318174","0.0-71.0","5cc3f0f9fdb33500018c5eeb","64e5087da7278dc3ffc22541","","","","","2816",""," ","key"," ","16.656619047618907","500","250","pog","160","176","139","1","0","0","0"
"","psychophysics","72","321355","0.0-72.0","5cc3f0f9fdb33500018c5eeb","64e5087da7278dc3ffc22541","","","","","3173",""," ","key"," ","16.656973684210282","500","250","pog","182","130","158","1","0","0","0"
"","psychophysics","73","326642","0.0-73.0","5cc3f0f9fdb33500018c5eeb","64e5087da7278dc3ffc22541","","","","","5279",""," ","key"," ","16.65651419558357","500","250","pog","157","145","138","1","0","0","0"
"","psychophysics","74","330115","0.0-74.0","5cc3f0f9fdb33500018c5eeb","64e5087da7278dc3ffc22541","","","","","3468",""," ","key"," ","16.656937198067794","500","250","pog","186","112","162","1","0","0","0"
"","psychophysics","75","332315","0.0-75.0","5cc3f0f9fdb33500018c5eeb","64e5087da7278dc3ffc22541","","","","","2195",""," ","key"," ","16.656656488549597","500","250","pog","152","152","134","1","0","0","0"
"","psychophysics","76","334441","0.0-76.0","5cc3f0f9fdb33500018c5eeb","64e5087da7278dc3ffc22541","","","","","2118",""," ","key"," ","16.658574803149342","500","250","pog","199","185","166","1","0","0","0"
"","psychophysics","77","335819","0.0-77.0","5cc3f0f9fdb33500018c5eeb","64e5087da7278dc3ffc22541","","","","","1373",""," ","key"," ","16.657231707316853","500","250","pog","204","198","170","1","0","0","0"
"","psychophysics","78","339050","0.0-78.0","5cc3f0f9fdb33500018c5eeb","64e5087da7278dc3ffc22541","","","","","3225",""," ","key"," ","16.65418652849757","500","250","pog","184","112","155","1","0","0","0"
"","psychophysics","79","341044","0.0-79.0","5cc3f0f9fdb33500018c5eeb","64e5087da7278dc3ffc22541","","","","","1989",""," ","key"," ","16.657067796610043","500","250","inst","","","","","","",""
"","psychophysics","80","346962","0.0-80.0","5cc3f0f9fdb33500018c5eeb","64e5087da7278dc3ffc22541","","","","","5909",""," ","key"," ","16.656574647887414","500","250","instBr0","0","0","300","","","0","0"
"","psychophysics","81","349615","0.0-81.0","5cc3f0f9fdb33500018c5eeb","64e5087da7278dc3ffc22541","","","","","2644",""," ","key"," ","16.656354430379917","500","250","instBr1","-40","-40","300","","","0","0"
"","psychophysics","82","354708","0.0-82.0","5cc3f0f9fdb33500018c5eeb","64e5087da7278dc3ffc22541","","","","","5087",""," ","key"," ","16.657662295081966","500","250","instBr3","40","40","300","2","","0","0"
"","psychophysics","83","355228","0.0-83.0","5cc3f0f9fdb33500018c5eeb","64e5087da7278dc3ffc22541","","","","","514",""," ","key"," ","16.670666666666513","500","250","inst","","","","","","",""
"","psychophysics","84","360933","0.0-84.0","5cc3f0f9fdb33500018c5eeb","64e5087da7278dc3ffc22541","","","","","5699",""," ","key"," ","16.657170087976457","500","250","br","16","-30","233","2","0","4","10"
"","psychophysics","85","363666","0.0-85.0","5cc3f0f9fdb33500018c5eeb","64e5087da7278dc3ffc22541","","","","","2718",""," ","key"," ","16.656865030674954","500","250","br","19","5","202","2","0","8","16"
"","psychophysics","86","365896","0.0-86.0","5cc3f0f9fdb33500018c5eeb","64e5087da7278dc3ffc22541","","","","","2222",""," ","key"," ","16.65970676691758","500","250","br","18","18","279","2","0","-4","-8"
"","psychophysics","87","369027","0.0-87.0","5cc3f0f9fdb33500018c5eeb","64e5087da7278dc3ffc22541","","","","","3122",""," ","key"," ","16.65781818181812","500","250","br","19","-18","247","2","0","15","-15"
"","psychophysics","88","372630","0.0-88.0","5cc3f0f9fdb33500018c5eeb","64e5087da7278dc3ffc22541","","","","","3593",""," ","key"," ","16.656712962962857","500","250","br","24","-29","278","2","0","-24","28"
"","psychophysics","89","375461","0.0-89.0","5cc3f0f9fdb33500018c5eeb","64e5087da7278dc3ffc22541","","","","","2825",""," ","key"," ","16.65672781065068","500","250","br","22","-11","207","2","0","-15","-1"
"","psychophysics","90","378826","0.0-90.0","5cc3f0f9fdb33500018c5eeb","64e5087da7278dc3ffc22541","","","","","3359",""," ","key"," ","16.65471641791044","500","250","br","12","-12","221","2","0","20","-4"
"","psychophysics","91","381606","0.0-91.0","5cc3f0f9fdb33500018c5eeb","64e5087da7278dc3ffc22541","","","","","2773",""," ","key"," ","16.657672727272395","500","250","br","17","15","264","2","0","-23","26"
"","psychophysics","92","384494","0.0-92.0","5cc3f0f9fdb33500018c5eeb","64e5087da7278dc3ffc22541","","","","","2877",""," ","key"," ","16.65754913294828","500","250","br","29","1","272","2","0","-3","-22"
"","psychophysics","93","387714","0.0-93.0","5cc3f0f9fdb33500018c5eeb","64e5087da7278dc3ffc22541","","","","","3214",""," ","key"," ","16.658317708333318","500","250","br","24","-8","223","2","0","24","27"
"","psychophysics","94","389594","0.0-94.0","5cc3f0f9fdb33500018c5eeb","64e5087da7278dc3ffc22541","","","","","1871",""," ","key"," ","16.65690178571458","500","250","br","27","10","297","2","0","-7","24"
"","psychophysics","95","392531","0.0-95.0","5cc3f0f9fdb33500018c5eeb","64e5087da7278dc3ffc22541","","","","","2930",""," ","key"," ","16.657200000000053","500","250","br","14","-21","274","2","0","8","-9"
"","psychophysics","96","394571","0.0-96.0","5cc3f0f9fdb33500018c5eeb","64e5087da7278dc3ffc22541","","","","","2031",""," ","key"," ","16.656393442623084","500","250","br","21","14","291","2","0","-10","-28"
"","psychophysics","97","397348","0.0-97.0","5cc3f0f9fdb33500018c5eeb","64e5087da7278dc3ffc22541","","","","","2771",""," ","key"," ","16.656843373493757","500","250","br","28","-18","272","2","0","8","0"
"","psychophysics","98","400072","0.0-98.0","5cc3f0f9fdb33500018c5eeb","64e5087da7278dc3ffc22541","","","","","2717",""," ","key"," ","16.658592592592473","500","250","br","20","-23","245","2","0","-24","2"
"","psychophysics","99","400681","0.0-99.0","5cc3f0f9fdb33500018c5eeb","64e5087da7278dc3ffc22541","","","","","605",""," ","key"," ","16.66436111111155","500","250","inst","","","","","","",""
"","psychophysics","100","401920","0.0-100.0","5cc3f0f9fdb33500018c5eeb","64e5087da7278dc3ffc22541","","","","","1235",""," ","key"," ","16.661273972602554","500","250","instEB0","40","40","40","1","","0","0"
"","psychophysics","101","410096","0.0-101.0","5cc3f0f9fdb33500018c5eeb","64e5087da7278dc3ffc22541","","","","","8171",""," ","key"," ","16.65666734693876","500","250","instEB1","30","40","30","1","","0","0"
"","psychophysics","102","415096","0.0-102.0","5cc3f0f9fdb33500018c5eeb","64e5087da7278dc3ffc22541","","","","","4983",""," ","key"," ","16.656946488294203","500","250","instEB2","36","30","40","1","","0","0"
"","psychophysics","103","419424","0.0-103.0","5cc3f0f9fdb33500018c5eeb","64e5087da7278dc3ffc22541","","","","","4310",""," ","key"," ","16.65688416988429","500","250","instEB3","38","27","45","1","","0","0"
"","psychophysics","104","423742","0.0-104.0","5cc3f0f9fdb33500018c5eeb","64e5087da7278dc3ffc22541","","","","","4312",""," ","key"," ","16.658244186046474","500","250","instEB4","27","40","30","1","","0","0"
"","psychophysics","105","424278","0.0-105.0","5cc3f0f9fdb33500018c5eeb","64e5087da7278dc3ffc22541","","","","","521",""," ","key"," ","16.655516129032137","500","250","inst","","","","","","",""
"","psychophysics","106","427469","0.0-106.0","5cc3f0f9fdb33500018c5eeb","64e5087da7278dc3ffc22541","","","","","3181",""," ","key"," ","16.658523560209378","500","250","eb","35","42","42","1","","0","0"
"","psychophysics","107","431346","0.0-107.0","5cc3f0f9fdb33500018c5eeb","64e5087da7278dc3ffc22541","","","","","3871",""," ","key"," ","16.657288793103362","500","250","eb","36","26","45","1","","0","0"
"","psychophysics","108","434780","0.0-108.0","5cc3f0f9fdb33500018c5eeb","64e5087da7278dc3ffc22541","","","","","3427",""," ","key"," ","16.657058536585296","500","250","eb","21","31","24","1","","0","0"
"","psychophysics","109","436990","0.0-109.0","5cc3f0f9fdb33500018c5eeb","64e5087da7278dc3ffc22541","","","","","2204",""," ","key"," ","16.654287878787727","500","250","eb","21","26","24","1","","0","0"
"","psychophysics","110","439809","0.0-110.0","5cc3f0f9fdb33500018c5eeb","64e5087da7278dc3ffc22541","","","","","2811",""," ","key"," ","16.658880952380837","500","250","eb","36","26","39","1","","0","0"
"","psychophysics","111","444386","0.0-111.0","5cc3f0f9fdb33500018c5eeb","64e5087da7278dc3ffc22541","","","","","4567",""," ","key"," ","16.656543795620372","500","250","eb","27","45","29","1","","0","0"
"","psychophysics","112","446445","0.0-112.0","5cc3f0f9fdb33500018c5eeb","64e5087da7278dc3ffc22541","","","","","2051",""," ","key"," ","16.656713114754147","500","250","eb","27","24","27","1","","0","0"
"","psychophysics","113","451017","0.0-113.0","5cc3f0f9fdb33500018c5eeb","64e5087da7278dc3ffc22541","","","","","4562",""," ","key"," ","16.657138686131322","500","250","eb","24","37","24","1","","0","0"
"","psychophysics","114","454088","0.0-114.0","5cc3f0f9fdb33500018c5eeb","64e5087da7278dc3ffc22541","","","","","3064",""," ","key"," ","16.65756284152991","500","250","eb","41","27","45","1","","0","0"
"","psychophysics","115","456010","0.0-115.0","5cc3f0f9fdb33500018c5eeb","64e5087da7278dc3ffc22541","","","","","1901",""," ","key"," ","16.65785964912267","500","250","eb","43","39","46","1","","0","0"
"","psychophysics","116","459340","0.0-116.0","5cc3f0f9fdb33500018c5eeb","64e5087da7278dc3ffc22541","","","","","3321",""," ","key"," ","16.657271356784022","500","250","eb","46","29","49","1","","0","0"
"","psychophysics","117","462293","0.0-117.0","5cc3f0f9fdb33500018c5eeb","64e5087da7278dc3ffc22541","","","","","2935",""," ","key"," ","16.656971751412346","500","250","eb","42","37","43","1","","0","0"
"","psychophysics","118","465431","0.0-118.0","5cc3f0f9fdb33500018c5eeb","64e5087da7278dc3ffc22541","","","","","3129",""," ","key"," ","16.657069518716437","500","250","eb","41","31","42","1","","0","0"
"","psychophysics","119","471874","0.0-119.0","5cc3f0f9fdb33500018c5eeb","64e5087da7278dc3ffc22541","","","","","6422",""," ","key"," ","16.656562176165853","500","250","eb","44","42","48","1","","0","0"
"","psychophysics","120","477534","0.0-120.0","5cc3f0f9fdb33500018c5eeb","64e5087da7278dc3ffc22541","","","","","5642",""," ","key"," ","16.65748672566365","500","250","eb","42","46","46","1","","0","0"
"","psychophysics","121","478035","0.0-121.0","5cc3f0f9fdb33500018c5eeb","64e5087da7278dc3ffc22541","","","","","492",""," ","key"," ","16.66065517241328","500","250","inst","","","","","","",""
"","psychophysics","122","482129","0.0-122.0","5cc3f0f9fdb33500018c5eeb","64e5087da7278dc3ffc22541","","","","","4089",""," ","key"," ","16.656591836734655","500","250","instBr3","39","40","300","1","","0","0"
"","psychophysics","123","482804","0.0-123.0","5cc3f0f9fdb33500018c5eeb","64e5087da7278dc3ffc22541","","","","","668",""," ","key"," ","16.66125641025764","500","250","inst","","","","","","",""
"","psychophysics","124","485479","0.0-124.0","5cc3f0f9fdb33500018c5eeb","64e5087da7278dc3ffc22541","","","","","2669",""," ","key"," ","16.658949999999823","500","250","br","-19","-28","267","1","1","-4","-30"
"","psychophysics","125","489105","0.0-125.0","5cc3f0f9fdb33500018c5eeb","64e5087da7278dc3ffc22541","","","","","3620",""," ","key"," ","16.656444444444517","500","250","br","-11","22","227","1","1","-16","26"
"","psychophysics","126","491498","0.0-126.0","5cc3f0f9fdb33500018c5eeb","64e5087da7278dc3ffc22541","","","","","2385",""," ","key"," ","16.65667132867119","500","250","br","-13","-11","254","1","1","13","-3"
"","psychophysics","127","492929","0.0-127.0","5cc3f0f9fdb33500018c5eeb","64e5087da7278dc3ffc22541","","","","","1424",""," ","key"," ","16.655976470587913","500","250","br","-20","-22","296","1","1","23","0"
"","psychophysics","128","494717","0.0-128.0","5cc3f0f9fdb33500018c5eeb","64e5087da7278dc3ffc22541","","","","","1782",""," ","key"," ","16.65646226415114","500","250","br","-17","-19","295","1","1","22","13"
"","psychophysics","129","498167","0.0-129.0","5cc3f0f9fdb33500018c5eeb","64e5087da7278dc3ffc22541","","","","","3435",""," ","key"," ","16.657718446601898","500","250","br","-14","12","200","1","1","23","17"
"","psychophysics","130","499804","0.0-130.0","5cc3f0f9fdb33500018c5eeb","64e5087da7278dc3ffc22541","","","","","1628",""," ","key"," ","16.662316326530085","500","250","br","-19","-10","253","1","1","18","15"
"","psychophysics","131","501787","0.0-131.0","5cc3f0f9fdb33500018c5eeb","64e5087da7278dc3ffc22541","","","","","1977",""," ","key"," ","16.657050847457683","500","250","br","-17","-20","243","1","1","-7","-16"
"","psychophysics","132","504662","0.0-132.0","5cc3f0f9fdb33500018c5eeb","64e5087da7278dc3ffc22541","","","","","2868",""," ","key"," ","16.65880701754362","500","250","br","-17","19","266","1","1","-5","-10"
"","psychophysics","133","506416","0.0-133.0","5cc3f0f9fdb33500018c5eeb","64e5087da7278dc3ffc22541","","","","","1745",""," ","key"," ","16.6581714285715","500","250","br","-22","-27","284","1","1","-4","-18"
"","psychophysics","134","509287","0.0-134.0","5cc3f0f9fdb33500018c5eeb","64e5087da7278dc3ffc22541","","","","","2865",""," ","key"," ","16.657017543859514","500","250","br","-6","25","216","1","1","-19","-6"
"","psychophysics","135","512462","0.0-135.0","5cc3f0f9fdb33500018c5eeb","64e5087da7278dc3ffc22541","","","","","3168",""," ","key"," ","16.656663157894755","500","250","br","-9","30","267","1","1","21","28"
"","psychophysics","136","514934","0.0-136.0","5cc3f0f9fdb33500018c5eeb","64e5087da7278dc3ffc22541","","","","","2468",""," ","key"," ","16.656782312924914","500","250","br","-12","-25","258","1","1","4","-9"
"","psychophysics","137","516925","0.0-137.0","5cc3f0f9fdb33500018c5eeb","64e5087da7278dc3ffc22541","","","","","1985",""," ","key"," ","16.659613445378202","500","250","br","-12","7","224","1","1","4","22"
"","psychophysics","138","520364","0.0-138.0","5cc3f0f9fdb33500018c5eeb","64e5087da7278dc3ffc22541","","","","","3434",""," ","key"," ","16.65538536585362","500","250","br","-15","26","219","1","1","-16","-17"
"","psychophysics","139","520922","0.0-139.0","5cc3f0f9fdb33500018c5eeb","64e5087da7278dc3ffc22541","","","","","553",""," ","key"," ","16.658303030302648","500","250","inst","","","","","","",""
"","psychophysics","140","527208","0.0-140.0","5cc3f0f9fdb33500018c5eeb","64e5087da7278dc3ffc22541","","","","","6280",""," ","key"," ","16.656598404255302","500","250","instPog0","340","370","340","2","","0","0"
"","psychophysics","141","530572","0.0-141.0","5cc3f0f9fdb33500018c5eeb","64e5087da7278dc3ffc22541","","","","","3358",""," ","key"," ","16.657910447761147","500","250","instPog1","338","370","340","2","","0","0"
"","psychophysics","142","532698","0.0-142.0","5cc3f0f9fdb33500018c5eeb","64e5087da7278dc3ffc22541","","","","","2122",""," ","key"," ","16.656976377952653","500","250","instPog2","332","340","340","2","","0","0"
"","psychophysics","143","533199","0.0-143.0","5cc3f0f9fdb33500018c5eeb","64e5087da7278dc3ffc22541","","","","","496",""," ","key"," ","16.658620689658385","500","250","inst","","","","","","",""
"","psychophysics","144","536888","0.0-144.0","5cc3f0f9fdb33500018c5eeb","64e5087da7278dc3ffc22541","","","","","3685",""," ","key"," ","16.6584272727275","500","250","pog","284","352","301","2","1","0","0"
"","psychophysics","145","538516","0.0-145.0","5cc3f0f9fdb33500018c5eeb","64e5087da7278dc3ffc22541","","","","","1614",""," ","key"," ","16.658402061855575","500","250","pog","324","316","356","2","1","0","0"
"","psychophysics","146","541239","0.0-146.0","5cc3f0f9fdb33500018c5eeb","64e5087da7278dc3ffc22541","","","","","2718",""," ","key"," ","16.659469135802663","500","250","pog","342","324","369","2","1","0","0"
"","psychophysics","147","542979","0.0-147.0","5cc3f0f9fdb33500018c5eeb","64e5087da7278dc3ffc22541","","","","","1732",""," ","key"," ","16.65736538461575","500","250","pog","334","344","351","2","1","0","0"
"","psychophysics","148","545608","0.0-148.0","5cc3f0f9fdb33500018c5eeb","64e5087da7278dc3ffc22541","","","","","2625",""," ","key"," ","16.65480891719778","500","250","pog","337","317","363","2","1","0","0"
"","psychophysics","149","550411","0.0-149.0","5cc3f0f9fdb33500018c5eeb","64e5087da7278dc3ffc22541","","","","","4797",""," ","key"," ","16.656630662020834","500","250","pog","284","368","311","2","1","0","0"
"","psychophysics","150","552550","0.0-150.0","5cc3f0f9fdb33500018c5eeb","64e5087da7278dc3ffc22541","","","","","2134",""," ","key"," ","16.6568976377951","500","250","pog","334","316","372","2","1","0","0"
"","psychophysics","151","554188","0.0-151.0","5cc3f0f9fdb33500018c5eeb","64e5087da7278dc3ffc22541","","","","","1631",""," ","key"," ","16.65845918367327","500","250","pog","311","297","332","2","1","0","0"
"","psychophysics","152","556646","0.0-152.0","5cc3f0f9fdb33500018c5eeb","64e5087da7278dc3ffc22541","","","","","2453",""," ","key"," ","16.65717808219161","500","250","pog","295","313","317","2","1","0","0"
"","psychophysics","153","559998","0.0-153.0","5cc3f0f9fdb33500018c5eeb","64e5087da7278dc3ffc22541","","","","","3344",""," ","key"," ","16.656512437811102","500","250","pog","342","316","373","2","1","0","0"
"","psychophysics","154","563739","0.0-154.0","5cc3f0f9fdb33500018c5eeb","64e5087da7278dc3ffc22541","","","","","3732",""," ","key"," ","16.656488789237656","500","250","pog","265","285","302","2","1","0","0"
"","psychophysics","155","567535","0.0-155.0","5cc3f0f9fdb33500018c5eeb","64e5087da7278dc3ffc22541","","","","","3792",""," ","key"," ","16.656947136563783","500","250","pog","318","378","352","2","1","0","0"
"","psychophysics","156","569181","0.0-156.0","5cc3f0f9fdb33500018c5eeb","64e5087da7278dc3ffc22541","","","","","1640",""," ","key"," ","16.656744897958337","500","250","pog","290","294","305","2","1","0","0"
"","psychophysics","157","571928","0.0-157.0","5cc3f0f9fdb33500018c5eeb","64e5087da7278dc3ffc22541","","","","","2742",""," ","key"," ","16.656371951219626","500","250","pog","347","361","368","2","1","0","0"
"","psychophysics","158","573957","0.0-158.0","5cc3f0f9fdb33500018c5eeb","64e5087da7278dc3ffc22541","","","","","2025",""," ","key"," ","16.65647107437984","500","250","pog","337","325","349","2","1","0","0"
"","psychophysics","159","574456","0.0-159.0","5cc3f0f9fdb33500018c5eeb","64e5087da7278dc3ffc22541","","","","","494",""," ","key"," ","16.65744827586178","500","250","inst","","","","","","",""
"","psychophysics","160","578743","0.0-160.0","5cc3f0f9fdb33500018c5eeb","64e5087da7278dc3ffc22541","","","","","4281",""," ","key"," ","16.65668359375013","500","250","instZol1","0.30000000000000004","-1.3","","","","0","0"
"","psychophysics","161","585967","0.0-161.0","5cc3f0f9fdb33500018c5eeb","64e5087da7278dc3ffc22541","","","","","7203",""," ","key"," ","16.657284064664974","500","250","instZol2","1.1000000000000008","2","","1","","0","0"
"","psychophysics","162","586713","0.0-162.0","5cc3f0f9fdb33500018c5eeb","64e5087da7278dc3ffc22541","","","","","741",""," ","key"," ","16.668558139532674","500","250","inst","","","","","","",""
"","psychophysics","163","591620","0.0-163.0","5cc3f0f9fdb33500018c5eeb","64e5087da7278dc3ffc22541","","","","","4896",""," ","key"," ","16.65658163265317","500","250","zol","1.6500000000000006","-0.15","","1","1","24","-15"
"","psychophysics","164","595145","0.0-164.0","5cc3f0f9fdb33500018c5eeb","64e5087da7278dc3ffc22541","","","","","3512",""," ","key"," ","16.658772511848568","500","250","zol","1.5000000000000002","0.2","","1","1","28","25"
"","psychophysics","165","598507","0.0-165.0","5cc3f0f9fdb33500018c5eeb","64e5087da7278dc3ffc22541","","","","","3354",""," ","key"," ","16.6566865671645","500","250","zol","1.4400000000000002","0.66","","1","1","-4","18"
"","psychophysics","166","601406","0.0-166.0","5cc3f0f9fdb33500018c5eeb","64e5087da7278dc3ffc22541","","","","","2891",""," ","key"," ","16.656757225433225","500","250","zol","1.4200000000000004","0.38","","1","1","-21","25"
"","psychophysics","167","603886","0.0-167.0","5cc3f0f9fdb33500018c5eeb","64e5087da7278dc3ffc22541","","","","","2469",""," ","key"," ","16.656925170067826","500","250","zol","1.3","0.6","","1","1","17","18"
"","psychophysics","168","606521","0.0-168.0","5cc3f0f9fdb33500018c5eeb","64e5087da7278dc3ffc22541","","","","","2624",""," ","key"," ","16.656582278480954","500","250","zol","1.7000000000000004","0.3","","1","1","9","12"
"","psychophysics","169","609233","0.0-169.0","5cc3f0f9fdb33500018c5eeb","64e5087da7278dc3ffc22541","","","","","2703",""," ","key"," ","16.65750931677053","500","250","zol","1.5900000000000003","-0.59","","1","1","-18","-29"
"","psychophysics","170","613967","0.0-170.0","5cc3f0f9fdb33500018c5eeb","64e5087da7278dc3ffc22541","","","","","4722",""," ","key"," ","16.656580985915227","500","250","zol","1.8000000000000005","0.6","","1","1","-13","9"
"","psychophysics","171","618645","0.0-171.0","5cc3f0f9fdb33500018c5eeb","64e5087da7278dc3ffc22541","","","","","4670",""," ","key"," ","16.656499999999816","500","250","zol","1.9000000000000004","0","","1","1","-10","30"
"","psychophysics","172","621275","0.0-172.0","5cc3f0f9fdb33500018c5eeb","64e5087da7278dc3ffc22541","","","","","2621",""," ","key"," ","16.656942307692354","500","250","zol","1.7200000000000006","-0.62","","1","1","14","-27"
"","psychophysics","173","624566","0.0-173.0","5cc3f0f9fdb33500018c5eeb","64e5087da7278dc3ffc22541","","","","","3279",""," ","key"," ","16.65639593908658","500","250","zol","1.5200000000000005","0.38","","1","1","22","0"
"","psychophysics","174","627623","0.0-174.0","5cc3f0f9fdb33500018c5eeb","64e5087da7278dc3ffc22541","","","","","3045",""," ","key"," ","16.65636612021853","500","250","zol","1.4800000000000002","-0.28","","1","1","-18","11"
"","psychophysics","175","629898","0.0-175.0","5cc3f0f9fdb33500018c5eeb","64e5087da7278dc3ffc22541","","","","","2264",""," ","key"," ","16.659362962963577","500","250","zol","1.18","0.02","","1","1","2","11"
"","psychophysics","176","632524","0.0-176.0","5cc3f0f9fdb33500018c5eeb","64e5087da7278dc3ffc22541","","","","","2615",""," ","key"," ","16.656458598726196","500","250","zol","1.15","0.75","","1","1","3","8"
"","psychophysics","177","636951","0.0-177.0","5cc3f0f9fdb33500018c5eeb","64e5087da7278dc3ffc22541","","","","","4419",""," ","key"," ","16.65649056603763","500","250","zol","1.3300000000000003","-0.43","","1","1","30","-11"
"","psychophysics","178","637484","0.0-178.0","5cc3f0f9fdb33500018c5eeb","64e5087da7278dc3ffc22541","","","","","528",""," ","key"," ","16.657870967741005","500","250","inst","","","","","","",""
"","psychophysics","179","646750","0.0-179.0","5cc3f0f9fdb33500018c5eeb","64e5087da7278dc3ffc22541","","","","","9261",""," ","key"," ","16.655877477477457","500","250","instPz1","44","25","50","1","","",""
"","psychophysics","180","651423","0.0-180.0","5cc3f0f9fdb33500018c5eeb","64e5087da7278dc3ffc22541","","","","","4666",""," ","key"," ","16.657182795698688","500","250","instPz2","21","35","20","1","","",""
"","psychophysics","181","653388","0.0-181.0","5cc3f0f9fdb33500018c5eeb","64e5087da7278dc3ffc22541","","","","","1943",""," ","key"," ","16.656598290598666","500","250","instPz3","108","100","30","1","","",""
"","psychophysics","182","653755","0.0-182.0","5cc3f0f9fdb33500018c5eeb","64e5087da7278dc3ffc22541","","","","","347",""," ","key"," ","16.656857142856875","500","250","instPz4","100","100","30","1","","",""
"","psychophysics","183","654265","0.0-183.0","5cc3f0f9fdb33500018c5eeb","64e5087da7278dc3ffc22541","","","","","503",""," ","key"," ","16.661166666669306","500","250","inst","","","","","","",""
"","psychophysics","184","659273","0.0-184.0","5cc3f0f9fdb33500018c5eeb","64e5087da7278dc3ffc22541","","","","","4998",""," ","key"," ","16.65701000000001","500","250","pz","70","48","54","1","1","",""
"","psychophysics","185","661404","0.0-185.0","5cc3f0f9fdb33500018c5eeb","64e5087da7278dc3ffc22541","","","","","2123",""," ","key"," ","16.658622047243323","500","250","pz","46","49","33","1","1","",""
"","psychophysics","186","665122","0.0-186.0","5cc3f0f9fdb33500018c5eeb","64e5087da7278dc3ffc22541","","","","","3712",""," ","key"," ","16.656481981981727","500","250","pz","62","40","51","1","1","",""
"","psychophysics","187","669363","0.0-187.0","5cc3f0f9fdb33500018c5eeb","64e5087da7278dc3ffc22541","","","","","4237",""," ","key"," ","16.65704347826071","500","250","pz","66","26","58","1","1","",""
"","psychophysics","188","672979","0.0-188.0","5cc3f0f9fdb33500018c5eeb","64e5087da7278dc3ffc22541","","","","","3608",""," ","key"," ","16.656368663594073","500","250","pz","41","55","29","1","1","",""
"","psychophysics","189","675360","0.0-189.0","5cc3f0f9fdb33500018c5eeb","64e5087da7278dc3ffc22541","","","","","2375",""," ","key"," ","16.65717605633815","500","250","pz","43","57","23","1","1","",""
"","psychophysics","190","679908","0.0-190.0","5cc3f0f9fdb33500018c5eeb","64e5087da7278dc3ffc22541","","","","","4541",""," ","key"," ","16.65665073529389","500","250","pz","70","32","58","1","1","",""
"","psychophysics","191","683456","0.0-191.0","5cc3f0f9fdb33500018c5eeb","64e5087da7278dc3ffc22541","","","","","3542",""," ","key"," ","16.656948113207758","500","250","pz","40","48","29","1","1","",""
"","psychophysics","192","686571","0.0-192.0","5cc3f0f9fdb33500018c5eeb","64e5087da7278dc3ffc22541","","","","","3109",""," ","key"," ","16.65672043010765","500","250","pz","37","51","29","1","1","",""
"","psychophysics","193","689016","0.0-193.0","5cc3f0f9fdb33500018c5eeb","64e5087da7278dc3ffc22541","","","","","2440",""," ","key"," ","16.65680689655148","500","250","pz","34","40","23","1","1","",""
"","psychophysics","194","692510","0.0-194.0","5cc3f0f9fdb33500018c5eeb","64e5087da7278dc3ffc22541","","","","","3486",""," ","key"," ","16.657765550239226","500","250","pz","41","24","32","1","1","",""
"","psychophysics","195","696206","0.0-195.0","5cc3f0f9fdb33500018c5eeb","64e5087da7278dc3ffc22541","","","","","3688",""," ","key"," ","16.657484162895944","500","250","pz","54","23","45","1","1","",""
"","psychophysics","196","699624","0.0-196.0","5cc3f0f9fdb33500018c5eeb","64e5087da7278dc3ffc22541","","","","","3413",""," ","key"," ","16.658720588235084","500","250","pz","64","31","53","1","1","",""
"","psychophysics","197","702285","0.0-197.0","5cc3f0f9fdb33500018c5eeb","64e5087da7278dc3ffc22541","","","","","2652",""," ","key"," ","16.657427672955716","500","250","pz","56","27","40","1","1","",""
"","psychophysics","198","705259","0.0-198.0","5cc3f0f9fdb33500018c5eeb","64e5087da7278dc3ffc22541","","","","","2970",""," ","key"," ","16.65689887640425","500","250","pz","73","51","54","1","1","",""
"","psychophysics","199","705830","0.0-199.0","5cc3f0f9fdb33500018c5eeb","64e5087da7278dc3ffc22541","","","","","566",""," ","key"," ","16.65927272727078","500","250","inst","","","","","","",""
"","psychophysics","200","711267","0.0-200.0","5cc3f0f9fdb33500018c5eeb","64e5087da7278dc3ffc22541","","","","","5434",""," ","key"," ","16.656766153846224","500","250","instEB1","40","30","40","2","","0","0"
"","psychophysics","201","713391","0.0-201.0","5cc3f0f9fdb33500018c5eeb","64e5087da7278dc3ffc22541","","","","","2113",""," ","key"," ","16.657181102361744","500","250","instEB2","36","40","30","2","","0","0"
"","psychophysics","202","718174","0.0-202.0","5cc3f0f9fdb33500018c5eeb","64e5087da7278dc3ffc22541","","","","","4777",""," ","key"," ","16.657374125874398","500","250","instEB3","32","45","27","2","","0","0"
"","psychophysics","203","721695","0.0-203.0","5cc3f0f9fdb33500018c5eeb","64e5087da7278dc3ffc22541","","","","","3516",""," ","key"," ","16.657014285714276","500","250","instEB4","49","30","40","2","","0","0"
"","psychophysics","204","722192","0.0-204.0","5cc3f0f9fdb33500018c5eeb","64e5087da7278dc3ffc22541","","","","","487",""," ","key"," ","16.654586206892795","500","250","inst","","","","","","",""
"","psychophysics","205","725425","0.0-205.0","5cc3f0f9fdb33500018c5eeb","64e5087da7278dc3ffc22541","","","","","3225",""," ","key"," ","16.65700518134728","500","250","eb","42","26","34","2","","0","0"
"","psychophysics","206","727162","0.0-206.0","5cc3f0f9fdb33500018c5eeb","64e5087da7278dc3ffc22541","","","","","1727",""," ","key"," ","16.656875000000582","500","250","eb","49","46","41","2","","0","0"
"","psychophysics","207","730656","0.0-207.0","5cc3f0f9fdb33500018c5eeb","64e5087da7278dc3ffc22541","","","","","3485",""," ","key"," ","16.658144230769093","500","250","eb","42","47","33","2","","0","0"
"","psychophysics","208","734667","0.0-208.0","5cc3f0f9fdb33500018c5eeb","64e5087da7278dc3ffc22541","","","","","4001",""," ","key"," ","16.656754166666847","500","250","eb","36","27","30","2","","0","0"
"","psychophysics","209","737681","0.0-209.0","5cc3f0f9fdb33500018c5eeb","64e5087da7278dc3ffc22541","","","","","3009",""," ","key"," ","16.65777777777726","500","250","eb","54","45","46","2","","0","0"
"","psychophysics","210","739191","0.0-210.0","5cc3f0f9fdb33500018c5eeb","64e5087da7278dc3ffc22541","","","","","1495",""," ","key"," ","16.657055555555658","500","250","eb","51","53","41","2","","0","0"
"","psychophysics","211","742030","0.0-211.0","5cc3f0f9fdb33500018c5eeb","64e5087da7278dc3ffc22541","","","","","2834",""," ","key"," ","16.654349112425816","500","250","eb","46","26","37","2","","0","0"
"","psychophysics","212","744347","0.0-212.0","5cc3f0f9fdb33500018c5eeb","64e5087da7278dc3ffc22541","","","","","2308",""," ","key"," ","16.658050724637587","500","250","eb","49","51","41","2","","0","0"
"","psychophysics","213","748585","0.0-213.0","5cc3f0f9fdb33500018c5eeb","64e5087da7278dc3ffc22541","","","","","4218",""," ","key"," ","16.656641732283507","500","250","eb","26","51","24","2","","0","0"
"","psychophysics","214","751283","0.0-214.0","5cc3f0f9fdb33500018c5eeb","64e5087da7278dc3ffc22541","","","","","2692",""," ","key"," ","16.65678881987588","500","250","eb","37","43","30","2","","0","0"
"","psychophysics","215","754725","0.0-215.0","5cc3f0f9fdb33500018c5eeb","64e5087da7278dc3ffc22541","","","","","3435",""," ","key"," ","16.658585365853703","500","250","eb","48","29","37","2","","0","0"
"","psychophysics","216","758704","0.0-216.0","5cc3f0f9fdb33500018c5eeb","64e5087da7278dc3ffc22541","","","","","3970",""," ","key"," ","16.656663865546065","500","250","eb","63","38","51","2","","0","0"
"","psychophysics","217","761812","0.0-217.0","5cc3f0f9fdb33500018c5eeb","64e5087da7278dc3ffc22541","","","","","3090",""," ","key"," ","16.656795698924675","500","250","eb","46","49","36","2","","0","0"
"","psychophysics","218","764968","0.0-218.0","5cc3f0f9fdb33500018c5eeb","64e5087da7278dc3ffc22541","","","","","3151",""," ","key"," ","16.655952127659667","500","250","eb","53","41","45","2","","0","0"
"","psychophysics","219","767875","0.0-219.0","5cc3f0f9fdb33500018c5eeb","64e5087da7278dc3ffc22541","","","","","2890",""," ","key"," ","16.656850574712735","500","250","eb","44","45","36","2","","0","0"
