"success","trial_type","trial_index","time_elapsed","internal_node_id","pid","sid","timeout","failed_images","failed_audio","failed_video","rt","stimulus","response","response_type","key_press","avg_frame_time","center_x","center_y","task","resp","version","block","jitterX","jitterY","start","parA"
"true","fullscreen","0","6367","0.0-0.0","6483fded206bc517c6ad6d0c","64e50ed44906550b1e9c54de","","","","","","","","","","","","","","","","","","","",""
"true","preload","1","6532","0.0-1.0","6483fded206bc517c6ad6d0c","64e50ed44906550b1e9c54de","false","[]","[]","[]","","","","","","","","","","","","","","","",""
"","html-button-response","2","9815","0.0-2.0","6483fded206bc517c6ad6d0c","64e50ed44906550b1e9c54de","","","","","3281","Please Make Sure Your Audio Is On.","0","","","","","","","","","","","","",""
"","psychophysics","3","19424","0.0-3.0","6483fded206bc517c6ad6d0c","64e50ed44906550b1e9c54de","","","","","9604",""," ","key"," ","16.66656","768","250","","","","","","","",""
"","psychophysics","4","24679","0.0-4.0","6483fded206bc517c6ad6d0c","64e50ed44906550b1e9c54de","","","","","5254",""," ","key"," ","16.666573248407644","500","250","inst","","","","","","",""
"","psychophysics","5","30127","0.0-5.0","6483fded206bc517c6ad6d0c","64e50ed44906550b1e9c54de","","","","","5441",""," ","key"," ","16.666613496932513","500","250","sample0","","","","","","",""
"","psychophysics","6","34919","0.0-6.0","6483fded206bc517c6ad6d0c","64e50ed44906550b1e9c54de","","","","","4791",""," ","key"," ","16.666540069686405","500","250","sample1","","","","","","",""
"","psychophysics","7","54751","0.0-7.0","6483fded206bc517c6ad6d0c","64e50ed44906550b1e9c54de","","","","","19830",""," ","key"," ","16.66654751892346","500","250","sample2","100","","","","","",""
"","psychophysics","8","59575","0.0-8.0","6483fded206bc517c6ad6d0c","64e50ed44906550b1e9c54de","","","","","4818",""," ","key"," ","16.666541666666667","500","250","sample3","86","","","","","",""
"","psychophysics","9","73763","0.0-9.0","6483fded206bc517c6ad6d0c","64e50ed44906550b1e9c54de","","","","","14182",""," ","key"," ","16.66653764705883","500","250","sample4","100","","","","","",""
"","psychophysics","10","78006","0.0-10.0","6483fded206bc517c6ad6d0c","64e50ed44906550b1e9c54de","","","","","4239",""," ","key"," ","16.66651968503938","500","250","sample5","","","","","","",""
"","psychophysics","11","92334","0.0-11.0","6483fded206bc517c6ad6d0c","64e50ed44906550b1e9c54de","","","","","14326",""," ","key"," ","16.66656228172294","500","250","sample6","500","","","","","",""
"","psychophysics","12","112454","0.0-12.0","6483fded206bc517c6ad6d0c","64e50ed44906550b1e9c54de","","","","","20119",""," ","key"," ","16.66653150912106","500","250","inst","","","","","","",""
"","psychophysics","13","118358","0.0-13.0","6483fded206bc517c6ad6d0c","64e50ed44906550b1e9c54de","","","","","5902",""," ","key"," ","16.666538243626064","500","250","inst","","","","","","",""
"","psychophysics","14","124782","0.0-14.0","6483fded206bc517c6ad6d0c","64e50ed44906550b1e9c54de","","","","","6423",""," ","key"," ","16.666545454545442","500","250","inst","","","","","","",""
"","psychophysics","15","127581","0.0-15.0","6483fded206bc517c6ad6d0c","64e50ed44906550b1e9c54de","","","","","2798",""," ","key"," ","16.66655688622756","500","250","inst","","","","","","",""
"","psychophysics","16","129685","0.0-16.0","6483fded206bc517c6ad6d0c","64e50ed44906550b1e9c54de","","","","","2102",""," ","key"," ","16.666511999999987","500","250","inst","","","","","","",""
"","psychophysics","17","135742","0.0-17.0","6483fded206bc517c6ad6d0c","64e50ed44906550b1e9c54de","","","","","6055",""," ","key"," ","16.666560773480658","500","250","instZol0","0","","","0","0","0",""
"","psychophysics","18","155053","0.0-18.0","6483fded206bc517c6ad6d0c","64e50ed44906550b1e9c54de","","","","","19310",""," ","key"," ","16.66654145077721","500","250","instZol1","-0.19999999999999998","","","0","0","-1.3",""
"","psychophysics","19","171693","0.0-19.0","6483fded206bc517c6ad6d0c","64e50ed44906550b1e9c54de","","","","","16637",""," ","key"," ","16.666545636910733","500","250","instZol2","-1.2999999999999994","2","","0","0","2",""
"","psychophysics","20","174933","0.0-20.0","6483fded206bc517c6ad6d0c","64e50ed44906550b1e9c54de","","","","","3236",""," ","key"," ","16.666530927835055","500","250","inst","","","","","","",""
"","psychophysics","21","179133","0.0-21.0","6483fded206bc517c6ad6d0c","64e50ed44906550b1e9c54de","","","","","4195",""," ","key"," ","16.66652589641438","500","250","zol","-1.1500000000000001","2","0","-12","16","-0.15",""
"","psychophysics","22","183885","0.0-22.0","6483fded206bc517c6ad6d0c","64e50ed44906550b1e9c54de","","","","","4749",""," ","key"," ","16.666535211267615","500","250","zol","-1.0799999999999998","2","0","7","-4","0.38",""
"","psychophysics","23","191133","0.0-23.0","6483fded206bc517c6ad6d0c","64e50ed44906550b1e9c54de","","","","","7245",""," ","key"," ","16.66652764976962","500","250","zol","-0.8299999999999998","2","0","-30","-25","-0.67",""
"","psychophysics","24","196709","0.0-24.0","6483fded206bc517c6ad6d0c","64e50ed44906550b1e9c54de","","","","","5573",""," ","key"," ","16.66652252252249","500","250","zol","-1.2100000000000002","2","0","-9","-24","0.31",""
"","psychophysics","25","203493","0.0-25.0","6483fded206bc517c6ad6d0c","64e50ed44906550b1e9c54de","","","","","6779",""," ","key"," ","16.666529556650257","500","250","zol","-1.02","2","0","2","-13","-0.58",""
"","psychophysics","26","211495","0.0-26.0","6483fded206bc517c6ad6d0c","64e50ed44906550b1e9c54de","","","","","null","","null","key","null","16.666562500000023","500","250","zol","-1.1600000000000001","2","0","25","19","0.66",""
"","psychophysics","27","219498","0.0-27.0","6483fded206bc517c6ad6d0c","64e50ed44906550b1e9c54de","","","","","null","","null","key","null","16.666588726513513","500","250","zol","-1.8000000000000005","2","0","21","-23","0.5",""
"","psychophysics","28","224997","0.0-28.0","6483fded206bc517c6ad6d0c","64e50ed44906550b1e9c54de","","","","","5496",""," ","key"," ","16.666537993920965","500","250","zol","-0.8200000000000001","2","0","25","4","0.52",""
"","psychophysics","29","230020","0.0-29.0","6483fded206bc517c6ad6d0c","64e50ed44906550b1e9c54de","","","","","5021",""," ","key"," ","16.66649000000005","500","250","zol","-1.4100000000000004","2","0","8","12","-0.09",""
"","psychophysics","30","233756","0.0-30.0","6483fded206bc517c6ad6d0c","64e50ed44906550b1e9c54de","","","","","3733",""," ","key"," ","16.66655156950674","500","250","zol","-0.6099999999999999","2","0","-13","14","0.41",""
"","psychophysics","31","237716","0.0-31.0","6483fded206bc517c6ad6d0c","64e50ed44906550b1e9c54de","","","","","3957",""," ","key"," ","16.666578059071696","500","250","zol","-1.2","2","0","19","2","0.6",""
"","psychophysics","32","241868","0.0-32.0","6483fded206bc517c6ad6d0c","64e50ed44906550b1e9c54de","","","","","4149",""," ","key"," ","16.66654032258063","500","250","zol","-1.5700000000000003","2","0","21","16","0.37",""
"","psychophysics","33","246476","0.0-33.0","6483fded206bc517c6ad6d0c","64e50ed44906550b1e9c54de","","","","","4605",""," ","key"," ","16.66653454545462","500","250","zol","-0.41999999999999993","2","0","-17","-29","-0.68",""
"","psychophysics","34","249468","0.0-34.0","6483fded206bc517c6ad6d0c","64e50ed44906550b1e9c54de","","","","","2984",""," ","key"," ","16.66657541899447","500","250","zol","-0.83","2","0","-9","-18","0.03",""
"","psychophysics","35","252068","0.0-35.0","6483fded206bc517c6ad6d0c","64e50ed44906550b1e9c54de","","","","","2597",""," ","key"," ","16.66654838709679","500","250","zol","-1.0799999999999998","2","0","10","-25","-0.22",""
"","psychophysics","36","254972","0.0-36.0","6483fded206bc517c6ad6d0c","64e50ed44906550b1e9c54de","","","","","2903",""," ","key"," ","16.66653757225426","500","250","inst","","","","","","",""
"","psychophysics","37","257700","0.0-37.0","6483fded206bc517c6ad6d0c","64e50ed44906550b1e9c54de","","","","","2727",""," ","key"," ","16.66649693251531","500","250","instPzPre","50","0","","","","50","50"
"","psychophysics","38","260252","0.0-38.0","6483fded206bc517c6ad6d0c","64e50ed44906550b1e9c54de","","","","","2550",""," ","key"," ","16.666499999999935","500","250","instPz0","50","1","","","","50","50"
"","psychophysics","39","271980","0.0-39.0","6483fded206bc517c6ad6d0c","64e50ed44906550b1e9c54de","","","","","11727",""," ","key"," ","16.666533428165014","500","250","instPz1","54","1","","","","25","50"
"","psychophysics","40","278820","0.0-40.0","6483fded206bc517c6ad6d0c","64e50ed44906550b1e9c54de","","","","","6838",""," ","key"," ","16.66653056234727","500","250","instPz2","22","1","","","","35","20"
"","psychophysics","41","293308","0.0-41.0","6483fded206bc517c6ad6d0c","64e50ed44906550b1e9c54de","","","","","14486",""," ","key"," ","16.66654608294935","500","250","instPz3","100","1","","","","100","30"
"","psychophysics","42","312245","0.0-42.0","6483fded206bc517c6ad6d0c","64e50ed44906550b1e9c54de","","","","","18933",""," ","key"," ","16.666544014084522","500","250","instPz4","100","1","","","","100","30"
"","psychophysics","43","314748","0.0-43.0","6483fded206bc517c6ad6d0c","64e50ed44906550b1e9c54de","","","","","2502",""," ","key"," ","16.666442953020447","500","250","inst","","","","","","",""
"","psychophysics","44","322004","0.0-44.0","6483fded206bc517c6ad6d0c","64e50ed44906550b1e9c54de","","","","","7254",""," ","key"," ","16.66657834101379","500","250","pz","74","1","0","","","40","60"
"","psychophysics","45","327028","0.0-45.0","6483fded206bc517c6ad6d0c","64e50ed44906550b1e9c54de","","","","","5022",""," ","key"," ","16.66652491694356","500","250","pz","49","1","0","","","23","41"
"","psychophysics","46","333340","0.0-46.0","6483fded206bc517c6ad6d0c","64e50ed44906550b1e9c54de","","","","","6309",""," ","key"," ","16.666572944296952","500","250","pz","56","1","0","","","25","52"
"","psychophysics","47","338788","0.0-47.0","6483fded206bc517c6ad6d0c","64e50ed44906550b1e9c54de","","","","","5446",""," ","key"," ","16.666533742331225","500","250","pz","29","1","0","","","24","23"
"","psychophysics","48","343252","0.0-48.0","6483fded206bc517c6ad6d0c","64e50ed44906550b1e9c54de","","","","","4462",""," ","key"," ","16.666565543071155","500","250","pz","40","1","0","","","33","36"
"","psychophysics","49","347852","0.0-49.0","6483fded206bc517c6ad6d0c","64e50ed44906550b1e9c54de","","","","","4598",""," ","key"," ","16.66652000000002","500","250","pz","54","1","0","","","56","45"
"","psychophysics","50","352764","0.0-50.0","6483fded206bc517c6ad6d0c","64e50ed44906550b1e9c54de","","","","","4910",""," ","key"," ","16.666520408163247","500","250","pz","35","1","0","","","34","30"
"","psychophysics","51","358028","0.0-51.0","6483fded206bc517c6ad6d0c","64e50ed44906550b1e9c54de","","","","","5262",""," ","key"," ","16.66654603174603","500","250","pz","45","1","0","","","20","38"
"","psychophysics","52","361547","0.0-52.0","6483fded206bc517c6ad6d0c","64e50ed44906550b1e9c54de","","","","","3517",""," ","key"," ","16.66659047619046","500","250","pz","37","1","0","","","37","30"
"","psychophysics","53","367475","0.0-53.0","6483fded206bc517c6ad6d0c","64e50ed44906550b1e9c54de","","","","","5926",""," ","key"," ","16.6665451977401","500","250","pz","47","1","0","","","21","43"
"","psychophysics","54","372915","0.0-54.0","6483fded206bc517c6ad6d0c","64e50ed44906550b1e9c54de","","","","","5437",""," ","key"," ","16.66649079754605","500","250","pz","46","1","0","","","33","39"
"","psychophysics","55","378787","0.0-55.0","6483fded206bc517c6ad6d0c","64e50ed44906550b1e9c54de","","","","","5870",""," ","key"," ","16.666581196581117","500","250","pz","52","1","0","","","34","45"
"","psychophysics","56","384299","0.0-56.0","6483fded206bc517c6ad6d0c","64e50ed44906550b1e9c54de","","","","","5509",""," ","key"," ","16.666584848484842","500","250","pz","34","1","0","","","44","24"
"","psychophysics","57","392300","0.0-57.0","6483fded206bc517c6ad6d0c","64e50ed44906550b1e9c54de","","","","","null","","null","key","null","16.66651565762004","500","250","pz","71","1","0","","","27","57"
"","psychophysics","58","392875","0.0-58.0","6483fded206bc517c6ad6d0c","64e50ed44906550b1e9c54de","","","","","572",""," ","key"," ","16.667181818181593","500","250","pz","59","1","0","","","59","36"
"","psychophysics","59","394482","0.0-59.0","6483fded206bc517c6ad6d0c","64e50ed44906550b1e9c54de","","","","","1605",""," ","key"," ","16.666562499999902","500","250","inst","","","","","","",""
"","psychophysics","60","396963","0.0-60.0","6483fded206bc517c6ad6d0c","64e50ed44906550b1e9c54de","","","","","2479",""," ","key"," ","16.666587837837632","500","250","instEB0","40","1","","0","0","40","40"
"","psychophysics","61","413306","0.0-61.0","6483fded206bc517c6ad6d0c","64e50ed44906550b1e9c54de","","","","","16342",""," ","key"," ","16.666565883554618","500","250","instEB1","31","1","","0","0","40","30"
"","psychophysics","62","425386","0.0-62.0","6483fded206bc517c6ad6d0c","64e50ed44906550b1e9c54de","","","","","12077",""," ","key"," ","16.666542817679545","500","250","instEB2","39","1","","0","0","30","40"
"","psychophysics","63","433946","0.0-63.0","6483fded206bc517c6ad6d0c","64e50ed44906550b1e9c54de","","","","","8558",""," ","key"," ","16.666534113060486","500","250","instEB3","41","1","","0","0","27","45"
"","psychophysics","64","450778","0.0-64.0","6483fded206bc517c6ad6d0c","64e50ed44906550b1e9c54de","","","","","16830",""," ","key"," ","16.66655698711594","500","250","instEB4","28","1","","0","0","40","30"
"","psychophysics","65","452042","0.0-65.0","6483fded206bc517c6ad6d0c","64e50ed44906550b1e9c54de","","","","","1263",""," ","key"," ","16.666506666666827","500","250","inst","","","","","","",""
"","psychophysics","66","456634","0.0-66.0","6483fded206bc517c6ad6d0c","64e50ed44906550b1e9c54de","","","","","4585",""," ","key"," ","16.666576642335738","500","250","eb","30","1","","0","0","27","37"
"","psychophysics","67","461458","0.0-67.0","6483fded206bc517c6ad6d0c","64e50ed44906550b1e9c54de","","","","","4822",""," ","key"," ","16.666513888888908","500","250","eb","25","1","","0","0","41","27"
"","psychophysics","68","467538","0.0-68.0","6483fded206bc517c6ad6d0c","64e50ed44906550b1e9c54de","","","","","6077",""," ","key"," ","16.666546703296603","500","250","eb","36","1","","0","0","37","38"
"","psychophysics","69","475540","0.0-69.0","6483fded206bc517c6ad6d0c","64e50ed44906550b1e9c54de","","","","","null","","null","key","null","16.66654697286015","500","250","eb","43","1","","0","0","24","47"
"","psychophysics","70","480218","0.0-70.0","6483fded206bc517c6ad6d0c","64e50ed44906550b1e9c54de","","","","","4674",""," ","key"," ","16.66656428571441","500","250","eb","25","1","","0","0","40","31"
"","psychophysics","71","484626","0.0-71.0","6483fded206bc517c6ad6d0c","64e50ed44906550b1e9c54de","","","","","4406",""," ","key"," ","16.666522727272724","500","250","eb","30","1","","0","0","33","34"
"","psychophysics","72","490858","0.0-72.0","6483fded206bc517c6ad6d0c","64e50ed44906550b1e9c54de","","","","","6230",""," ","key"," ","16.666537634408577","500","250","eb","44","1","","0","0","42","51"
"","psychophysics","73","496849","0.0-73.0","6483fded206bc517c6ad6d0c","64e50ed44906550b1e9c54de","","","","","5989",""," ","key"," ","16.666543175487437","500","250","eb","22","1","","0","0","51","24"
"","psychophysics","74","502033","0.0-74.0","6483fded206bc517c6ad6d0c","64e50ed44906550b1e9c54de","","","","","5182",""," ","key"," ","16.666570967741897","500","250","eb","30","1","","0","0","45","36"
"","psychophysics","75","506001","0.0-75.0","6483fded206bc517c6ad6d0c","64e50ed44906550b1e9c54de","","","","","3962",""," ","key"," ","16.666518987341636","500","250","eb","37","1","","0","0","53","43"
"","psychophysics","76","509977","0.0-76.0","6483fded206bc517c6ad6d0c","64e50ed44906550b1e9c54de","","","","","3974",""," ","key"," ","16.666584033613432","500","250","eb","39","1","","0","0","37","50"
"","psychophysics","77","514937","0.0-77.0","6483fded206bc517c6ad6d0c","64e50ed44906550b1e9c54de","","","","","4957",""," ","key"," ","16.666533783783766","500","250","eb","34","1","","0","0","47","41"
"","psychophysics","78","517761","0.0-78.0","6483fded206bc517c6ad6d0c","64e50ed44906550b1e9c54de","","","","","2822",""," ","key"," ","16.666532544378526","500","250","eb","25","1","","0","0","26","29"
"","psychophysics","79","522201","0.0-79.0","6483fded206bc517c6ad6d0c","64e50ed44906550b1e9c54de","","","","","4438",""," ","key"," ","16.666524528301945","500","250","eb","45","1","","0","0","51","51"
"","psychophysics","80","526129","0.0-80.0","6483fded206bc517c6ad6d0c","64e50ed44906550b1e9c54de","","","","","3926",""," ","key"," ","16.66654893617032","500","250","eb","37","1","","0","0","38","42"
"","psychophysics","81","528313","0.0-81.0","6483fded206bc517c6ad6d0c","64e50ed44906550b1e9c54de","","","","","2182",""," ","key"," ","16.666530769230583","500","250","inst","","","","","","",""
"","psychophysics","82","532641","0.0-82.0","6483fded206bc517c6ad6d0c","64e50ed44906550b1e9c54de","","","","","4326",""," ","key"," ","16.66647104247119","500","250","instBr0","0","","","0","0","0","300"
"","psychophysics","83","545233","0.0-83.0","6483fded206bc517c6ad6d0c","64e50ed44906550b1e9c54de","","","","","12590",""," ","key"," ","16.666579575596696","500","250","instBr1","-7","","","0","0","-40","300"
"","psychophysics","84","554009","0.0-84.0","6483fded206bc517c6ad6d0c","64e50ed44906550b1e9c54de","","","","","8774",""," ","key"," ","16.666522813688243","500","250","instBr3","12","2","","0","0","40","300"
"","psychophysics","85","554953","0.0-85.0","6483fded206bc517c6ad6d0c","64e50ed44906550b1e9c54de","","","","","942",""," ","key"," ","16.666945454545996","500","250","inst","","","","","","",""
"","psychophysics","86","558985","0.0-86.0","6483fded206bc517c6ad6d0c","64e50ed44906550b1e9c54de","","","","","4030",""," ","key"," ","16.666539419086888","500","250","br","14","2","0","22","25","-19","250"
"","psychophysics","87","564544","0.0-87.0","6483fded206bc517c6ad6d0c","64e50ed44906550b1e9c54de","","","","","5558",""," ","key"," ","16.666540540540844","500","250","br","14","2","0","23","25","-30","234"
"","psychophysics","88","568768","0.0-88.0","6483fded206bc517c6ad6d0c","64e50ed44906550b1e9c54de","","","","","4222",""," ","key"," ","16.6666349206348","500","250","br","16","2","0","-18","16","3","238"
"","psychophysics","89","572016","0.0-89.0","6483fded206bc517c6ad6d0c","64e50ed44906550b1e9c54de","","","","","3246",""," ","key"," ","16.666551546391684","500","250","br","11","2","0","20","8","-22","231"
"","psychophysics","90","576896","0.0-90.0","6483fded206bc517c6ad6d0c","64e50ed44906550b1e9c54de","","","","","4878",""," ","key"," ","16.666462328766986","500","250","br","15","2","0","9","10","-24","203"
"","psychophysics","91","582160","0.0-91.0","6483fded206bc517c6ad6d0c","64e50ed44906550b1e9c54de","","","","","5262",""," ","key"," ","16.66662222222233","500","250","br","15","2","0","17","26","27","244"
"","psychophysics","92","585712","0.0-92.0","6483fded206bc517c6ad6d0c","64e50ed44906550b1e9c54de","","","","","3550",""," ","key"," ","16.666504716981127","500","250","br","14","2","0","28","6","-15","287"
"","psychophysics","93","588552","0.0-93.0","6483fded206bc517c6ad6d0c","64e50ed44906550b1e9c54de","","","","","2838",""," ","key"," ","16.66649704141964","500","250","br","13","2","0","4","-23","-13","220"
"","psychophysics","94","593441","0.0-94.0","6483fded206bc517c6ad6d0c","64e50ed44906550b1e9c54de","","","","","4887",""," ","key"," ","16.666549488054603","500","250","br","14","2","0","-1","-10","12","254"
"","psychophysics","95","597432","0.0-95.0","6483fded206bc517c6ad6d0c","64e50ed44906550b1e9c54de","","","","","3989",""," ","key"," ","16.66653781512629","500","250","br","14","2","0","14","15","-7","255"
"","psychophysics","96","600608","0.0-96.0","6483fded206bc517c6ad6d0c","64e50ed44906550b1e9c54de","","","","","3174",""," ","key"," ","16.666415789474023","500","250","br","15","2","0","30","-8","0","260"
"","psychophysics","97","603248","0.0-97.0","6483fded206bc517c6ad6d0c","64e50ed44906550b1e9c54de","","","","","2638",""," ","key"," ","16.666560509554287","500","250","br","18","2","0","6","23","18","259"
"","psychophysics","98","609712","0.0-98.0","6483fded206bc517c6ad6d0c","64e50ed44906550b1e9c54de","","","","","6462",""," ","key"," ","16.666607235142305","500","250","br","14","2","0","-19","14","-10","277"
"","psychophysics","99","614312","0.0-99.0","6483fded206bc517c6ad6d0c","64e50ed44906550b1e9c54de","","","","","4598",""," ","key"," ","16.666519999999807","500","250","br","14","2","0","-21","-8","-20","298"
"","psychophysics","100","618776","0.0-100.0","6483fded206bc517c6ad6d0c","64e50ed44906550b1e9c54de","","","","","4462",""," ","key"," ","16.666550561797905","500","250","br","15","2","0","5","18","-21","216"
"","psychophysics","101","619592","0.0-101.0","6483fded206bc517c6ad6d0c","64e50ed44906550b1e9c54de","","","","","815",""," ","key"," ","16.666604166666122","500","250","inst","","","","","","",""
"","psychophysics","102","643112","0.0-102.0","6483fded206bc517c6ad6d0c","64e50ed44906550b1e9c54de","","","","","23518",""," ","key"," ","16.666539716312055","500","250","instPog0","160","1","","0","0","190","160"
"","psychophysics","103","653192","0.0-103.0","6483fded206bc517c6ad6d0c","64e50ed44906550b1e9c54de","","","","","10078",""," ","key"," ","16.666533112582798","500","250","instPog1","168","1","","0","0","190","160"
"","psychophysics","104","663720","0.0-104.0","6483fded206bc517c6ad6d0c","64e50ed44906550b1e9c54de","","","","","10527",""," ","key"," ","16.666528571428664","500","250","instPog2","180","1","","0","0","160","160"
"","psychophysics","105","664903","0.0-105.0","6483fded206bc517c6ad6d0c","64e50ed44906550b1e9c54de","","","","","1182",""," ","key"," ","16.666142857142923","500","250","inst","","","","","","",""
"","psychophysics","106","669256","0.0-106.0","6483fded206bc517c6ad6d0c","64e50ed44906550b1e9c54de","","","","","4350",""," ","key"," ","16.666628352490385","500","250","pog","171","1","0","0","0","145","153"
"","psychophysics","107","671903","0.0-107.0","6483fded206bc517c6ad6d0c","64e50ed44906550b1e9c54de","","","","","2645",""," ","key"," ","16.66650318471377","500","250","pog","173","1","0","0","0","131","154"
"","psychophysics","108","675967","0.0-108.0","6483fded206bc517c6ad6d0c","64e50ed44906550b1e9c54de","","","","","4062",""," ","key"," ","16.66653086419779","500","250","pog","164","1","0","0","0","118","146"
"","psychophysics","109","680887","0.0-109.0","6483fded206bc517c6ad6d0c","64e50ed44906550b1e9c54de","","","","","4918",""," ","key"," ","16.666574829931967","500","250","pog","189","1","0","0","0","137","168"
"","psychophysics","110","684928","0.0-110.0","6483fded206bc517c6ad6d0c","64e50ed44906550b1e9c54de","","","","","4036",""," ","key"," ","16.666446280991853","500","250","pog","224","1","0","0","0","176","198"
"","psychophysics","111","692719","0.0-111.0","6483fded206bc517c6ad6d0c","64e50ed44906550b1e9c54de","","","","","7789",""," ","key"," ","16.66658583690978","500","250","pog","172","1","0","0","0","108","159"
"","psychophysics","112","698423","0.0-112.0","6483fded206bc517c6ad6d0c","64e50ed44906550b1e9c54de","","","","","5702",""," ","key"," ","16.66651169590656","500","250","pog","202","1","0","0","0","102","184"
"","psychophysics","113","703511","0.0-113.0","6483fded206bc517c6ad6d0c","64e50ed44906550b1e9c54de","","","","","5086",""," ","key"," ","16.666582236842306","500","250","pog","186","1","0","0","0","104","165"
"","psychophysics","114","708135","0.0-114.0","6483fded206bc517c6ad6d0c","64e50ed44906550b1e9c54de","","","","","4622",""," ","key"," ","16.6665000000001","500","250","pog","184","1","0","0","0","212","159"
"","psychophysics","115","714047","0.0-115.0","6483fded206bc517c6ad6d0c","64e50ed44906550b1e9c54de","","","","","5910",""," ","key"," ","16.666573446327533","500","250","pog","195","1","0","0","0","147","179"
"","psychophysics","116","717951","0.0-116.0","6483fded206bc517c6ad6d0c","64e50ed44906550b1e9c54de","","","","","3902",""," ","key"," ","16.66653218884131","500","250","pog","157","1","0","0","0","143","146"
"","psychophysics","117","723839","0.0-117.0","6483fded206bc517c6ad6d0c","64e50ed44906550b1e9c54de","","","","","5886",""," ","key"," ","16.666529745042585","500","250","pog","132","1","0","0","0","162","121"
"","psychophysics","118","730591","0.0-118.0","6483fded206bc517c6ad6d0c","64e50ed44906550b1e9c54de","","","","","6749",""," ","key"," ","16.666539603960413","500","250","pog","197","1","0","0","0","141","185"
"","psychophysics","119","734447","0.0-119.0","6483fded206bc517c6ad6d0c","64e50ed44906550b1e9c54de","","","","","3854",""," ","key"," ","16.6665391304348","500","250","pog","204","1","0","0","0","218","195"
"","psychophysics","120","739879","0.0-120.0","6483fded206bc517c6ad6d0c","64e50ed44906550b1e9c54de","","","","","5430",""," ","key"," ","16.666563076923172","500","250","pog","164","1","0","0","0","220","150"
"","psychophysics","121","740783","0.0-121.0","6483fded206bc517c6ad6d0c","64e50ed44906550b1e9c54de","","","","","902",""," ","key"," ","16.666716981132268","500","250","inst","","","","","","",""
"","psychophysics","122","748959","0.0-122.0","6483fded206bc517c6ad6d0c","64e50ed44906550b1e9c54de","","","","","8175",""," ","key"," ","16.666530612244852","500","250","instEB1","43","2","","0","0","30","40"
"","psychophysics","123","753799","0.0-123.0","6483fded206bc517c6ad6d0c","64e50ed44906550b1e9c54de","","","","","4838",""," ","key"," ","16.666525951557258","500","250","instEB2","36","2","","0","0","40","30"
"","psychophysics","124","761903","0.0-124.0","6483fded206bc517c6ad6d0c","64e50ed44906550b1e9c54de","","","","","8102",""," ","key"," ","16.666525773195904","500","250","instEB3","36","2","","0","0","45","27"
"","psychophysics","125","770678","0.0-125.0","6483fded206bc517c6ad6d0c","64e50ed44906550b1e9c54de","","","","","8774",""," ","key"," ","16.66655893536119","500","250","instEB4","45","2","","0","0","30","40"
"","psychophysics","126","771558","0.0-126.0","6483fded206bc517c6ad6d0c","64e50ed44906550b1e9c54de","","","","","879",""," ","key"," ","16.666576923077137","500","250","inst","","","","","","",""
"","psychophysics","127","776606","0.0-127.0","6483fded206bc517c6ad6d0c","64e50ed44906550b1e9c54de","","","","","5046",""," ","key"," ","16.66653311258299","500","250","eb","39","2","","0","0","50","32"
"","psychophysics","128","782134","0.0-128.0","6483fded206bc517c6ad6d0c","64e50ed44906550b1e9c54de","","","","","5525",""," ","key"," ","16.666536363636173","500","250","eb","53","2","","0","0","48","41"
"","psychophysics","129","785646","0.0-129.0","6483fded206bc517c6ad6d0c","64e50ed44906550b1e9c54de","","","","","3510",""," ","key"," ","16.666533333333653","500","250","eb","57","2","","0","0","45","51"
"","psychophysics","130","790870","0.0-130.0","6483fded206bc517c6ad6d0c","64e50ed44906550b1e9c54de","","","","","5222",""," ","key"," ","16.666554487179756","500","250","eb","48","2","","0","0","31","43"
"","psychophysics","131","795950","0.0-131.0","6483fded206bc517c6ad6d0c","64e50ed44906550b1e9c54de","","","","","5077",""," ","key"," ","16.666549342105434","500","250","eb","58","2","","0","0","27","52"
"","psychophysics","132","800318","0.0-132.0","6483fded206bc517c6ad6d0c","64e50ed44906550b1e9c54de","","","","","4366",""," ","key"," ","16.66653639846749","500","250","eb","48","2","","0","0","25","41"
"","psychophysics","133","804118","0.0-133.0","6483fded206bc517c6ad6d0c","64e50ed44906550b1e9c54de","","","","","3797",""," ","key"," ","16.666533039647383","500","250","eb","39","2","","0","0","42","32"
"","psychophysics","134","810262","0.0-134.0","6483fded206bc517c6ad6d0c","64e50ed44906550b1e9c54de","","","","","6142",""," ","key"," ","16.66655978260868","500","250","eb","55","2","","0","0","38","49"
"","psychophysics","135","813782","0.0-135.0","6483fded206bc517c6ad6d0c","64e50ed44906550b1e9c54de","","","","","3518",""," ","key"," ","16.666552380952496","500","250","eb","44","2","","0","0","25","35"
"","psychophysics","136","818670","0.0-136.0","6483fded206bc517c6ad6d0c","64e50ed44906550b1e9c54de","","","","","4886",""," ","key"," ","16.66643150684931","500","250","eb","46","2","","0","0","44","38"
"","psychophysics","137","826414","0.0-137.0","6483fded206bc517c6ad6d0c","64e50ed44906550b1e9c54de","","","","","7741",""," ","key"," ","16.66655818965504","500","250","eb","43","2","","0","0","35","36"
"","psychophysics","138","833686","0.0-138.0","6483fded206bc517c6ad6d0c","64e50ed44906550b1e9c54de","","","","","7269",""," ","key"," ","16.66657471264386","500","250","eb","61","2","","0","0","52","53"
"","psychophysics","139","841102","0.0-139.0","6483fded206bc517c6ad6d0c","64e50ed44906550b1e9c54de","","","","","7412",""," ","key"," ","16.66659234234222","500","250","eb","38","2","","0","0","49","31"
"","psychophysics","140","846316","0.0-140.0","6483fded206bc517c6ad6d0c","64e50ed44906550b1e9c54de","","","","","5213",""," ","key"," ","16.666410256410018","500","250","eb","36","2","","0","0","40","31"
"","psychophysics","141","852948","0.0-141.0","6483fded206bc517c6ad6d0c","64e50ed44906550b1e9c54de","","","","","6630",""," ","key"," ","16.666531486146127","500","250","eb","35","2","","0","0","51","30"
"","psychophysics","142","854004","0.0-142.0","6483fded206bc517c6ad6d0c","64e50ed44906550b1e9c54de","","","","","1054",""," ","key"," ","16.666587301589075","500","250","inst","","","","","","",""
"","psychophysics","143","858932","0.0-143.0","6483fded206bc517c6ad6d0c","64e50ed44906550b1e9c54de","","","","","4926",""," ","key"," ","16.66654761904751","500","250","instZol1","-0.09999999999999998","","","0","0","-1.3",""
"","psychophysics","144","871620","0.0-144.0","6483fded206bc517c6ad6d0c","64e50ed44906550b1e9c54de","","","","","12686",""," ","key"," ","16.666525624178743","500","250","instZol2","0.5000000000000007","1","","0","0","2",""
"","psychophysics","145","872724","0.0-145.0","6483fded206bc517c6ad6d0c","64e50ed44906550b1e9c54de","","","","","1102",""," ","key"," ","16.666753846152613","500","250","inst","","","","","","",""
"","psychophysics","146","880228","0.0-146.0","6483fded206bc517c6ad6d0c","64e50ed44906550b1e9c54de","","","","","7501",""," ","key"," ","16.66651893095767","500","250","zol","0.13000000000000017","1","1","22","17","-0.13",""
"","psychophysics","147","883724","0.0-147.0","6483fded206bc517c6ad6d0c","64e50ed44906550b1e9c54de","","","","","3493",""," ","key"," ","16.666583732057376","500","250","zol","0.47","1","1","17","9","0.63",""
"","psychophysics","148","887340","0.0-148.0","6483fded206bc517c6ad6d0c","64e50ed44906550b1e9c54de","","","","","3613",""," ","key"," ","16.666518518518487","500","250","zol","0.7699999999999999","1","1","12","-7","0.63",""
"","psychophysics","149","890460","0.0-149.0","6483fded206bc517c6ad6d0c","64e50ed44906550b1e9c54de","","","","","3117",""," ","key"," ","16.666553763440504","500","250","zol","0.9099999999999999","1","1","-5","-1","0.29",""
"","psychophysics","150","894580","0.0-150.0","6483fded206bc517c6ad6d0c","64e50ed44906550b1e9c54de","","","","","4117",""," ","key"," ","16.666565040650312","500","250","zol","1.26","1","1","-11","-19","0.34",""
"","psychophysics","151","898212","0.0-151.0","6483fded206bc517c6ad6d0c","64e50ed44906550b1e9c54de","","","","","3630",""," ","key"," ","16.666576036866346","500","250","zol","0.9199999999999999","1","1","20","18","0.38",""
"","psychophysics","152","901004","0.0-152.0","6483fded206bc517c6ad6d0c","64e50ed44906550b1e9c54de","","","","","2789",""," ","key"," ","16.666592814371235","500","250","zol","1.1300000000000001","1","1","28","9","0.17",""
"","psychophysics","153","906414","0.0-153.0","6483fded206bc517c6ad6d0c","64e50ed44906550b1e9c54de","","","","","5413",""," ","key"," ","16.66651543209877","500","250","zol","0.6499999999999999","1","1","-19","-15","0.15",""
"","psychophysics","154","911414","0.0-154.0","6483fded206bc517c6ad6d0c","64e50ed44906550b1e9c54de","","","","","4997",""," ","key"," ","16.66663545150509","500","250","zol","0.8999999999999999","1","1","-14","-17","-0.1",""
"","psychophysics","155","916182","0.0-155.0","6483fded206bc517c6ad6d0c","64e50ed44906550b1e9c54de","","","","","4765",""," ","key"," ","16.66655438596489","500","250","zol","0.69","1","1","0","-21","-0.19",""
"","psychophysics","156","919982","0.0-156.0","6483fded206bc517c6ad6d0c","64e50ed44906550b1e9c54de","","","","","3798",""," ","key"," ","16.666515418502197","500","250","zol","1.4500000000000002","1","1","-4","-24","-0.35",""
"","psychophysics","157","923518","0.0-157.0","6483fded206bc517c6ad6d0c","64e50ed44906550b1e9c54de","","","","","3533",""," ","key"," ","16.66653554502354","500","250","zol","1.37","1","1","5","30","0.03",""
"","psychophysics","158","926294","0.0-158.0","6483fded206bc517c6ad6d0c","64e50ed44906550b1e9c54de","","","","","2773",""," ","key"," ","16.66660000000036","500","250","zol","1.5600000000000003","1","1","18","6","-0.36",""
"","psychophysics","159","929414","0.0-159.0","6483fded206bc517c6ad6d0c","64e50ed44906550b1e9c54de","","","","","3116",""," ","key"," ","16.66650802139031","500","250","zol","1.37","1","1","-21","-14","-0.17",""
"","psychophysics","160","935998","0.0-160.0","6483fded206bc517c6ad6d0c","64e50ed44906550b1e9c54de","","","","","6581",""," ","key"," ","16.666520304568667","500","250","zol","0.7799999999999999","1","1","-27","10","0.72",""
"","psychophysics","161","936894","0.0-161.0","6483fded206bc517c6ad6d0c","64e50ed44906550b1e9c54de","","","","","894",""," ","key"," ","16.666480769230894","500","250","inst","","","","","","",""
"","psychophysics","162","962400","0.0-162.0","6483fded206bc517c6ad6d0c","64e50ed44906550b1e9c54de","","","","","25508",""," ","key"," ","16.666552287581744","500","250","instPz1","50","2","","","","25","50"
"","psychophysics","163","967864","0.0-163.0","6483fded206bc517c6ad6d0c","64e50ed44906550b1e9c54de","","","","","5462",""," ","key"," ","16.666529051987638","500","250","instPz2","34","2","","","","20","35"
"","psychophysics","164","994904","0.0-164.0","6483fded206bc517c6ad6d0c","64e50ed44906550b1e9c54de","","","","","27038",""," ","key"," ","16.666535471930924","500","250","instPz3","76","2","","","","30","100"
"","psychophysics","165","1011600","0.0-165.0","6483fded206bc517c6ad6d0c","64e50ed44906550b1e9c54de","","","","","16694",""," ","key"," ","16.66654245754249","500","250","instPz4","80","2","","","","30","100"
"","psychophysics","166","1012639","0.0-166.0","6483fded206bc517c6ad6d0c","64e50ed44906550b1e9c54de","","","","","1038",""," ","key"," ","16.666491803279925","500","250","inst","","","","","","",""
"","psychophysics","167","1016695","0.0-167.0","6483fded206bc517c6ad6d0c","64e50ed44906550b1e9c54de","","","","","4053",""," ","key"," ","16.666456790123547","500","250","pz","44","2","1","","","42","56"
"","psychophysics","168","1017927","0.0-168.0","6483fded206bc517c6ad6d0c","64e50ed44906550b1e9c54de","","","","","1230",""," ","key"," ","16.666589041095392","500","250","pz","45","2","1","","","45","56"
"","psychophysics","169","1022866","0.0-169.0","6483fded206bc517c6ad6d0c","64e50ed44906550b1e9c54de","","","","","4942",""," ","key"," ","16.66654915254271","500","250","pz","34","2","1","","","30","43"
"","psychophysics","170","1029482","0.0-170.0","6483fded206bc517c6ad6d0c","64e50ed44906550b1e9c54de","","","","","6613",""," ","key"," ","16.66655555555557","500","250","pz","20","2","1","","","45","24"
"","psychophysics","171","1034346","0.0-171.0","6483fded206bc517c6ad6d0c","64e50ed44906550b1e9c54de","","","","","4861",""," ","key"," ","16.666525773195985","500","250","pz","32","2","1","","","40","38"
"","psychophysics","172","1041554","0.0-172.0","6483fded206bc517c6ad6d0c","64e50ed44906550b1e9c54de","","","","","7206",""," ","key"," ","16.666525462962994","500","250","pz","44","2","1","","","59","55"
"","psychophysics","173","1046226","0.0-173.0","6483fded206bc517c6ad6d0c","64e50ed44906550b1e9c54de","","","","","4670",""," ","key"," ","16.66652688172047","500","250","pz","46","2","1","","","32","56"
"","psychophysics","174","1050722","0.0-174.0","6483fded206bc517c6ad6d0c","64e50ed44906550b1e9c54de","","","","","4494",""," ","key"," ","16.66645724907064","500","250","pz","44","2","1","","","60","50"
"","psychophysics","175","1056242","0.0-175.0","6483fded206bc517c6ad6d0c","64e50ed44906550b1e9c54de","","","","","5518",""," ","key"," ","16.666533333332644","500","250","pz","52","2","1","","","36","60"
"","psychophysics","176","1060322","0.0-176.0","6483fded206bc517c6ad6d0c","64e50ed44906550b1e9c54de","","","","","4078",""," ","key"," ","16.666528688524238","500","250","pz","38","2","1","","","44","43"
"","psychophysics","177","1064298","0.0-177.0","6483fded206bc517c6ad6d0c","64e50ed44906550b1e9c54de","","","","","3974",""," ","key"," ","16.666565400843982","500","250","pz","37","2","1","","","27","42"
"","psychophysics","178","1069642","0.0-178.0","6483fded206bc517c6ad6d0c","64e50ed44906550b1e9c54de","","","","","5342",""," ","key"," ","16.666546874999767","500","250","pz","39","2","1","","","30","45"
"","psychophysics","179","1074650","0.0-179.0","6483fded206bc517c6ad6d0c","64e50ed44906550b1e9c54de","","","","","5006",""," ","key"," ","16.66663545150509","500","250","pz","40","2","1","","","40","44"
"","psychophysics","180","1080218","0.0-180.0","6483fded206bc517c6ad6d0c","64e50ed44906550b1e9c54de","","","","","5565",""," ","key"," ","16.666541916167663","500","250","pz","47","2","1","","","34","56"
"","psychophysics","181","1085828","0.0-181.0","6483fded206bc517c6ad6d0c","64e50ed44906550b1e9c54de","","","","","5613",""," ","key"," ","16.666537313432947","500","250","pz","28","2","1","","","60","33"
"","psychophysics","182","1086636","0.0-182.0","6483fded206bc517c6ad6d0c","64e50ed44906550b1e9c54de","","","","","805",""," ","key"," ","16.666583333334227","500","250","inst","","","","","","",""
"","psychophysics","183","1096772","0.0-183.0","6483fded206bc517c6ad6d0c","64e50ed44906550b1e9c54de","","","","","10134",""," ","key"," ","16.666507413508786","500","250","instPog0","340","2","","0","0","370","340"
"","psychophysics","184","1113692","0.0-184.0","6483fded206bc517c6ad6d0c","64e50ed44906550b1e9c54de","","","","","16919",""," ","key"," ","16.66656508875751","500","250","instPog1","340","2","","0","0","370","340"
"","psychophysics","185","1121516","0.0-185.0","6483fded206bc517c6ad6d0c","64e50ed44906550b1e9c54de","","","","","7822",""," ","key"," ","16.666545842217207","500","250","instPog2","326","2","","0","0","340","340"
"","psychophysics","186","1122740","0.0-186.0","6483fded206bc517c6ad6d0c","64e50ed44906550b1e9c54de","","","","","1223",""," ","key"," ","16.666666666666668","500","250","inst","","","","","","",""
"","psychophysics","187","1130742","0.0-187.0","6483fded206bc517c6ad6d0c","64e50ed44906550b1e9c54de","","","","","null","","null","key","null","16.666557411273402","500","250","pog","290","2","1","0","0","346","306"
"","psychophysics","188","1138612","0.0-188.0","6483fded206bc517c6ad6d0c","64e50ed44906550b1e9c54de","","","","","7868",""," ","key"," ","16.666529661017346","500","250","pog","309","2","1","0","0","391","332"
"","psychophysics","189","1143782","0.0-189.0","6483fded206bc517c6ad6d0c","64e50ed44906550b1e9c54de","","","","","5173",""," ","key"," ","16.66653721682836","500","250","pog","333","2","1","0","0","323","348"
"","psychophysics","190","1149398","0.0-190.0","6483fded206bc517c6ad6d0c","64e50ed44906550b1e9c54de","","","","","5614",""," ","key"," ","16.666544642857236","500","250","pog","317","2","1","0","0","305","341"
"","psychophysics","191","1155430","0.0-191.0","6483fded206bc517c6ad6d0c","64e50ed44906550b1e9c54de","","","","","6030",""," ","key"," ","16.666554016620953","500","250","pog","301","2","1","0","0","367","323"
"","psychophysics","192","1159366","0.0-192.0","6483fded206bc517c6ad6d0c","64e50ed44906550b1e9c54de","","","","","3934",""," ","key"," ","16.6664553191493","500","250","pog","357","2","1","0","0","289","380"
"","psychophysics","193","1162910","0.0-193.0","6483fded206bc517c6ad6d0c","64e50ed44906550b1e9c54de","","","","","3542",""," ","key"," ","16.666646226414674","500","250","pog","335","2","1","0","0","343","348"
"","psychophysics","194","1167654","0.0-194.0","6483fded206bc517c6ad6d0c","64e50ed44906550b1e9c54de","","","","","4742",""," ","key"," ","16.66656537102486","500","250","pog","362","2","1","0","0","384","367"
"","psychophysics","195","1171286","0.0-195.0","6483fded206bc517c6ad6d0c","64e50ed44906550b1e9c54de","","","","","3629",""," ","key"," ","16.66653917050676","500","250","pog","365","2","1","0","0","377","371"
"","psychophysics","196","1178814","0.0-196.0","6483fded206bc517c6ad6d0c","64e50ed44906550b1e9c54de","","","","","7526",""," ","key"," ","16.666534368071122","500","250","pog","289","2","1","0","0","341","303"
"","psychophysics","197","1183958","0.0-197.0","6483fded206bc517c6ad6d0c","64e50ed44906550b1e9c54de","","","","","5142",""," ","key"," ","16.666564935065395","500","250","pog","293","2","1","0","0","335","304"
"","psychophysics","198","1188454","0.0-198.0","6483fded206bc517c6ad6d0c","64e50ed44906550b1e9c54de","","","","","4494",""," ","key"," ","16.66654850746272","500","250","pog","348","2","1","0","0","370","360"
"","psychophysics","199","1191822","0.0-199.0","6483fded206bc517c6ad6d0c","64e50ed44906550b1e9c54de","","","","","3365",""," ","key"," ","16.666450495049034","500","250","pog","306","2","1","0","0","298","318"
"","psychophysics","200","1199825","0.0-200.0","6483fded206bc517c6ad6d0c","64e50ed44906550b1e9c54de","","","","","null","","null","key","null","16.66650730688932","500","250","pog","295","2","1","0","0","385","307"
"","psychophysics","201","1206184","0.0-201.0","6483fded206bc517c6ad6d0c","64e50ed44906550b1e9c54de","","","","","6363",""," ","key"," ","16.666527559055538","500","250","pog","337","2","1","0","0","363","346"
"","psychophysics","202","1207472","0.0-202.0","6483fded206bc517c6ad6d0c","64e50ed44906550b1e9c54de","","","","","1286",""," ","key"," ","16.666723684208637","500","250","inst","","","","","","",""
"","psychophysics","203","1216984","0.0-203.0","6483fded206bc517c6ad6d0c","64e50ed44906550b1e9c54de","","","","","9511",""," ","key"," ","16.666543859649416","500","250","instBr3","-17","1","","0","0","40","300"
"","psychophysics","204","1219688","0.0-204.0","6483fded206bc517c6ad6d0c","64e50ed44906550b1e9c54de","","","","","2702",""," ","key"," ","16.66649689441055","500","250","inst","","","","","","",""
"","psychophysics","205","1225248","0.0-205.0","6483fded206bc517c6ad6d0c","64e50ed44906550b1e9c54de","","","","","5558",""," ","key"," ","16.66651807228911","500","250","br","-18","1","1","-6","11","-17","285"
"","psychophysics","206","1229272","0.0-206.0","6483fded206bc517c6ad6d0c","64e50ed44906550b1e9c54de","","","","","4021",""," ","key"," ","16.66653526970958","500","250","br","-21","1","1","-15","-23","-14","227"
"","psychophysics","207","1233424","0.0-207.0","6483fded206bc517c6ad6d0c","64e50ed44906550b1e9c54de","","","","","4150",""," ","key"," ","16.666536290323428","500","250","br","-14","1","1","-14","24","22","228"
"","psychophysics","208","1238024","0.0-208.0","6483fded206bc517c6ad6d0c","64e50ed44906550b1e9c54de","","","","","4598",""," ","key"," ","16.666592727273024","500","250","br","-20","1","1","-1","-24","7","295"
"","psychophysics","209","1241840","0.0-209.0","6483fded206bc517c6ad6d0c","64e50ed44906550b1e9c54de","","","","","3814",""," ","key"," ","16.66656140350888","500","250","br","-17","1","1","-5","0","-22","257"
"","psychophysics","210","1244752","0.0-210.0","6483fded206bc517c6ad6d0c","64e50ed44906550b1e9c54de","","","","","2907",""," ","key"," ","16.666522988506284","500","250","br","-18","1","1","-8","-25","-9","218"
"","psychophysics","211","1247792","0.0-211.0","6483fded206bc517c6ad6d0c","64e50ed44906550b1e9c54de","","","","","3038",""," ","key"," ","16.666552486187566","500","250","br","-18","1","1","11","-25","-10","217"
"","psychophysics","212","1251512","0.0-212.0","6483fded206bc517c6ad6d0c","64e50ed44906550b1e9c54de","","","","","3718",""," ","key"," ","16.666518018018824","500","250","br","-16","1","1","21","25","2","237"
"","psychophysics","213","1254040","0.0-213.0","6483fded206bc517c6ad6d0c","64e50ed44906550b1e9c54de","","","","","2527",""," ","key"," ","16.666549668874012","500","250","br","-19","1","1","-27","4","-2","223"
"","psychophysics","214","1258024","0.0-214.0","6483fded206bc517c6ad6d0c","64e50ed44906550b1e9c54de","","","","","3982",""," ","key"," ","16.666605042016815","500","250","br","-19","1","1","-15","8","-1","264"
"","psychophysics","215","1262218","0.0-215.0","6483fded206bc517c6ad6d0c","64e50ed44906550b1e9c54de","","","","","4198",""," ","key"," ","16.666533864542018","500","250","br","-20","1","1","21","27","-20","287"
"","psychophysics","216","1265803","0.0-216.0","6483fded206bc517c6ad6d0c","64e50ed44906550b1e9c54de","","","","","3582",""," ","key"," ","16.666551401869125","500","250","br","-14","1","1","22","11","6","242"
"","psychophysics","217","1269906","0.0-217.0","6483fded206bc517c6ad6d0c","64e50ed44906550b1e9c54de","","","","","4102",""," ","key"," ","16.666563265305964","500","250","br","-14","1","1","-26","17","14","249"
"","psychophysics","218","1273770","0.0-218.0","6483fded206bc517c6ad6d0c","64e50ed44906550b1e9c54de","","","","","3862",""," ","key"," ","16.666593073593106","500","250","br","-18","1","1","12","-18","-15","296"
"","psychophysics","219","1278066","0.0-219.0","6483fded206bc517c6ad6d0c","64e50ed44906550b1e9c54de","","","","","4294",""," ","key"," ","16.666482490272685","500","250","br","-16","1","1","-7","-4","22","290"
