"success","trial_type","trial_index","time_elapsed","internal_node_id","pid","sid","timeout","failed_images","failed_audio","failed_video","rt","stimulus","response","response_type","key_press","avg_frame_time","center_x","center_y","task","resp","version","block","jitterX","jitterY","start","parA"
"true","fullscreen","0","3165","0.0-0.0","63d82b0ef18b425db684c7e5","64de82951e546d7dd68abddd","","","","","","","","","","","","","","","","","","","",""
"true","preload","1","3393","0.0-1.0","63d82b0ef18b425db684c7e5","64de82951e546d7dd68abddd","false","[]","[]","[]","","","","","","","","","","","","","","","",""
"","html-button-response","2","4903","0.0-2.0","63d82b0ef18b425db684c7e5","64de82951e546d7dd68abddd","","","","","1509","Please Make Sure Your Audio Is On.","0","","","","","","","","","","","","",""
"","psychophysics","3","82124","0.0-3.0","63d82b0ef18b425db684c7e5","64de82951e546d7dd68abddd","","","","","77207",""," ","key"," ","16.66063012516185","768","250","","","","","","","",""
"","psychophysics","4","102821","0.0-4.0","63d82b0ef18b425db684c7e5","64de82951e546d7dd68abddd","","","","","20686",""," ","key"," ","16.652125603864736","500","250","inst","","","","","","",""
"","psychophysics","5","104796","0.0-5.0","63d82b0ef18b425db684c7e5","64de82951e546d7dd68abddd","","","","","1967",""," ","key"," ","16.65220338983044","500","250","sample0","","","","","","",""
"","psychophysics","6","106164","0.0-6.0","63d82b0ef18b425db684c7e5","64de82951e546d7dd68abddd","","","","","1364",""," ","key"," ","16.652098765432186","500","250","sample1","","","","","","",""
"","psychophysics","7","120935","0.0-7.0","63d82b0ef18b425db684c7e5","64de82951e546d7dd68abddd","","","","","14767",""," ","key"," ","16.652099322799092","500","250","sample2","100","","","","","",""
"","psychophysics","8","125234","0.0-8.0","63d82b0ef18b425db684c7e5","64de82951e546d7dd68abddd","","","","","4296",""," ","key"," ","16.652140077820977","500","250","sample3","100","","","","","",""
"","psychophysics","9","129817","0.0-9.0","63d82b0ef18b425db684c7e5","64de82951e546d7dd68abddd","","","","","4579",""," ","key"," ","16.652116788321194","500","250","sample4","100","","","","","",""
"","psychophysics","10","131938","0.0-10.0","63d82b0ef18b425db684c7e5","64de82951e546d7dd68abddd","","","","","2116",""," ","key"," ","16.652125984252024","500","250","sample5","","","","","","",""
"","psychophysics","11","139556","0.0-11.0","63d82b0ef18b425db684c7e5","64de82951e546d7dd68abddd","","","","","7614",""," ","key"," ","16.652149122807028","500","250","sample6","502","","","","","",""
"","psychophysics","12","142712","0.0-12.0","63d82b0ef18b425db684c7e5","64de82951e546d7dd68abddd","","","","","3154",""," ","key"," ","16.652169312169363","500","250","inst","","","","","","",""
"","psychophysics","13","148255","0.0-13.0","63d82b0ef18b425db684c7e5","64de82951e546d7dd68abddd","","","","","5538",""," ","key"," ","16.65210843373494","500","250","inst","","","","","","",""
"","psychophysics","14","151120","0.0-14.0","63d82b0ef18b425db684c7e5","64de82951e546d7dd68abddd","","","","","2862",""," ","key"," ","16.652163742689996","500","250","inst","","","","","","",""
"","psychophysics","15","152653","0.0-15.0","63d82b0ef18b425db684c7e5","64de82951e546d7dd68abddd","","","","","1531",""," ","key"," ","16.652087912088195","500","250","inst","","","","","","",""
"","psychophysics","16","154274","0.0-16.0","63d82b0ef18b425db684c7e5","64de82951e546d7dd68abddd","","","","","1619",""," ","key"," ","16.652083333333394","500","250","inst","","","","","","",""
"","psychophysics","17","156150","0.0-17.0","63d82b0ef18b425db684c7e5","64de82951e546d7dd68abddd","","","","","1873",""," ","key"," ","16.651964285714193","500","250","instZol0","0","","","0","0","0",""
"","psychophysics","18","171935","0.0-18.0","63d82b0ef18b425db684c7e5","64de82951e546d7dd68abddd","","","","","15782",""," ","key"," ","16.652122492080252","500","250","instZol1","-0.19999999999999998","","","0","0","-1.3",""
"","psychophysics","19","186091","0.0-19.0","63d82b0ef18b425db684c7e5","64de82951e546d7dd68abddd","","","","","14149",""," ","key"," ","16.652108362779725","500","250","instZol2","-2.3000000000000003","2","","0","0","2",""
"","psychophysics","20","187736","0.0-20.0","63d82b0ef18b425db684c7e5","64de82951e546d7dd68abddd","","","","","1643",""," ","key"," ","16.652040816326767","500","250","inst","","","","","","",""
"","psychophysics","21","195752","0.0-21.0","63d82b0ef18b425db684c7e5","64de82951e546d7dd68abddd","","","","","null","","null","key","null","16.652125000000037","500","250","zol","-0.8799999999999999","2","0","-2","-7","-0.12",""
"","psychophysics","22","203795","0.0-22.0","63d82b0ef18b425db684c7e5","64de82951e546d7dd68abddd","","","","","null","","null","key","null","16.65211618257263","500","250","zol","-0.30000000000000004","2","0","-26","29","-0.4",""
"","psychophysics","23","211811","0.0-23.0","63d82b0ef18b425db684c7e5","64de82951e546d7dd68abddd","","","","","null","","null","key","null","16.652083333333334","500","250","zol","-0.69","2","0","-10","-29","0.19",""
"","psychophysics","24","219826","0.0-24.0","63d82b0ef18b425db684c7e5","64de82951e546d7dd68abddd","","","","","null","","null","key","null","16.6520997920998","500","250","zol","-1.02","2","0","-2","-1","0.12",""
"","psychophysics","25","227842","0.0-25.0","63d82b0ef18b425db684c7e5","64de82951e546d7dd68abddd","","","","","null","","null","key","null","16.652124999999977","500","250","zol","-0.5","2","0","6","-20","-0.4",""
"","psychophysics","26","227876","0.0-26.0","63d82b0ef18b425db684c7e5","64de82951e546d7dd68abddd","","","","","17",""," ","key"," ","16.660000000003492","500","250","zol","0.6","2","0","9","4","-0.6",""
"","psychophysics","27","235887","0.0-27.0","63d82b0ef18b425db684c7e5","64de82951e546d7dd68abddd","","","","","null","","null","key","null","16.652083333333334","500","250","zol","-0.59","2","0","-1","27","0.59",""
"","psychophysics","28","243939","0.0-28.0","63d82b0ef18b425db684c7e5","64de82951e546d7dd68abddd","","","","","null","","null","key","null","16.65209109730847","500","250","zol","-0.45999999999999985","2","0","-24","21","-0.64",""
"","psychophysics","29","251785","0.0-29.0","63d82b0ef18b425db684c7e5","64de82951e546d7dd68abddd","","","","","7840",""," ","key"," ","16.652127659574468","500","250","zol","-1.19","2","0","-14","-29","-0.51",""
"","psychophysics","30","259068","0.0-30.0","63d82b0ef18b425db684c7e5","64de82951e546d7dd68abddd","","","","","7266",""," ","key"," ","16.652110091743136","500","250","zol","-0.75","2","0","-19","16","-0.05",""
"","psychophysics","31","265977","0.0-31.0","63d82b0ef18b425db684c7e5","64de82951e546d7dd68abddd","","","","","6898",""," ","key"," ","16.652125603864828","500","250","zol","-0.78","2","0","19","-3","0.68",""
"","psychophysics","32","274063","0.0-32.0","63d82b0ef18b425db684c7e5","64de82951e546d7dd68abddd","","","","","null","","null","key","null","16.652123711340263","500","250","zol","-1.2","2","0","10","10","0.5",""
"","psychophysics","33","281807","0.0-33.0","63d82b0ef18b425db684c7e5","64de82951e546d7dd68abddd","","","","","7738",""," ","key"," ","16.652112068965554","500","250","zol","-1.11","2","0","24","9","0.01",""
"","psychophysics","34","287369","0.0-34.0","63d82b0ef18b425db684c7e5","64de82951e546d7dd68abddd","","","","","5559",""," ","key"," ","16.652132132132056","500","250","zol","-0.8699999999999999","2","0","-1","13","0.07",""
"","psychophysics","35","293446","0.0-35.0","63d82b0ef18b425db684c7e5","64de82951e546d7dd68abddd","","","","","6072",""," ","key"," ","16.652087912087875","500","250","zol","-0.8699999999999999","2","0","-11","12","0.27",""
"","psychophysics","36","295361","0.0-36.0","63d82b0ef18b425db684c7e5","64de82951e546d7dd68abddd","","","","","1911",""," ","key"," ","16.65210526315812","500","250","inst","","","","","","",""
"","psychophysics","37","296740","0.0-37.0","63d82b0ef18b425db684c7e5","64de82951e546d7dd68abddd","","","","","1375",""," ","key"," ","16.652195121950992","500","250","instEB0","40","2","","0","0","40","40"
"","psychophysics","38","307049","0.0-38.0","63d82b0ef18b425db684c7e5","64de82951e546d7dd68abddd","","","","","10306",""," ","key"," ","16.652135922330032","500","250","instEB1","41","2","","0","0","30","40"
"","psychophysics","39","312352","0.0-39.0","63d82b0ef18b425db684c7e5","64de82951e546d7dd68abddd","","","","","5298",""," ","key"," ","16.652113564668866","500","250","instEB2","35","2","","0","0","40","30"
"","psychophysics","40","321198","0.0-40.0","63d82b0ef18b425db684c7e5","64de82951e546d7dd68abddd","","","","","8843",""," ","key"," ","16.65211320754716","500","250","instEB3","35","2","","0","0","45","27"
"","psychophysics","41","330279","0.0-41.0","63d82b0ef18b425db684c7e5","64de82951e546d7dd68abddd","","","","","9081",""," ","key"," ","16.652110091743054","500","250","instEB4","48","2","","0","0","30","40"
"","psychophysics","42","331248","0.0-42.0","63d82b0ef18b425db684c7e5","64de82951e546d7dd68abddd","","","","","966",""," ","key"," ","16.652280701754265","500","250","inst","","","","","","",""
"","psychophysics","43","333170","0.0-43.0","63d82b0ef18b425db684c7e5","64de82951e546d7dd68abddd","","","","","1920",""," ","key"," ","16.65210526315761","500","250","eb","46","2","","0","0","51","30"
"","psychophysics","44","338084","0.0-44.0","63d82b0ef18b425db684c7e5","64de82951e546d7dd68abddd","","","","","4902",""," ","key"," ","16.65210884353732","500","250","eb","38","2","","0","0","46","29"
"","psychophysics","45","343206","0.0-45.0","63d82b0ef18b425db684c7e5","64de82951e546d7dd68abddd","","","","","5116",""," ","key"," ","16.652117263843685","500","250","eb","36","2","","0","0","25","32"
"","psychophysics","46","346741","0.0-46.0","63d82b0ef18b425db684c7e5","64de82951e546d7dd68abddd","","","","","3533",""," ","key"," ","16.652132701421966","500","250","eb","39","2","","0","0","40","33"
"","psychophysics","47","349107","0.0-47.0","63d82b0ef18b425db684c7e5","64de82951e546d7dd68abddd","","","","","2362",""," ","key"," ","16.65205673758867","500","250","eb","34","2","","0","0","36","27"
"","psychophysics","48","354411","0.0-48.0","63d82b0ef18b425db684c7e5","64de82951e546d7dd68abddd","","","","","5290",""," ","key"," ","16.65207547169807","500","250","eb","38","2","","0","0","49","28"
"","psychophysics","49","359648","0.0-49.0","63d82b0ef18b425db684c7e5","64de82951e546d7dd68abddd","","","","","5232",""," ","key"," ","16.652076677316405","500","250","eb","60","2","","0","0","35","54"
"","psychophysics","50","363633","0.0-50.0","63d82b0ef18b425db684c7e5","64de82951e546d7dd68abddd","","","","","3975",""," ","key"," ","16.65213389121333","500","250","eb","53","2","","0","0","51","50"
"","psychophysics","51","366593","0.0-51.0","63d82b0ef18b425db684c7e5","64de82951e546d7dd68abddd","","","","","2956",""," ","key"," ","16.65215909090925","500","250","eb","29","2","","0","0","39","25"
"","psychophysics","52","368836","0.0-52.0","63d82b0ef18b425db684c7e5","64de82951e546d7dd68abddd","","","","","2234",""," ","key"," ","16.65208955223884","500","250","eb","34","2","","0","0","35","30"
"","psychophysics","53","373968","0.0-53.0","63d82b0ef18b425db684c7e5","64de82951e546d7dd68abddd","","","","","5128",""," ","key"," ","16.652117263843497","500","250","eb","38","2","","0","0","53","29"
"","psychophysics","54","379761","0.0-54.0","63d82b0ef18b425db684c7e5","64de82951e546d7dd68abddd","","","","","5783",""," ","key"," ","16.652103746397607","500","250","eb","53","2","","0","0","24","48"
"","psychophysics","55","384978","0.0-55.0","63d82b0ef18b425db684c7e5","64de82951e546d7dd68abddd","","","","","5214",""," ","key"," ","16.652115384615453","500","250","eb","29","2","","0","0","42","24"
"","psychophysics","56","388145","0.0-56.0","63d82b0ef18b425db684c7e5","64de82951e546d7dd68abddd","","","","","3156",""," ","key"," ","16.652105263158017","500","250","eb","52","2","","0","0","53","46"
"","psychophysics","57","396107","0.0-57.0","63d82b0ef18b425db684c7e5","64de82951e546d7dd68abddd","","","","","7958",""," ","key"," ","16.652117400419282","500","250","eb","57","2","","0","0","38","51"
"","psychophysics","58","396928","0.0-58.0","63d82b0ef18b425db684c7e5","64de82951e546d7dd68abddd","","","","","816",""," ","key"," ","16.652083333333092","500","250","inst","","","","","","",""
"","psychophysics","59","400477","0.0-59.0","63d82b0ef18b425db684c7e5","64de82951e546d7dd68abddd","","","","","3545",""," ","key"," ","16.65207547169807","500","250","instBr0","0","","","0","0","0","300"
"","psychophysics","60","404547","0.0-60.0","63d82b0ef18b425db684c7e5","64de82951e546d7dd68abddd","","","","","4068",""," ","key"," ","16.652131147540963","500","250","instBr1","0","","","0","0","-40","300"
"","psychophysics","61","412836","0.0-61.0","63d82b0ef18b425db684c7e5","64de82951e546d7dd68abddd","","","","","8283",""," ","key"," ","16.652137096774236","500","250","instBr3","-14","1","","0","0","40","300"
"","psychophysics","62","413661","0.0-62.0","63d82b0ef18b425db684c7e5","64de82951e546d7dd68abddd","","","","","814",""," ","key"," ","16.652244897958422","500","250","inst","","","","","","",""
"","psychophysics","63","416758","0.0-63.0","63d82b0ef18b425db684c7e5","64de82951e546d7dd68abddd","","","","","3092",""," ","key"," ","16.652108108107868","500","250","br","-12","1","0","28","28","8","240"
"","psychophysics","64","420844","0.0-64.0","63d82b0ef18b425db684c7e5","64de82951e546d7dd68abddd","","","","","4082",""," ","key"," ","16.652131147540963","500","250","br","-16","1","0","3","12","23","282"
"","psychophysics","65","423334","0.0-65.0","63d82b0ef18b425db684c7e5","64de82951e546d7dd68abddd","","","","","2481",""," ","key"," ","16.652080536912578","500","250","br","-12","1","0","-5","-24","-9","235"
"","psychophysics","66","426837","0.0-66.0","63d82b0ef18b425db684c7e5","64de82951e546d7dd68abddd","","","","","3498",""," ","key"," ","16.652057416267798","500","250","br","-17","1","0","-14","26","-27","242"
"","psychophysics","67","430098","0.0-67.0","63d82b0ef18b425db684c7e5","64de82951e546d7dd68abddd","","","","","3257",""," ","key"," ","16.65210256410243","500","250","br","-13","1","0","-18","16","21","212"
"","psychophysics","68","433284","0.0-68.0","63d82b0ef18b425db684c7e5","64de82951e546d7dd68abddd","","","","","3179",""," ","key"," ","16.652210526315702","500","250","br","-18","1","0","-7","-23","4","203"
"","psychophysics","69","436691","0.0-69.0","63d82b0ef18b425db684c7e5","64de82951e546d7dd68abddd","","","","","3401",""," ","key"," ","16.652156862744995","500","250","br","-18","1","0","26","-16","-19","271"
"","psychophysics","70","443395","0.0-70.0","63d82b0ef18b425db684c7e5","64de82951e546d7dd68abddd","","","","","6700",""," ","key"," ","16.65211970074813","500","250","br","-19","1","0","-8","-11","4","249"
"","psychophysics","71","450359","0.0-71.0","63d82b0ef18b425db684c7e5","64de82951e546d7dd68abddd","","","","","6957",""," ","key"," ","16.652105263157935","500","250","br","-16","1","0","-8","26","29","228"
"","psychophysics","72","455605","0.0-72.0","63d82b0ef18b425db684c7e5","64de82951e546d7dd68abddd","","","","","5242",""," ","key"," ","16.65210191082787","500","250","br","-20","1","0","28","18","28","286"
"","psychophysics","73","458956","0.0-73.0","63d82b0ef18b425db684c7e5","64de82951e546d7dd68abddd","","","","","3348",""," ","key"," ","16.65209999999992","500","250","br","-20","1","0","15","-24","5","266"
"","psychophysics","74","462607","0.0-74.0","63d82b0ef18b425db684c7e5","64de82951e546d7dd68abddd","","","","","3649",""," ","key"," ","16.652110091743","500","250","br","-18","1","0","3","-23","-27","265"
"","psychophysics","75","466977","0.0-75.0","63d82b0ef18b425db684c7e5","64de82951e546d7dd68abddd","","","","","4367",""," ","key"," ","16.652061068702167","500","250","br","-11","1","0","-6","9","-14","223"
"","psychophysics","76","470700","0.0-76.0","63d82b0ef18b425db684c7e5","64de82951e546d7dd68abddd","","","","","3719",""," ","key"," ","16.652072072072112","500","250","br","-17","1","0","15","4","-14","282"
"","psychophysics","77","474522","0.0-77.0","63d82b0ef18b425db684c7e5","64de82951e546d7dd68abddd","","","","","3813",""," ","key"," ","16.652139737991376","500","250","br","-19","1","0","-12","-10","17","270"
"","psychophysics","78","523829","0.0-78.0","63d82b0ef18b425db684c7e5","64de82951e546d7dd68abddd","","","","","49304",""," ","key"," ","16.652114864864867","500","250","inst","","","","","","",""
"","psychophysics","79","527604","0.0-79.0","63d82b0ef18b425db684c7e5","64de82951e546d7dd68abddd","","","","","3769",""," ","key"," ","16.652088888888766","500","250","instPog0","340","2","","0","0","370","340"
"","psychophysics","80","534087","0.0-80.0","63d82b0ef18b425db684c7e5","64de82951e546d7dd68abddd","","","","","6472",""," ","key"," ","16.65208226221058","500","250","instPog1","350","2","","0","0","370","340"
"","psychophysics","81","538425","0.0-81.0","63d82b0ef18b425db684c7e5","64de82951e546d7dd68abddd","","","","","4334",""," ","key"," ","16.65212355212364","500","250","instPog2","330","2","","0","0","340","340"
"","psychophysics","82","539154","0.0-82.0","63d82b0ef18b425db684c7e5","64de82951e546d7dd68abddd","","","","","719",""," ","key"," ","16.65209302325668","500","250","inst","","","","","","",""
"","psychophysics","83","547171","0.0-83.0","63d82b0ef18b425db684c7e5","64de82951e546d7dd68abddd","","","","","null","","null","key","null","16.652125000000037","500","250","pog","343","2","0","0","0","305","367"
"","psychophysics","84","547568","0.0-84.0","63d82b0ef18b425db684c7e5","64de82951e546d7dd68abddd","","","","","391",""," ","key"," ","16.652173913043477","500","250","pog","284","2","0","0","0","284","316"
"","psychophysics","85","552169","0.0-85.0","63d82b0ef18b425db684c7e5","64de82951e546d7dd68abddd","","","","","4592",""," ","key"," ","16.652101449275296","500","250","pog","299","2","0","0","0","321","320"
"","psychophysics","86","556191","0.0-86.0","63d82b0ef18b425db684c7e5","64de82951e546d7dd68abddd","","","","","4018",""," ","key"," ","16.652166666666744","500","250","pog","345","2","0","0","0","329","369"
"","psychophysics","87","561013","0.0-87.0","63d82b0ef18b425db684c7e5","64de82951e546d7dd68abddd","","","","","4818",""," ","key"," ","16.652110726643873","500","250","pog","338","2","0","0","0","376","352"
"","psychophysics","88","566008","0.0-88.0","63d82b0ef18b425db684c7e5","64de82951e546d7dd68abddd","","","","","4990",""," ","key"," ","16.652107023411308","500","250","pog","305","2","0","0","0","345","312"
"","psychophysics","89","569695","0.0-89.0","63d82b0ef18b425db684c7e5","64de82951e546d7dd68abddd","","","","","3683",""," ","key"," ","16.652090909091267","500","250","pog","324","2","0","0","0","330","344"
"","psychophysics","90","575532","0.0-90.0","63d82b0ef18b425db684c7e5","64de82951e546d7dd68abddd","","","","","5833",""," ","key"," ","16.652114285714593","500","250","pog","307","2","0","0","0","397","319"
"","psychophysics","91","579501","0.0-91.0","63d82b0ef18b425db684c7e5","64de82951e546d7dd68abddd","","","","","3965",""," ","key"," ","16.652151898734413","500","250","pog","312","2","0","0","0","378","313"
"","psychophysics","92","582025","0.0-92.0","63d82b0ef18b425db684c7e5","64de82951e546d7dd68abddd","","","","","2521",""," ","key"," ","16.652185430463454","500","250","pog","319","2","0","0","0","337","333"
"","psychophysics","93","585619","0.0-93.0","63d82b0ef18b425db684c7e5","64de82951e546d7dd68abddd","","","","","3588",""," ","key"," ","16.65214953271","500","250","pog","364","2","0","0","0","388","376"
"","psychophysics","94","588156","0.0-94.0","63d82b0ef18b425db684c7e5","64de82951e546d7dd68abddd","","","","","2523",""," ","key"," ","16.652105263157864","500","250","pog","283","2","0","0","0","287","300"
"","psychophysics","95","592473","0.0-95.0","63d82b0ef18b425db684c7e5","64de82951e546d7dd68abddd","","","","","4313",""," ","key"," ","16.652170542635695","500","250","pog","305","2","0","0","0","349","319"
"","psychophysics","96","594870","0.0-96.0","63d82b0ef18b425db684c7e5","64de82951e546d7dd68abddd","","","","","2394",""," ","key"," ","16.652167832167898","500","250","pog","338","2","0","0","0","334","357"
"","psychophysics","97","600094","0.0-97.0","63d82b0ef18b425db684c7e5","64de82951e546d7dd68abddd","","","","","5220",""," ","key"," ","16.65214057507986","500","250","pog","342","2","0","0","0","292","362"
"","psychophysics","98","678267","0.0-98.0","63d82b0ef18b425db684c7e5","64de82951e546d7dd68abddd","","","","","78168",""," ","key"," ","16.652414233965487","500","250","inst","","","","","","",""
"","psychophysics","99","679718","0.0-99.0","63d82b0ef18b425db684c7e5","64de82951e546d7dd68abddd","","","","","1448",""," ","key"," ","16.652093023255325","500","250","instPzPre","50","0","","","","50","50"
"","psychophysics","100","681901","0.0-100.0","63d82b0ef18b425db684c7e5","64de82951e546d7dd68abddd","","","","","2175",""," ","key"," ","16.65215384615406","500","250","instPz0","57","2","","","","50","50"
"","psychophysics","101","688112","0.0-101.0","63d82b0ef18b425db684c7e5","64de82951e546d7dd68abddd","","","","","6206",""," ","key"," ","16.652096774193435","500","250","instPz1","47","2","","","","25","50"
"","psychophysics","102","692044","0.0-102.0","63d82b0ef18b425db684c7e5","64de82951e546d7dd68abddd","","","","","3923",""," ","key"," ","16.652085106382938","500","250","instPz2","36","2","","","","20","35"
"","psychophysics","103","705537","0.0-103.0","63d82b0ef18b425db684c7e5","64de82951e546d7dd68abddd","","","","","13483",""," ","key"," ","16.652098765432186","500","250","instPz3","90","2","","","","30","100"
"","psychophysics","104","712545","0.0-104.0","63d82b0ef18b425db684c7e5","64de82951e546d7dd68abddd","","","","","7002",""," ","key"," ","16.65209523809525","500","250","instPz4","100","2","","","","30","100"
"","psychophysics","105","760387","0.0-105.0","63d82b0ef18b425db684c7e5","64de82951e546d7dd68abddd","","","","","47839",""," ","key"," ","16.652110027855148","500","250","inst","","","","","","",""
"","psychophysics","106","765141","0.0-106.0","63d82b0ef18b425db684c7e5","64de82951e546d7dd68abddd","","","","","4749",""," ","key"," ","16.652112676056174","500","250","pz","24","2","0","","","33","25"
"","psychophysics","107","769628","0.0-107.0","63d82b0ef18b425db684c7e5","64de82951e546d7dd68abddd","","","","","4483",""," ","key"," ","16.652118959107963","500","250","pz","53","2","0","","","30","56"
"","psychophysics","108","773563","0.0-108.0","63d82b0ef18b425db684c7e5","64de82951e546d7dd68abddd","","","","","3931",""," ","key"," ","16.652085106382938","500","250","pz","48","2","0","","","25","51"
"","psychophysics","109","776762","0.0-109.0","63d82b0ef18b425db684c7e5","64de82951e546d7dd68abddd","","","","","3194",""," ","key"," ","16.652146596858323","500","250","pz","51","2","0","","","36","55"
"","psychophysics","110","781568","0.0-110.0","63d82b0ef18b425db684c7e5","64de82951e546d7dd68abddd","","","","","4804",""," ","key"," ","16.6521527777776","500","250","pz","21","2","0","","","50","21"
"","psychophysics","111","784387","0.0-111.0","63d82b0ef18b425db684c7e5","64de82951e546d7dd68abddd","","","","","2813",""," ","key"," ","16.65214285714319","500","250","pz","22","2","0","","","34","22"
"","psychophysics","112","787955","0.0-112.0","63d82b0ef18b425db684c7e5","64de82951e546d7dd68abddd","","","","","3554",""," ","key"," ","16.6521126760559","500","250","pz","21","2","0","","","50","20"
"","psychophysics","113","790629","0.0-113.0","63d82b0ef18b425db684c7e5","64de82951e546d7dd68abddd","","","","","2668",""," ","key"," ","16.652124999999796","500","250","pz","28","2","0","","","32","27"
"","psychophysics","114","794296","0.0-114.0","63d82b0ef18b425db684c7e5","64de82951e546d7dd68abddd","","","","","3661",""," ","key"," ","16.65205479452076","500","250","pz","31","2","0","","","46","31"
"","psychophysics","115","797962","0.0-115.0","63d82b0ef18b425db684c7e5","64de82951e546d7dd68abddd","","","","","3663",""," ","key"," ","16.65205479452076","500","250","pz","43","2","0","","","33","46"
"","psychophysics","116","801351","0.0-116.0","63d82b0ef18b425db684c7e5","64de82951e546d7dd68abddd","","","","","3384",""," ","key"," ","16.652118226601008","500","250","pz","24","2","0","","","40","24"
"","psychophysics","117","805430","0.0-117.0","63d82b0ef18b425db684c7e5","64de82951e546d7dd68abddd","","","","","4074",""," ","key"," ","16.65204918032825","500","250","pz","48","2","0","","","40","54"
"","psychophysics","118","809883","0.0-118.0","63d82b0ef18b425db684c7e5","64de82951e546d7dd68abddd","","","","","4447",""," ","key"," ","16.65210526315819","500","250","pz","39","2","0","","","45","37"
"","psychophysics","119","812543","0.0-119.0","63d82b0ef18b425db684c7e5","64de82951e546d7dd68abddd","","","","","2656",""," ","key"," ","16.652075471698435","500","250","pz","40","2","0","","","38","42"
"","psychophysics","120","816045","0.0-120.0","63d82b0ef18b425db684c7e5","64de82951e546d7dd68abddd","","","","","3498",""," ","key"," ","16.65205741626752","500","250","pz","25","2","0","","","39","25"
"","psychophysics","121","816852","0.0-121.0","63d82b0ef18b425db684c7e5","64de82951e546d7dd68abddd","","","","","803",""," ","key"," ","16.65191489361732","500","250","inst","","","","","","",""
"","psychophysics","122","824432","0.0-122.0","63d82b0ef18b425db684c7e5","64de82951e546d7dd68abddd","","","","","7571",""," ","key"," ","16.65208791208781","500","250","instEB1","35","1","","0","0","40","30"
"","psychophysics","123","828638","0.0-123.0","63d82b0ef18b425db684c7e5","64de82951e546d7dd68abddd","","","","","4201",""," ","key"," ","16.6521115537846","500","250","instEB2","39","1","","0","0","30","40"
"","psychophysics","124","834041","0.0-124.0","63d82b0ef18b425db684c7e5","64de82951e546d7dd68abddd","","","","","5401",""," ","key"," ","16.652098765432186","500","250","instEB3","40","1","","0","0","27","45"
"","psychophysics","125","840364","0.0-125.0","63d82b0ef18b425db684c7e5","64de82951e546d7dd68abddd","","","","","6319",""," ","key"," ","16.652063492063444","500","250","instEB4","27","1","","0","0","40","30"
"","psychophysics","126","843660","0.0-126.0","63d82b0ef18b425db684c7e5","64de82951e546d7dd68abddd","","","","","3290",""," ","key"," ","16.652081218273924","500","250","inst","","","","","","",""
"","psychophysics","127","847481","0.0-127.0","63d82b0ef18b425db684c7e5","64de82951e546d7dd68abddd","","","","","3806",""," ","key"," ","16.652139737991124","500","250","eb","28","1","","0","0","39","31"
"","psychophysics","128","851791","0.0-128.0","63d82b0ef18b425db684c7e5","64de82951e546d7dd68abddd","","","","","4304",""," ","key"," ","16.652170542635695","500","250","eb","31","1","","0","0","49","36"
"","psychophysics","129","855454","0.0-129.0","63d82b0ef18b425db684c7e5","64de82951e546d7dd68abddd","","","","","3658",""," ","key"," ","16.652146118721227","500","250","eb","31","1","","0","0","44","34"
"","psychophysics","130","857631","0.0-130.0","63d82b0ef18b425db684c7e5","64de82951e546d7dd68abddd","","","","","2173",""," ","key"," ","16.652248062015612","500","250","eb","34","1","","0","0","30","38"
"","psychophysics","131","860234","0.0-131.0","63d82b0ef18b425db684c7e5","64de82951e546d7dd68abddd","","","","","2594",""," ","key"," ","16.652179487179428","500","250","eb","38","1","","0","0","32","42"
"","psychophysics","132","863797","0.0-132.0","63d82b0ef18b425db684c7e5","64de82951e546d7dd68abddd","","","","","3558",""," ","key"," ","16.6521126760559","500","250","eb","36","1","","0","0","50","40"
"","psychophysics","133","867379","0.0-133.0","63d82b0ef18b425db684c7e5","64de82951e546d7dd68abddd","","","","","3578",""," ","key"," ","16.65205607476653","500","250","eb","30","1","","0","0","42","32"
"","psychophysics","134","871148","0.0-134.0","63d82b0ef18b425db684c7e5","64de82951e546d7dd68abddd","","","","","3765",""," ","key"," ","16.652088888888766","500","250","eb","38","1","","0","0","27","42"
"","psychophysics","135","874830","0.0-135.0","63d82b0ef18b425db684c7e5","64de82951e546d7dd68abddd","","","","","3678",""," ","key"," ","16.652090909091267","500","250","eb","26","1","","0","0","26","28"
"","psychophysics","136","876958","0.0-136.0","63d82b0ef18b425db684c7e5","64de82951e546d7dd68abddd","","","","","2116",""," ","key"," ","16.652125984251565","500","250","eb","27","1","","0","0","29","26"
"","psychophysics","137","880899","0.0-137.0","63d82b0ef18b425db684c7e5","64de82951e546d7dd68abddd","","","","","3938",""," ","key"," ","16.652118644067894","500","250","eb","45","1","","0","0","27","54"
"","psychophysics","138","885494","0.0-138.0","63d82b0ef18b425db684c7e5","64de82951e546d7dd68abddd","","","","","4590",""," ","key"," ","16.652072727272966","500","250","eb","31","1","","0","0","37","35"
"","psychophysics","139","890360","0.0-139.0","63d82b0ef18b425db684c7e5","64de82951e546d7dd68abddd","","","","","4862",""," ","key"," ","16.652096219930904","500","250","eb","25","1","","0","0","52","25"
"","psychophysics","140","895487","0.0-140.0","63d82b0ef18b425db684c7e5","64de82951e546d7dd68abddd","","","","","5123",""," ","key"," ","16.652117263843877","500","250","eb","26","1","","0","0","43","24"
"","psychophysics","141","899886","0.0-141.0","63d82b0ef18b425db684c7e5","64de82951e546d7dd68abddd","","","","","4395",""," ","key"," ","16.6521673003803","500","250","eb","39","1","","0","0","32","43"
"","psychophysics","142","901489","0.0-142.0","63d82b0ef18b425db684c7e5","64de82951e546d7dd68abddd","","","","","1600",""," ","key"," ","16.652210526315397","500","250","inst","","","","","","",""
"","psychophysics","143","907086","0.0-143.0","63d82b0ef18b425db684c7e5","64de82951e546d7dd68abddd","","","","","5593",""," ","key"," ","16.65211940298531","500","250","instPz1","53","1","","","","25","50"
"","psychophysics","144","909835","0.0-144.0","63d82b0ef18b425db684c7e5","64de82951e546d7dd68abddd","","","","","2739",""," ","key"," ","16.652073170732077","500","250","instPz2","23","1","","","","35","20"
"","psychophysics","145","919429","0.0-145.0","63d82b0ef18b425db684c7e5","64de82951e546d7dd68abddd","","","","","9577",""," ","key"," ","16.652104347826022","500","250","instPz3","35","1","","","","100","30"
"","psychophysics","146","923563","0.0-146.0","63d82b0ef18b425db684c7e5","64de82951e546d7dd68abddd","","","","","4122",""," ","key"," ","16.652096774193435","500","250","instPz4","38","1","","","","100","30"
"","psychophysics","147","924215","0.0-147.0","63d82b0ef18b425db684c7e5","64de82951e546d7dd68abddd","","","","","648",""," ","key"," ","16.65210526315863","500","250","inst","","","","","","",""
"","psychophysics","148","926107","0.0-148.0","63d82b0ef18b425db684c7e5","64de82951e546d7dd68abddd","","","","","1886",""," ","key"," ","16.65214285714319","500","250","pz","32","1","1","","","31","26"
"","psychophysics","149","929096","0.0-149.0","63d82b0ef18b425db684c7e5","64de82951e546d7dd68abddd","","","","","2981",""," ","key"," ","16.65206703910599","500","250","pz","51","1","1","","","52","40"
"","psychophysics","150","935107","0.0-150.0","63d82b0ef18b425db684c7e5","64de82951e546d7dd68abddd","","","","","6006",""," ","key"," ","16.652111111111136","500","250","pz","59","1","1","","","23","41"
"","psychophysics","151","938742","0.0-151.0","63d82b0ef18b425db684c7e5","64de82951e546d7dd68abddd","","","","","3631",""," ","key"," ","16.652165898617596","500","250","pz","44","1","1","","","56","37"
"","psychophysics","152","943800","0.0-152.0","63d82b0ef18b425db684c7e5","64de82951e546d7dd68abddd","","","","","5051",""," ","key"," ","16.652145214521376","500","250","pz","65","1","1","","","36","53"
"","psychophysics","153","947867","0.0-153.0","63d82b0ef18b425db684c7e5","64de82951e546d7dd68abddd","","","","","4063",""," ","key"," ","16.652181069958772","500","250","pz","49","1","1","","","60","38"
"","psychophysics","154","951540","0.0-154.0","63d82b0ef18b425db684c7e5","64de82951e546d7dd68abddd","","","","","3668",""," ","key"," ","16.652090909091267","500","250","pz","54","1","1","","","23","43"
"","psychophysics","155","953535","0.0-155.0","63d82b0ef18b425db684c7e5","64de82951e546d7dd68abddd","","","","","1990",""," ","key"," ","16.65210084033594","500","250","pz","59","1","1","","","45","57"
"","psychophysics","156","958370","0.0-156.0","63d82b0ef18b425db684c7e5","64de82951e546d7dd68abddd","","","","","4831",""," ","key"," ","16.652110726643873","500","250","pz","29","1","1","","","42","20"
"","psychophysics","157","960836","0.0-157.0","63d82b0ef18b425db684c7e5","64de82951e546d7dd68abddd","","","","","2463",""," ","key"," ","16.652108843538112","500","250","pz","62","1","1","","","58","57"
"","psychophysics","158","963987","0.0-158.0","63d82b0ef18b425db684c7e5","64de82951e546d7dd68abddd","","","","","3146",""," ","key"," ","16.652127659574344","500","250","pz","25","1","1","","","20","24"
"","psychophysics","159","969907","0.0-159.0","63d82b0ef18b425db684c7e5","64de82951e546d7dd68abddd","","","","","5911",""," ","key"," ","16.652112676056337","500","250","pz","57","1","1","","","31","54"
"","psychophysics","160","973357","0.0-160.0","63d82b0ef18b425db684c7e5","64de82951e546d7dd68abddd","","","","","3439",""," ","key"," ","16.65213592232994","500","250","pz","47","1","1","","","53","36"
"","psychophysics","161","977098","0.0-161.0","63d82b0ef18b425db684c7e5","64de82951e546d7dd68abddd","","","","","3736",""," ","key"," ","16.65214285714319","500","250","pz","51","1","1","","","28","43"
"","psychophysics","162","982261","0.0-162.0","63d82b0ef18b425db684c7e5","64de82951e546d7dd68abddd","","","","","5158",""," ","key"," ","16.65210355987055","500","250","pz","64","1","1","","","20","58"
"","psychophysics","163","983040","0.0-163.0","63d82b0ef18b425db684c7e5","64de82951e546d7dd68abddd","","","","","774",""," ","key"," ","16.652444444444136","500","250","inst","","","","","","",""
"","psychophysics","164","992235","0.0-164.0","63d82b0ef18b425db684c7e5","64de82951e546d7dd68abddd","","","","","9187",""," ","key"," ","16.652137681159388","500","250","instBr3","8","2","","0","0","40","300"
"","psychophysics","165","992811","0.0-165.0","63d82b0ef18b425db684c7e5","64de82951e546d7dd68abddd","","","","","570",""," ","key"," ","16.652121212121777","500","250","inst","","","","","","",""
"","psychophysics","166","998502","0.0-166.0","63d82b0ef18b425db684c7e5","64de82951e546d7dd68abddd","","","","","5686",""," ","key"," ","16.652082111436908","500","250","br","13","2","1","26","-20","-21","212"
"","psychophysics","167","1004418","0.0-167.0","63d82b0ef18b425db684c7e5","64de82951e546d7dd68abddd","","","","","5911",""," ","key"," ","16.652090395480133","500","250","br","12","2","1","6","10","23","231"
"","psychophysics","168","1008073","0.0-168.0","63d82b0ef18b425db684c7e5","64de82951e546d7dd68abddd","","","","","3646",""," ","key"," ","16.652146118721227","500","250","br","12","2","1","-18","26","27","221"
"","psychophysics","169","1012386","0.0-169.0","63d82b0ef18b425db684c7e5","64de82951e546d7dd68abddd","","","","","4310",""," ","key"," ","16.652093023255777","500","250","br","2","2","1","18","18","28","251"
"","psychophysics","170","1015960","0.0-170.0","63d82b0ef18b425db684c7e5","64de82951e546d7dd68abddd","","","","","3570",""," ","key"," ","16.652112676056447","500","250","br","10","2","1","8","28","24","233"
"","psychophysics","171","1019915","0.0-171.0","63d82b0ef18b425db684c7e5","64de82951e546d7dd68abddd","","","","","3947",""," ","key"," ","16.65206751054868","500","250","br","9","2","1","17","7","29","291"
"","psychophysics","172","1024150","0.0-172.0","63d82b0ef18b425db684c7e5","64de82951e546d7dd68abddd","","","","","4231",""," ","key"," ","16.652094861660004","500","250","br","15","2","1","-4","-21","11","233"
"","psychophysics","173","1028098","0.0-173.0","63d82b0ef18b425db684c7e5","64de82951e546d7dd68abddd","","","","","3946",""," ","key"," ","16.652118644067404","500","250","br","8","2","1","16","6","-8","297"
"","psychophysics","174","1029414","0.0-174.0","63d82b0ef18b425db684c7e5","64de82951e546d7dd68abddd","","","","","1308",""," ","key"," ","16.652051282051104","500","250","br","18","2","1","-11","24","18","290"
"","psychophysics","175","1033135","0.0-175.0","63d82b0ef18b425db684c7e5","64de82951e546d7dd68abddd","","","","","3714",""," ","key"," ","16.652107623318575","500","250","br","12","2","1","25","-29","-6","223"
"","psychophysics","176","1035945","0.0-176.0","63d82b0ef18b425db684c7e5","64de82951e546d7dd68abddd","","","","","2808",""," ","key"," ","16.65202380952403","500","250","br","20","2","1","-16","-7","22","282"
"","psychophysics","177","1038262","0.0-177.0","63d82b0ef18b425db684c7e5","64de82951e546d7dd68abddd","","","","","2311",""," ","key"," ","16.652173913043477","500","250","br","18","2","1","-15","29","7","263"
"","psychophysics","178","1041056","0.0-178.0","63d82b0ef18b425db684c7e5","64de82951e546d7dd68abddd","","","","","2784",""," ","key"," ","16.652168674698853","500","250","br","17","2","1","25","-11","21","296"
"","psychophysics","179","1044144","0.0-179.0","63d82b0ef18b425db684c7e5","64de82951e546d7dd68abddd","","","","","3078",""," ","key"," ","16.652108108108184","500","250","br","16","2","1","5","-26","-7","231"
"","psychophysics","180","1048056","0.0-180.0","63d82b0ef18b425db684c7e5","64de82951e546d7dd68abddd","","","","","3908",""," ","key"," ","16.65213675213715","500","250","br","10","2","1","-5","-9","-25","245"
"","psychophysics","181","1048653","0.0-181.0","63d82b0ef18b425db684c7e5","64de82951e546d7dd68abddd","","","","","594",""," ","key"," ","16.652000000001863","500","250","inst","","","","","","",""
"","psychophysics","182","1051577","0.0-182.0","63d82b0ef18b425db684c7e5","64de82951e546d7dd68abddd","","","","","2919",""," ","key"," ","16.652068965517028","500","250","instPog0","160","1","","0","0","190","160"
"","psychophysics","183","1057130","0.0-183.0","63d82b0ef18b425db684c7e5","64de82951e546d7dd68abddd","","","","","5549",""," ","key"," ","16.65213213213188","500","250","instPog1","166","1","","0","0","190","160"
"","psychophysics","184","1060759","0.0-184.0","63d82b0ef18b425db684c7e5","64de82951e546d7dd68abddd","","","","","3627",""," ","key"," ","16.652165898617596","500","250","instPog2","170","1","","0","0","160","160"
"","psychophysics","185","1061394","0.0-185.0","63d82b0ef18b425db684c7e5","64de82951e546d7dd68abddd","","","","","631",""," ","key"," ","16.652432432429663","500","250","inst","","","","","","",""
"","psychophysics","186","1065209","0.0-186.0","63d82b0ef18b425db684c7e5","64de82951e546d7dd68abddd","","","","","3812",""," ","key"," ","16.65210526315761","500","250","pog","197","1","1","0","0","119","191"
"","psychophysics","187","1066590","0.0-187.0","63d82b0ef18b425db684c7e5","64de82951e546d7dd68abddd","","","","","1378",""," ","key"," ","16.652195121950992","500","250","pog","133","1","1","0","0","131","120"
"","psychophysics","188","1068075","0.0-188.0","63d82b0ef18b425db684c7e5","64de82951e546d7dd68abddd","","","","","1481",""," ","key"," ","16.65227272727167","500","250","pog","130","1","1","0","0","126","126"
"","psychophysics","189","1070327","0.0-189.0","63d82b0ef18b425db684c7e5","64de82951e546d7dd68abddd","","","","","2249",""," ","key"," ","16.65208955223797","500","250","pog","159","1","1","0","0","161","145"
"","psychophysics","190","1073585","0.0-190.0","63d82b0ef18b425db684c7e5","64de82951e546d7dd68abddd","","","","","3254",""," ","key"," ","16.652102564102133","500","250","pog","144","1","1","0","0","124","129"
"","psychophysics","191","1076311","0.0-191.0","63d82b0ef18b425db684c7e5","64de82951e546d7dd68abddd","","","","","2723",""," ","key"," ","16.652024539877473","500","250","pog","145","1","1","0","0","125","132"
"","psychophysics","192","1078697","0.0-192.0","63d82b0ef18b425db684c7e5","64de82951e546d7dd68abddd","","","","","2383",""," ","key"," ","16.652112676055353","500","250","pog","175","1","1","0","0","185","158"
"","psychophysics","193","1083336","0.0-193.0","63d82b0ef18b425db684c7e5","64de82951e546d7dd68abddd","","","","","4636",""," ","key"," ","16.652057761733257","500","250","pog","186","1","1","0","0","116","169"
"","psychophysics","194","1086521","0.0-194.0","63d82b0ef18b425db684c7e5","64de82951e546d7dd68abddd","","","","","3178",""," ","key"," ","16.65214659685893","500","250","pog","187","1","1","0","0","167","168"
"","psychophysics","195","1089257","0.0-195.0","63d82b0ef18b425db684c7e5","64de82951e546d7dd68abddd","","","","","2733",""," ","key"," ","16.65214723926266","500","250","pog","157","1","1","0","0","169","139"
"","psychophysics","196","1090741","0.0-196.0","63d82b0ef18b425db684c7e5","64de82951e546d7dd68abddd","","","","","1481",""," ","key"," ","16.652045454544183","500","250","pog","164","1","1","0","0","158","154"
"","psychophysics","197","1096359","0.0-197.0","63d82b0ef18b425db684c7e5","64de82951e546d7dd68abddd","","","","","5616",""," ","key"," ","16.652106824925845","500","250","pog","151","1","1","0","0","103","137"
"","psychophysics","198","1100244","0.0-198.0","63d82b0ef18b425db684c7e5","64de82951e546d7dd68abddd","","","","","3879",""," ","key"," ","16.652155172413995","500","250","pog","206","1","1","0","0","118","189"
"","psychophysics","199","1101357","0.0-199.0","63d82b0ef18b425db684c7e5","64de82951e546d7dd68abddd","","","","","1104",""," ","key"," ","16.652121212121777","500","250","pog","165","1","1","0","0","165","147"
"","psychophysics","200","1105255","0.0-200.0","63d82b0ef18b425db684c7e5","64de82951e546d7dd68abddd","","","","","3893",""," ","key"," ","16.652103004292606","500","250","pog","209","1","1","0","0","183","199"
"","psychophysics","201","1105982","0.0-201.0","63d82b0ef18b425db684c7e5","64de82951e546d7dd68abddd","","","","","722",""," ","key"," ","16.651904761902102","500","250","inst","","","","","","",""
"","psychophysics","202","1113166","0.0-202.0","63d82b0ef18b425db684c7e5","64de82951e546d7dd68abddd","","","","","7177",""," ","key"," ","16.652111368909644","500","250","instZol1","-0.1000000000000002","","","0","0","-1.3",""
"","psychophysics","203","1119736","0.0-203.0","63d82b0ef18b425db684c7e5","64de82951e546d7dd68abddd","","","","","6563",""," ","key"," ","16.652111959287602","500","250","instZol2","0.20000000000000065","1","","0","0","2",""
"","psychophysics","204","1120605","0.0-204.0","63d82b0ef18b425db684c7e5","64de82951e546d7dd68abddd","","","","","863",""," ","key"," ","16.651923076925762","500","250","inst","","","","","","",""
"","psychophysics","205","1126014","0.0-205.0","63d82b0ef18b425db684c7e5","64de82951e546d7dd68abddd","","","","","5403",""," ","key"," ","16.6521362229099","500","250","zol","0.9499999999999998","1","1","26","-14","-0.15",""
"","psychophysics","206","1132252","0.0-206.0","63d82b0ef18b425db684c7e5","64de82951e546d7dd68abddd","","","","","6226",""," ","key"," ","16.652139037432907","500","250","zol","0.25000000000000006","1","1","-22","1","0.05",""
"","psychophysics","207","1136055","0.0-207.0","63d82b0ef18b425db684c7e5","64de82951e546d7dd68abddd","","","","","3798",""," ","key"," ","16.652158590308535","500","250","zol","0.82","1","1","-7","0","-0.42",""
"","psychophysics","208","1141308","0.0-208.0","63d82b0ef18b425db684c7e5","64de82951e546d7dd68abddd","","","","","5241",""," ","key"," ","16.652063492063196","500","250","zol","0.9999999999999999","1","1","12","-24","-0.2",""
"","psychophysics","209","1146402","0.0-209.0","63d82b0ef18b425db684c7e5","64de82951e546d7dd68abddd","","","","","5090",""," ","key"," ","16.65213114754068","500","250","zol","0.9899999999999999","1","1","15","11","-0.59",""
"","psychophysics","210","1154408","0.0-210.0","63d82b0ef18b425db684c7e5","64de82951e546d7dd68abddd","","","","","null","","null","key","null","16.652108559498682","500","250","zol","0.8599999999999998","1","1","-23","9","0.64",""
"","psychophysics","211","1160257","0.0-211.0","63d82b0ef18b425db684c7e5","64de82951e546d7dd68abddd","","","","","5839",""," ","key"," ","16.65213675213715","500","250","zol","1.13","1","1","26","3","0.67",""
"","psychophysics","212","1164172","0.0-212.0","63d82b0ef18b425db684c7e5","64de82951e546d7dd68abddd","","","","","3911",""," ","key"," ","16.65213675213715","500","250","zol","1.19","1","1","-11","19","0.51",""
"","psychophysics","213","1167663","0.0-213.0","63d82b0ef18b425db684c7e5","64de82951e546d7dd68abddd","","","","","3487",""," ","key"," ","16.65211538461601","500","250","zol","0.7","1","1","2","-5","0.4",""
"","psychophysics","214","1170926","0.0-214.0","63d82b0ef18b425db684c7e5","64de82951e546d7dd68abddd","","","","","3254",""," ","key"," ","16.652102564103327","500","250","zol","0.7","1","1","-10","12","-0.7",""
"","psychophysics","215","1176500","0.0-215.0","63d82b0ef18b425db684c7e5","64de82951e546d7dd68abddd","","","","","5563",""," ","key"," ","16.652095808383372","500","250","zol","0.6299999999999999","1","1","-27","22","0.67",""
"","psychophysics","216","1182122","0.0-216.0","63d82b0ef18b425db684c7e5","64de82951e546d7dd68abddd","","","","","5618",""," ","key"," ","16.652106824925845","500","250","zol","0.7899999999999999","1","1","-13","-28","0.61",""
"","psychophysics","217","1187659","0.0-217.0","63d82b0ef18b425db684c7e5","64de82951e546d7dd68abddd","","","","","5527",""," ","key"," ","16.65214501510605","500","250","zol","0.4","1","1","13","-12","-0.4",""
"","psychophysics","218","1193322","0.0-218.0","63d82b0ef18b425db684c7e5","64de82951e546d7dd68abddd","","","","","5650",""," ","key"," ","16.652153392330604","500","250","zol","0.93","1","1","19","1","-0.63",""
"","psychophysics","219","1195650","0.0-219.0","63d82b0ef18b425db684c7e5","64de82951e546d7dd68abddd","","","","","2316",""," ","key"," ","16.652230215826734","500","250","zol","0.6499999999999999","1","1","18","23","-0.15",""
