"success","trial_type","trial_index","time_elapsed","internal_node_id","pid","sid","timeout","failed_images","failed_audio","failed_video","rt","stimulus","response","response_type","key_press","avg_frame_time","center_x","center_y","task","resp","version","block","jitterX","jitterY","start","parA"
"true","fullscreen","0","3428","0.0-0.0","615d051e2366aeb051acb734","64de7e866562d2aaefd4167f","","","","","","","","","","","","","","","","","","","",""
"true","preload","1","3526","0.0-1.0","615d051e2366aeb051acb734","64de7e866562d2aaefd4167f","false","[]","[]","[]","","","","","","","","","","","","","","","",""
"","html-button-response","2","5269","0.0-2.0","615d051e2366aeb051acb734","64de7e866562d2aaefd4167f","","","","","1740","Please Make Sure Your Audio Is On.","0","","","","","","","","","","","","",""
"","psychophysics","3","9646","0.0-3.0","615d051e2366aeb051acb734","64de7e866562d2aaefd4167f","","","","","4370",""," ","key"," ","8.333000000000002","864","250","","","","","","","",""
"","psychophysics","4","12684","0.0-4.0","615d051e2366aeb051acb734","64de7e866562d2aaefd4167f","","","","","3033",""," ","key"," ","8.333000000000004","500","250","inst","","","","","","",""
"","psychophysics","5","16195","0.0-5.0","615d051e2366aeb051acb734","64de7e866562d2aaefd4167f","","","","","3509",""," ","key"," ","8.333952380952386","500","250","sample0","","","","","","",""
"","psychophysics","6","17953","0.0-6.0","615d051e2366aeb051acb734","64de7e866562d2aaefd4167f","","","","","1755",""," ","key"," ","8.333000000000002","500","250","sample1","","","","","","",""
"","psychophysics","7","28670","0.0-7.0","615d051e2366aeb051acb734","64de7e866562d2aaefd4167f","","","","","10715",""," ","key"," ","8.333312062256809","500","250","sample2","128","","","","","",""
"","psychophysics","8","30088","0.0-8.0","615d051e2366aeb051acb734","64de7e866562d2aaefd4167f","","","","","1414",""," ","key"," ","8.33300000000001","500","250","sample3","70","","","","","",""
"","psychophysics","9","32871","0.0-9.0","615d051e2366aeb051acb734","64de7e866562d2aaefd4167f","","","","","2778",""," ","key"," ","8.333000000000006","500","250","sample4","130","","","","","",""
"","psychophysics","10","80233","0.0-10.0","615d051e2366aeb051acb734","64de7e866562d2aaefd4167f","","","","","47359",""," ","key"," ","8.333364308342134","500","250","sample5","","","","","","",""
"","psychophysics","11","81127","0.0-11.0","615d051e2366aeb051acb734","64de7e866562d2aaefd4167f","","","","","891",""," ","key"," ","8.332999999999956","500","250","sample6","450","","","","","",""
"","psychophysics","12","88524","0.0-12.0","615d051e2366aeb051acb734","64de7e866562d2aaefd4167f","","","","","7393",""," ","key"," ","8.333492671927852","500","250","inst","","","","","","",""
"","psychophysics","13","95597","0.0-13.0","615d051e2366aeb051acb734","64de7e866562d2aaefd4167f","","","","","7071",""," ","key"," ","8.333472877358494","500","250","inst","","","","","","",""
"","psychophysics","14","820811","0.0-14.0","615d051e2366aeb051acb734","64de7e866562d2aaefd4167f","","","","","668602",""," ","key"," ","8.566653576096147","500","250","inst","","","","","","",""
"","psychophysics","15","823165","0.0-15.0","615d051e2366aeb051acb734","64de7e866562d2aaefd4167f","","","","","2353",""," ","key"," ","8.332999999999911","500","250","inst","","","","","","",""
"","psychophysics","16","827387","0.0-16.0","615d051e2366aeb051acb734","64de7e866562d2aaefd4167f","","","","","4220",""," ","key"," ","8.332999999999812","500","250","inst","","","","","","",""
"","psychophysics","17","830485","0.0-17.0","615d051e2366aeb051acb734","64de7e866562d2aaefd4167f","","","","","3095",""," ","key"," ","8.334080862533426","500","250","instBr0","0","","","0","0","0","300"
"","psychophysics","18","839666","0.0-18.0","615d051e2366aeb051acb734","64de7e866562d2aaefd4167f","","","","","9179",""," ","key"," ","8.333394187102563","500","250","instBr1","-1","","","0","0","-40","300"
"","psychophysics","19","847468","0.0-19.0","615d051e2366aeb051acb734","64de7e866562d2aaefd4167f","","","","","7799",""," ","key"," ","8.33299999999998","500","250","instBr3","-20","1","","0","0","40","300"
"","psychophysics","20","850618","0.0-20.0","615d051e2366aeb051acb734","64de7e866562d2aaefd4167f","","","","","3148",""," ","key"," ","8.334061007957537","500","250","inst","","","","","","",""
"","psychophysics","21","853435","0.0-21.0","615d051e2366aeb051acb734","64de7e866562d2aaefd4167f","","","","","2814",""," ","key"," ","8.333000000000059","500","250","br","-24","1","0","-15","12","-28","252"
"","psychophysics","22","855217","0.0-22.0","615d051e2366aeb051acb734","64de7e866562d2aaefd4167f","","","","","1779",""," ","key"," ","8.333000000000018","500","250","br","-19","1","0","-20","-23","-17","214"
"","psychophysics","23","857513","0.0-23.0","615d051e2366aeb051acb734","64de7e866562d2aaefd4167f","","","","","2293",""," ","key"," ","8.332999999999831","500","250","br","-19","1","0","26","25","-8","232"
"","psychophysics","24","860578","0.0-24.0","615d051e2366aeb051acb734","64de7e866562d2aaefd4167f","","","","","3061",""," ","key"," ","8.334095628415565","500","250","br","-22","1","0","-3","-13","-5","284"
"","psychophysics","25","864987","0.0-25.0","615d051e2366aeb051acb734","64de7e866562d2aaefd4167f","","","","","4406",""," ","key"," ","8.333000000000043","500","250","br","-19","1","0","-1","10","19","262"
"","psychophysics","26","871889","0.0-26.0","615d051e2366aeb051acb734","64de7e866562d2aaefd4167f","","","","","6899",""," ","key"," ","8.333522946859912","500","250","br","-24","1","0","21","-28","27","250"
"","psychophysics","27","875626","0.0-27.0","615d051e2366aeb051acb734","64de7e866562d2aaefd4167f","","","","","3734",""," ","key"," ","8.351683856502296","500","250","br","-18","1","0","-25","-15","1","221"
"","psychophysics","28","879554","0.0-28.0","615d051e2366aeb051acb734","64de7e866562d2aaefd4167f","","","","","3925",""," ","key"," ","8.333851380042352","500","250","br","-23","1","0","19","9","-2","265"
"","psychophysics","29","884162","0.0-29.0","615d051e2366aeb051acb734","64de7e866562d2aaefd4167f","","","","","4607",""," ","key"," ","8.333000000000014","500","250","br","-22","1","0","-13","-23","-7","227"
"","psychophysics","30","885548","0.0-30.0","615d051e2366aeb051acb734","64de7e866562d2aaefd4167f","","","","","1384",""," ","key"," ","8.333000000000297","500","250","br","-16","1","0","-26","11","-17","205"
"","psychophysics","31","888763","0.0-31.0","615d051e2366aeb051acb734","64de7e866562d2aaefd4167f","","","","","3211",""," ","key"," ","8.332999999999892","500","250","br","-18","1","0","-8","11","-19","270"
"","psychophysics","32","890446","0.0-32.0","615d051e2366aeb051acb734","64de7e866562d2aaefd4167f","","","","","1680",""," ","key"," ","8.3349950248752","500","250","br","-20","1","0","16","12","-21","220"
"","psychophysics","33","892387","0.0-33.0","615d051e2366aeb051acb734","64de7e866562d2aaefd4167f","","","","","1938",""," ","key"," ","8.333000000000295","500","250","br","-18","1","0","-7","23","-18","282"
"","psychophysics","34","897250","0.0-34.0","615d051e2366aeb051acb734","64de7e866562d2aaefd4167f","","","","","4861",""," ","key"," ","8.332999999999943","500","250","br","-21","1","0","-27","-5","18","220"
"","psychophysics","35","901572","0.0-35.0","615d051e2366aeb051acb734","64de7e866562d2aaefd4167f","","","","","4318",""," ","key"," ","8.333841698841798","500","250","br","-19","1","0","7","-1","9","247"
"","psychophysics","36","902838","0.0-36.0","615d051e2366aeb051acb734","64de7e866562d2aaefd4167f","","","","","1265",""," ","key"," ","8.333000000000357","500","250","inst","","","","","","",""
"","psychophysics","37","905038","0.0-37.0","615d051e2366aeb051acb734","64de7e866562d2aaefd4167f","","","","","2198",""," ","key"," ","8.333000000000103","500","250","instPzPre","50","0","","","","50","50"
"","psychophysics","38","906158","0.0-38.0","615d051e2366aeb051acb734","64de7e866562d2aaefd4167f","","","","","1118",""," ","key"," ","8.332999999999924","500","250","instPz0","49","2","","","","50","50"
"","psychophysics","39","909653","0.0-39.0","615d051e2366aeb051acb734","64de7e866562d2aaefd4167f","","","","","3493",""," ","key"," ","8.333959330143474","500","250","instPz1","20","2","","","","25","50"
"","psychophysics","40","915353","0.0-40.0","615d051e2366aeb051acb734","64de7e866562d2aaefd4167f","","","","","5698",""," ","key"," ","8.33300000000002","500","250","instPz2","35","2","","","","20","35"
"","psychophysics","41","926029","0.0-41.0","615d051e2366aeb051acb734","64de7e866562d2aaefd4167f","","","","","10673",""," ","key"," ","8.333338017174123","500","250","instPz3","88","2","","","","30","100"
"","psychophysics","42","935736","0.0-42.0","615d051e2366aeb051acb734","64de7e866562d2aaefd4167f","","","","","9705",""," ","key"," ","8.333343938091147","500","250","instPz4","94","2","","","","30","100"
"","psychophysics","43","937418","0.0-43.0","615d051e2366aeb051acb734","64de7e866562d2aaefd4167f","","","","","1680",""," ","key"," ","8.332999999999805","500","250","inst","","","","","","",""
"","psychophysics","44","940771","0.0-44.0","615d051e2366aeb051acb734","64de7e866562d2aaefd4167f","","","","","3349",""," ","key"," ","8.334079601989876","500","250","pz","40","2","0","","","23","42"
"","psychophysics","45","944258","0.0-45.0","615d051e2366aeb051acb734","64de7e866562d2aaefd4167f","","","","","3485",""," ","key"," ","8.33300000000008","500","250","pz","31","2","0","","","41","33"
"","psychophysics","46","948357","0.0-46.0","615d051e2366aeb051acb734","64de7e866562d2aaefd4167f","","","","","4095",""," ","key"," ","8.333000000000053","500","250","pz","45","2","0","","","41","50"
"","psychophysics","47","949133","0.0-47.0","615d051e2366aeb051acb734","64de7e866562d2aaefd4167f","","","","","774",""," ","key"," ","8.333000000000618","500","250","pz","46","2","0","","","46","41"
"","psychophysics","48","950813","0.0-48.0","615d051e2366aeb051acb734","64de7e866562d2aaefd4167f","","","","","1677",""," ","key"," ","8.334990049751164","500","250","pz","32","2","0","","","32","34"
"","psychophysics","49","953073","0.0-49.0","615d051e2366aeb051acb734","64de7e866562d2aaefd4167f","","","","","2258",""," ","key"," ","8.333000000000121","500","250","pz","32","2","0","","","23","39"
"","psychophysics","50","956991","0.0-50.0","615d051e2366aeb051acb734","64de7e866562d2aaefd4167f","","","","","3916",""," ","key"," ","8.333000000000053","500","250","pz","24","2","0","","","41","27"
"","psychophysics","51","959804","0.0-51.0","615d051e2366aeb051acb734","64de7e866562d2aaefd4167f","","","","","2809",""," ","key"," ","8.33428869047618","500","250","pz","41","2","0","","","48","46"
"","psychophysics","52","967809","0.0-52.0","615d051e2366aeb051acb734","64de7e866562d2aaefd4167f","","","","","null","","null","key","null","8.332999999999933","500","250","pz","33","2","0","","","57","36"
"","psychophysics","53","967911","0.0-53.0","615d051e2366aeb051acb734","64de7e866562d2aaefd4167f","","","","","101",""," ","key"," ","8.332999999994751","500","250","pz","58","2","0","","","58","59"
"","psychophysics","54","970167","0.0-54.0","615d051e2366aeb051acb734","64de7e866562d2aaefd4167f","","","","","2254",""," ","key"," ","8.334485185185137","500","250","pz","31","2","0","","","21","36"
"","psychophysics","55","972355","0.0-55.0","615d051e2366aeb051acb734","64de7e866562d2aaefd4167f","","","","","2185",""," ","key"," ","8.333000000000224","500","250","pz","46","2","0","","","54","57"
"","psychophysics","56","973858","0.0-56.0","615d051e2366aeb051acb734","64de7e866562d2aaefd4167f","","","","","1496",""," ","key"," ","8.333000000000336","500","250","pz","59","2","0","","","57","56"
"","psychophysics","57","975980","0.0-57.0","615d051e2366aeb051acb734","64de7e866562d2aaefd4167f","","","","","2118",""," ","key"," ","8.332999999999812","500","250","pz","25","2","0","","","22","26"
"","psychophysics","58","977171","0.0-58.0","615d051e2366aeb051acb734","64de7e866562d2aaefd4167f","","","","","1188",""," ","key"," ","8.333000000000563","500","250","pz","27","2","0","","","29","26"
"","psychophysics","59","977762","0.0-59.0","615d051e2366aeb051acb734","64de7e866562d2aaefd4167f","","","","","589",""," ","key"," ","8.332999999998924","500","250","inst","","","","","","",""
"","psychophysics","60","979496","0.0-60.0","615d051e2366aeb051acb734","64de7e866562d2aaefd4167f","","","","","1732",""," ","key"," ","8.334946601941517","500","250","instEB0","40","1","","0","0","40","40"
"","psychophysics","61","984357","0.0-61.0","615d051e2366aeb051acb734","64de7e866562d2aaefd4167f","","","","","4857",""," ","key"," ","8.332999999999943","500","250","instEB1","28","1","","0","0","40","30"
"","psychophysics","62","992207","0.0-62.0","615d051e2366aeb051acb734","64de7e866562d2aaefd4167f","","","","","7847",""," ","key"," ","8.33346014877798","500","250","instEB2","37","1","","0","0","30","40"
"","psychophysics","63","999677","0.0-63.0","615d051e2366aeb051acb734","64de7e866562d2aaefd4167f","","","","","7468",""," ","key"," ","8.333484916201163","500","250","instEB3","38","1","","0","0","27","45"
"","psychophysics","64","1005645","0.0-64.0","615d051e2366aeb051acb734","64de7e866562d2aaefd4167f","","","","","5965",""," ","key"," ","8.332999999999961","500","250","instEB4","27","1","","0","0","40","30"
"","psychophysics","65","1140524","0.0-65.0","615d051e2366aeb051acb734","64de7e866562d2aaefd4167f","","","","","134875",""," ","key"," ","8.33336076614149","500","250","inst","","","","","","",""
"","psychophysics","66","1144739","0.0-66.0","615d051e2366aeb051acb734","64de7e866562d2aaefd4167f","","","","","4213",""," ","key"," ","8.332999999999874","500","250","eb","43","1","","0","0","41","51"
"","psychophysics","67","1146422","0.0-67.0","615d051e2366aeb051acb734","64de7e866562d2aaefd4167f","","","","","1678",""," ","key"," ","8.333000000000304","500","250","eb","38","1","","0","0","43","40"
"","psychophysics","68","1149899","0.0-68.0","615d051e2366aeb051acb734","64de7e866562d2aaefd4167f","","","","","3472",""," ","key"," ","8.333963855421619","500","250","eb","37","1","","0","0","45","42"
"","psychophysics","69","1152256","0.0-69.0","615d051e2366aeb051acb734","64de7e866562d2aaefd4167f","","","","","2354",""," ","key"," ","8.33300000000068","500","250","eb","40","1","","0","0","32","48"
"","psychophysics","70","1154217","0.0-70.0","615d051e2366aeb051acb734","64de7e866562d2aaefd4167f","","","","","1956",""," ","key"," ","8.333000000000515","500","250","eb","35","1","","0","0","29","41"
"","psychophysics","71","1157345","0.0-71.0","615d051e2366aeb051acb734","64de7e866562d2aaefd4167f","","","","","3126",""," ","key"," ","8.333000000000354","500","250","eb","45","1","","0","0","30","54"
"","psychophysics","72","1162008","0.0-72.0","615d051e2366aeb051acb734","64de7e866562d2aaefd4167f","","","","","4661",""," ","key"," ","8.333776386404303","500","250","eb","42","1","","0","0","26","51"
"","psychophysics","73","1164905","0.0-73.0","615d051e2366aeb051acb734","64de7e866562d2aaefd4167f","","","","","2894",""," ","key"," ","8.332999999999645","500","250","eb","34","1","","0","0","29","39"
"","psychophysics","74","1167970","0.0-74.0","615d051e2366aeb051acb734","64de7e866562d2aaefd4167f","","","","","3060",""," ","key"," ","8.33299999999971","500","250","eb","27","1","","0","0","27","30"
"","psychophysics","75","1171330","0.0-75.0","615d051e2366aeb051acb734","64de7e866562d2aaefd4167f","","","","","3357",""," ","key"," ","8.333995024875774","500","250","eb","35","1","","0","0","27","39"
"","psychophysics","76","1174370","0.0-76.0","615d051e2366aeb051acb734","64de7e866562d2aaefd4167f","","","","","3036",""," ","key"," ","8.333000000000158","500","250","eb","30","1","","0","0","31","34"
"","psychophysics","77","1179260","0.0-77.0","615d051e2366aeb051acb734","64de7e866562d2aaefd4167f","","","","","4888",""," ","key"," ","8.33300000000006","500","250","eb","24","1","","0","0","54","25"
"","psychophysics","78","1183424","0.0-78.0","615d051e2366aeb051acb734","64de7e866562d2aaefd4167f","","","","","4160",""," ","key"," ","8.333871485943622","500","250","eb","44","1","","0","0","52","50"
"","psychophysics","79","1186961","0.0-79.0","615d051e2366aeb051acb734","64de7e866562d2aaefd4167f","","","","","3533",""," ","key"," ","8.333000000000093","500","250","eb","38","1","","0","0","33","45"
"","psychophysics","80","1190696","0.0-80.0","615d051e2366aeb051acb734","64de7e866562d2aaefd4167f","","","","","3730",""," ","key"," ","8.333894854585976","500","250","eb","36","1","","0","0","46","39"
"","psychophysics","81","1191303","0.0-81.0","615d051e2366aeb051acb734","64de7e866562d2aaefd4167f","","","","","604",""," ","key"," ","8.333000000000336","500","250","inst","","","","","","",""
"","psychophysics","82","1203353","0.0-82.0","615d051e2366aeb051acb734","64de7e866562d2aaefd4167f","","","","","12048",""," ","key"," ","8.33329965397925","500","250","instPog0","160","1","","0","0","190","160"
"","psychophysics","83","1208568","0.0-83.0","615d051e2366aeb051acb734","64de7e866562d2aaefd4167f","","","","","5213",""," ","key"," ","8.333","500","250","instPog1","166","1","","0","0","190","160"
"","psychophysics","84","1212963","0.0-84.0","615d051e2366aeb051acb734","64de7e866562d2aaefd4167f","","","","","4392",""," ","key"," ","8.333762357414244","500","250","instPog2","186","1","","0","0","160","160"
"","psychophysics","85","1213589","0.0-85.0","615d051e2366aeb051acb734","64de7e866562d2aaefd4167f","","","","","623",""," ","key"," ","8.332999999999899","500","250","inst","","","","","","",""
"","psychophysics","86","1216077","0.0-86.0","615d051e2366aeb051acb734","64de7e866562d2aaefd4167f","","","","","2484",""," ","key"," ","8.332999999999794","500","250","pog","207","1","0","0","0","191","186"
"","psychophysics","87","1220737","0.0-87.0","615d051e2366aeb051acb734","64de7e866562d2aaefd4167f","","","","","4658",""," ","key"," ","8.333775985663035","500","250","pog","209","1","0","0","0","123","189"
"","psychophysics","88","1225298","0.0-88.0","615d051e2366aeb051acb734","64de7e866562d2aaefd4167f","","","","","4557",""," ","key"," ","8.332999999999704","500","250","pog","148","1","0","0","0","188","123"
"","psychophysics","89","1229378","0.0-89.0","615d051e2366aeb051acb734","64de7e866562d2aaefd4167f","","","","","4078",""," ","key"," ","8.332999999999911","500","250","pog","159","1","0","0","0","105","133"
"","psychophysics","90","1234434","0.0-90.0","615d051e2366aeb051acb734","64de7e866562d2aaefd4167f","","","","","5051",""," ","key"," ","8.333716171616903","500","250","pog","202","1","0","0","0","118","180"
"","psychophysics","91","1239308","0.0-91.0","615d051e2366aeb051acb734","64de7e866562d2aaefd4167f","","","","","4869",""," ","key"," ","8.333000000000116","500","250","pog","229","1","0","0","0","199","199"
"","psychophysics","92","1244868","0.0-92.0","615d051e2366aeb051acb734","64de7e866562d2aaefd4167f","","","","","5558",""," ","key"," ","8.33360060060071","500","250","pog","223","1","0","0","0","133","193"
"","psychophysics","93","1250276","0.0-93.0","615d051e2366aeb051acb734","64de7e866562d2aaefd4167f","","","","","5406",""," ","key"," ","8.33366820987682","500","250","pog","195","1","0","0","0","123","166"
"","psychophysics","94","1253594","0.0-94.0","615d051e2366aeb051acb734","64de7e866562d2aaefd4167f","","","","","3315",""," ","key"," ","8.333000000000295","500","250","pog","161","1","0","0","0","127","130"
"","psychophysics","95","1256798","0.0-95.0","615d051e2366aeb051acb734","64de7e866562d2aaefd4167f","","","","","3202",""," ","key"," ","8.333000000000277","500","250","pog","164","1","0","0","0","126","130"
"","psychophysics","96","1260590","0.0-96.0","615d051e2366aeb051acb734","64de7e866562d2aaefd4167f","","","","","3788",""," ","key"," ","8.333883259912115","500","250","pog","166","1","0","0","0","120","135"
"","psychophysics","97","1263161","0.0-97.0","615d051e2366aeb051acb734","64de7e866562d2aaefd4167f","","","","","2569",""," ","key"," ","8.333000000000043","500","250","pog","193","1","0","0","0","207","167"
"","psychophysics","98","1267979","0.0-98.0","615d051e2366aeb051acb734","64de7e866562d2aaefd4167f","","","","","4816",""," ","key"," ","8.333000000000107","500","250","pog","151","1","0","0","0","189","131"
"","psychophysics","99","1271907","0.0-99.0","615d051e2366aeb051acb734","64de7e866562d2aaefd4167f","","","","","3926",""," ","key"," ","8.333925531915032","500","250","pog","162","1","0","0","0","102","145"
"","psychophysics","100","1274132","0.0-100.0","615d051e2366aeb051acb734","64de7e866562d2aaefd4167f","","","","","2223",""," ","key"," ","8.332999999999428","500","250","pog","156","1","0","0","0","150","137"
"","psychophysics","101","1274690","0.0-101.0","615d051e2366aeb051acb734","64de7e866562d2aaefd4167f","","","","","556",""," ","key"," ","8.333000000000286","500","250","inst","","","","","","",""
"","psychophysics","102","1276320","0.0-102.0","615d051e2366aeb051acb734","64de7e866562d2aaefd4167f","","","","","1627",""," ","key"," ","8.333000000000286","500","250","instZol0","0","","","0","0","0",""
"","psychophysics","103","1287721","0.0-103.0","615d051e2366aeb051acb734","64de7e866562d2aaefd4167f","","","","","11399",""," ","key"," ","8.333293343087027","500","250","instZol1","-0.19999999999999998","","","0","0","-1.3",""
"","psychophysics","104","1290090","0.0-104.0","615d051e2366aeb051acb734","64de7e866562d2aaefd4167f","","","","","2365",""," ","key"," ","8.334530035335762","500","250","instZol2","-2.6000000000000005","1","","0","0","2",""
"","psychophysics","105","1290733","0.0-105.0","615d051e2366aeb051acb734","64de7e866562d2aaefd4167f","","","","","641",""," ","key"," ","8.333000000000798","500","250","inst","","","","","","",""
"","psychophysics","106","1296870","0.0-106.0","615d051e2366aeb051acb734","64de7e866562d2aaefd4167f","","","","","6132",""," ","key"," ","8.333000000000165","500","250","zol","1.1600000000000001","1","0","15","-1","-0.66",""
"","psychophysics","107","1300833","0.0-107.0","615d051e2366aeb051acb734","64de7e866562d2aaefd4167f","","","","","3959",""," ","key"," ","8.333844210526562","500","250","zol","0.85","1","0","22","-15","0.45",""
"","psychophysics","108","1305269","0.0-108.0","615d051e2366aeb051acb734","64de7e866562d2aaefd4167f","","","","","4432",""," ","key"," ","8.333000000000172","500","250","zol","1.2","1","0","-19","-14","0",""
"","psychophysics","109","1308204","0.0-109.0","615d051e2366aeb051acb734","64de7e866562d2aaefd4167f","","","","","2932",""," ","key"," ","8.332999999999755","500","250","zol","0.8499999999999999","1","0","-20","-28","0.25",""
"","psychophysics","110","1311476","0.0-110.0","615d051e2366aeb051acb734","64de7e866562d2aaefd4167f","","","","","3267",""," ","key"," ","8.334104591836839","500","250","zol","0.73","1","0","20","8","0.37",""
"","psychophysics","111","1317144","0.0-111.0","615d051e2366aeb051acb734","64de7e866562d2aaefd4167f","","","","","5664",""," ","key"," ","8.333000000000112","500","250","zol","0.59","1","0","-1","-6","0.31",""
"","psychophysics","112","1322006","0.0-112.0","615d051e2366aeb051acb734","64de7e866562d2aaefd4167f","","","","","4860",""," ","key"," ","8.333689003436318","500","250","zol","0.6300000000000001","1","0","-5","4","-0.03",""
"","psychophysics","113","1326740","0.0-113.0","615d051e2366aeb051acb734","64de7e866562d2aaefd4167f","","","","","4730",""," ","key"," ","8.332999999999977","500","250","zol","1.1500000000000001","1","0","-30","5","0.45",""
"","psychophysics","114","1334747","0.0-114.0","615d051e2366aeb051acb734","64de7e866562d2aaefd4167f","","","","","null","","null","key","null","8.333452083333153","500","250","zol","1.25","1","0","-16","-16","0.65",""
"","psychophysics","115","1339927","0.0-115.0","615d051e2366aeb051acb734","64de7e866562d2aaefd4167f","","","","","5179",""," ","key"," ","8.333645732689051","500","250","zol","0.6799999999999999","1","0","-9","7","0.72",""
"","psychophysics","116","1343090","0.0-116.0","615d051e2366aeb051acb734","64de7e866562d2aaefd4167f","","","","","3160",""," ","key"," ","8.333000000000183","500","250","zol","0.7499999999999999","1","0","-10","-4","0.65",""
"","psychophysics","117","1346960","0.0-117.0","615d051e2366aeb051acb734","64de7e866562d2aaefd4167f","","","","","3866",""," ","key"," ","8.333000000000224","500","250","zol","0.33000000000000007","1","0","-26","28","-0.63",""
"","psychophysics","118","1350436","0.0-118.0","615d051e2366aeb051acb734","64de7e866562d2aaefd4167f","","","","","3472",""," ","key"," ","8.33404086538492","500","250","zol","0.42000000000000004","1","0","15","-30","-0.22",""
"","psychophysics","119","1354600","0.0-119.0","615d051e2366aeb051acb734","64de7e866562d2aaefd4167f","","","","","4160",""," ","key"," ","8.333000000000265","500","250","zol","0.9499999999999998","1","0","-1","23","0.75",""
"","psychophysics","120","1358589","0.0-120.0","615d051e2366aeb051acb734","64de7e866562d2aaefd4167f","","","","","3986",""," ","key"," ","8.33300000000003","500","250","zol","0.49","1","0","-22","-29","-0.19",""
"","psychophysics","121","1359263","0.0-121.0","615d051e2366aeb051acb734","64de7e866562d2aaefd4167f","","","","","673",""," ","key"," ","8.33299999999872","500","250","inst","","","","","","",""
"","psychophysics","122","1363710","0.0-122.0","615d051e2366aeb051acb734","64de7e866562d2aaefd4167f","","","","","4445",""," ","key"," ","8.33381238273925","500","250","instBr3","40","2","","0","0","40","300"
"","psychophysics","123","1364308","0.0-123.0","615d051e2366aeb051acb734","64de7e866562d2aaefd4167f","","","","","595",""," ","key"," ","8.333000000000798","500","250","inst","","","","","","",""
"","psychophysics","124","1368047","0.0-124.0","615d051e2366aeb051acb734","64de7e866562d2aaefd4167f","","","","","3737",""," ","key"," ","8.332999999999759","500","250","br","16","2","1","15","22","-11","211"
"","psychophysics","125","1372021","0.0-125.0","615d051e2366aeb051acb734","64de7e866562d2aaefd4167f","","","","","3971",""," ","key"," ","8.33384243697476","500","250","br","17","2","1","-17","28","-22","282"
"","psychophysics","126","1373279","0.0-126.0","615d051e2366aeb051acb734","64de7e866562d2aaefd4167f","","","","","1254",""," ","key"," ","8.33299999999969","500","250","br","25","2","1","-11","-7","27","263"
"","psychophysics","127","1375390","0.0-127.0","615d051e2366aeb051acb734","64de7e866562d2aaefd4167f","","","","","2109",""," ","key"," ","8.333000000000272","500","250","br","17","2","1","-28","13","13","201"
"","psychophysics","128","1380495","0.0-128.0","615d051e2366aeb051acb734","64de7e866562d2aaefd4167f","","","","","5102",""," ","key"," ","8.333710310965817","500","250","br","16","2","1","16","-24","-24","237"
"","psychophysics","129","1383103","0.0-129.0","615d051e2366aeb051acb734","64de7e866562d2aaefd4167f","","","","","2604",""," ","key"," ","8.333000000000585","500","250","br","14","2","1","-16","0","12","283"
"","psychophysics","130","1384408","0.0-130.0","615d051e2366aeb051acb734","64de7e866562d2aaefd4167f","","","","","1302",""," ","key"," ","8.33299999999994","500","250","br","20","2","1","30","-5","19","273"
"","psychophysics","131","1387935","0.0-131.0","615d051e2366aeb051acb734","64de7e866562d2aaefd4167f","","","","","3523",""," ","key"," ","8.332999999999855","500","250","br","21","2","1","26","28","3","206"
"","psychophysics","132","1389830","0.0-132.0","615d051e2366aeb051acb734","64de7e866562d2aaefd4167f","","","","","1891",""," ","key"," ","8.33299999999962","500","250","br","20","2","1","-10","17","26","280"
"","psychophysics","133","1394157","0.0-133.0","615d051e2366aeb051acb734","64de7e866562d2aaefd4167f","","","","","4325",""," ","key"," ","8.333774131273717","500","250","br","21","2","1","1","29","-11","281"
"","psychophysics","134","1397912","0.0-134.0","615d051e2366aeb051acb734","64de7e866562d2aaefd4167f","","","","","3751",""," ","key"," ","8.333000000000206","500","250","br","24","2","1","1","-8","2","297"
"","psychophysics","135","1402581","0.0-135.0","615d051e2366aeb051acb734","64de7e866562d2aaefd4167f","","","","","4666",""," ","key"," ","8.333774597495662","500","250","br","24","2","1","12","-20","-14","209"
"","psychophysics","136","1405379","0.0-136.0","615d051e2366aeb051acb734","64de7e866562d2aaefd4167f","","","","","2794",""," ","key"," ","8.333000000000501","500","250","br","23","2","1","-13","27","28","297"
"","psychophysics","137","1407135","0.0-137.0","615d051e2366aeb051acb734","64de7e866562d2aaefd4167f","","","","","1754",""," ","key"," ","8.333000000000798","500","250","br","25","2","1","0","24","30","225"
"","psychophysics","138","1408637","0.0-138.0","615d051e2366aeb051acb734","64de7e866562d2aaefd4167f","","","","","1499",""," ","key"," ","8.333000000000427","500","250","br","18","2","1","-9","4","16","291"
"","psychophysics","139","1409227","0.0-139.0","615d051e2366aeb051acb734","64de7e866562d2aaefd4167f","","","","","589",""," ","key"," ","8.333000000000798","500","250","inst","","","","","","",""
"","psychophysics","140","1410454","0.0-140.0","615d051e2366aeb051acb734","64de7e866562d2aaefd4167f","","","","","1224",""," ","key"," ","8.33574657534147","500","250","instPog0","370","2","","0","0","370","340"
"","psychophysics","141","1415447","0.0-141.0","615d051e2366aeb051acb734","64de7e866562d2aaefd4167f","","","","","4990",""," ","key"," ","8.333000000000132","500","250","instPog1","326","2","","0","0","370","340"
"","psychophysics","142","1418961","0.0-142.0","615d051e2366aeb051acb734","64de7e866562d2aaefd4167f","","","","","3511",""," ","key"," ","8.33299999999993","500","250","instPog2","314","2","","0","0","340","340"
"","psychophysics","143","1419525","0.0-143.0","615d051e2366aeb051acb734","64de7e866562d2aaefd4167f","","","","","561",""," ","key"," ","8.332999999999805","500","250","inst","","","","","","",""
"","psychophysics","144","1422581","0.0-144.0","615d051e2366aeb051acb734","64de7e866562d2aaefd4167f","","","","","3053",""," ","key"," ","8.334191780822504","500","250","pog","318","2","1","0","0","356","346"
"","psychophysics","145","1426900","0.0-145.0","615d051e2366aeb051acb734","64de7e866562d2aaefd4167f","","","","","4316",""," ","key"," ","8.332999999999899","500","250","pog","327","2","1","0","0","393","357"
"","psychophysics","146","1428982","0.0-146.0","615d051e2366aeb051acb734","64de7e866562d2aaefd4167f","","","","","2079",""," ","key"," ","8.333000000000128","500","250","pog","287","2","1","0","0","309","317"
"","psychophysics","147","1431387","0.0-147.0","615d051e2366aeb051acb734","64de7e866562d2aaefd4167f","","","","","2403",""," ","key"," ","8.334392361111693","500","250","pog","309","2","1","0","0","325","344"
"","psychophysics","148","1433354","0.0-148.0","615d051e2366aeb051acb734","64de7e866562d2aaefd4167f","","","","","1964",""," ","key"," ","8.333000000000515","500","250","pog","283","2","1","0","0","293","314"
"","psychophysics","149","1434954","0.0-149.0","615d051e2366aeb051acb734","64de7e866562d2aaefd4167f","","","","","1597",""," ","key"," ","8.333000000000624","500","250","pog","300","2","1","0","0","306","326"
"","psychophysics","150","1440017","0.0-150.0","615d051e2366aeb051acb734","64de7e866562d2aaefd4167f","","","","","5060",""," ","key"," ","8.333713344316331","500","250","pog","306","2","1","0","0","396","343"
"","psychophysics","151","1443380","0.0-151.0","615d051e2366aeb051acb734","64de7e866562d2aaefd4167f","","","","","3360",""," ","key"," ","8.332999999999805","500","250","pog","325","2","1","0","0","371","356"
"","psychophysics","152","1446341","0.0-152.0","615d051e2366aeb051acb734","64de7e866562d2aaefd4167f","","","","","2959",""," ","key"," ","8.332999999999581","500","250","pog","329","2","1","0","0","359","354"
"","psychophysics","153","1447817","0.0-153.0","615d051e2366aeb051acb734","64de7e866562d2aaefd4167f","","","","","1473",""," ","key"," ","8.332999999999467","500","250","pog","388","2","1","0","0","394","339"
"","psychophysics","154","1449446","0.0-154.0","615d051e2366aeb051acb734","64de7e866562d2aaefd4167f","","","","","1624",""," ","key"," ","8.333000000000286","500","250","pog","316","2","1","0","0","308","345"
"","psychophysics","155","1453565","0.0-155.0","615d051e2366aeb051acb734","64de7e866562d2aaefd4167f","","","","","4117",""," ","key"," ","8.333886409736603","500","250","pog","351","2","1","0","0","387","375"
"","psychophysics","156","1456562","0.0-156.0","615d051e2366aeb051acb734","64de7e866562d2aaefd4167f","","","","","2993",""," ","key"," ","8.333000000000057","500","250","pog","294","2","1","0","0","320","316"
"","psychophysics","157","1458883","0.0-157.0","615d051e2366aeb051acb734","64de7e866562d2aaefd4167f","","","","","2319",""," ","key"," ","8.33300000000008","500","250","pog","347","2","1","0","0","367","376"
"","psychophysics","158","1464774","0.0-158.0","615d051e2366aeb051acb734","64de7e866562d2aaefd4167f","","","","","5888",""," ","key"," ","8.333568794326196","500","250","pog","285","2","1","0","0","397","303"
"","psychophysics","159","1465348","0.0-159.0","615d051e2366aeb051acb734","64de7e866562d2aaefd4167f","","","","","571",""," ","key"," ","8.332999999997863","500","250","inst","","","","","","",""
"","psychophysics","160","1469187","0.0-160.0","615d051e2366aeb051acb734","64de7e866562d2aaefd4167f","","","","","3835",""," ","key"," ","8.332999999999858","500","250","instPz1","38","1","","","","25","50"
"","psychophysics","161","1475081","0.0-161.0","615d051e2366aeb051acb734","64de7e866562d2aaefd4167f","","","","","5891",""," ","key"," ","8.33361473087803","500","250","instPz2","20","1","","","","35","20"
"","psychophysics","162","1495471","0.0-162.0","615d051e2366aeb051acb734","64de7e866562d2aaefd4167f","","","","","20386",""," ","key"," ","8.333341373671253","500","250","instPz3","29","1","","","","100","30"
"","psychophysics","163","1502341","0.0-163.0","615d051e2366aeb051acb734","64de7e866562d2aaefd4167f","","","","","6866",""," ","key"," ","8.333486026731508","500","250","instPz4","39","1","","","","100","30"
"","psychophysics","164","1503049","0.0-164.0","615d051e2366aeb051acb734","64de7e866562d2aaefd4167f","","","","","704",""," ","key"," ","8.333000000000798","500","250","inst","","","","","","",""
"","psychophysics","165","1506685","0.0-165.0","615d051e2366aeb051acb734","64de7e866562d2aaefd4167f","","","","","3631",""," ","key"," ","8.332999999999958","500","250","pz","27","1","1","","","54","23"
"","psychophysics","166","1508656","0.0-166.0","615d051e2366aeb051acb734","64de7e866562d2aaefd4167f","","","","","1967",""," ","key"," ","8.332999999999952","500","250","pz","43","1","1","","","52","37"
"","psychophysics","167","1511129","0.0-167.0","615d051e2366aeb051acb734","64de7e866562d2aaefd4167f","","","","","2469",""," ","key"," ","8.334466216216537","500","250","pz","30","1","1","","","40","24"
"","psychophysics","168","1514254","0.0-168.0","615d051e2366aeb051acb734","64de7e866562d2aaefd4167f","","","","","3122",""," ","key"," ","8.333000000000354","500","250","pz","58","1","1","","","53","52"
"","psychophysics","169","1518847","0.0-169.0","615d051e2366aeb051acb734","64de7e866562d2aaefd4167f","","","","","4590",""," ","key"," ","8.332999999999831","500","250","pz","60","1","1","","","45","57"
"","psychophysics","170","1521992","0.0-170.0","615d051e2366aeb051acb734","64de7e866562d2aaefd4167f","","","","","3141",""," ","key"," ","8.334063829787254","500","250","pz","38","1","1","","","41","34"
"","psychophysics","171","1523659","0.0-171.0","615d051e2366aeb051acb734","64de7e866562d2aaefd4167f","","","","","1662",""," ","key"," ","8.332999999999302","500","250","pz","45","1","1","","","43","40"
"","psychophysics","172","1531559","0.0-172.0","615d051e2366aeb051acb734","64de7e866562d2aaefd4167f","","","","","7898",""," ","key"," ","8.33345771670178","500","250","pz","73","1","1","","","23","58"
"","psychophysics","173","1534911","0.0-173.0","615d051e2366aeb051acb734","64de7e866562d2aaefd4167f","","","","","3350",""," ","key"," ","8.332999999999805","500","250","pz","36","1","1","","","21","29"
"","psychophysics","174","1538101","0.0-174.0","615d051e2366aeb051acb734","64de7e866562d2aaefd4167f","","","","","3188",""," ","key"," ","8.333000000000014","500","250","pz","50","1","1","","","32","41"
"","psychophysics","175","1540081","0.0-175.0","615d051e2366aeb051acb734","64de7e866562d2aaefd4167f","","","","","1977",""," ","key"," ","8.332999999999952","500","250","pz","48","1","1","","","42","46"
"","psychophysics","176","1543554","0.0-176.0","615d051e2366aeb051acb734","64de7e866562d2aaefd4167f","","","","","3469",""," ","key"," ","8.333963942307701","500","250","pz","42","1","1","","","20","30"
"","psychophysics","177","1545025","0.0-177.0","615d051e2366aeb051acb734","64de7e866562d2aaefd4167f","","","","","1469",""," ","key"," ","8.333000000000798","500","250","pz","45","1","1","","","43","41"
"","psychophysics","178","1547998","0.0-178.0","615d051e2366aeb051acb734","64de7e866562d2aaefd4167f","","","","","2970",""," ","key"," ","8.333000000000517","500","250","pz","38","1","1","","","52","24"
"","psychophysics","179","1552216","0.0-179.0","615d051e2366aeb051acb734","64de7e866562d2aaefd4167f","","","","","4216",""," ","key"," ","8.333867326732909","500","250","pz","42","1","1","","","56","35"
"","psychophysics","180","1552676","0.0-180.0","615d051e2366aeb051acb734","64de7e866562d2aaefd4167f","","","","","457",""," ","key"," ","8.333000000001414","500","250","inst","","","","","","",""
"","psychophysics","181","1556768","0.0-181.0","615d051e2366aeb051acb734","64de7e866562d2aaefd4167f","","","","","4090",""," ","key"," ","8.333000000000053","500","250","instEB1","42","2","","0","0","30","40"
"","psychophysics","182","1558518","0.0-182.0","615d051e2366aeb051acb734","64de7e866562d2aaefd4167f","","","","","1747",""," ","key"," ","8.332999999999839","500","250","instEB2","39","2","","0","0","40","30"
"","psychophysics","183","1562132","0.0-183.0","615d051e2366aeb051acb734","64de7e866562d2aaefd4167f","","","","","3609",""," ","key"," ","8.333923787528683","500","250","instEB3","40","2","","0","0","45","27"
"","psychophysics","184","1565844","0.0-184.0","615d051e2366aeb051acb734","64de7e866562d2aaefd4167f","","","","","3708",""," ","key"," ","8.332999999999899","500","250","instEB4","48","2","","0","0","30","40"
"","psychophysics","185","1566631","0.0-185.0","615d051e2366aeb051acb734","64de7e866562d2aaefd4167f","","","","","785",""," ","key"," ","8.333000000001507","500","250","inst","","","","","","",""
"","psychophysics","186","1570465","0.0-186.0","615d051e2366aeb051acb734","64de7e866562d2aaefd4167f","","","","","3832",""," ","key"," ","8.333945533768974","500","250","eb","64","2","","0","0","33","54"
"","psychophysics","187","1574106","0.0-187.0","615d051e2366aeb051acb734","64de7e866562d2aaefd4167f","","","","","3636",""," ","key"," ","8.333000000000188","500","250","eb","35","2","","0","0","41","27"
"","psychophysics","188","1577743","0.0-188.0","615d051e2366aeb051acb734","64de7e866562d2aaefd4167f","","","","","3633",""," ","key"," ","8.332999999999958","500","250","eb","61","2","","0","0","41","52"
"","psychophysics","189","1579417","0.0-189.0","615d051e2366aeb051acb734","64de7e866562d2aaefd4167f","","","","","1669",""," ","key"," ","8.332999999999302","500","250","eb","43","2","","0","0","39","29"
"","psychophysics","190","1580806","0.0-190.0","615d051e2366aeb051acb734","64de7e866562d2aaefd4167f","","","","","1386",""," ","key"," ","8.335608433735702","500","250","eb","44","2","","0","0","43","33"
"","psychophysics","191","1583631","0.0-191.0","615d051e2366aeb051acb734","64de7e866562d2aaefd4167f","","","","","2822",""," ","key"," ","8.33300000000001","500","250","eb","63","2","","0","0","47","52"
"","psychophysics","192","1586209","0.0-192.0","615d051e2366aeb051acb734","64de7e866562d2aaefd4167f","","","","","2575",""," ","key"," ","8.333000000000043","500","250","eb","61","2","","0","0","51","52"
"","psychophysics","193","1588983","0.0-193.0","615d051e2366aeb051acb734","64de7e866562d2aaefd4167f","","","","","2771",""," ","key"," ","8.333000000000297","500","250","eb","59","2","","0","0","39","49"
"","psychophysics","194","1592442","0.0-194.0","615d051e2366aeb051acb734","64de7e866562d2aaefd4167f","","","","","3455",""," ","key"," ","8.33396618357513","500","250","eb","65","2","","0","0","39","53"
"","psychophysics","195","1595285","0.0-195.0","615d051e2366aeb051acb734","64de7e866562d2aaefd4167f","","","","","2839",""," ","key"," ","8.333000000000213","500","250","eb","41","2","","0","0","38","33"
"","psychophysics","196","1598126","0.0-196.0","615d051e2366aeb051acb734","64de7e866562d2aaefd4167f","","","","","2839",""," ","key"," ","8.33299999999962","500","250","eb","41","2","","0","0","52","36"
"","psychophysics","197","1600864","0.0-197.0","615d051e2366aeb051acb734","64de7e866562d2aaefd4167f","","","","","2734",""," ","key"," ","8.334323170731873","500","250","eb","31","2","","0","0","42","24"
"","psychophysics","198","1603878","0.0-198.0","615d051e2366aeb051acb734","64de7e866562d2aaefd4167f","","","","","3009",""," ","key"," ","8.332999999999968","500","250","eb","56","2","","0","0","41","46"
"","psychophysics","199","1606692","0.0-199.0","615d051e2366aeb051acb734","64de7e866562d2aaefd4167f","","","","","2813",""," ","key"," ","8.333000000000105","500","250","eb","39","2","","0","0","47","34"
"","psychophysics","200","1608951","0.0-200.0","615d051e2366aeb051acb734","64de7e866562d2aaefd4167f","","","","","2254",""," ","key"," ","8.333000000000553","500","250","eb","57","2","","0","0","54","51"
"","psychophysics","201","1609507","0.0-201.0","615d051e2366aeb051acb734","64de7e866562d2aaefd4167f","","","","","552",""," ","key"," ","8.333000000001807","500","250","inst","","","","","","",""
"","psychophysics","202","1614433","0.0-202.0","615d051e2366aeb051acb734","64de7e866562d2aaefd4167f","","","","","4925",""," ","key"," ","8.333677966101884","500","250","instZol1","0.30000000000000004","","","0","0","-1.3",""
"","psychophysics","203","1620414","0.0-203.0","615d051e2366aeb051acb734","64de7e866562d2aaefd4167f","","","","","5976",""," ","key"," ","8.333608089261032","500","250","instZol2","-1.0999999999999992","2","","0","0","2",""
"","psychophysics","204","1621155","0.0-204.0","615d051e2366aeb051acb734","64de7e866562d2aaefd4167f","","","","","739",""," ","key"," ","8.333000000000043","500","250","inst","","","","","","",""
"","psychophysics","205","1626326","0.0-205.0","615d051e2366aeb051acb734","64de7e866562d2aaefd4167f","","","","","5168",""," ","key"," ","8.332999999999778","500","250","zol","-1.17","2","1","-26","28","0.17",""
"","psychophysics","206","1628991","0.0-206.0","615d051e2366aeb051acb734","64de7e866562d2aaefd4167f","","","","","2661",""," ","key"," ","8.33299999999986","500","250","zol","-0.7999999999999999","2","1","28","-7","0.2",""
"","psychophysics","207","1632490","0.0-207.0","615d051e2366aeb051acb734","64de7e866562d2aaefd4167f","","","","","3495",""," ","key"," ","8.33403579952242","500","250","zol","-0.8599999999999999","2","1","0","24","-0.44",""
"","psychophysics","208","1637968","0.0-208.0","615d051e2366aeb051acb734","64de7e866562d2aaefd4167f","","","","","5474",""," ","key"," ","8.332999999999783","500","250","zol","-0.73","2","1","16","5","-0.57",""
"","psychophysics","209","1640858","0.0-209.0","615d051e2366aeb051acb734","64de7e866562d2aaefd4167f","","","","","2885",""," ","key"," ","8.334158959537422","500","250","zol","-1.1400000000000001","2","1","-12","-16","0.54",""
"","psychophysics","210","1645850","0.0-210.0","615d051e2366aeb051acb734","64de7e866562d2aaefd4167f","","","","","4989",""," ","key"," ","8.33299999999974","500","250","zol","-0.6400000000000001","2","1","-22","-19","-0.26",""
"","psychophysics","211","1649616","0.0-211.0","615d051e2366aeb051acb734","64de7e866562d2aaefd4167f","","","","","3761",""," ","key"," ","8.332999999999913","500","250","zol","-0.72","2","1","18","-17","-0.48",""
"","psychophysics","212","1653124","0.0-212.0","615d051e2366aeb051acb734","64de7e866562d2aaefd4167f","","","","","3503",""," ","key"," ","8.334030952380548","500","250","zol","-0.59","2","1","16","-20","0.09",""
"","psychophysics","213","1659147","0.0-213.0","615d051e2366aeb051acb734","64de7e866562d2aaefd4167f","","","","","6018",""," ","key"," ","8.332999999999968","500","250","zol","-0.6699999999999998","2","1","-18","-9","-0.73",""
"","psychophysics","214","1664075","0.0-214.0","615d051e2366aeb051acb734","64de7e866562d2aaefd4167f","","","","","4924",""," ","key"," ","8.333679661017023","500","250","zol","-0.4800000000000002","2","1","-3","-14","0.68",""
"","psychophysics","215","1666322","0.0-215.0","615d051e2366aeb051acb734","64de7e866562d2aaefd4167f","","","","","2243",""," ","key"," ","8.33300000000018","500","250","zol","-0.3700000000000001","2","1","0","-11","0.67",""
"","psychophysics","216","1668851","0.0-216.0","615d051e2366aeb051acb734","64de7e866562d2aaefd4167f","","","","","2524",""," ","key"," ","8.333000000000357","500","250","zol","-0.8499999999999999","2","1","27","-25","0.15",""
"","psychophysics","217","1672769","0.0-217.0","615d051e2366aeb051acb734","64de7e866562d2aaefd4167f","","","","","3915",""," ","key"," ","8.333921276595682","500","250","zol","-0.8599999999999999","2","1","13","-18","-0.44",""
"","psychophysics","218","1679156","0.0-218.0","615d051e2366aeb051acb734","64de7e866562d2aaefd4167f","","","","","6383",""," ","key"," ","8.333000000000146","500","250","zol","-0.9399999999999998","2","1","12","-17","-0.66",""
"","psychophysics","219","1683184","0.0-219.0","615d051e2366aeb051acb734","64de7e866562d2aaefd4167f","","","","","4023",""," ","key"," ","8.333906639004088","500","250","zol","-0.57","2","1","-28","8","-0.33",""
