"success","trial_type","trial_index","time_elapsed","internal_node_id","pid","sid","timeout","failed_images","failed_audio","failed_video","rt","stimulus","response","response_type","key_press","avg_frame_time","center_x","center_y","task","resp","start","parA","version","block","jitterX","jitterY"
"true","fullscreen","0","2665","0.0-0.0","55c43918fdf99b080551e044","64dd6ef84a750f146bf0d440","","","","","","","","","","","","","","","","","","","",""
"true","preload","1","2746","0.0-1.0","55c43918fdf99b080551e044","64dd6ef84a750f146bf0d440","false","[]","[]","[]","","","","","","","","","","","","","","","",""
"","html-button-response","2","4197","0.0-2.0","55c43918fdf99b080551e044","64dd6ef84a750f146bf0d440","","","","","1450","Please Make Sure Your Audio Is On.","0","","","","","","","","","","","","",""
"","psychophysics","3","8293","0.0-3.0","55c43918fdf99b080551e044","64dd6ef84a750f146bf0d440","","","","","4093",""," ","key"," ","16.683216326530616","960","250","","","","","","","",""
"","psychophysics","4","11308","0.0-4.0","55c43918fdf99b080551e044","64dd6ef84a750f146bf0d440","","","","","3014",""," ","key"," ","16.68246927374301","500","250","inst","","","","","","",""
"","psychophysics","5","17814","0.0-5.0","55c43918fdf99b080551e044","64dd6ef84a750f146bf0d440","","","","","6504",""," ","key"," ","16.68322879177378","500","250","sample0","","","","","","",""
"","psychophysics","6","21766","0.0-6.0","55c43918fdf99b080551e044","64dd6ef84a750f146bf0d440","","","","","3949",""," ","key"," ","16.683199152542375","500","250","sample1","","","","","","",""
"","psychophysics","7","32814","0.0-7.0","55c43918fdf99b080551e044","64dd6ef84a750f146bf0d440","","","","","11044",""," ","key"," ","16.683281391830555","500","250","sample2","102","","","","","",""
"","psychophysics","8","37078","0.0-8.0","55c43918fdf99b080551e044","64dd6ef84a750f146bf0d440","","","","","4256",""," ","key"," ","16.68393725490194","500","250","sample3","100","","","","","",""
"","psychophysics","9","52623","0.0-9.0","55c43918fdf99b080551e044","64dd6ef84a750f146bf0d440","","","","","15541",""," ","key"," ","16.68356605800215","500","250","sample4","100","","","","","",""
"","psychophysics","10","62862","0.0-10.0","55c43918fdf99b080551e044","64dd6ef84a750f146bf0d440","","","","","10235",""," ","key"," ","16.683287581699343","500","250","sample5","","","","","","",""
"","psychophysics","11","99349","0.0-11.0","55c43918fdf99b080551e044","64dd6ef84a750f146bf0d440","","","","","36482",""," ","key"," ","16.683317017383345","500","250","sample6","500","","","","","",""
"","psychophysics","12","111574","0.0-12.0","55c43918fdf99b080551e044","64dd6ef84a750f146bf0d440","","","","","12218",""," ","key"," ","16.68366666666667","500","250","inst","","","","","","",""
"","psychophysics","13","116757","0.0-13.0","55c43918fdf99b080551e044","64dd6ef84a750f146bf0d440","","","","","5179",""," ","key"," ","16.68402903225806","500","250","inst","","","","","","",""
"","psychophysics","14","126013","0.0-14.0","55c43918fdf99b080551e044","64dd6ef84a750f146bf0d440","","","","","9253",""," ","key"," ","16.68326534296028","500","250","inst","","","","","","",""
"","psychophysics","15","133309","0.0-15.0","55c43918fdf99b080551e044","64dd6ef84a750f146bf0d440","","","","","7293",""," ","key"," ","16.68346788990822","500","250","inst","","","","","","",""
"","psychophysics","16","135718","0.0-16.0","55c43918fdf99b080551e044","64dd6ef84a750f146bf0d440","","","","","2406",""," ","key"," ","16.683902097902166","500","250","inst","","","","","","",""
"","psychophysics","17","138710","0.0-17.0","55c43918fdf99b080551e044","64dd6ef84a750f146bf0d440","","","","","2981",""," ","key"," ","16.684251396648044","500","250","instPzPre","50","50","50","0","","",""
"","psychophysics","18","141469","0.0-18.0","55c43918fdf99b080551e044","64dd6ef84a750f146bf0d440","","","","","2755",""," ","key"," ","16.68354878048771","500","250","instPz0","50","50","50","2","","",""
"","psychophysics","19","155109","0.0-19.0","55c43918fdf99b080551e044","64dd6ef84a750f146bf0d440","","","","","13636",""," ","key"," ","16.68333292533663","500","250","instPz1","44","25","50","2","","",""
"","psychophysics","20","161285","0.0-20.0","55c43918fdf99b080551e044","64dd6ef84a750f146bf0d440","","","","","6172",""," ","key"," ","16.683523035230355","500","250","instPz2","33","20","35","2","","",""
"","psychophysics","21","167453","0.0-21.0","55c43918fdf99b080551e044","64dd6ef84a750f146bf0d440","","","","","6161",""," ","key"," ","16.68390785907865","500","250","instPz3","30","30","100","2","","",""
"","psychophysics","22","181117","0.0-22.0","55c43918fdf99b080551e044","64dd6ef84a750f146bf0d440","","","","","13659",""," ","key"," ","16.68326039119805","500","250","instPz4","88","30","100","2","","",""
"","psychophysics","23","183070","0.0-23.0","55c43918fdf99b080551e044","64dd6ef84a750f146bf0d440","","","","","1948",""," ","key"," ","16.68662931034487","500","250","inst","","","","","","",""
"","psychophysics","24","189486","0.0-24.0","55c43918fdf99b080551e044","64dd6ef84a750f146bf0d440","","","","","6407",""," ","key"," ","16.68386945169718","500","250","pz","48","60","51","2","0","",""
"","psychophysics","25","197489","0.0-25.0","55c43918fdf99b080551e044","64dd6ef84a750f146bf0d440","","","","","null","","null","key","null","16.68311899791227","500","250","pz","16","37","20","2","0","",""
"","psychophysics","26","201261","0.0-26.0","55c43918fdf99b080551e044","64dd6ef84a750f146bf0d440","","","","","3770",""," ","key"," ","16.683946666666564","500","250","pz","33","38","42","2","0","",""
"","psychophysics","27","208645","0.0-27.0","55c43918fdf99b080551e044","64dd6ef84a750f146bf0d440","","","","","7380",""," ","key"," ","16.68392081447965","500","250","pz","38","22","54","2","0","",""
"","psychophysics","28","212413","0.0-28.0","55c43918fdf99b080551e044","64dd6ef84a750f146bf0d440","","","","","3764",""," ","key"," ","16.6829642857144","500","250","pz","43","50","54","2","0","",""
"","psychophysics","29","220418","0.0-29.0","55c43918fdf99b080551e044","64dd6ef84a750f146bf0d440","","","","","null","","null","key","null","16.68320668058454","500","250","pz","25","48","29","2","0","",""
"","psychophysics","30","224397","0.0-30.0","55c43918fdf99b080551e044","64dd6ef84a750f146bf0d440","","","","","3974",""," ","key"," ","16.684378151260557","500","250","pz","40","28","55","2","0","",""
"","psychophysics","31","229317","0.0-31.0","55c43918fdf99b080551e044","64dd6ef84a750f146bf0d440","","","","","4916",""," ","key"," ","16.683187074829895","500","250","pz","43","24","60","2","0","",""
"","psychophysics","32","231948","0.0-32.0","55c43918fdf99b080551e044","64dd6ef84a750f146bf0d440","","","","","2627",""," ","key"," ","16.68407692307702","500","250","pz","32","29","38","2","0","",""
"","psychophysics","33","237781","0.0-33.0","55c43918fdf99b080551e044","64dd6ef84a750f146bf0d440","","","","","5829",""," ","key"," ","16.684263610315156","500","250","pz","24","47","28","2","0","",""
"","psychophysics","34","242925","0.0-34.0","55c43918fdf99b080551e044","64dd6ef84a750f146bf0d440","","","","","5140",""," ","key"," ","16.6836742671009","500","250","pz","41","26","58","2","0","",""
"","psychophysics","35","246709","0.0-35.0","55c43918fdf99b080551e044","64dd6ef84a750f146bf0d440","","","","","3778",""," ","key"," ","16.683924778761106","500","250","pz","43","35","53","2","0","",""
"","psychophysics","36","249405","0.0-36.0","55c43918fdf99b080551e044","64dd6ef84a750f146bf0d440","","","","","2689",""," ","key"," ","16.68534782608705","500","250","pz","42","47","49","2","0","",""
"","psychophysics","37","253949","0.0-37.0","55c43918fdf99b080551e044","64dd6ef84a750f146bf0d440","","","","","4540",""," ","key"," ","16.68354612546118","500","250","pz","18","21","23","2","0","",""
"","psychophysics","38","258005","0.0-38.0","55c43918fdf99b080551e044","64dd6ef84a750f146bf0d440","","","","","4052",""," ","key"," ","16.684632231404887","500","250","pz","32","45","36","2","0","",""
"","psychophysics","39","260581","0.0-39.0","55c43918fdf99b080551e044","64dd6ef84a750f146bf0d440","","","","","2570",""," ","key"," ","16.684935064934944","500","250","inst","","","","","","",""
"","psychophysics","40","269837","0.0-40.0","55c43918fdf99b080551e044","64dd6ef84a750f146bf0d440","","","","","9253",""," ","key"," ","16.683215189873415","500","250","instPog0","160","190","160","1","","0","0"
"","psychophysics","41","280821","0.0-41.0","55c43918fdf99b080551e044","64dd6ef84a750f146bf0d440","","","","","10978",""," ","key"," ","16.683490881458912","500","250","instPog1","168","190","160","1","","0","0"
"","psychophysics","42","287230","0.0-42.0","55c43918fdf99b080551e044","64dd6ef84a750f146bf0d440","","","","","6406",""," ","key"," ","16.683268929503868","500","250","instPog2","182","160","160","1","","0","0"
"","psychophysics","43","289877","0.0-43.0","55c43918fdf99b080551e044","64dd6ef84a750f146bf0d440","","","","","2645",""," ","key"," ","16.68246202531626","500","250","inst","","","","","","",""
"","psychophysics","44","293309","0.0-44.0","55c43918fdf99b080551e044","64dd6ef84a750f146bf0d440","","","","","3428",""," ","key"," ","16.68312745098043","500","250","pog","217","219","188","1","0","0","0"
"","psychophysics","45","301318","0.0-45.0","55c43918fdf99b080551e044","64dd6ef84a750f146bf0d440","","","","","null","","null","key","null","16.683584551148176","500","250","pog","141","113","120","1","0","0","0"
"","psychophysics","46","309320","0.0-46.0","55c43918fdf99b080551e044","64dd6ef84a750f146bf0d440","","","","","null","","null","key","null","16.68333820459294","500","250","pog","196","110","166","1","0","0","0"
"","psychophysics","47","315245","0.0-47.0","55c43918fdf99b080551e044","64dd6ef84a750f146bf0d440","","","","","5921",""," ","key"," ","16.68328531073455","500","250","pog","158","190","125","1","0","0","0"
"","psychophysics","48","318485","0.0-48.0","55c43918fdf99b080551e044","64dd6ef84a750f146bf0d440","","","","","3234",""," ","key"," ","16.68503626943005","500","250","pog","178","200","142","1","0","0","0"
"","psychophysics","49","321860","0.0-49.0","55c43918fdf99b080551e044","64dd6ef84a750f146bf0d440","","","","","3370",""," ","key"," ","16.684806930693096","500","250","pog","208","190","181","1","0","0","0"
"","psychophysics","50","324685","0.0-50.0","55c43918fdf99b080551e044","64dd6ef84a750f146bf0d440","","","","","2821",""," ","key"," ","16.68207738095225","500","250","pog","168","184","132","1","0","0","0"
"","psychophysics","51","329525","0.0-51.0","55c43918fdf99b080551e044","64dd6ef84a750f146bf0d440","","","","","4837",""," ","key"," ","16.683010380622886","500","250","pog","224","106","198","1","0","0","0"
"","psychophysics","52","333302","0.0-52.0","55c43918fdf99b080551e044","64dd6ef84a750f146bf0d440","","","","","3773",""," ","key"," ","16.684367256637238","500","250","pog","150","132","123","1","0","0","0"
"","psychophysics","53","336493","0.0-53.0","55c43918fdf99b080551e044","64dd6ef84a750f146bf0d440","","","","","3187",""," ","key"," ","16.68327368421045","500","250","pog","167","185","134","1","0","0","0"
"","psychophysics","54","342085","0.0-54.0","55c43918fdf99b080551e044","64dd6ef84a750f146bf0d440","","","","","5589",""," ","key"," ","16.683287425149683","500","250","pog","196","132","173","1","0","0","0"
"","psychophysics","55","346453","0.0-55.0","55c43918fdf99b080551e044","64dd6ef84a750f146bf0d440","","","","","4365",""," ","key"," ","16.684057471264328","500","250","pog","176","142","145","1","0","0","0"
"","psychophysics","56","350893","0.0-56.0","55c43918fdf99b080551e044","64dd6ef84a750f146bf0d440","","","","","4437",""," ","key"," ","16.68321509433972","500","250","pog","202","104","181","1","0","0","0"
"","psychophysics","57","352501","0.0-57.0","55c43918fdf99b080551e044","64dd6ef84a750f146bf0d440","","","","","1605",""," ","key"," ","16.683505263158096","500","250","pog","197","205","173","1","0","0","0"
"","psychophysics","58","356821","0.0-58.0","55c43918fdf99b080551e044","64dd6ef84a750f146bf0d440","","","","","4313",""," ","key"," ","16.684399224806246","500","250","pog","215","147","188","1","0","0","0"
"","psychophysics","59","380661","0.0-59.0","55c43918fdf99b080551e044","64dd6ef84a750f146bf0d440","","","","","23832",""," ","key"," ","16.683421568627477","500","250","inst","","","","","","",""
"","psychophysics","60","383133","0.0-60.0","55c43918fdf99b080551e044","64dd6ef84a750f146bf0d440","","","","","2464",""," ","key"," ","16.683755102040735","500","250","instEB0","75","75","75","1","","0","0"
"","psychophysics","61","388428","0.0-61.0","55c43918fdf99b080551e044","64dd6ef84a750f146bf0d440","","","","","5289",""," ","key"," ","16.683958990536286","500","250","instEB1","70","80","70","1","","0","0"
"","psychophysics","62","394948","0.0-62.0","55c43918fdf99b080551e044","64dd6ef84a750f146bf0d440","","","","","6516",""," ","key"," ","16.683746153846062","500","250","instEB2","65","80","65","1","","0","0"
"","psychophysics","63","402916","0.0-63.0","55c43918fdf99b080551e044","64dd6ef84a750f146bf0d440","","","","","7966",""," ","key"," ","16.682911764705864","500","250","instEB3","79","65","80","1","","0","0"
"","psychophysics","64","409900","0.0-64.0","55c43918fdf99b080551e044","64dd6ef84a750f146bf0d440","","","","","6976",""," ","key"," ","16.683753588516765","500","250","instEB4","60","70","65","1","","0","0"
"","psychophysics","65","459079","0.0-65.0","55c43918fdf99b080551e044","64dd6ef84a750f146bf0d440","","","","","49176",""," ","key"," ","16.68329589412963","500","250","inst","","","","","","",""
"","psychophysics","66","463549","0.0-66.0","55c43918fdf99b080551e044","64dd6ef84a750f146bf0d440","","","","","4467",""," ","key"," ","16.683726591760493","500","250","eb","72","80","76","1","0","0","0"
"","psychophysics","67","466228","0.0-67.0","55c43918fdf99b080551e044","64dd6ef84a750f146bf0d440","","","","","2675",""," ","key"," ","16.68335220125817","500","250","eb","70","75","71","1","0","0","0"
"","psychophysics","68","469333","0.0-68.0","55c43918fdf99b080551e044","64dd6ef84a750f146bf0d440","","","","","3098",""," ","key"," ","16.68495675675678","500","250","eb","54","71","60","1","0","0","0"
"","psychophysics","69","471845","0.0-69.0","55c43918fdf99b080551e044","64dd6ef84a750f146bf0d440","","","","","2503",""," ","key"," ","16.684913333333487","500","250","eb","65","78","67","1","0","0","0"
"","psychophysics","70","475772","0.0-70.0","55c43918fdf99b080551e044","64dd6ef84a750f146bf0d440","","","","","3923",""," ","key"," ","16.68337606837621","500","250","eb","65","80","67","1","0","0","0"
"","psychophysics","71","478805","0.0-71.0","55c43918fdf99b080551e044","64dd6ef84a750f146bf0d440","","","","","3024",""," ","key"," ","16.684817679557955","500","250","eb","89","63","85","1","0","0","0"
"","psychophysics","72","481765","0.0-72.0","55c43918fdf99b080551e044","64dd6ef84a750f146bf0d440","","","","","2956",""," ","key"," ","16.684477272727236","500","250","eb","59","79","61","1","0","0","0"
"","psychophysics","73","484876","0.0-73.0","55c43918fdf99b080551e044","64dd6ef84a750f146bf0d440","","","","","3104",""," ","key"," ","16.684725806451596","500","250","eb","90","69","88","1","0","0","0"
"","psychophysics","74","488357","0.0-74.0","55c43918fdf99b080551e044","64dd6ef84a750f146bf0d440","","","","","3476",""," ","key"," ","16.684692307692156","500","250","eb","83","89","81","1","0","0","0"
"","psychophysics","75","490572","0.0-75.0","55c43918fdf99b080551e044","64dd6ef84a750f146bf0d440","","","","","2211",""," ","key"," ","16.684572519083996","500","250","eb","69","66","70","1","0","0","0"
"","psychophysics","76","492956","0.0-76.0","55c43918fdf99b080551e044","64dd6ef84a750f146bf0d440","","","","","2379",""," ","key"," ","16.68495070422519","500","250","eb","88","72","88","1","0","0","0"
"","psychophysics","77","494739","0.0-77.0","55c43918fdf99b080551e044","64dd6ef84a750f146bf0d440","","","","","1776",""," ","key"," ","16.683679245282754","500","250","eb","89","85","84","1","0","0","0"
"","psychophysics","78","497244","0.0-78.0","55c43918fdf99b080551e044","64dd6ef84a750f146bf0d440","","","","","2502",""," ","key"," ","16.683758389261776","500","250","eb","69","77","65","1","0","0","0"
"","psychophysics","79","499220","0.0-79.0","55c43918fdf99b080551e044","64dd6ef84a750f146bf0d440","","","","","1970",""," ","key"," ","16.685525423728752","500","250","eb","74","66","72","1","0","0","0"
"","psychophysics","80","501738","0.0-80.0","55c43918fdf99b080551e044","64dd6ef84a750f146bf0d440","","","","","2514",""," ","key"," ","16.682626666666476","500","250","eb","81","62","77","1","0","0","0"
"","psychophysics","81","502956","0.0-81.0","55c43918fdf99b080551e044","64dd6ef84a750f146bf0d440","","","","","1216",""," ","key"," ","16.68940277777761","500","250","inst","","","","","","",""
"","psychophysics","82","506676","0.0-82.0","55c43918fdf99b080551e044","64dd6ef84a750f146bf0d440","","","","","3717",""," ","key"," ","16.683355855855666","500","250","instZol0","0","0","","","","0","0"
"","psychophysics","83","512788","0.0-83.0","55c43918fdf99b080551e044","64dd6ef84a750f146bf0d440","","","","","6109",""," ","key"," ","16.683873972602743","500","250","instZol1","-0.10000000000000003","-1.3","","","","0","0"
"","psychophysics","84","523660","0.0-84.0","55c43918fdf99b080551e044","64dd6ef84a750f146bf0d440","","","","","10861",""," ","key"," ","16.68373732718887","500","250","instZol2","-1.4999999999999996","2","","2","","0","0"
"","psychophysics","85","524540","0.0-85.0","55c43918fdf99b080551e044","64dd6ef84a750f146bf0d440","","","","","878",""," ","key"," ","16.681627450978805","500","250","inst","","","","","","",""
"","psychophysics","86","530572","0.0-86.0","55c43918fdf99b080551e044","64dd6ef84a750f146bf0d440","","","","","6022",""," ","key"," ","16.68288642659279","500","250","zol","-1.0799999999999998","0.38","","2","0","-6","2"
"","psychophysics","87","538579","0.0-87.0","55c43918fdf99b080551e044","64dd6ef84a750f146bf0d440","","","","","null","","null","key","null","16.683943632567964","500","250","zol","-0.8799999999999999","-0.62","","2","0","-15","25"
"","psychophysics","88","546586","0.0-88.0","55c43918fdf99b080551e044","64dd6ef84a750f146bf0d440","","","","","null","","null","key","null","16.683680584551166","500","250","zol","-1.7200000000000006","0.22","","2","0","7","-8"
"","psychophysics","89","550347","0.0-89.0","55c43918fdf99b080551e044","64dd6ef84a750f146bf0d440","","","","","3756",""," ","key"," ","16.683147321428674","500","250","zol","-0.7399999999999998","-0.46","","2","0","17","4"
"","psychophysics","90","554852","0.0-90.0","55c43918fdf99b080551e044","64dd6ef84a750f146bf0d440","","","","","4494",""," ","key"," ","16.68408550185863","500","250","zol","-1.01","0.41","","2","0","-16","-2"
"","psychophysics","91","558012","0.0-91.0","55c43918fdf99b080551e044","64dd6ef84a750f146bf0d440","","","","","3149",""," ","key"," ","16.68452380952381","500","250","zol","-1.06","0.46","","2","0","16","-17"
"","psychophysics","92","561436","0.0-92.0","55c43918fdf99b080551e044","64dd6ef84a750f146bf0d440","","","","","3418",""," ","key"," ","16.684730392157135","500","250","zol","-1.2200000000000002","0.12","","2","0","10","14"
"","psychophysics","93","564260","0.0-93.0","55c43918fdf99b080551e044","64dd6ef84a750f146bf0d440","","","","","2818",""," ","key"," ","16.684761904762127","500","250","zol","-1.3100000000000003","0.51","","2","0","-3","3"
"","psychophysics","94","569076","0.0-94.0","55c43918fdf99b080551e044","64dd6ef84a750f146bf0d440","","","","","4806",""," ","key"," ","16.683885416666776","500","250","zol","-0.6699999999999998","-0.63","","2","0","3","-15"
"","psychophysics","95","572405","0.0-95.0","55c43918fdf99b080551e044","64dd6ef84a750f146bf0d440","","","","","3322",""," ","key"," ","16.684702020202","500","250","zol","-0.8600000000000001","0.46","","2","0","-2","12"
"","psychophysics","96","575748","0.0-96.0","55c43918fdf99b080551e044","64dd6ef84a750f146bf0d440","","","","","3334",""," ","key"," ","16.683580000000074","500","250","zol","-1.18","0.58","","2","0","-7","29"
"","psychophysics","97","578868","0.0-97.0","55c43918fdf99b080551e044","64dd6ef84a750f146bf0d440","","","","","3114",""," ","key"," ","16.681913978494677","500","250","zol","-1.01","0.11","","2","0","-17","22"
"","psychophysics","98","580700","0.0-98.0","55c43918fdf99b080551e044","64dd6ef84a750f146bf0d440","","","","","1825",""," ","key"," ","16.682935779816003","500","250","zol","-0.9500000000000001","0.75","","2","0","-1","19"
"","psychophysics","99","584540","0.0-99.0","55c43918fdf99b080551e044","64dd6ef84a750f146bf0d440","","","","","3833",""," ","key"," ","16.683375545851092","500","250","zol","-0.88","-0.42","","2","0","21","-16"
"","psychophysics","100","589005","0.0-100.0","55c43918fdf99b080551e044","64dd6ef84a750f146bf0d440","","","","","4458",""," ","key"," ","16.684368421052692","500","250","zol","-0.8399999999999999","-0.66","","2","0","-1","23"
"","psychophysics","101","593709","0.0-101.0","55c43918fdf99b080551e044","64dd6ef84a750f146bf0d440","","","","","4698",""," ","key"," ","16.684580071174683","500","250","inst","","","","","","",""
"","psychophysics","102","595845","0.0-102.0","55c43918fdf99b080551e044","64dd6ef84a750f146bf0d440","","","","","2128",""," ","key"," ","16.683944881890028","500","250","instBr0","0","0","300","","","0","0"
"","psychophysics","103","601796","0.0-103.0","55c43918fdf99b080551e044","64dd6ef84a750f146bf0d440","","","","","5944",""," ","key"," ","16.684092696629246","500","250","instBr1","3","-40","300","","","0","0"
"","psychophysics","104","613636","0.0-104.0","55c43918fdf99b080551e044","64dd6ef84a750f146bf0d440","","","","","11837",""," ","key"," ","16.683259520451315","500","250","instBr3","28","40","300","2","","0","0"
"","psychophysics","105","616588","0.0-105.0","55c43918fdf99b080551e044","64dd6ef84a750f146bf0d440","","","","","2950",""," ","key"," ","16.683636363636072","500","250","inst","","","","","","",""
"","psychophysics","106","618780","0.0-106.0","55c43918fdf99b080551e044","64dd6ef84a750f146bf0d440","","","","","2187",""," ","key"," ","16.68590000000012","500","250","br","25","29","225","2","0","-17","-22"
"","psychophysics","107","622924","0.0-107.0","55c43918fdf99b080551e044","64dd6ef84a750f146bf0d440","","","","","4140",""," ","key"," ","16.684233870967986","500","250","br","20","11","275","2","0","14","28"
"","psychophysics","108","625188","0.0-108.0","55c43918fdf99b080551e044","64dd6ef84a750f146bf0d440","","","","","2260",""," ","key"," ","16.683208955224227","500","250","br","18","8","202","2","0","-5","-17"
"","psychophysics","109","628948","0.0-109.0","55c43918fdf99b080551e044","64dd6ef84a750f146bf0d440","","","","","3752",""," ","key"," ","16.683475555555585","500","250","br","22","-30","249","2","0","-17","-17"
"","psychophysics","110","631108","0.0-110.0","55c43918fdf99b080551e044","64dd6ef84a750f146bf0d440","","","","","2156",""," ","key"," ","16.684710937500313","500","250","br","23","-3","298","2","0","27","-15"
"","psychophysics","111","634540","0.0-111.0","55c43918fdf99b080551e044","64dd6ef84a750f146bf0d440","","","","","3429",""," ","key"," ","16.683204878048926","500","250","br","21","-20","286","2","0","21","15"
"","psychophysics","112","636124","0.0-112.0","55c43918fdf99b080551e044","64dd6ef84a750f146bf0d440","","","","","1581",""," ","key"," ","16.68364893616935","500","250","br","23","14","257","2","0","22","26"
"","psychophysics","113","639852","0.0-113.0","55c43918fdf99b080551e044","64dd6ef84a750f146bf0d440","","","","","3725",""," ","key"," ","16.683662162161838","500","250","br","23","-27","271","2","0","28","-18"
"","psychophysics","114","642932","0.0-114.0","55c43918fdf99b080551e044","64dd6ef84a750f146bf0d440","","","","","3072",""," ","key"," ","16.684755434782584","500","250","br","27","-7","296","2","0","-17","-4"
"","psychophysics","115","646883","0.0-115.0","55c43918fdf99b080551e044","64dd6ef84a750f146bf0d440","","","","","3948",""," ","key"," ","16.684538135593126","500","250","br","26","-20","300","2","0","28","-5"
"","psychophysics","116","649843","0.0-116.0","55c43918fdf99b080551e044","64dd6ef84a750f146bf0d440","","","","","2956",""," ","key"," ","16.682499999999973","500","250","br","22","18","291","2","0","16","16"
"","psychophysics","117","653653","0.0-117.0","55c43918fdf99b080551e044","64dd6ef84a750f146bf0d440","","","","","3806",""," ","key"," ","16.68388105726889","500","250","br","22","-8","246","2","0","3","-19"
"","psychophysics","118","656164","0.0-118.0","55c43918fdf99b080551e044","64dd6ef84a750f146bf0d440","","","","","2504",""," ","key"," ","16.68379333333345","500","250","br","25","16","231","2","0","-10","-30"
"","psychophysics","119","658364","0.0-119.0","55c43918fdf99b080551e044","64dd6ef84a750f146bf0d440","","","","","2197",""," ","key"," ","16.68367938931324","500","250","br","27","17","296","2","0","-1","12"
"","psychophysics","120","661515","0.0-120.0","55c43918fdf99b080551e044","64dd6ef84a750f146bf0d440","","","","","3149",""," ","key"," ","16.68500531914872","500","250","br","20","-20","253","2","0","-18","-2"
"","psychophysics","121","662324","0.0-121.0","55c43918fdf99b080551e044","64dd6ef84a750f146bf0d440","","","","","806",""," ","key"," ","16.678723404255816","500","250","inst","","","","","","",""
"","psychophysics","122","667987","0.0-122.0","55c43918fdf99b080551e044","64dd6ef84a750f146bf0d440","","","","","5660",""," ","key"," ","16.683985250737248","500","250","instBr3","-18","40","300","1","","0","0"
"","psychophysics","123","669204","0.0-123.0","55c43918fdf99b080551e044","64dd6ef84a750f146bf0d440","","","","","1214",""," ","key"," ","16.6827361111112","500","250","inst","","","","","","",""
"","psychophysics","124","671468","0.0-124.0","55c43918fdf99b080551e044","64dd6ef84a750f146bf0d440","","","","","2259",""," ","key"," ","16.682985074627005","500","250","br","-16","-5","225","1","1","19","21"
"","psychophysics","125","674100","0.0-125.0","55c43918fdf99b080551e044","64dd6ef84a750f146bf0d440","","","","","2625",""," ","key"," ","16.68480891719754","500","250","br","-9","25","223","1","1","5","9"
"","psychophysics","126","676915","0.0-126.0","55c43918fdf99b080551e044","64dd6ef84a750f146bf0d440","","","","","2813",""," ","key"," ","16.683238095238007","500","250","br","-19","-10","283","1","1","9","-16"
"","psychophysics","127","679613","0.0-127.0","55c43918fdf99b080551e044","64dd6ef84a750f146bf0d440","","","","","2692",""," ","key"," ","16.683850931677597","500","250","br","-13","9","276","1","1","-7","26"
"","psychophysics","128","682867","0.0-128.0","55c43918fdf99b080551e044","64dd6ef84a750f146bf0d440","","","","","3250",""," ","key"," ","16.683510309278475","500","250","br","-14","29","279","1","1","-20","-4"
"","psychophysics","129","685468","0.0-129.0","55c43918fdf99b080551e044","64dd6ef84a750f146bf0d440","","","","","2597",""," ","key"," ","16.681548387096864","500","250","br","-19","6","286","1","1","1","14"
"","psychophysics","130","689876","0.0-130.0","55c43918fdf99b080551e044","64dd6ef84a750f146bf0d440","","","","","4403",""," ","key"," ","16.683536121673075","500","250","br","-12","26","222","1","1","-8","-16"
"","psychophysics","131","692923","0.0-131.0","55c43918fdf99b080551e044","64dd6ef84a750f146bf0d440","","","","","3044",""," ","key"," ","16.682773480663275","500","250","br","-18","-16","214","1","1","15","2"
"","psychophysics","132","696219","0.0-132.0","55c43918fdf99b080551e044","64dd6ef84a750f146bf0d440","","","","","3289",""," ","key"," ","16.684898477157006","500","250","br","-15","-3","265","1","1","5","-22"
"","psychophysics","133","699564","0.0-133.0","55c43918fdf99b080551e044","64dd6ef84a750f146bf0d440","","","","","3340",""," ","key"," ","16.68431658291459","500","250","br","-13","23","297","1","1","-8","12"
"","psychophysics","134","703019","0.0-134.0","55c43918fdf99b080551e044","64dd6ef84a750f146bf0d440","","","","","3448",""," ","key"," ","16.683985436892982","500","250","br","-8","30","208","1","1","-25","-23"
"","psychophysics","135","704835","0.0-135.0","55c43918fdf99b080551e044","64dd6ef84a750f146bf0d440","","","","","1812",""," ","key"," ","16.680805555555573","500","250","br","-17","-10","289","1","1","14","17"
"","psychophysics","136","706931","0.0-136.0","55c43918fdf99b080551e044","64dd6ef84a750f146bf0d440","","","","","2090",""," ","key"," ","16.685224000000396","500","250","br","-20","-21","257","1","1","15","-24"
"","psychophysics","137","708571","0.0-137.0","55c43918fdf99b080551e044","64dd6ef84a750f146bf0d440","","","","","1637",""," ","key"," ","16.683381443299574","500","250","br","-18","-11","219","1","1","9","20"
"","psychophysics","138","711139","0.0-138.0","55c43918fdf99b080551e044","64dd6ef84a750f146bf0d440","","","","","2561",""," ","key"," ","16.685150326798013","500","250","br","-21","6","240","1","1","-25","26"
"","psychophysics","139","711835","0.0-139.0","55c43918fdf99b080551e044","64dd6ef84a750f146bf0d440","","","","","694",""," ","key"," ","16.690000000000907","500","250","inst","","","","","","",""
"","psychophysics","140","718670","0.0-140.0","55c43918fdf99b080551e044","64dd6ef84a750f146bf0d440","","","","","6832",""," ","key"," ","16.682755501222715","500","250","instZol1","2.7755575615628914e-17","-1.3","","","","0","0"
"","psychophysics","141","731619","0.0-141.0","55c43918fdf99b080551e044","64dd6ef84a750f146bf0d440","","","","","12943",""," ","key"," ","16.6836709677419","500","250","instZol2","1.1000000000000008","2","","1","","0","0"
"","psychophysics","142","732364","0.0-142.0","55c43918fdf99b080551e044","64dd6ef84a750f146bf0d440","","","","","742",""," ","key"," ","16.688953488372093","500","250","inst","","","","","","",""
"","psychophysics","143","740374","0.0-143.0","55c43918fdf99b080551e044","64dd6ef84a750f146bf0d440","","","","","null","","null","key","null","16.683356993736908","500","250","zol","0.9699999999999999","0.43","","1","1","-12","2"
"","psychophysics","144","745035","0.0-144.0","55c43918fdf99b080551e044","64dd6ef84a750f146bf0d440","","","","","4652",""," ","key"," ","16.683469534050474","500","250","zol","0.7699999999999999","0.23","","1","1","-27","22"
"","psychophysics","145","752053","0.0-145.0","55c43918fdf99b080551e044","64dd6ef84a750f146bf0d440","","","","","7011",""," ","key"," ","16.68398333333344","500","250","zol","1.27","-0.57","","1","1","-30","23"
"","psychophysics","146","760060","0.0-146.0","55c43918fdf99b080551e044","64dd6ef84a750f146bf0d440","","","","","null","","null","key","null","16.682872651357034","500","250","zol","0.69","-0.49","","1","1","11","6"
"","psychophysics","147","765419","0.0-147.0","55c43918fdf99b080551e044","64dd6ef84a750f146bf0d440","","","","","5352",""," ","key"," ","16.68370625000025","500","250","zol","1.28","-0.28","","1","1","20","-30"
"","psychophysics","148","769620","0.0-148.0","55c43918fdf99b080551e044","64dd6ef84a750f146bf0d440","","","","","4194",""," ","key"," ","16.683394422310784","500","250","zol","0.8399999999999999","-0.24","","1","1","-20","-11"
"","psychophysics","149","776147","0.0-149.0","55c43918fdf99b080551e044","64dd6ef84a750f146bf0d440","","","","","6520",""," ","key"," ","16.68343333333331","500","250","zol","1.03","-0.13","","1","1","28","-9"
"","psychophysics","150","780203","0.0-150.0","55c43918fdf99b080551e044","64dd6ef84a750f146bf0d440","","","","","4049",""," ","key"," ","16.684264462809693","500","250","zol","0.82","0.48","","1","1","27","-25"
"","psychophysics","151","784635","0.0-151.0","55c43918fdf99b080551e044","64dd6ef84a750f146bf0d440","","","","","4425",""," ","key"," ","16.683796226415115","500","250","zol","1.27","-0.17","","1","1","-29","22"
"","psychophysics","152","788556","0.0-152.0","55c43918fdf99b080551e044","64dd6ef84a750f146bf0d440","","","","","3914",""," ","key"," ","16.683004273504167","500","250","zol","0.9899999999999999","-0.29","","1","1","-23","-20"
"","psychophysics","153","791379","0.0-153.0","55c43918fdf99b080551e044","64dd6ef84a750f146bf0d440","","","","","2817",""," ","key"," ","16.682053571428348","500","250","zol","1.0699999999999998","-0.37","","1","1","9","-6"
"","psychophysics","154","796243","0.0-154.0","55c43918fdf99b080551e044","64dd6ef84a750f146bf0d440","","","","","4858",""," ","key"," ","16.683393103448307","500","250","zol","0.78","0.42","","1","1","-20","16"
"","psychophysics","155","801302","0.0-155.0","55c43918fdf99b080551e044","64dd6ef84a750f146bf0d440","","","","","5047",""," ","key"," ","16.683099009901156","500","250","zol","0.7699999999999999","0.53","","1","1","-20","-8"
"","psychophysics","156","804723","0.0-156.0","55c43918fdf99b080551e044","64dd6ef84a750f146bf0d440","","","","","3415",""," ","key"," ","16.682872549020093","500","250","zol","0.8899999999999999","-0.39","","1","1","22","-7"
"","psychophysics","157","808627","0.0-157.0","55c43918fdf99b080551e044","64dd6ef84a750f146bf0d440","","","","","3898",""," ","key"," ","16.683201716738143","500","250","zol","0.89","0.41","","1","1","13","-10"
"","psychophysics","158","810347","0.0-158.0","55c43918fdf99b080551e044","64dd6ef84a750f146bf0d440","","","","","1718",""," ","key"," ","16.68470588235262","500","250","inst","","","","","","",""
"","psychophysics","159","815355","0.0-159.0","55c43918fdf99b080551e044","64dd6ef84a750f146bf0d440","","","","","5006",""," ","key"," ","16.683394648829697","500","250","instPog0","340","370","340","2","","0","0"
"","psychophysics","160","818653","0.0-160.0","55c43918fdf99b080551e044","64dd6ef84a750f146bf0d440","","","","","3295",""," ","key"," ","16.682923857868428","500","250","instPog1","346","370","340","2","","0","0"
"","psychophysics","161","821227","0.0-161.0","55c43918fdf99b080551e044","64dd6ef84a750f146bf0d440","","","","","2572",""," ","key"," ","16.68445751634031","500","250","instPog2","328","340","340","2","","0","0"
"","psychophysics","162","822195","0.0-162.0","55c43918fdf99b080551e044","64dd6ef84a750f146bf0d440","","","","","966",""," ","key"," ","16.68285964912196","500","250","inst","","","","","","",""
"","psychophysics","163","829987","0.0-163.0","55c43918fdf99b080551e044","64dd6ef84a750f146bf0d440","","","","","7789",""," ","key"," ","16.68290343347641","500","250","pog","343","299","378","2","1","0","0"
"","psychophysics","164","834162","0.0-164.0","55c43918fdf99b080551e044","64dd6ef84a750f146bf0d440","","","","","4171",""," ","key"," ","16.682706827309026","500","250","pog","348","314","378","2","1","0","0"
"","psychophysics","165","839067","0.0-165.0","55c43918fdf99b080551e044","64dd6ef84a750f146bf0d440","","","","","4900",""," ","key"," ","16.68415358361753","500","250","pog","271","343","302","2","1","0","0"
"","psychophysics","166","845619","0.0-166.0","55c43918fdf99b080551e044","64dd6ef84a750f146bf0d440","","","","","6544",""," ","key"," ","16.683765306122652","500","250","pog","292","382","316","2","1","0","0"
"","psychophysics","167","848548","0.0-167.0","55c43918fdf99b080551e044","64dd6ef84a750f146bf0d440","","","","","2925",""," ","key"," ","16.683502857142926","500","250","pog","318","334","334","2","1","0","0"
"","psychophysics","168","856115","0.0-168.0","55c43918fdf99b080551e044","64dd6ef84a750f146bf0d440","","","","","7563",""," ","key"," ","16.68286061946888","500","250","pog","318","296","342","2","1","0","0"
"","psychophysics","169","861347","0.0-169.0","55c43918fdf99b080551e044","64dd6ef84a750f146bf0d440","","","","","5228",""," ","key"," ","16.68328753993631","500","250","pog","324","292","355","2","1","0","0"
"","psychophysics","170","868819","0.0-170.0","55c43918fdf99b080551e044","64dd6ef84a750f146bf0d440","","","","","7469",""," ","key"," ","16.683288590604143","500","250","pog","345","283","366","2","1","0","0"
"","psychophysics","171","875804","0.0-171.0","55c43918fdf99b080551e044","64dd6ef84a750f146bf0d440","","","","","6980",""," ","key"," ","16.683429256594703","500","250","pog","273","337","301","2","1","0","0"
"","psychophysics","172","880228","0.0-172.0","55c43918fdf99b080551e044","64dd6ef84a750f146bf0d440","","","","","4416",""," ","key"," ","16.683215909090713","500","250","pog","291","293","321","2","1","0","0"
"","psychophysics","173","888231","0.0-173.0","55c43918fdf99b080551e044","64dd6ef84a750f146bf0d440","","","","","null","","null","key","null","16.683173277661776","500","250","pog","353","397","377","2","1","0","0"
"","psychophysics","174","896233","0.0-174.0","55c43918fdf99b080551e044","64dd6ef84a750f146bf0d440","","","","","null","","null","key","null","16.68416283924851","500","250","pog","322","286","346","2","1","0","0"
"","psychophysics","175","900651","0.0-175.0","55c43918fdf99b080551e044","64dd6ef84a750f146bf0d440","","","","","4414",""," ","key"," ","16.68419696969707","500","250","pog","341","375","364","2","1","0","0"
"","psychophysics","176","905683","0.0-176.0","55c43918fdf99b080551e044","64dd6ef84a750f146bf0d440","","","","","5028",""," ","key"," ","16.682470000000126","500","250","pog","311","357","338","2","1","0","0"
"","psychophysics","177","908508","0.0-177.0","55c43918fdf99b080551e044","64dd6ef84a750f146bf0d440","","","","","2818",""," ","key"," ","16.685100591716015","500","250","pog","318","338","341","2","1","0","0"
"","psychophysics","178","909555","0.0-178.0","55c43918fdf99b080551e044","64dd6ef84a750f146bf0d440","","","","","1044",""," ","key"," ","16.684721311476068","500","250","inst","","","","","","",""
"","psychophysics","179","915202","0.0-179.0","55c43918fdf99b080551e044","64dd6ef84a750f146bf0d440","","","","","5640",""," ","key"," ","16.684195266271935","500","250","instPz1","52","25","50","1","","",""
"","psychophysics","180","920226","0.0-180.0","55c43918fdf99b080551e044","64dd6ef84a750f146bf0d440","","","","","5020",""," ","key"," ","16.682443333333357","500","250","instPz2","23","35","20","1","","",""
"","psychophysics","181","931682","0.0-181.0","55c43918fdf99b080551e044","64dd6ef84a750f146bf0d440","","","","","11452",""," ","key"," ","16.68334839650146","500","250","instPz3","36","100","30","1","","",""
"","psychophysics","182","937458","0.0-182.0","55c43918fdf99b080551e044","64dd6ef84a750f146bf0d440","","","","","5772",""," ","key"," ","16.68361449275348","500","250","instPz4","37","100","30","1","","",""
"","psychophysics","183","938188","0.0-183.0","55c43918fdf99b080551e044","64dd6ef84a750f146bf0d440","","","","","727",""," ","key"," ","16.692767441860227","500","250","inst","","","","","","",""
"","psychophysics","184","941290","0.0-184.0","55c43918fdf99b080551e044","64dd6ef84a750f146bf0d440","","","","","3098",""," ","key"," ","16.68289189189169","500","250","pz","44","54","36","1","1","",""
"","psychophysics","185","948467","0.0-185.0","55c43918fdf99b080551e044","64dd6ef84a750f146bf0d440","","","","","7172",""," ","key"," ","16.68391841491831","500","250","pz","64","52","53","1","1","",""
"","psychophysics","186","951962","0.0-186.0","55c43918fdf99b080551e044","64dd6ef84a750f146bf0d440","","","","","3492",""," ","key"," ","16.68274038461543","500","250","pz","53","53","45","1","1","",""
"","psychophysics","187","957739","0.0-187.0","55c43918fdf99b080551e044","64dd6ef84a750f146bf0d440","","","","","5770",""," ","key"," ","16.68341618497093","500","250","pz","49","27","43","1","1","",""
"","psychophysics","188","959394","0.0-188.0","55c43918fdf99b080551e044","64dd6ef84a750f146bf0d440","","","","","1650",""," ","key"," ","16.68340816326577","500","250","pz","50","45","41","1","1","",""
"","psychophysics","189","962154","0.0-189.0","55c43918fdf99b080551e044","64dd6ef84a750f146bf0d440","","","","","2757",""," ","key"," ","16.684670731707097","500","250","pz","34","26","30","1","1","",""
"","psychophysics","190","965858","0.0-190.0","55c43918fdf99b080551e044","64dd6ef84a750f146bf0d440","","","","","3700",""," ","key"," ","16.684579185520434","500","250","pz","46","27","37","1","1","",""
"","psychophysics","191","969202","0.0-191.0","55c43918fdf99b080551e044","64dd6ef84a750f146bf0d440","","","","","3336",""," ","key"," ","16.684070000000066","500","250","pz","33","30","27","1","1","",""
"","psychophysics","192","971146","0.0-192.0","55c43918fdf99b080551e044","64dd6ef84a750f146bf0d440","","","","","1940",""," ","key"," ","16.682278260869055","500","250","pz","28","25","23","1","1","",""
"","psychophysics","193","978755","0.0-193.0","55c43918fdf99b080551e044","64dd6ef84a750f146bf0d440","","","","","7605",""," ","key"," ","16.683516483516485","500","250","pz","66","39","53","1","1","",""
"","psychophysics","194","981571","0.0-194.0","55c43918fdf99b080551e044","64dd6ef84a750f146bf0d440","","","","","2808",""," ","key"," ","16.684726190476102","500","250","pz","56","46","44","1","1","",""
"","psychophysics","195","985170","0.0-195.0","55c43918fdf99b080551e044","64dd6ef84a750f146bf0d440","","","","","3596",""," ","key"," ","16.68436279069784","500","250","pz","62","22","50","1","1","",""
"","psychophysics","196","993176","0.0-196.0","55c43918fdf99b080551e044","64dd6ef84a750f146bf0d440","","","","","null","","null","key","null","16.68253235908158","500","250","pz","40","52","32","1","1","",""
"","psychophysics","197","998179","0.0-197.0","55c43918fdf99b080551e044","64dd6ef84a750f146bf0d440","","","","","4999",""," ","key"," ","16.684479865771735","500","250","pz","72","60","56","1","1","",""
"","psychophysics","198","1001619","0.0-198.0","55c43918fdf99b080551e044","64dd6ef84a750f146bf0d440","","","","","3433",""," ","key"," ","16.684165048543523","500","250","pz","60","45","45","1","1","",""
"","psychophysics","199","1016523","0.0-199.0","55c43918fdf99b080551e044","64dd6ef84a750f146bf0d440","","","","","14902",""," ","key"," ","16.6835392376681","500","250","inst","","","","","","",""
"","psychophysics","200","1021682","0.0-200.0","55c43918fdf99b080551e044","64dd6ef84a750f146bf0d440","","","","","5157",""," ","key"," ","16.683980519480418","500","250","instEB1","82","70","80","2","","0","0"
"","psychophysics","201","1027387","0.0-201.0","55c43918fdf99b080551e044","64dd6ef84a750f146bf0d440","","","","","5697",""," ","key"," ","16.68406744868033","500","250","instEB2","84","65","80","2","","0","0"
"","psychophysics","202","1031202","0.0-202.0","55c43918fdf99b080551e044","64dd6ef84a750f146bf0d440","","","","","3812",""," ","key"," ","16.684416666666756","500","250","instEB3","71","80","65","2","","0","0"
"","psychophysics","203","1033866","0.0-203.0","55c43918fdf99b080551e044","64dd6ef84a750f146bf0d440","","","","","2661",""," ","key"," ","16.683509433961987","500","250","instEB4","73","65","70","2","","0","0"
"","psychophysics","204","1035259","0.0-204.0","55c43918fdf99b080551e044","64dd6ef84a750f146bf0d440","","","","","1389",""," ","key"," ","16.681719512194565","500","250","inst","","","","","","",""
"","psychophysics","205","1037233","0.0-205.0","55c43918fdf99b080551e044","64dd6ef84a750f146bf0d440","","","","","1969",""," ","key"," ","16.68152136752147","500","250","eb","79","84","82","2","1","0","0"
"","psychophysics","206","1039426","0.0-206.0","55c43918fdf99b080551e044","64dd6ef84a750f146bf0d440","","","","","2191",""," ","key"," ","16.68660305343561","500","250","eb","71","90","64","2","1","0","0"
"","psychophysics","207","1041962","0.0-207.0","55c43918fdf99b080551e044","64dd6ef84a750f146bf0d440","","","","","2532",""," ","key"," ","16.683920529801306","500","250","eb","77","73","77","2","1","0","0"
"","psychophysics","208","1044755","0.0-208.0","55c43918fdf99b080551e044","64dd6ef84a750f146bf0d440","","","","","2789",""," ","key"," ","16.683042168674756","500","250","eb","89","75","89","2","1","0","0"
"","psychophysics","209","1047658","0.0-209.0","55c43918fdf99b080551e044","64dd6ef84a750f146bf0d440","","","","","2896",""," ","key"," ","16.684953757225955","500","250","eb","90","82","89","2","1","0","0"
"","psychophysics","210","1050475","0.0-210.0","55c43918fdf99b080551e044","64dd6ef84a750f146bf0d440","","","","","2808",""," ","key"," ","16.685184523809724","500","250","eb","74","82","67","2","1","0","0"
"","psychophysics","211","1053890","0.0-211.0","55c43918fdf99b080551e044","64dd6ef84a750f146bf0d440","","","","","3411",""," ","key"," ","16.683348039215357","500","250","eb","76","60","74","2","1","0","0"
"","psychophysics","212","1055819","0.0-212.0","55c43918fdf99b080551e044","64dd6ef84a750f146bf0d440","","","","","1925",""," ","key"," ","16.683640350875642","500","250","eb","74","79","71","2","1","0","0"
"","psychophysics","213","1058908","0.0-213.0","55c43918fdf99b080551e044","64dd6ef84a750f146bf0d440","","","","","3081",""," ","key"," ","16.68251351351296","500","250","eb","91","76","90","2","1","0","0"
"","psychophysics","214","1061594","0.0-214.0","55c43918fdf99b080551e044","64dd6ef84a750f146bf0d440","","","","","2682",""," ","key"," ","16.684718749999593","500","250","eb","95","75","90","2","1","0","0"
"","psychophysics","215","1064706","0.0-215.0","55c43918fdf99b080551e044","64dd6ef84a750f146bf0d440","","","","","3108",""," ","key"," ","16.682740540540703","500","250","eb","73","66","69","2","1","0","0"
"","psychophysics","216","1066274","0.0-216.0","55c43918fdf99b080551e044","64dd6ef84a750f146bf0d440","","","","","1564",""," ","key"," ","16.68602150537434","500","250","eb","75","71","74","2","1","0","0"
"","psychophysics","217","1068489","0.0-217.0","55c43918fdf99b080551e044","64dd6ef84a750f146bf0d440","","","","","2212",""," ","key"," ","16.68289393939388","500","250","eb","73","77","73","2","1","0","0"
"","psychophysics","218","1071346","0.0-218.0","55c43918fdf99b080551e044","64dd6ef84a750f146bf0d440","","","","","2855",""," ","key"," ","16.68378823529381","500","250","eb","74","85","70","2","1","0","0"
"","psychophysics","219","1073883","0.0-219.0","55c43918fdf99b080551e044","64dd6ef84a750f146bf0d440","","","","","2531",""," ","key"," ","16.68529801324491","500","250","eb","77","60","76","2","1","0","0"
