"success","trial_type","trial_index","time_elapsed","internal_node_id","pid","sid","timeout","failed_images","failed_audio","failed_video","rt","stimulus","response","response_type","key_press","avg_frame_time","center_x","center_y","task","resp","start","parA","version","block","jitterX","jitterY"
"true","fullscreen","0","7751","0.0-0.0","55b508f4fdf99b1c26c21c69","64e50c10068e51e8562a66d7","","","","","","","","","","","","","","","","","","","",""
"true","preload","1","12041","0.0-1.0","55b508f4fdf99b1c26c21c69","64e50c10068e51e8562a66d7","false","[]","[]","[]","","","","","","","","","","","","","","","",""
"","html-button-response","2","18569","0.0-2.0","55b508f4fdf99b1c26c21c69","64e50c10068e51e8562a66d7","","","","","6525","Please Make Sure Your Audio Is On.","0","","","","","","","","","","","","",""
"","psychophysics","3","23119","0.0-3.0","55b508f4fdf99b1c26c21c69","64e50c10068e51e8562a66d7","","","","","4487",""," ","key"," ","17.887637795275587","683","250","","","","","","","",""
"","psychophysics","4","26253","0.0-4.0","55b508f4fdf99b1c26c21c69","64e50c10068e51e8562a66d7","","","","","3131",""," ","key"," ","17.508876404494373","500","250","inst","","","","","","",""
"","psychophysics","5","30488","0.0-5.0","55b508f4fdf99b1c26c21c69","64e50c10068e51e8562a66d7","","","","","4229",""," ","key"," ","16.79856573705179","500","250","sample0","","","","","","",""
"","psychophysics","6","32497","0.0-6.0","55b508f4fdf99b1c26c21c69","64e50c10068e51e8562a66d7","","","","","2002",""," ","key"," ","16.66621848739501","500","250","sample1","","","","","","",""
"","psychophysics","7","59587","0.0-7.0","55b508f4fdf99b1c26c21c69","64e50c10068e51e8562a66d7","","","","","27077",""," ","key"," ","16.696905055487054","500","250","sample2","102","","","","","",""
"","psychophysics","8","68507","0.0-8.0","55b508f4fdf99b1c26c21c69","64e50c10068e51e8562a66d7","","","","","8916",""," ","key"," ","16.666104868913866","500","250","sample3","154","","","","","",""
"","psychophysics","9","89295","0.0-9.0","55b508f4fdf99b1c26c21c69","64e50c10068e51e8562a66d7","","","","","20770",""," ","key"," ","16.679469879518074","500","250","sample4","100","","","","","",""
"","psychophysics","10","97017","0.0-10.0","55b508f4fdf99b1c26c21c69","64e50c10068e51e8562a66d7","","","","","7701",""," ","key"," ","16.666090712742967","500","250","sample5","","","","","","",""
"","psychophysics","11","116265","0.0-11.0","55b508f4fdf99b1c26c21c69","64e50c10068e51e8562a66d7","","","","","19244",""," ","key"," ","16.666065857885616","500","250","sample6","498","","","","","",""
"","psychophysics","12","120951","0.0-12.0","55b508f4fdf99b1c26c21c69","64e50c10068e51e8562a66d7","","","","","4682",""," ","key"," ","16.666071428571428","500","250","inst","","","","","","",""
"","psychophysics","13","125632","0.0-13.0","55b508f4fdf99b1c26c21c69","64e50c10068e51e8562a66d7","","","","","4678",""," ","key"," ","16.666071428571428","500","250","inst","","","","","","",""
"","psychophysics","14","129747","0.0-14.0","55b508f4fdf99b1c26c21c69","64e50c10068e51e8562a66d7","","","","","4112",""," ","key"," ","16.734040816326516","500","250","inst","","","","","","",""
"","psychophysics","15","131511","0.0-15.0","55b508f4fdf99b1c26c21c69","64e50c10068e51e8562a66d7","","","","","1761",""," ","key"," ","16.66653846153853","500","250","inst","","","","","","",""
"","psychophysics","16","132771","0.0-16.0","55b508f4fdf99b1c26c21c69","64e50c10068e51e8562a66d7","","","","","1249",""," ","key"," ","16.66719999999972","500","250","inst","","","","","","",""
"","psychophysics","17","135693","0.0-17.0","55b508f4fdf99b1c26c21c69","64e50c10068e51e8562a66d7","","","","","2904",""," ","key"," ","16.666551724137992","500","250","instPzPre","50","50","50","0","","",""
"","psychophysics","18","138868","0.0-18.0","55b508f4fdf99b1c26c21c69","64e50c10068e51e8562a66d7","","","","","3121",""," ","key"," ","16.84287234042549","500","250","instPz0","50","50","50","1","","",""
"","psychophysics","19","148400","0.0-19.0","55b508f4fdf99b1c26c21c69","64e50c10068e51e8562a66d7","","","","","9530",""," ","key"," ","16.75419014084508","500","250","instPz1","52","25","50","1","","",""
"","psychophysics","20","156117","0.0-20.0","55b508f4fdf99b1c26c21c69","64e50c10068e51e8562a66d7","","","","","7713",""," ","key"," ","16.666060606060608","500","250","instPz2","21","35","20","1","","",""
"","psychophysics","21","163648","0.0-21.0","55b508f4fdf99b1c26c21c69","64e50c10068e51e8562a66d7","","","","","7526",""," ","key"," ","16.89092134831459","500","250","instPz3","100","100","30","1","","",""
"","psychophysics","22","179436","0.0-22.0","55b508f4fdf99b1c26c21c69","64e50c10068e51e8562a66d7","","","","","15782",""," ","key"," ","16.666004228329818","500","250","instPz4","33","100","30","1","","",""
"","psychophysics","23","188704","0.0-23.0","55b508f4fdf99b1c26c21c69","64e50c10068e51e8562a66d7","","","","","9266",""," ","key"," ","16.72640144665463","500","250","inst","","","","","","",""
"","psychophysics","24","195152","0.0-24.0","55b508f4fdf99b1c26c21c69","64e50c10068e51e8562a66d7","","","","","6434",""," ","key"," ","16.709402597402587","500","250","pz","24","45","22","1","0","",""
"","psychophysics","25","203167","0.0-25.0","55b508f4fdf99b1c26c21c69","64e50c10068e51e8562a66d7","","","","","null","","null","key","null","16.700793319415435","500","250","pz","51","39","46","1","0","",""
"","psychophysics","26","208116","0.0-26.0","55b508f4fdf99b1c26c21c69","64e50c10068e51e8562a66d7","","","","","4935",""," ","key"," ","16.836860068259426","500","250","pz","60","23","52","1","0","",""
"","psychophysics","27","212345","0.0-27.0","55b508f4fdf99b1c26c21c69","64e50c10068e51e8562a66d7","","","","","4211",""," ","key"," ","16.6660869565217","500","250","pz","65","36","56","1","0","",""
"","psychophysics","28","217112","0.0-28.0","55b508f4fdf99b1c26c21c69","64e50c10068e51e8562a66d7","","","","","4761",""," ","key"," ","16.724788732394355","500","250","pz","57","45","46","1","0","",""
"","psychophysics","29","222245","0.0-29.0","55b508f4fdf99b1c26c21c69","64e50c10068e51e8562a66d7","","","","","5125",""," ","key"," ","16.665993485341993","500","250","pz","42","44","37","1","0","",""
"","psychophysics","30","228094","0.0-30.0","55b508f4fdf99b1c26c21c69","64e50c10068e51e8562a66d7","","","","","5846",""," ","key"," ","16.66605714285713","500","250","pz","26","47","23","1","0","",""
"","psychophysics","31","234514","0.0-31.0","55b508f4fdf99b1c26c21c69","64e50c10068e51e8562a66d7","","","","","6415",""," ","key"," ","16.66598958333331","500","250","pz","61","30","51","1","0","",""
"","psychophysics","32","238213","0.0-32.0","55b508f4fdf99b1c26c21c69","64e50c10068e51e8562a66d7","","","","","3694",""," ","key"," ","16.666244343891492","500","250","pz","39","36","34","1","0","",""
"","psychophysics","33","244216","0.0-33.0","55b508f4fdf99b1c26c21c69","64e50c10068e51e8562a66d7","","","","","6000",""," ","key"," ","16.66601671309194","500","250","pz","52","42","45","1","0","",""
"","psychophysics","34","249144","0.0-34.0","55b508f4fdf99b1c26c21c69","64e50c10068e51e8562a66d7","","","","","4915",""," ","key"," ","16.666237288135523","500","250","pz","57","60","47","1","0","",""
"","psychophysics","35","255317","0.0-35.0","55b508f4fdf99b1c26c21c69","64e50c10068e51e8562a66d7","","","","","6165",""," ","key"," ","16.756730245231612","500","250","pz","62","43","52","1","0","",""
"","psychophysics","36","263325","0.0-36.0","55b508f4fdf99b1c26c21c69","64e50c10068e51e8562a66d7","","","","","null","","null","key","null","16.665999999999986","500","250","pz","65","45","59","1","0","",""
"","psychophysics","37","265952","0.0-37.0","55b508f4fdf99b1c26c21c69","64e50c10068e51e8562a66d7","","","","","2620",""," ","key"," ","16.773935483871103","500","250","pz","66","58","55","1","0","",""
"","psychophysics","38","271743","0.0-38.0","55b508f4fdf99b1c26c21c69","64e50c10068e51e8562a66d7","","","","","5765",""," ","key"," ","16.76249275362318","500","250","pz","51","37","43","1","0","",""
"","psychophysics","39","274017","0.0-39.0","55b508f4fdf99b1c26c21c69","64e50c10068e51e8562a66d7","","","","","2270",""," ","key"," ","16.79029850746286","500","250","inst","","","","","","",""
"","psychophysics","40","275756","0.0-40.0","55b508f4fdf99b1c26c21c69","64e50c10068e51e8562a66d7","","","","","1726",""," ","key"," ","16.665825242718604","500","250","instEB0","40","40","40","1","","0","0"
"","psychophysics","41","294580","0.0-41.0","55b508f4fdf99b1c26c21c69","64e50c10068e51e8562a66d7","","","","","18814",""," ","key"," ","16.666111603188643","500","250","instEB1","30","40","30","1","","0","0"
"","psychophysics","42","307806","0.0-42.0","55b508f4fdf99b1c26c21c69","64e50c10068e51e8562a66d7","","","","","13221",""," ","key"," ","16.66601010101015","500","250","instEB2","38","30","40","1","","0","0"
"","psychophysics","43","320199","0.0-43.0","55b508f4fdf99b1c26c21c69","64e50c10068e51e8562a66d7","","","","","12368",""," ","key"," ","16.666110363391635","500","250","instEB3","36","27","45","1","","0","0"
"","psychophysics","44","329728","0.0-44.0","55b508f4fdf99b1c26c21c69","64e50c10068e51e8562a66d7","","","","","9513",""," ","key"," ","16.666129597197873","500","250","instEB4","23","40","30","1","","0","0"
"","psychophysics","45","331391","0.0-45.0","55b508f4fdf99b1c26c21c69","64e50c10068e51e8562a66d7","","","","","1645",""," ","key"," ","16.66646464646446","500","250","inst","","","","","","",""
"","psychophysics","46","336098","0.0-46.0","55b508f4fdf99b1c26c21c69","64e50c10068e51e8562a66d7","","","","","4702",""," ","key"," ","16.666049822063965","500","250","eb","22","37","28","1","","0","0"
"","psychophysics","47","342908","0.0-47.0","55b508f4fdf99b1c26c21c69","64e50c10068e51e8562a66d7","","","","","6795",""," ","key"," ","16.665980392156936","500","250","eb","37","43","46","1","","0","0"
"","psychophysics","48","349373","0.0-48.0","55b508f4fdf99b1c26c21c69","64e50c10068e51e8562a66d7","","","","","6458",""," ","key"," ","16.666321243523345","500","250","eb","21","27","25","1","","0","0"
"","psychophysics","49","355258","0.0-49.0","55b508f4fdf99b1c26c21c69","64e50c10068e51e8562a66d7","","","","","5877",""," ","key"," ","16.665835694050934","500","250","eb","37","35","46","1","","0","0"
"","psychophysics","50","359492","0.0-50.0","55b508f4fdf99b1c26c21c69","64e50c10068e51e8562a66d7","","","","","4230",""," ","key"," ","16.66664031620566","500","250","eb","25","30","29","1","","0","0"
"","psychophysics","51","366891","0.0-51.0","55b508f4fdf99b1c26c21c69","64e50c10068e51e8562a66d7","","","","","7395",""," ","key"," ","16.665914221218962","500","250","eb","40","30","47","1","","0","0"
"","psychophysics","52","370780","0.0-52.0","55b508f4fdf99b1c26c21c69","64e50c10068e51e8562a66d7","","","","","3883",""," ","key"," ","16.73844155844163","500","250","eb","37","47","46","1","","0","0"
"","psychophysics","53","375648","0.0-53.0","55b508f4fdf99b1c26c21c69","64e50c10068e51e8562a66d7","","","","","4854",""," ","key"," ","16.665841924398656","500","250","eb","25","47","28","1","","0","0"
"","psychophysics","54","381964","0.0-54.0","55b508f4fdf99b1c26c21c69","64e50c10068e51e8562a66d7","","","","","6303",""," ","key"," ","16.666137566137536","500","250","eb","42","46","51","1","","0","0"
"","psychophysics","55","389988","0.0-55.0","55b508f4fdf99b1c26c21c69","64e50c10068e51e8562a66d7","","","","","null","","null","key","null","16.666029106029075","500","250","eb","27","45","34","1","","0","0"
"","psychophysics","56","397407","0.0-56.0","55b508f4fdf99b1c26c21c69","64e50c10068e51e8562a66d7","","","","","7416",""," ","key"," ","16.66608108108106","500","250","eb","23","33","26","1","","0","0"
"","psychophysics","57","405423","0.0-57.0","55b508f4fdf99b1c26c21c69","64e50c10068e51e8562a66d7","","","","","null","","null","key","null","16.666083333333276","500","250","eb","33","33","43","1","","0","0"
"","psychophysics","58","405473","0.0-58.0","55b508f4fdf99b1c26c21c69","64e50c10068e51e8562a66d7","","","","","44",""," ","key"," ","16.679999999993015","500","250","eb","27","27","40","1","","0","0"
"","psychophysics","59","411373","0.0-59.0","55b508f4fdf99b1c26c21c69","64e50c10068e51e8562a66d7","","","","","5884",""," ","key"," ","16.666045197740193","500","250","eb","20","45","24","1","","0","0"
"","psychophysics","60","417990","0.0-60.0","55b508f4fdf99b1c26c21c69","64e50c10068e51e8562a66d7","","","","","6613",""," ","key"," ","16.666010101010077","500","250","eb","28","35","32","1","","0","0"
"","psychophysics","61","419078","0.0-61.0","55b508f4fdf99b1c26c21c69","64e50c10068e51e8562a66d7","","","","","1085",""," ","key"," ","16.667187500000182","500","250","inst","","","","","","",""
"","psychophysics","62","431879","0.0-62.0","55b508f4fdf99b1c26c21c69","64e50c10068e51e8562a66d7","","","","","12790",""," ","key"," ","16.665945241199438","500","250","instPog0","340","370","340","2","","0","0"
"","psychophysics","63","447073","0.0-63.0","55b508f4fdf99b1c26c21c69","64e50c10068e51e8562a66d7","","","","","15185",""," ","key"," ","16.66614709110872","500","250","instPog1","330","370","340","2","","0","0"
"","psychophysics","64","465927","0.0-64.0","55b508f4fdf99b1c26c21c69","64e50c10068e51e8562a66d7","","","","","18850",""," ","key"," ","16.666106194690276","500","250","instPog2","312","340","340","2","","0","0"
"","psychophysics","65","467758","0.0-65.0","55b508f4fdf99b1c26c21c69","64e50c10068e51e8562a66d7","","","","","1819",""," ","key"," ","16.66605504587188","500","250","inst","","","","","","",""
"","psychophysics","66","475786","0.0-66.0","55b508f4fdf99b1c26c21c69","64e50c10068e51e8562a66d7","","","","","null","","null","key","null","16.666070686070697","500","250","pog","286","370","319","2","0","0","0"
"","psychophysics","67","481199","0.0-67.0","55b508f4fdf99b1c26c21c69","64e50c10068e51e8562a66d7","","","","","5410",""," ","key"," ","16.666130030959852","500","250","pog","307","309","346","2","0","0","0"
"","psychophysics","68","486158","0.0-68.0","55b508f4fdf99b1c26c21c69","64e50c10068e51e8562a66d7","","","","","4951",""," ","key"," ","16.666127946127837","500","250","pog","332","334","374","2","0","0","0"
"","psychophysics","69","493053","0.0-69.0","55b508f4fdf99b1c26c21c69","64e50c10068e51e8562a66d7","","","","","6875",""," ","key"," ","16.706553398058336","500","250","pog","272","370","309","2","0","0","0"
"","psychophysics","70","496631","0.0-70.0","55b508f4fdf99b1c26c21c69","64e50c10068e51e8562a66d7","","","","","3576",""," ","key"," ","16.665821596244164","500","250","pog","303","307","337","2","0","0","0"
"","psychophysics","71","501575","0.0-71.0","55b508f4fdf99b1c26c21c69","64e50c10068e51e8562a66d7","","","","","4937",""," ","key"," ","16.722576271186355","500","250","pog","297","329","335","2","0","0","0"
"","psychophysics","72","505253","0.0-72.0","55b508f4fdf99b1c26c21c69","64e50c10068e51e8562a66d7","","","","","3666",""," ","key"," ","16.666090909090816","500","250","pog","339","327","377","2","0","0","0"
"","psychophysics","73","509484","0.0-73.0","55b508f4fdf99b1c26c21c69","64e50c10068e51e8562a66d7","","","","","4229",""," ","key"," ","16.866159999999915","500","250","pog","311","295","353","2","0","0","0"
"","psychophysics","74","515376","0.0-74.0","55b508f4fdf99b1c26c21c69","64e50c10068e51e8562a66d7","","","","","5890",""," ","key"," ","16.666136363636312","500","250","pog","318","340","361","2","0","0","0"
"","psychophysics","75","520985","0.0-75.0","55b508f4fdf99b1c26c21c69","64e50c10068e51e8562a66d7","","","","","5584",""," ","key"," ","16.665850746268475","500","250","pog","297","359","335","2","0","0","0"
"","psychophysics","76","526151","0.0-76.0","55b508f4fdf99b1c26c21c69","64e50c10068e51e8562a66d7","","","","","5165",""," ","key"," ","16.66627831715212","500","250","pog","288","310","323","2","0","0","0"
"","psychophysics","77","530401","0.0-77.0","55b508f4fdf99b1c26c21c69","64e50c10068e51e8562a66d7","","","","","4247",""," ","key"," ","16.666141732283283","500","250","pog","285","327","305","2","0","0","0"
"","psychophysics","78","534851","0.0-78.0","55b508f4fdf99b1c26c21c69","64e50c10068e51e8562a66d7","","","","","4447",""," ","key"," ","16.666015037594107","500","250","pog","318","308","347","2","0","0","0"
"","psychophysics","79","537240","0.0-79.0","55b508f4fdf99b1c26c21c69","64e50c10068e51e8562a66d7","","","","","2387",""," ","key"," ","16.666619718310088","500","250","pog","312","296","343","2","0","0","0"
"","psychophysics","80","543901","0.0-80.0","55b508f4fdf99b1c26c21c69","64e50c10068e51e8562a66d7","","","","","6652",""," ","key"," ","16.665864661653973","500","250","pog","287","387","322","2","0","0","0"
"","psychophysics","81","545072","0.0-81.0","55b508f4fdf99b1c26c21c69","64e50c10068e51e8562a66d7","","","","","1169",""," ","key"," ","16.66637681159393","500","250","inst","","","","","","",""
"","psychophysics","82","549968","0.0-82.0","55b508f4fdf99b1c26c21c69","64e50c10068e51e8562a66d7","","","","","4893",""," ","key"," ","16.78041237113394","500","250","instBr0","0","0","300","","","0","0"
"","psychophysics","83","559366","0.0-83.0","55b508f4fdf99b1c26c21c69","64e50c10068e51e8562a66d7","","","","","9396",""," ","key"," ","16.695765124555194","500","250","instBr1","1","-40","300","","","0","0"
"","psychophysics","84","568214","0.0-84.0","55b508f4fdf99b1c26c21c69","64e50c10068e51e8562a66d7","","","","","8845",""," ","key"," ","16.666086956521713","500","250","instBr3","31","40","300","2","","0","0"
"","psychophysics","85","569539","0.0-85.0","55b508f4fdf99b1c26c21c69","64e50c10068e51e8562a66d7","","","","","1317",""," ","key"," ","16.66506329113824","500","250","inst","","","","","","",""
"","psychophysics","86","572446","0.0-86.0","55b508f4fdf99b1c26c21c69","64e50c10068e51e8562a66d7","","","","","2896",""," ","key"," ","16.666242774566527","500","250","br","21","13","211","2","0","25","-12"
"","psychophysics","87","577157","0.0-87.0","55b508f4fdf99b1c26c21c69","64e50c10068e51e8562a66d7","","","","","4691",""," ","key"," ","16.66617021276632","500","250","br","22","-13","285","2","0","-12","-5"
"","psychophysics","88","583079","0.0-88.0","55b508f4fdf99b1c26c21c69","64e50c10068e51e8562a66d7","","","","","5911",""," ","key"," ","16.666045197740193","500","250","br","20","11","206","2","0","-13","29"
"","psychophysics","89","586082","0.0-89.0","55b508f4fdf99b1c26c21c69","64e50c10068e51e8562a66d7","","","","","2994",""," ","key"," ","16.759106145251423","500","250","br","21","19","263","2","0","15","4"
"","psychophysics","90","592632","0.0-90.0","55b508f4fdf99b1c26c21c69","64e50c10068e51e8562a66d7","","","","","6547",""," ","key"," ","16.66617346938779","500","250","br","19","-2","254","2","0","3","-28"
"","psychophysics","91","599668","0.0-91.0","55b508f4fdf99b1c26c21c69","64e50c10068e51e8562a66d7","","","","","7032",""," ","key"," ","16.666033254156826","500","250","br","27","-7","274","2","0","-13","15"
"","psychophysics","92","601910","0.0-92.0","55b508f4fdf99b1c26c21c69","64e50c10068e51e8562a66d7","","","","","2237",""," ","key"," ","16.666015037594544","500","250","br","25","22","259","2","0","26","-29"
"","psychophysics","93","608798","0.0-93.0","55b508f4fdf99b1c26c21c69","64e50c10068e51e8562a66d7","","","","","6875",""," ","key"," ","16.66600484261515","500","250","br","25","-7","273","2","0","2","-16"
"","psychophysics","94","614582","0.0-94.0","55b508f4fdf99b1c26c21c69","64e50c10068e51e8562a66d7","","","","","5781",""," ","key"," ","16.666300578034452","500","250","br","27","21","271","2","0","14","6"
"","psychophysics","95","620614","0.0-95.0","55b508f4fdf99b1c26c21c69","64e50c10068e51e8562a66d7","","","","","6030",""," ","key"," ","16.666038781163603","500","250","br","27","11","299","2","0","12","-1"
"","psychophysics","96","625795","0.0-96.0","55b508f4fdf99b1c26c21c69","64e50c10068e51e8562a66d7","","","","","5175",""," ","key"," ","16.666084142395032","500","250","br","23","25","222","2","0","-12","3"
"","psychophysics","97","633812","0.0-97.0","55b508f4fdf99b1c26c21c69","64e50c10068e51e8562a66d7","","","","","null","","null","key","null","16.6659875259877","500","250","br","23","-18","244","2","0","-27","14"
"","psychophysics","98","639564","0.0-98.0","55b508f4fdf99b1c26c21c69","64e50c10068e51e8562a66d7","","","","","5749",""," ","key"," ","16.911799410029772","500","250","br","24","16","277","2","0","25","-4"
"","psychophysics","99","645064","0.0-99.0","55b508f4fdf99b1c26c21c69","64e50c10068e51e8562a66d7","","","","","5496",""," ","key"," ","16.66620060790289","500","250","br","24","6","255","2","0","-12","6"
"","psychophysics","100","652164","0.0-100.0","55b508f4fdf99b1c26c21c69","64e50c10068e51e8562a66d7","","","","","7095",""," ","key"," ","16.705377358490743","500","250","br","25","-29","277","2","0","11","16"
"","psychophysics","101","654046","0.0-101.0","55b508f4fdf99b1c26c21c69","64e50c10068e51e8562a66d7","","","","","1880",""," ","key"," ","16.666607142857433","500","250","inst","","","","","","",""
"","psychophysics","102","656278","0.0-102.0","55b508f4fdf99b1c26c21c69","64e50c10068e51e8562a66d7","","","","","2227",""," ","key"," ","17.88455284552789","500","250","instZol0","0","0","","","","0","0"
"","psychophysics","103","664886","0.0-103.0","55b508f4fdf99b1c26c21c69","64e50c10068e51e8562a66d7","","","","","8590",""," ","key"," ","16.666330097087215","500","250","instZol1","0.10000000000000003","-1.3","","","","0","0"
"","psychophysics","104","675299","0.0-104.0","55b508f4fdf99b1c26c21c69","64e50c10068e51e8562a66d7","","","","","10385",""," ","key"," ","16.692680577849178","500","250","instZol2","0.8000000000000006","2","","1","","0","0"
"","psychophysics","105","677279","0.0-105.0","55b508f4fdf99b1c26c21c69","64e50c10068e51e8562a66d7","","","","","1976",""," ","key"," ","16.666610169490816","500","250","inst","","","","","","",""
"","psychophysics","106","685295","0.0-106.0","55b508f4fdf99b1c26c21c69","64e50c10068e51e8562a66d7","","","","","null","","null","key","null","16.66612499999998","500","250","zol","0.8999999999999999","-0.3","","1","0","16","-5"
"","psychophysics","107","691116","0.0-107.0","55b508f4fdf99b1c26c21c69","64e50c10068e51e8562a66d7","","","","","5813",""," ","key"," ","16.6660344827587","500","250","zol","0.6599999999999998","0.44","","1","0","4","4"
"","psychophysics","108","698475","0.0-108.0","55b508f4fdf99b1c26c21c69","64e50c10068e51e8562a66d7","","","","","7339",""," ","key"," ","16.666045454545582","500","250","zol","1.3300000000000003","-0.03","","1","0","-4","-15"
"","psychophysics","109","702309","0.0-109.0","55b508f4fdf99b1c26c21c69","64e50c10068e51e8562a66d7","","","","","3810",""," ","key"," ","16.66593886462882","500","250","zol","0.7699999999999999","-0.57","","1","0","4","29"
"","psychophysics","110","706607","0.0-110.0","55b508f4fdf99b1c26c21c69","64e50c10068e51e8562a66d7","","","","","4286",""," ","key"," ","16.66630350194549","500","250","zol","1.5600000000000003","0.14","","1","0","24","-17"
"","psychophysics","111","712007","0.0-111.0","55b508f4fdf99b1c26c21c69","64e50c10068e51e8562a66d7","","","","","5377",""," ","key"," ","16.717888198757866","500","250","zol","0.9400000000000001","-0.64","","1","0","29","-3"
"","psychophysics","112","716638","0.0-112.0","55b508f4fdf99b1c26c21c69","64e50c10068e51e8562a66d7","","","","","4614",""," ","key"," ","16.665920577617193","500","250","zol","1.2100000000000002","-0.21","","1","0","6","18"
"","psychophysics","113","722333","0.0-113.0","55b508f4fdf99b1c26c21c69","64e50c10068e51e8562a66d7","","","","","5666",""," ","key"," ","16.6660588235293","500","250","zol","0.8799999999999998","-0.08","","1","0","-9","9"
"","psychophysics","114","725997","0.0-114.0","55b508f4fdf99b1c26c21c69","64e50c10068e51e8562a66d7","","","","","3644",""," ","key"," ","16.666210045662208","500","250","zol","1.2300000000000002","-0.73","","1","0","-28","27"
"","psychophysics","115","732024","0.0-115.0","55b508f4fdf99b1c26c21c69","64e50c10068e51e8562a66d7","","","","","5999",""," ","key"," ","16.665888888888812","500","250","zol","0.7999999999999997","-0.6","","1","0","20","-15"
"","psychophysics","116","738390","0.0-116.0","55b508f4fdf99b1c26c21c69","64e50c10068e51e8562a66d7","","","","","6341",""," ","key"," ","16.709947368421126","500","250","zol","0.27","-0.57","","1","0","1","7"
"","psychophysics","117","744082","0.0-117.0","55b508f4fdf99b1c26c21c69","64e50c10068e51e8562a66d7","","","","","5666",""," ","key"," ","16.666158357771355","500","250","zol","0.8099999999999999","0.49","","1","0","-22","30"
"","psychophysics","118","749662","0.0-118.0","55b508f4fdf99b1c26c21c69","64e50c10068e51e8562a66d7","","","","","5565",""," ","key"," ","16.665988023952277","500","250","zol","1.0899999999999999","0.41","","1","0","16","20"
"","psychophysics","119","754812","0.0-119.0","55b508f4fdf99b1c26c21c69","64e50c10068e51e8562a66d7","","","","","5146",""," ","key"," ","16.666038961039007","500","250","zol","1.3400000000000003","0.46","","1","0","24","-18"
"","psychophysics","120","758249","0.0-120.0","55b508f4fdf99b1c26c21c69","64e50c10068e51e8562a66d7","","","","","3432",""," ","key"," ","16.748078817733923","500","250","zol","1.2200000000000002","0.58","","1","0","-24","-20"
"","psychophysics","121","759132","0.0-121.0","55b508f4fdf99b1c26c21c69","64e50c10068e51e8562a66d7","","","","","869",""," ","key"," ","16.66576923076914","500","250","inst","","","","","","",""
"","psychophysics","122","766259","0.0-122.0","55b508f4fdf99b1c26c21c69","64e50c10068e51e8562a66d7","","","","","7125",""," ","key"," ","16.70521126760546","500","250","instPog0","160","190","160","1","","0","0"
"","psychophysics","123","770705","0.0-123.0","55b508f4fdf99b1c26c21c69","64e50c10068e51e8562a66d7","","","","","4445",""," ","key"," ","16.729166666666668","500","250","instPog1","166","190","160","1","","0","0"
"","psychophysics","124","777161","0.0-124.0","55b508f4fdf99b1c26c21c69","64e50c10068e51e8562a66d7","","","","","6445",""," ","key"," ","16.884881889763815","500","250","instPog2","188","160","160","1","","0","0"
"","psychophysics","125","778131","0.0-125.0","55b508f4fdf99b1c26c21c69","64e50c10068e51e8562a66d7","","","","","949",""," ","key"," ","16.963571428570763","500","250","inst","","","","","","",""
"","psychophysics","126","782242","0.0-126.0","55b508f4fdf99b1c26c21c69","64e50c10068e51e8562a66d7","","","","","4085",""," ","key"," ","16.73459016393439","500","250","pog","196","214","165","1","1","0","0"
"","psychophysics","127","788358","0.0-127.0","55b508f4fdf99b1c26c21c69","64e50c10068e51e8562a66d7","","","","","6113",""," ","key"," ","16.71167123287642","500","250","pog","166","102","139","1","1","0","0"
"","psychophysics","128","792777","0.0-128.0","55b508f4fdf99b1c26c21c69","64e50c10068e51e8562a66d7","","","","","4414",""," ","key"," ","16.666136363636312","500","250","pog","201","135","173","1","1","0","0"
"","psychophysics","129","798991","0.0-129.0","55b508f4fdf99b1c26c21c69","64e50c10068e51e8562a66d7","","","","","6207",""," ","key"," ","16.893079019073596","500","250","pog","152","186","125","1","1","0","0"
"","psychophysics","130","803508","0.0-130.0","55b508f4fdf99b1c26c21c69","64e50c10068e51e8562a66d7","","","","","4513",""," ","key"," ","16.727955390334817","500","250","pog","151","189","130","1","1","0","0"
"","psychophysics","131","810111","0.0-131.0","55b508f4fdf99b1c26c21c69","64e50c10068e51e8562a66d7","","","","","6596",""," ","key"," ","16.708324873096636","500","250","pog","187","133","159","1","1","0","0"
"","psychophysics","132","815102","0.0-132.0","55b508f4fdf99b1c26c21c69","64e50c10068e51e8562a66d7","","","","","4985",""," ","key"," ","16.722289562289625","500","250","pog","157","165","131","1","1","0","0"
"","psychophysics","133","820776","0.0-133.0","55b508f4fdf99b1c26c21c69","64e50c10068e51e8562a66d7","","","","","5667",""," ","key"," ","16.76455621301753","500","250","pog","166","216","142","1","1","0","0"
"","psychophysics","134","825857","0.0-134.0","55b508f4fdf99b1c26c21c69","64e50c10068e51e8562a66d7","","","","","5076",""," ","key"," ","16.72118811881194","500","250","pog","181","119","148","1","1","0","0"
"","psychophysics","135","831927","0.0-135.0","55b508f4fdf99b1c26c21c69","64e50c10068e51e8562a66d7","","","","","6066",""," ","key"," ","16.666060606060363","500","250","pog","211","201","182","1","1","0","0"
"","psychophysics","136","837540","0.0-136.0","55b508f4fdf99b1c26c21c69","64e50c10068e51e8562a66d7","","","","","5609",""," ","key"," ","16.71598802395214","500","250","pog","200","158","173","1","1","0","0"
"","psychophysics","137","843441","0.0-137.0","55b508f4fdf99b1c26c21c69","64e50c10068e51e8562a66d7","","","","","5895",""," ","key"," ","16.66587570621494","500","250","pog","194","146","162","1","1","0","0"
"","psychophysics","138","849831","0.0-138.0","55b508f4fdf99b1c26c21c69","64e50c10068e51e8562a66d7","","","","","6386",""," ","key"," ","16.666020942408487","500","250","pog","182","110","155","1","1","0","0"
"","psychophysics","139","857289","0.0-139.0","55b508f4fdf99b1c26c21c69","64e50c10068e51e8562a66d7","","","","","7419",""," ","key"," ","17.008538812785368","500","250","pog","213","171","189","1","1","0","0"
"","psychophysics","140","861811","0.0-140.0","55b508f4fdf99b1c26c21c69","64e50c10068e51e8562a66d7","","","","","4518",""," ","key"," ","16.66622222222224","500","250","pog","180","130","150","1","1","0","0"
"","psychophysics","141","862711","0.0-141.0","55b508f4fdf99b1c26c21c69","64e50c10068e51e8562a66d7","","","","","898",""," ","key"," ","16.669056603772884","500","250","inst","","","","","","",""
"","psychophysics","142","874705","0.0-142.0","55b508f4fdf99b1c26c21c69","64e50c10068e51e8562a66d7","","","","","11982",""," ","key"," ","16.66609179415845","500","250","instPz1","47","25","50","2","","",""
"","psychophysics","143","880780","0.0-143.0","55b508f4fdf99b1c26c21c69","64e50c10068e51e8562a66d7","","","","","6071",""," ","key"," ","16.66617079889793","500","250","instPz2","33","20","35","2","","",""
"","psychophysics","144","885872","0.0-144.0","55b508f4fdf99b1c26c21c69","64e50c10068e51e8562a66d7","","","","","5078",""," ","key"," ","16.66596721311474","500","250","instPz3","30","30","100","2","","",""
"","psychophysics","145","892838","0.0-145.0","55b508f4fdf99b1c26c21c69","64e50c10068e51e8562a66d7","","","","","6963",""," ","key"," ","16.66599520383714","500","250","instPz4","95","30","100","2","","",""
"","psychophysics","146","893705","0.0-146.0","55b508f4fdf99b1c26c21c69","64e50c10068e51e8562a66d7","","","","","862",""," ","key"," ","16.665882352942727","500","250","inst","","","","","","",""
"","psychophysics","147","897869","0.0-147.0","55b508f4fdf99b1c26c21c69","64e50c10068e51e8562a66d7","","","","","4161",""," ","key"," ","16.733522267206684","500","250","pz","36","23","43","2","1","",""
"","psychophysics","148","902654","0.0-148.0","55b508f4fdf99b1c26c21c69","64e50c10068e51e8562a66d7","","","","","4777",""," ","key"," ","16.66606271777015","500","250","pz","19","22","23","2","1","",""
"","psychophysics","149","908759","0.0-149.0","55b508f4fdf99b1c26c21c69","64e50c10068e51e8562a66d7","","","","","6101",""," ","key"," ","16.666191780821688","500","250","pz","35","55","41","2","1","",""
"","psychophysics","150","909904","0.0-150.0","55b508f4fdf99b1c26c21c69","64e50c10068e51e8562a66d7","","","","","1133",""," ","key"," ","16.665588235294255","500","250","pz","35","35","46","2","1","",""
"","psychophysics","151","916056","0.0-151.0","55b508f4fdf99b1c26c21c69","64e50c10068e51e8562a66d7","","","","","6148",""," ","key"," ","16.711498637602165","500","250","pz","19","50","22","2","1","",""
"","psychophysics","152","919953","0.0-152.0","55b508f4fdf99b1c26c21c69","64e50c10068e51e8562a66d7","","","","","3893",""," ","key"," ","16.66626609442056","500","250","pz","37","31","46","2","1","",""
"","psychophysics","153","922519","0.0-153.0","55b508f4fdf99b1c26c21c69","64e50c10068e51e8562a66d7","","","","","2562",""," ","key"," ","16.665921052631393","500","250","pz","31","29","36","2","1","",""
"","psychophysics","154","926823","0.0-154.0","55b508f4fdf99b1c26c21c69","64e50c10068e51e8562a66d7","","","","","4298",""," ","key"," ","16.665891472867948","500","250","pz","45","20","52","2","1","",""
"","psychophysics","155","930365","0.0-155.0","55b508f4fdf99b1c26c21c69","64e50c10068e51e8562a66d7","","","","","3539",""," ","key"," ","16.66644549763031","500","250","pz","33","39","38","2","1","",""
"","psychophysics","156","934903","0.0-156.0","55b508f4fdf99b1c26c21c69","64e50c10068e51e8562a66d7","","","","","4531",""," ","key"," ","16.66566176470566","500","250","pz","21","42","24","2","1","",""
"","psychophysics","157","940821","0.0-157.0","55b508f4fdf99b1c26c21c69","64e50c10068e51e8562a66d7","","","","","5916",""," ","key"," ","16.66617563739386","500","250","pz","24","46","31","2","1","",""
"","psychophysics","158","946291","0.0-158.0","55b508f4fdf99b1c26c21c69","64e50c10068e51e8562a66d7","","","","","5456",""," ","key"," ","16.666036585366093","500","250","pz","32","37","36","2","1","",""
"","psychophysics","159","950919","0.0-159.0","55b508f4fdf99b1c26c21c69","64e50c10068e51e8562a66d7","","","","","4625",""," ","key"," ","16.66613718411559","500","250","pz","18","45","21","2","1","",""
"","psychophysics","160","955703","0.0-160.0","55b508f4fdf99b1c26c21c69","64e50c10068e51e8562a66d7","","","","","4781",""," ","key"," ","16.78352112676063","500","250","pz","17","52","20","2","1","",""
"","psychophysics","161","961577","0.0-161.0","55b508f4fdf99b1c26c21c69","64e50c10068e51e8562a66d7","","","","","5871",""," ","key"," ","16.6659259259259","500","250","pz","45","56","54","2","1","",""
"","psychophysics","162","962464","0.0-162.0","55b508f4fdf99b1c26c21c69","64e50c10068e51e8562a66d7","","","","","876",""," ","key"," ","16.66692307692406","500","250","inst","","","","","","",""
"","psychophysics","163","968817","0.0-163.0","55b508f4fdf99b1c26c21c69","64e50c10068e51e8562a66d7","","","","","6345",""," ","key"," ","16.66610526315788","500","250","instEB1","42","30","40","2","","0","0"
"","psychophysics","164","974353","0.0-164.0","55b508f4fdf99b1c26c21c69","64e50c10068e51e8562a66d7","","","","","5527",""," ","key"," ","16.716253776434918","500","250","instEB2","35","40","30","2","","0","0"
"","psychophysics","165","981853","0.0-165.0","55b508f4fdf99b1c26c21c69","64e50c10068e51e8562a66d7","","","","","7497",""," ","key"," ","16.666102449888548","500","250","instEB3","37","45","27","2","","0","0"
"","psychophysics","166","987692","0.0-166.0","55b508f4fdf99b1c26c21c69","64e50c10068e51e8562a66d7","","","","","5836",""," ","key"," ","16.66618911174785","500","250","instEB4","50","30","40","2","","0","0"
"","psychophysics","167","988580","0.0-167.0","55b508f4fdf99b1c26c21c69","64e50c10068e51e8562a66d7","","","","","878",""," ","key"," ","16.666538461539087","500","250","inst","","","","","","",""
"","psychophysics","168","994837","0.0-168.0","55b508f4fdf99b1c26c21c69","64e50c10068e51e8562a66d7","","","","","6245",""," ","key"," ","16.66597333333331","500","250","eb","59","42","49","2","","0","0"
"","psychophysics","169","1000468","0.0-169.0","55b508f4fdf99b1c26c21c69","64e50c10068e51e8562a66d7","","","","","5625",""," ","key"," ","16.665994065281733","500","250","eb","38","29","28","2","","0","0"
"","psychophysics","170","1005605","0.0-170.0","55b508f4fdf99b1c26c21c69","64e50c10068e51e8562a66d7","","","","","5133",""," ","key"," ","16.666058631921764","500","250","eb","51","37","42","2","","0","0"
"","psychophysics","171","1011555","0.0-171.0","55b508f4fdf99b1c26c21c69","64e50c10068e51e8562a66d7","","","","","5931",""," ","key"," ","16.666123595505656","500","250","eb","50","31","42","2","","0","0"
"","psychophysics","172","1015306","0.0-172.0","55b508f4fdf99b1c26c21c69","64e50c10068e51e8562a66d7","","","","","3733",""," ","key"," ","16.66607142857122","500","250","eb","45","37","32","2","","0","0"
"","psychophysics","173","1021517","0.0-173.0","55b508f4fdf99b1c26c21c69","64e50c10068e51e8562a66d7","","","","","6198",""," ","key"," ","16.66607526881728","500","250","eb","51","43","43","2","","0","0"
"","psychophysics","174","1024751","0.0-174.0","55b508f4fdf99b1c26c21c69","64e50c10068e51e8562a66d7","","","","","3231",""," ","key"," ","16.665906735751392","500","250","eb","56","44","46","2","","0","0"
"","psychophysics","175","1030832","0.0-175.0","55b508f4fdf99b1c26c21c69","64e50c10068e51e8562a66d7","","","","","6077",""," ","key"," ","16.666115702479466","500","250","eb","56","46","48","2","","0","0"
"","psychophysics","176","1034818","0.0-176.0","55b508f4fdf99b1c26c21c69","64e50c10068e51e8562a66d7","","","","","3977",""," ","key"," ","16.666025104602237","500","250","eb","51","54","42","2","","0","0"
"","psychophysics","177","1039068","0.0-177.0","55b508f4fdf99b1c26c21c69","64e50c10068e51e8562a66d7","","","","","4246",""," ","key"," ","16.798412698412513","500","250","eb","41","52","32","2","","0","0"
"","psychophysics","178","1043454","0.0-178.0","55b508f4fdf99b1c26c21c69","64e50c10068e51e8562a66d7","","","","","4380",""," ","key"," ","16.666030534351144","500","250","eb","62","41","53","2","","0","0"
"","psychophysics","179","1047900","0.0-179.0","55b508f4fdf99b1c26c21c69","64e50c10068e51e8562a66d7","","","","","4442",""," ","key"," ","16.66609022556454","500","250","eb","24","35","24","2","","0","0"
"","psychophysics","180","1051833","0.0-180.0","55b508f4fdf99b1c26c21c69","64e50c10068e51e8562a66d7","","","","","3930",""," ","key"," ","16.66604255319157","500","250","eb","44","30","37","2","","0","0"
"","psychophysics","181","1056741","0.0-181.0","55b508f4fdf99b1c26c21c69","64e50c10068e51e8562a66d7","","","","","4905",""," ","key"," ","16.66600682593901","500","250","eb","37","29","31","2","","0","0"
"","psychophysics","182","1062301","0.0-182.0","55b508f4fdf99b1c26c21c69","64e50c10068e51e8562a66d7","","","","","5547",""," ","key"," ","16.920121951219656","500","250","eb","29","50","25","2","","0","0"
"","psychophysics","183","1063273","0.0-183.0","55b508f4fdf99b1c26c21c69","64e50c10068e51e8562a66d7","","","","","955",""," ","key"," ","16.668421052633214","500","250","inst","","","","","","",""
"","psychophysics","184","1070516","0.0-184.0","55b508f4fdf99b1c26c21c69","64e50c10068e51e8562a66d7","","","","","7228",""," ","key"," ","16.666036866359576","500","250","instZol1","-1.942890293094024e-16","-1.3","","","","0","0"
"","psychophysics","185","1088870","0.0-185.0","55b508f4fdf99b1c26c21c69","64e50c10068e51e8562a66d7","","","","","18349",""," ","key"," ","16.696375227686804","500","250","instZol2","-1.2999999999999994","2","","2","","0","0"
"","psychophysics","186","1089720","0.0-186.0","55b508f4fdf99b1c26c21c69","64e50c10068e51e8562a66d7","","","","","838",""," ","key"," ","16.666800000001675","500","250","inst","","","","","","",""
"","psychophysics","187","1096228","0.0-187.0","55b508f4fdf99b1c26c21c69","64e50c10068e51e8562a66d7","","","","","6490",""," ","key"," ","16.70902061855694","500","250","zol","-0.3200000000000002","-0.38","","2","1","21","-14"
"","psychophysics","188","1099976","0.0-188.0","55b508f4fdf99b1c26c21c69","64e50c10068e51e8562a66d7","","","","","3738",""," ","key"," ","16.66607142857122","500","250","zol","-1.4000000000000001","0.1","","2","1","-28","-10"
"","psychophysics","189","1105083","0.0-189.0","55b508f4fdf99b1c26c21c69","64e50c10068e51e8562a66d7","","","","","5083",""," ","key"," ","16.666143790849187","500","250","zol","-1.5300000000000002","0.13","","2","1","-23","25"
"","psychophysics","190","1110320","0.0-190.0","55b508f4fdf99b1c26c21c69","64e50c10068e51e8562a66d7","","","","","5233",""," ","key"," ","16.66600638977624","500","250","zol","-1.6400000000000006","0.74","","2","1","22","28"
"","psychophysics","191","1116083","0.0-191.0","55b508f4fdf99b1c26c21c69","64e50c10068e51e8562a66d7","","","","","5747",""," ","key"," ","16.666086956521873","500","250","zol","-0.59","0.59","","2","1","-4","-7"
"","psychophysics","192","1122083","0.0-192.0","55b508f4fdf99b1c26c21c69","64e50c10068e51e8562a66d7","","","","","5995",""," ","key"," ","16.666033519553565","500","250","zol","-1.0899999999999999","-0.51","","2","1","29","-11"
"","psychophysics","193","1127201","0.0-193.0","55b508f4fdf99b1c26c21c69","64e50c10068e51e8562a66d7","","","","","5065",""," ","key"," ","16.775526315789506","500","250","zol","-0.6","-0.2","","2","1","-12","20"
"","psychophysics","194","1130108","0.0-194.0","55b508f4fdf99b1c26c21c69","64e50c10068e51e8562a66d7","","","","","2841",""," ","key"," ","16.666358381503052","500","250","zol","-0.38","-0.62","","2","1","30","0"
"","psychophysics","195","1133365","0.0-195.0","55b508f4fdf99b1c26c21c69","64e50c10068e51e8562a66d7","","","","","3243",""," ","key"," ","16.666153846153367","500","250","zol","-0.9899999999999999","0.19","","2","1","3","-5"
"","psychophysics","196","1138882","0.0-196.0","55b508f4fdf99b1c26c21c69","64e50c10068e51e8562a66d7","","","","","5487",""," ","key"," ","16.71665653495449","500","250","zol","-0.9099999999999999","-0.49","","2","1","12","24"
"","psychophysics","197","1143771","0.0-197.0","55b508f4fdf99b1c26c21c69","64e50c10068e51e8562a66d7","","","","","4884",""," ","key"," ","16.666095890410958","500","250","zol","-1.2600000000000002","0.56","","2","1","27","7"
"","psychophysics","198","1148965","0.0-198.0","55b508f4fdf99b1c26c21c69","64e50c10068e51e8562a66d7","","","","","5167",""," ","key"," ","16.66604501607684","500","250","zol","-0.7300000000000001","0.73","","2","1","-12","-6"
"","psychophysics","199","1153915","0.0-199.0","55b508f4fdf99b1c26c21c69","64e50c10068e51e8562a66d7","","","","","4945",""," ","key"," ","16.952371134020268","500","250","zol","-1.27","0.07","","2","1","3","-22"
"","psychophysics","200","1158665","0.0-200.0","55b508f4fdf99b1c26c21c69","64e50c10068e51e8562a66d7","","","","","4747",""," ","key"," ","16.66612676056397","500","250","zol","-1.16","-0.74","","2","1","12","-25"
"","psychophysics","201","1162581","0.0-201.0","55b508f4fdf99b1c26c21c69","64e50c10068e51e8562a66d7","","","","","3912",""," ","key"," ","16.666068376068814","500","250","zol","-1.12","0.42","","2","1","15","-23"
"","psychophysics","202","1163718","0.0-202.0","55b508f4fdf99b1c26c21c69","64e50c10068e51e8562a66d7","","","","","1134",""," ","key"," ","16.666268656714887","500","250","inst","","","","","","",""
"","psychophysics","203","1177590","0.0-203.0","55b508f4fdf99b1c26c21c69","64e50c10068e51e8562a66d7","","","","","13856",""," ","key"," ","16.666089049337888","500","250","instBr3","-17","40","300","1","","0","0"
"","psychophysics","204","1178412","0.0-204.0","55b508f4fdf99b1c26c21c69","64e50c10068e51e8562a66d7","","","","","809",""," ","key"," ","16.6661224489775","500","250","inst","","","","","","",""
"","psychophysics","205","1182316","0.0-205.0","55b508f4fdf99b1c26c21c69","64e50c10068e51e8562a66d7","","","","","3886",""," ","key"," ","16.66618025751061","500","250","br","-15","-9","287","1","1","-20","-19"
"","psychophysics","206","1186778","0.0-206.0","55b508f4fdf99b1c26c21c69","64e50c10068e51e8562a66d7","","","","","4445",""," ","key"," ","16.66599250936354","500","250","br","-8","15","235","1","1","18","-22"
"","psychophysics","207","1194045","0.0-207.0","55b508f4fdf99b1c26c21c69","64e50c10068e51e8562a66d7","","","","","7262",""," ","key"," ","16.666160919540292","500","250","br","-15","27","299","1","1","-18","23"
"","psychophysics","208","1200927","0.0-208.0","55b508f4fdf99b1c26c21c69","64e50c10068e51e8562a66d7","","","","","6880",""," ","key"," ","16.666067961164867","500","250","br","-16","30","229","1","1","-24","-1"
"","psychophysics","209","1207260","0.0-209.0","55b508f4fdf99b1c26c21c69","64e50c10068e51e8562a66d7","","","","","6328",""," ","key"," ","16.666121372031565","500","250","br","-15","30","296","1","1","-3","-28"
"","psychophysics","210","1210772","0.0-210.0","55b508f4fdf99b1c26c21c69","64e50c10068e51e8562a66d7","","","","","3504",""," ","key"," ","16.66612440191374","500","250","br","-15","10","268","1","1","-13","-6"
"","psychophysics","211","1215260","0.0-211.0","55b508f4fdf99b1c26c21c69","64e50c10068e51e8562a66d7","","","","","4477",""," ","key"," ","16.66624535315975","500","250","br","-15","9","215","1","1","8","5"
"","psychophysics","212","1219257","0.0-212.0","55b508f4fdf99b1c26c21c69","64e50c10068e51e8562a66d7","","","","","3994",""," ","key"," ","16.666470588235764","500","250","br","-22","-12","226","1","1","-27","-18"
"","psychophysics","213","1225892","0.0-213.0","55b508f4fdf99b1c26c21c69","64e50c10068e51e8562a66d7","","","","","6611",""," ","key"," ","16.665793450881775","500","250","br","-15","30","214","1","1","-18","-5"
"","psychophysics","214","1232344","0.0-214.0","55b508f4fdf99b1c26c21c69","64e50c10068e51e8562a66d7","","","","","6443",""," ","key"," ","16.666356589146996","500","250","br","-15","25","290","1","1","10","-30"
"","psychophysics","215","1240359","0.0-215.0","55b508f4fdf99b1c26c21c69","64e50c10068e51e8562a66d7","","","","","null","","null","key","null","16.70100208768273","500","250","br","-18","20","273","1","1","1","-21"
"","psychophysics","216","1240415","0.0-216.0","55b508f4fdf99b1c26c21c69","64e50c10068e51e8562a66d7","","","","","17",""," ","key"," ","16.669999999925494","500","250","br","29","29","272","1","1","18","-20"
"","psychophysics","217","1244831","0.0-217.0","55b508f4fdf99b1c26c21c69","64e50c10068e51e8562a66d7","","","","","4399",""," ","key"," ","16.66621212121258","500","250","br","-16","8","263","1","1","-29","-8"
"","psychophysics","218","1249616","0.0-218.0","55b508f4fdf99b1c26c21c69","64e50c10068e51e8562a66d7","","","","","4770",""," ","key"," ","16.665874125874744","500","250","br","-14","10","273","1","1","7","17"
"","psychophysics","219","1254515","0.0-219.0","55b508f4fdf99b1c26c21c69","64e50c10068e51e8562a66d7","","","","","4887",""," ","key"," ","16.66634812286686","500","250","br","-17","-11","227","1","1","18","-20"
