"success","trial_type","trial_index","time_elapsed","internal_node_id","pid","sid","timeout","failed_images","failed_audio","failed_video","rt","stimulus","response","response_type","key_press","avg_frame_time","center_x","center_y","task","resp","start","parA","version","block","jitterX","jitterY"
"true","fullscreen","0","2975","0.0-0.0","5d6494874e9aae0019598b14","64de826425f42136dcbc62ec","","","","","","","","","","","","","","","","","","","",""
"true","preload","1","3081","0.0-1.0","5d6494874e9aae0019598b14","64de826425f42136dcbc62ec","false","[]","[]","[]","","","","","","","","","","","","","","","",""
"","html-button-response","2","14218","0.0-2.0","5d6494874e9aae0019598b14","64de826425f42136dcbc62ec","","","","","11135","Please Make Sure Your Audio Is On.","0","","","","","","","","","","","","",""
"","psychophysics","3","18224","0.0-3.0","5d6494874e9aae0019598b14","64de826425f42136dcbc62ec","","","","","4001",""," ","key"," ","16.667133333333336","960","250","","","","","","","",""
"","psychophysics","4","21545","0.0-4.0","5d6494874e9aae0019598b14","64de826425f42136dcbc62ec","","","","","3319",""," ","key"," ","16.66647738693466","500","250","inst","","","","","","",""
"","psychophysics","5","24872","0.0-5.0","5d6494874e9aae0019598b14","64de826425f42136dcbc62ec","","","","","3324",""," ","key"," ","16.666909090909087","500","250","sample0","","","","","","",""
"","psychophysics","6","26839","0.0-6.0","5d6494874e9aae0019598b14","64de826425f42136dcbc62ec","","","","","1966",""," ","key"," ","16.670829059829067","500","250","sample1","","","","","","",""
"","psychophysics","7","35487","0.0-7.0","5d6494874e9aae0019598b14","64de826425f42136dcbc62ec","","","","","8647",""," ","key"," ","16.665528957528956","500","250","sample2","102","","","","","",""
"","psychophysics","8","39015","0.0-8.0","5d6494874e9aae0019598b14","64de826425f42136dcbc62ec","","","","","3527",""," ","key"," ","16.663298578199043","500","250","sample3","100","","","","","",""
"","psychophysics","9","43610","0.0-9.0","5d6494874e9aae0019598b14","64de826425f42136dcbc62ec","","","","","4591",""," ","key"," ","16.728212454212468","500","250","sample4","102","","","","","",""
"","psychophysics","10","46848","0.0-10.0","5d6494874e9aae0019598b14","64de826425f42136dcbc62ec","","","","","3234",""," ","key"," ","16.751404145077686","500","250","sample5","","","","","","",""
"","psychophysics","11","53039","0.0-11.0","5d6494874e9aae0019598b14","64de826425f42136dcbc62ec","","","","","6190",""," ","key"," ","16.667613513513512","500","250","sample6","498","","","","","",""
"","psychophysics","12","57807","0.0-12.0","5d6494874e9aae0019598b14","64de826425f42136dcbc62ec","","","","","4767",""," ","key"," ","16.66440701754386","500","250","inst","","","","","","",""
"","psychophysics","13","61497","0.0-13.0","5d6494874e9aae0019598b14","64de826425f42136dcbc62ec","","","","","3689",""," ","key"," ","16.745972727272733","500","250","inst","","","","","","",""
"","psychophysics","14","65535","0.0-14.0","5d6494874e9aae0019598b14","64de826425f42136dcbc62ec","","","","","4037",""," ","key"," ","16.73753333333331","500","250","inst","","","","","","",""
"","psychophysics","15","70920","0.0-15.0","5d6494874e9aae0019598b14","64de826425f42136dcbc62ec","","","","","5384",""," ","key"," ","16.71672274143302","500","250","inst","","","","","","",""
"","psychophysics","16","72208","0.0-16.0","5d6494874e9aae0019598b14","64de826425f42136dcbc62ec","","","","","1287",""," ","key"," ","16.667250000000134","500","250","inst","","","","","","",""
"","psychophysics","17","77239","0.0-17.0","5d6494874e9aae0019598b14","64de826425f42136dcbc62ec","","","","","5030",""," ","key"," ","16.665524916943486","500","250","instPzPre","50","50","50","0","","",""
"","psychophysics","18","80232","0.0-18.0","5d6494874e9aae0019598b14","64de826425f42136dcbc62ec","","","","","2992",""," ","key"," ","16.669877094972044","500","250","instPz0","50","50","50","1","","",""
"","psychophysics","19","87287","0.0-19.0","5d6494874e9aae0019598b14","64de826425f42136dcbc62ec","","","","","7054",""," ","key"," ","16.746064285714272","500","250","instPz1","56","25","50","1","","",""
"","psychophysics","20","92384","0.0-20.0","5d6494874e9aae0019598b14","64de826425f42136dcbc62ec","","","","","5096",""," ","key"," ","16.721039473684197","500","250","instPz2","22","35","20","1","","",""
"","psychophysics","21","98855","0.0-21.0","5d6494874e9aae0019598b14","64de826425f42136dcbc62ec","","","","","6470",""," ","key"," ","16.709989637305693","500","250","instPz3","39","100","30","1","","",""
"","psychophysics","22","105960","0.0-22.0","5d6494874e9aae0019598b14","64de826425f42136dcbc62ec","","","","","7104",""," ","key"," ","16.70732783018866","500","250","instPz4","42","100","30","1","","",""
"","psychophysics","23","108608","0.0-23.0","5d6494874e9aae0019598b14","64de826425f42136dcbc62ec","","","","","2645",""," ","key"," ","16.66842405063294","500","250","inst","","","","","","",""
"","psychophysics","24","113049","0.0-24.0","5d6494874e9aae0019598b14","64de826425f42136dcbc62ec","","","","","4439",""," ","key"," ","16.666729323308292","500","250","pz","81","54","58","1","0","",""
"","psychophysics","25","116983","0.0-25.0","5d6494874e9aae0019598b14","64de826425f42136dcbc62ec","","","","","3933",""," ","key"," ","16.73755555555557","500","250","pz","36","46","27","1","0","",""
"","psychophysics","26","122751","0.0-26.0","5d6494874e9aae0019598b14","64de826425f42136dcbc62ec","","","","","5766",""," ","key"," ","16.666631884057963","500","250","pz","66","27","48","1","0","",""
"","psychophysics","27","128631","0.0-27.0","5d6494874e9aae0019598b14","64de826425f42136dcbc62ec","","","","","5879",""," ","key"," ","16.809676217765055","500","250","pz","70","35","54","1","0","",""
"","psychophysics","28","132482","0.0-28.0","5d6494874e9aae0019598b14","64de826425f42136dcbc62ec","","","","","3849",""," ","key"," ","16.74184279475975","500","250","pz","37","44","27","1","0","",""
"","psychophysics","29","135729","0.0-29.0","5d6494874e9aae0019598b14","64de826425f42136dcbc62ec","","","","","3246",""," ","key"," ","16.75186528497402","500","250","pz","53","37","40","1","0","",""
"","psychophysics","30","139319","0.0-30.0","5d6494874e9aae0019598b14","64de826425f42136dcbc62ec","","","","","3588",""," ","key"," ","16.66675233644859","500","250","pz","66","35","51","1","0","",""
"","psychophysics","31","143575","0.0-31.0","5d6494874e9aae0019598b14","64de826425f42136dcbc62ec","","","","","4255",""," ","key"," ","16.6645000000001","500","250","pz","53","49","42","1","0","",""
"","psychophysics","32","149049","0.0-32.0","5d6494874e9aae0019598b14","64de826425f42136dcbc62ec","","","","","5472",""," ","key"," ","16.770076687116514","500","250","pz","39","26","29","1","0","",""
"","psychophysics","33","155632","0.0-33.0","5d6494874e9aae0019598b14","64de826425f42136dcbc62ec","","","","","6580",""," ","key"," ","16.709725190839674","500","250","pz","67","28","51","1","0","",""
"","psychophysics","34","163463","0.0-34.0","5d6494874e9aae0019598b14","64de826425f42136dcbc62ec","","","","","7830",""," ","key"," ","16.702217948717962","500","250","pz","29","55","20","1","0","",""
"","psychophysics","35","168113","0.0-35.0","5d6494874e9aae0019598b14","64de826425f42136dcbc62ec","","","","","4648",""," ","key"," ","16.72786281588454","500","250","pz","55","23","39","1","0","",""
"","psychophysics","36","170944","0.0-36.0","5d6494874e9aae0019598b14","64de826425f42136dcbc62ec","","","","","2830",""," ","key"," ","16.763720238095196","500","250","pz","45","31","30","1","0","",""
"","psychophysics","37","175666","0.0-37.0","5d6494874e9aae0019598b14","64de826425f42136dcbc62ec","","","","","4718",""," ","key"," ","16.667663120567436","500","250","pz","62","25","52","1","0","",""
"","psychophysics","38","178056","0.0-38.0","5d6494874e9aae0019598b14","64de826425f42136dcbc62ec","","","","","2388",""," ","key"," ","16.664218309859073","500","250","pz","37","27","25","1","0","",""
"","psychophysics","39","180240","0.0-39.0","5d6494874e9aae0019598b14","64de826425f42136dcbc62ec","","","","","2184",""," ","key"," ","16.66435384615369","500","250","inst","","","","","","",""
"","psychophysics","40","182584","0.0-40.0","5d6494874e9aae0019598b14","64de826425f42136dcbc62ec","","","","","2343",""," ","key"," ","16.78466187050359","500","250","instBr0","0","0","300","","","0","0"
"","psychophysics","41","185103","0.0-41.0","5d6494874e9aae0019598b14","64de826425f42136dcbc62ec","","","","","2518",""," ","key"," ","16.668346666666523","500","250","instBr1","-40","-40","300","","","0","0"
"","psychophysics","42","190081","0.0-42.0","5d6494874e9aae0019598b14","64de826425f42136dcbc62ec","","","","","4976",""," ","key"," ","16.66484563758393","500","250","instBr3","40","40","300","2","","0","0"
"","psychophysics","43","191368","0.0-43.0","5d6494874e9aae0019598b14","64de826425f42136dcbc62ec","","","","","1286",""," ","key"," ","16.667223684210178","500","250","inst","","","","","","",""
"","psychophysics","44","193929","0.0-44.0","5d6494874e9aae0019598b14","64de826425f42136dcbc62ec","","","","","2560",""," ","key"," ","16.663078431372554","500","250","br","22","23","282","2","0","-25","8"
"","psychophysics","45","196520","0.0-45.0","5d6494874e9aae0019598b14","64de826425f42136dcbc62ec","","","","","2588",""," ","key"," ","16.66262337662353","500","250","br","25","30","202","2","0","-7","14"
"","psychophysics","46","199768","0.0-46.0","5d6494874e9aae0019598b14","64de826425f42136dcbc62ec","","","","","3247",""," ","key"," ","16.666577319587585","500","250","br","20","-11","222","2","0","9","28"
"","psychophysics","47","202680","0.0-47.0","5d6494874e9aae0019598b14","64de826425f42136dcbc62ec","","","","","2911",""," ","key"," ","16.666655172413915","500","250","br","24","-12","256","2","0","30","21"
"","psychophysics","48","207513","0.0-48.0","5d6494874e9aae0019598b14","64de826425f42136dcbc62ec","","","","","4831",""," ","key"," ","16.78180139372825","500","250","br","28","-27","266","2","0","-5","3"
"","psychophysics","49","209520","0.0-49.0","5d6494874e9aae0019598b14","64de826425f42136dcbc62ec","","","","","2005",""," ","key"," ","16.666142857142923","500","250","br","22","27","220","2","0","-2","-30"
"","psychophysics","50","212713","0.0-50.0","5d6494874e9aae0019598b14","64de826425f42136dcbc62ec","","","","","3192",""," ","key"," ","16.668900523560257","500","250","br","23","10","234","2","0","-17","16"
"","psychophysics","51","216248","0.0-51.0","5d6494874e9aae0019598b14","64de826425f42136dcbc62ec","","","","","3534",""," ","key"," ","16.747009523809538","500","250","br","23","-13","299","2","0","8","10"
"","psychophysics","52","218881","0.0-52.0","5d6494874e9aae0019598b14","64de826425f42136dcbc62ec","","","","","2632",""," ","key"," ","16.772576923076905","500","250","br","25","2","298","2","0","3","4"
"","psychophysics","53","221049","0.0-53.0","5d6494874e9aae0019598b14","64de826425f42136dcbc62ec","","","","","2166",""," ","key"," ","16.794812500000035","500","250","br","22","17","261","2","0","-27","3"
"","psychophysics","54","224057","0.0-54.0","5d6494874e9aae0019598b14","64de826425f42136dcbc62ec","","","","","3006",""," ","key"," ","16.670720670390946","500","250","br","26","29","239","2","0","14","16"
"","psychophysics","55","227681","0.0-55.0","5d6494874e9aae0019598b14","64de826425f42136dcbc62ec","","","","","3624",""," ","key"," ","16.66885714285711","500","250","br","23","5","232","2","0","-24","24"
"","psychophysics","56","231760","0.0-56.0","5d6494874e9aae0019598b14","64de826425f42136dcbc62ec","","","","","4077",""," ","key"," ","16.66589711934154","500","250","br","20","-16","235","2","0","30","4"
"","psychophysics","57","233335","0.0-57.0","5d6494874e9aae0019598b14","64de826425f42136dcbc62ec","","","","","1571",""," ","key"," ","16.67513829787222","500","250","br","20","19","273","2","0","4","-15"
"","psychophysics","58","237066","0.0-58.0","5d6494874e9aae0019598b14","64de826425f42136dcbc62ec","","","","","3730",""," ","key"," ","16.66925112107618","500","250","br","20","30","202","2","0","15","20"
"","psychophysics","59","237968","0.0-59.0","5d6494874e9aae0019598b14","64de826425f42136dcbc62ec","","","","","901",""," ","key"," ","16.66684905660365","500","250","inst","","","","","","",""
"","psychophysics","60","239832","0.0-60.0","5d6494874e9aae0019598b14","64de826425f42136dcbc62ec","","","","","1863",""," ","key"," ","16.66391891891898","500","250","instEB0","40","40","40","2","","0","0"
"","psychophysics","61","244856","0.0-61.0","5d6494874e9aae0019598b14","64de826425f42136dcbc62ec","","","","","5021",""," ","key"," ","16.66669333333334","500","250","instEB1","42","30","40","2","","0","0"
"","psychophysics","62","247224","0.0-62.0","5d6494874e9aae0019598b14","64de826425f42136dcbc62ec","","","","","2366",""," ","key"," ","16.664581560283523","500","250","instEB2","40","40","30","2","","0","0"
"","psychophysics","63","257945","0.0-63.0","5d6494874e9aae0019598b14","64de826425f42136dcbc62ec","","","","","10720",""," ","key"," ","16.666438569206825","500","250","instEB3","39","45","27","2","","0","0"
"","psychophysics","64","263530","0.0-64.0","5d6494874e9aae0019598b14","64de826425f42136dcbc62ec","","","","","5584",""," ","key"," ","16.667035928143736","500","250","instEB4","48","30","40","2","","0","0"
"","psychophysics","65","264200","0.0-65.0","5d6494874e9aae0019598b14","64de826425f42136dcbc62ec","","","","","668",""," ","key"," ","16.645461538461788","500","250","inst","","","","","","",""
"","psychophysics","66","268136","0.0-66.0","5d6494874e9aae0019598b14","64de826425f42136dcbc62ec","","","","","3935",""," ","key"," ","16.666399999999967","500","250","eb","52","27","41","2","","0","0"
"","psychophysics","67","270480","0.0-67.0","5d6494874e9aae0019598b14","64de826425f42136dcbc62ec","","","","","2343",""," ","key"," ","16.666335714285378","500","250","eb","40","53","29","2","","0","0"
"","psychophysics","68","274584","0.0-68.0","5d6494874e9aae0019598b14","64de826425f42136dcbc62ec","","","","","4103",""," ","key"," ","16.735258196721276","500","250","eb","62","41","53","2","","0","0"
"","psychophysics","69","277017","0.0-69.0","5d6494874e9aae0019598b14","64de826425f42136dcbc62ec","","","","","2431",""," ","key"," ","16.66732413793095","500","250","eb","57","42","43","2","","0","0"
"","psychophysics","70","280633","0.0-70.0","5d6494874e9aae0019598b14","64de826425f42136dcbc62ec","","","","","3613",""," ","key"," ","16.668842592592462","500","250","eb","40","42","27","2","","0","0"
"","psychophysics","71","284417","0.0-71.0","5d6494874e9aae0019598b14","64de826425f42136dcbc62ec","","","","","3783",""," ","key"," ","16.666508849557495","500","250","eb","56","46","45","2","","0","0"
"","psychophysics","72","288808","0.0-72.0","5d6494874e9aae0019598b14","64de826425f42136dcbc62ec","","","","","4390",""," ","key"," ","16.793996153846205","500","250","eb","40","32","28","2","","0","0"
"","psychophysics","73","292745","0.0-73.0","5d6494874e9aae0019598b14","64de826425f42136dcbc62ec","","","","","3936",""," ","key"," ","16.66768220338997","500","250","eb","58","48","48","2","","0","0"
"","psychophysics","74","296705","0.0-74.0","5d6494874e9aae0019598b14","64de826425f42136dcbc62ec","","","","","3956",""," ","key"," ","16.667983050847337","500","250","eb","48","37","36","2","","0","0"
"","psychophysics","75","301976","0.0-75.0","5d6494874e9aae0019598b14","64de826425f42136dcbc62ec","","","","","5270",""," ","key"," ","16.666346031745956","500","250","eb","43","31","31","2","","0","0"
"","psychophysics","76","304850","0.0-76.0","5d6494874e9aae0019598b14","64de826425f42136dcbc62ec","","","","","2873",""," ","key"," ","16.669738372093065","500","250","eb","58","46","49","2","","0","0"
"","psychophysics","77","308360","0.0-77.0","5d6494874e9aae0019598b14","64de826425f42136dcbc62ec","","","","","3508",""," ","key"," ","16.667492822966476","500","250","eb","58","48","48","2","","0","0"
"","psychophysics","78","312120","0.0-78.0","5d6494874e9aae0019598b14","64de826425f42136dcbc62ec","","","","","3757",""," ","key"," ","16.664551111111262","500","250","eb","48","43","39","2","","0","0"
"","psychophysics","79","316400","0.0-79.0","5d6494874e9aae0019598b14","64de826425f42136dcbc62ec","","","","","4279",""," ","key"," ","16.66709375000005","500","250","eb","45","54","33","2","","0","0"
"","psychophysics","80","319472","0.0-80.0","5d6494874e9aae0019598b14","64de826425f42136dcbc62ec","","","","","3071",""," ","key"," ","16.666355191256987","500","250","eb","61","41","52","2","","0","0"
"","psychophysics","81","320250","0.0-81.0","5d6494874e9aae0019598b14","64de826425f42136dcbc62ec","","","","","777",""," ","key"," ","16.65586956521704","500","250","inst","","","","","","",""
"","psychophysics","82","321784","0.0-82.0","5d6494874e9aae0019598b14","64de826425f42136dcbc62ec","","","","","1533",""," ","key"," ","16.671747252747423","500","250","instZol0","0","0","","","","0","0"
"","psychophysics","83","325520","0.0-83.0","5d6494874e9aae0019598b14","64de826425f42136dcbc62ec","","","","","3735",""," ","key"," ","16.666578475336312","500","250","instZol1","2.7755575615628914e-17","-1.3","","","","0","0"
"","psychophysics","84","330936","0.0-84.0","5d6494874e9aae0019598b14","64de826425f42136dcbc62ec","","","","","5415",""," ","key"," ","16.66753086419744","500","250","instZol2","-2.1","2","","2","","0","0"
"","psychophysics","85","331560","0.0-85.0","5d6494874e9aae0019598b14","64de826425f42136dcbc62ec","","","","","623",""," ","key"," ","16.65622222222252","500","250","inst","","","","","","",""
"","psychophysics","86","336280","0.0-86.0","5d6494874e9aae0019598b14","64de826425f42136dcbc62ec","","","","","4715",""," ","key"," ","16.666946996466375","500","250","zol","-0.25000000000000006","-0.25","","2","0","29","-9"
"","psychophysics","87","338665","0.0-87.0","5d6494874e9aae0019598b14","64de826425f42136dcbc62ec","","","","","2383",""," ","key"," ","16.664774647887228","500","250","zol","-1.3","0.3","","2","0","-30","-16"
"","psychophysics","88","342408","0.0-88.0","5d6494874e9aae0019598b14","64de826425f42136dcbc62ec","","","","","3741",""," ","key"," ","16.666641255605217","500","250","zol","-0.98","-0.42","","2","0","9","-11"
"","psychophysics","89","347081","0.0-89.0","5d6494874e9aae0019598b14","64de826425f42136dcbc62ec","","","","","4671",""," ","key"," ","16.665864285714424","500","250","zol","-1.2500000000000002","-0.45","","2","0","28","18"
"","psychophysics","90","349936","0.0-90.0","5d6494874e9aae0019598b14","64de826425f42136dcbc62ec","","","","","2853",""," ","key"," ","16.66735882352942","500","250","zol","-0.83","-0.57","","2","0","-18","2"
"","psychophysics","91","352616","0.0-91.0","5d6494874e9aae0019598b14","64de826425f42136dcbc62ec","","","","","2678",""," ","key"," ","16.667268750000222","500","250","zol","-1.5000000000000002","0.7","","2","0","30","0"
"","psychophysics","92","354697","0.0-92.0","5d6494874e9aae0019598b14","64de826425f42136dcbc62ec","","","","","2080",""," ","key"," ","16.668016129032043","500","250","zol","-1.37","0.57","","2","0","12","-5"
"","psychophysics","93","357136","0.0-93.0","5d6494874e9aae0019598b14","64de826425f42136dcbc62ec","","","","","2437",""," ","key"," ","16.6673448275863","500","250","zol","-0.59","-0.51","","2","0","-26","9"
"","psychophysics","94","360432","0.0-94.0","5d6494874e9aae0019598b14","64de826425f42136dcbc62ec","","","","","3294",""," ","key"," ","16.664903553299368","500","250","zol","-1.1300000000000001","0.43","","2","0","-7","-15"
"","psychophysics","95","362545","0.0-95.0","5d6494874e9aae0019598b14","64de826425f42136dcbc62ec","","","","","2111",""," ","key"," ","16.665603174603017","500","250","zol","-1.0999999999999999","0.6","","2","0","20","2"
"","psychophysics","96","365960","0.0-96.0","5d6494874e9aae0019598b14","64de826425f42136dcbc62ec","","","","","3412",""," ","key"," ","16.748876237623694","500","250","zol","-1.1500000000000001","0.75","","2","0","-20","-6"
"","psychophysics","97","371745","0.0-97.0","5d6494874e9aae0019598b14","64de826425f42136dcbc62ec","","","","","5780",""," ","key"," ","16.667103746397654","500","250","zol","-0.8799999999999999","-0.22","","2","0","24","1"
"","psychophysics","98","377432","0.0-98.0","5d6494874e9aae0019598b14","64de826425f42136dcbc62ec","","","","","5685",""," ","key"," ","16.666311764705974","500","250","zol","-1.2200000000000002","-0.38","","2","0","4","-12"
"","psychophysics","99","381682","0.0-99.0","5d6494874e9aae0019598b14","64de826425f42136dcbc62ec","","","","","4248",""," ","key"," ","16.668511811023492","500","250","zol","-1.0999999999999999","0","","2","0","-7","7"
"","psychophysics","100","384576","0.0-100.0","5d6494874e9aae0019598b14","64de826425f42136dcbc62ec","","","","","2893",""," ","key"," ","16.66758139534863","500","250","zol","-0.82","-0.28","","2","0","10","-23"
"","psychophysics","101","388265","0.0-101.0","5d6494874e9aae0019598b14","64de826425f42136dcbc62ec","","","","","3688",""," ","key"," ","16.666045248868762","500","250","inst","","","","","","",""
"","psychophysics","102","394160","0.0-102.0","5d6494874e9aae0019598b14","64de826425f42136dcbc62ec","","","","","5894",""," ","key"," ","16.71327635327648","500","250","instPog0","340","370","340","2","","0","0"
"","psychophysics","103","398729","0.0-103.0","5d6494874e9aae0019598b14","64de826425f42136dcbc62ec","","","","","4565",""," ","key"," ","16.668715328467165","500","250","instPog1","340","370","340","2","","0","0"
"","psychophysics","104","401552","0.0-104.0","5d6494874e9aae0019598b14","64de826425f42136dcbc62ec","","","","","2822",""," ","key"," ","16.662922619047528","500","250","instPog2","340","340","340","2","","0","0"
"","psychophysics","105","402193","0.0-105.0","5d6494874e9aae0019598b14","64de826425f42136dcbc62ec","","","","","639",""," ","key"," ","16.64681081081004","500","250","inst","","","","","","",""
"","psychophysics","106","404352","0.0-106.0","5d6494874e9aae0019598b14","64de826425f42136dcbc62ec","","","","","2156",""," ","key"," ","16.67225581395364","500","250","pog","367","371","368","2","0","0","0"
"","psychophysics","107","408920","0.0-107.0","5d6494874e9aae0019598b14","64de826425f42136dcbc62ec","","","","","4567",""," ","key"," ","16.666893772893687","500","250","pog","343","331","351","2","0","0","0"
"","psychophysics","108","411224","0.0-108.0","5d6494874e9aae0019598b14","64de826425f42136dcbc62ec","","","","","2303",""," ","key"," ","16.668846715328346","500","250","pog","310","314","313","2","0","0","0"
"","psychophysics","109","415032","0.0-109.0","5d6494874e9aae0019598b14","64de826425f42136dcbc62ec","","","","","3807",""," ","key"," ","16.736784140969164","500","250","pog","306","382","310","2","0","0","0"
"","psychophysics","110","416746","0.0-110.0","5d6494874e9aae0019598b14","64de826425f42136dcbc62ec","","","","","1713",""," ","key"," ","16.6699215686274","500","250","pog","373","375","380","2","0","0","0"
"","psychophysics","111","421034","0.0-111.0","5d6494874e9aae0019598b14","64de826425f42136dcbc62ec","","","","","4286",""," ","key"," ","16.66805078125003","500","250","pog","310","400","306","2","0","0","0"
"","psychophysics","112","424552","0.0-112.0","5d6494874e9aae0019598b14","64de826425f42136dcbc62ec","","","","","3516",""," ","key"," ","16.664033333333265","500","250","pog","320","306","330","2","0","0","0"
"","psychophysics","113","429456","0.0-113.0","5d6494874e9aae0019598b14","64de826425f42136dcbc62ec","","","","","4902",""," ","key"," ","16.665307167235486","500","250","pog","302","344","309","2","0","0","0"
"","psychophysics","114","433272","0.0-114.0","5d6494874e9aae0019598b14","64de826425f42136dcbc62ec","","","","","3814",""," ","key"," ","16.740295154185112","500","250","pog","310","374","312","2","0","0","0"
"","psychophysics","115","434704","0.0-115.0","5d6494874e9aae0019598b14","64de826425f42136dcbc62ec","","","","","1431",""," ","key"," ","16.867595238094857","500","250","pog","302","306","304","2","0","0","0"
"","psychophysics","116","436714","0.0-116.0","5d6494874e9aae0019598b14","64de826425f42136dcbc62ec","","","","","2008",""," ","key"," ","16.66797499999957","500","250","pog","318","326","316","2","0","0","0"
"","psychophysics","117","439257","0.0-117.0","5d6494874e9aae0019598b14","64de826425f42136dcbc62ec","","","","","2541",""," ","key"," ","16.6648278145697","500","250","pog","368","366","376","2","0","0","0"
"","psychophysics","118","443521","0.0-118.0","5d6494874e9aae0019598b14","64de826425f42136dcbc62ec","","","","","4263",""," ","key"," ","16.666619607843185","500","250","pog","314","368","319","2","0","0","0"
"","psychophysics","119","445104","0.0-119.0","5d6494874e9aae0019598b14","64de826425f42136dcbc62ec","","","","","1583",""," ","key"," ","16.84323655914012","500","250","pog","341","343","344","2","0","0","0"
"","psychophysics","120","448665","0.0-120.0","5d6494874e9aae0019598b14","64de826425f42136dcbc62ec","","","","","3560",""," ","key"," ","16.74628301886792","500","250","pog","309","339","310","2","0","0","0"
"","psychophysics","121","449600","0.0-121.0","5d6494874e9aae0019598b14","64de826425f42136dcbc62ec","","","","","935",""," ","key"," ","16.665600000000136","500","250","inst","","","","","","",""
"","psychophysics","122","451440","0.0-122.0","5d6494874e9aae0019598b14","64de826425f42136dcbc62ec","","","","","1839",""," ","key"," ","16.667091743119162","500","250","instZol1","1.3","-1.3","","","","0","0"
"","psychophysics","123","452448","0.0-123.0","5d6494874e9aae0019598b14","64de826425f42136dcbc62ec","","","","","1006",""," ","key"," ","16.658333333333335","500","250","instZol2","-2","2","","1","","0","0"
"","psychophysics","124","453114","0.0-124.0","5d6494874e9aae0019598b14","64de826425f42136dcbc62ec","","","","","665",""," ","key"," ","16.659820512820705","500","250","inst","","","","","","",""
"","psychophysics","125","456248","0.0-125.0","5d6494874e9aae0019598b14","64de826425f42136dcbc62ec","","","","","3131",""," ","key"," ","16.75839247311821","500","250","zol","0.58","0.02","","1","1","9","15"
"","psychophysics","126","461898","0.0-126.0","5d6494874e9aae0019598b14","64de826425f42136dcbc62ec","","","","","5648",""," ","key"," ","16.71634421364984","500","250","zol","1.15","-0.25","","1","1","13","-15"
"","psychophysics","127","464114","0.0-127.0","5d6494874e9aae0019598b14","64de826425f42136dcbc62ec","","","","","2214",""," ","key"," ","16.79482442748116","500","250","zol","0.9099999999999999","-0.41","","1","1","30","-8"
"","psychophysics","128","467482","0.0-128.0","5d6494874e9aae0019598b14","64de826425f42136dcbc62ec","","","","","3365",""," ","key"," ","16.749565000000004","500","250","zol","1.25","-0.25","","1","1","30","-28"
"","psychophysics","129","473160","0.0-129.0","5d6494874e9aae0019598b14","64de826425f42136dcbc62ec","","","","","5676",""," ","key"," ","16.668926253687324","500","250","zol","1.27","0.63","","1","1","19","-14"
"","psychophysics","130","477408","0.0-130.0","5d6494874e9aae0019598b14","64de826425f42136dcbc62ec","","","","","4242",""," ","key"," ","16.732671936759044","500","250","zol","0.9099999999999999","0.39","","1","1","7","12"
"","psychophysics","131","480616","0.0-131.0","5d6494874e9aae0019598b14","64de826425f42136dcbc62ec","","","","","3206",""," ","key"," ","16.66796875","500","250","zol","1.2300000000000002","-0.53","","1","1","-16","-8"
"","psychophysics","132","488568","0.0-132.0","5d6494874e9aae0019598b14","64de826425f42136dcbc62ec","","","","","7950",""," ","key"," ","16.667304621848714","500","250","zol","0.63","0.07","","1","1","-1","-10"
"","psychophysics","133","491872","0.0-133.0","5d6494874e9aae0019598b14","64de826425f42136dcbc62ec","","","","","3302",""," ","key"," ","16.751744897959206","500","250","zol","1.2300000000000002","-0.73","","1","1","26","1"
"","psychophysics","134","496099","0.0-134.0","5d6494874e9aae0019598b14","64de826425f42136dcbc62ec","","","","","4225",""," ","key"," ","16.665324110671897","500","250","zol","1.17","-0.37","","1","1","-26","-20"
"","psychophysics","135","500536","0.0-135.0","5d6494874e9aae0019598b14","64de826425f42136dcbc62ec","","","","","4436",""," ","key"," ","16.665498113207395","500","250","zol","1.0799999999999998","0.22","","1","1","-19","4"
"","psychophysics","136","503488","0.0-136.0","5d6494874e9aae0019598b14","64de826425f42136dcbc62ec","","","","","2951",""," ","key"," ","16.66684090909092","500","250","zol","0.9399999999999998","-0.24","","1","1","-18","-7"
"","psychophysics","137","506888","0.0-137.0","5d6494874e9aae0019598b14","64de826425f42136dcbc62ec","","","","","3399",""," ","key"," ","16.670078817733767","500","250","zol","1.0499999999999998","-0.15","","1","1","11","7"
"","psychophysics","138","510016","0.0-138.0","5d6494874e9aae0019598b14","64de826425f42136dcbc62ec","","","","","3126",""," ","key"," ","16.755913978494497","500","250","zol","0.54","0.46","","1","1","-7","28"
"","psychophysics","139","513384","0.0-139.0","5d6494874e9aae0019598b14","64de826425f42136dcbc62ec","","","","","3367",""," ","key"," ","16.669522388059523","500","250","zol","0.84","0.16","","1","1","13","-9"
"","psychophysics","140","514048","0.0-140.0","5d6494874e9aae0019598b14","64de826425f42136dcbc62ec","","","","","663",""," ","key"," ","16.6442820512815","500","250","inst","","","","","","",""
"","psychophysics","141","516216","0.0-141.0","5d6494874e9aae0019598b14","64de826425f42136dcbc62ec","","","","","2167",""," ","key"," ","16.66640310077531","500","250","instEB1","40","40","30","1","","0","0"
"","psychophysics","142","516920","0.0-142.0","5d6494874e9aae0019598b14","64de826425f42136dcbc62ec","","","","","703",""," ","key"," ","16.664487804878195","500","250","instEB2","30","30","40","1","","0","0"
"","psychophysics","143","517408","0.0-143.0","5d6494874e9aae0019598b14","64de826425f42136dcbc62ec","","","","","486",""," ","key"," ","16.672821428572725","500","250","instEB3","27","27","45","1","","0","0"
"","psychophysics","144","518184","0.0-144.0","5d6494874e9aae0019598b14","64de826425f42136dcbc62ec","","","","","775",""," ","key"," ","16.67384782608639","500","250","instEB4","40","40","30","1","","0","0"
"","psychophysics","145","518752","0.0-145.0","5d6494874e9aae0019598b14","64de826425f42136dcbc62ec","","","","","567",""," ","key"," ","16.64963636363532","500","250","inst","","","","","","",""
"","psychophysics","146","523468","0.0-146.0","5d6494874e9aae0019598b14","64de826425f42136dcbc62ec","","","","","4715",""," ","key"," ","16.66590070922001","500","250","eb","38","53","37","1","","0","0"
"","psychophysics","147","526915","0.0-147.0","5d6494874e9aae0019598b14","64de826425f42136dcbc62ec","","","","","3445",""," ","key"," ","16.748336585365497","500","250","eb","28","30","32","1","","0","0"
"","psychophysics","148","529888","0.0-148.0","5d6494874e9aae0019598b14","64de826425f42136dcbc62ec","","","","","2972",""," ","key"," ","16.66914124293766","500","250","eb","27","24","30","1","","0","0"
"","psychophysics","149","534281","0.0-149.0","5d6494874e9aae0019598b14","64de826425f42136dcbc62ec","","","","","4392",""," ","key"," ","16.728629770992193","500","250","eb","30","24","38","1","","0","0"
"","psychophysics","150","538265","0.0-150.0","5d6494874e9aae0019598b14","64de826425f42136dcbc62ec","","","","","3983",""," ","key"," ","16.666525210084163","500","250","eb","24","49","26","1","","0","0"
"","psychophysics","151","543016","0.0-151.0","5d6494874e9aae0019598b14","64de826425f42136dcbc62ec","","","","","4750",""," ","key"," ","16.666461267605307","500","250","eb","47","40","51","1","","0","0"
"","psychophysics","152","547888","0.0-152.0","5d6494874e9aae0019598b14","64de826425f42136dcbc62ec","","","","","4870",""," ","key"," ","16.667498281786838","500","250","eb","26","51","28","1","","0","0"
"","psychophysics","153","550624","0.0-153.0","5d6494874e9aae0019598b14","64de826425f42136dcbc62ec","","","","","2735",""," ","key"," ","16.66735582822074","500","250","eb","32","29","36","1","","0","0"
"","psychophysics","154","554256","0.0-154.0","5d6494874e9aae0019598b14","64de826425f42136dcbc62ec","","","","","3631",""," ","key"," ","16.66666820276505","500","250","eb","37","44","39","1","","0","0"
"","psychophysics","155","558448","0.0-155.0","5d6494874e9aae0019598b14","64de826425f42136dcbc62ec","","","","","4191",""," ","key"," ","16.666776892430413","500","250","eb","32","24","34","1","","0","0"
"","psychophysics","156","562457","0.0-156.0","5d6494874e9aae0019598b14","64de826425f42136dcbc62ec","","","","","4008",""," ","key"," ","16.66679079497913","500","250","eb","27","37","30","1","","0","0"
"","psychophysics","157","567872","0.0-157.0","5d6494874e9aae0019598b14","64de826425f42136dcbc62ec","","","","","5414",""," ","key"," ","16.66808333333343","500","250","eb","25","49","27","1","","0","0"
"","psychophysics","158","571488","0.0-158.0","5d6494874e9aae0019598b14","64de826425f42136dcbc62ec","","","","","3615",""," ","key"," ","16.74418139534916","500","250","eb","29","52","31","1","","0","0"
"","psychophysics","159","574376","0.0-159.0","5d6494874e9aae0019598b14","64de826425f42136dcbc62ec","","","","","2886",""," ","key"," ","16.762654970760174","500","250","eb","41","41","43","1","","0","0"
"","psychophysics","160","576666","0.0-160.0","5d6494874e9aae0019598b14","64de826425f42136dcbc62ec","","","","","2289",""," ","key"," ","16.666182481751772","500","250","eb","30","30","35","1","","0","0"
"","psychophysics","161","577272","0.0-161.0","5d6494874e9aae0019598b14","64de826425f42136dcbc62ec","","","","","605",""," ","key"," ","16.680971428572335","500","250","inst","","","","","","",""
"","psychophysics","162","578761","0.0-162.0","5d6494874e9aae0019598b14","64de826425f42136dcbc62ec","","","","","1488",""," ","key"," ","16.672579545454937","500","250","instBr3","39","40","300","1","","0","0"
"","psychophysics","163","579568","0.0-163.0","5d6494874e9aae0019598b14","64de826425f42136dcbc62ec","","","","","803",""," ","key"," ","16.673895833332306","500","250","inst","","","","","","",""
"","psychophysics","164","582024","0.0-164.0","5d6494874e9aae0019598b14","64de826425f42136dcbc62ec","","","","","2455",""," ","key"," ","16.664232876712347","500","250","br","-11","22","299","1","1","-17","13"
"","psychophysics","165","584233","0.0-165.0","5d6494874e9aae0019598b14","64de826425f42136dcbc62ec","","","","","2207",""," ","key"," ","16.671984848484332","500","250","br","-13","-17","265","1","1","-4","-10"
"","psychophysics","166","587048","0.0-166.0","5d6494874e9aae0019598b14","64de826425f42136dcbc62ec","","","","","2814",""," ","key"," ","16.66636309523823","500","250","br","-5","25","295","1","1","-27","5"
"","psychophysics","167","589056","0.0-167.0","5d6494874e9aae0019598b14","64de826425f42136dcbc62ec","","","","","2007",""," ","key"," ","16.67084033613508","500","250","br","-12","-4","206","1","1","-9","-22"
"","psychophysics","168","592192","0.0-168.0","5d6494874e9aae0019598b14","64de826425f42136dcbc62ec","","","","","3135",""," ","key"," ","16.667427807486675","500","250","br","-16","-30","217","1","1","23","17"
"","psychophysics","169","595056","0.0-169.0","5d6494874e9aae0019598b14","64de826425f42136dcbc62ec","","","","","2863",""," ","key"," ","16.66787719298277","500","250","br","-11","4","296","1","1","15","26"
"","psychophysics","170","596720","0.0-170.0","5d6494874e9aae0019598b14","64de826425f42136dcbc62ec","","","","","1663",""," ","key"," ","16.6727474747482","500","250","br","-20","-23","283","1","1","23","11"
"","psychophysics","171","598008","0.0-171.0","5d6494874e9aae0019598b14","64de826425f42136dcbc62ec","","","","","1287",""," ","key"," ","16.666407894736807","500","250","br","-20","-19","264","1","1","-4","23"
"","psychophysics","172","600808","0.0-172.0","5d6494874e9aae0019598b14","64de826425f42136dcbc62ec","","","","","2800",""," ","key"," ","16.663101796407258","500","250","br","-8","-1","224","1","1","-5","-12"
"","psychophysics","173","604800","0.0-173.0","5d6494874e9aae0019598b14","64de826425f42136dcbc62ec","","","","","3991",""," ","key"," ","16.666824267782605","500","250","br","-6","-26","210","1","1","18","12"
"","psychophysics","174","606912","0.0-174.0","5d6494874e9aae0019598b14","64de826425f42136dcbc62ec","","","","","2111",""," ","key"," ","16.673412698413436","500","250","br","-15","-3","295","1","1","-25","-14"
"","psychophysics","175","609697","0.0-175.0","5d6494874e9aae0019598b14","64de826425f42136dcbc62ec","","","","","2782",""," ","key"," ","16.7669333333333","500","250","br","-5","27","201","1","1","-21","-20"
"","psychophysics","176","612681","0.0-176.0","5d6494874e9aae0019598b14","64de826425f42136dcbc62ec","","","","","2982",""," ","key"," ","16.759062146892283","500","250","br","-3","25","247","1","1","-28","26"
"","psychophysics","177","616520","0.0-177.0","5d6494874e9aae0019598b14","64de826425f42136dcbc62ec","","","","","3837",""," ","key"," ","16.666519650655157","500","250","br","-8","11","279","1","1","5","22"
"","psychophysics","178","619081","0.0-178.0","5d6494874e9aae0019598b14","64de826425f42136dcbc62ec","","","","","2561",""," ","key"," ","16.667124183006962","500","250","br","-3","19","252","1","1","26","-14"
"","psychophysics","179","619704","0.0-179.0","5d6494874e9aae0019598b14","64de826425f42136dcbc62ec","","","","","622",""," ","key"," ","16.670666666665866","500","250","inst","","","","","","",""
"","psychophysics","180","621016","0.0-180.0","5d6494874e9aae0019598b14","64de826425f42136dcbc62ec","","","","","1311",""," ","key"," ","16.66984615384643","500","250","instPz1","25","25","50","2","","",""
"","psychophysics","181","621600","0.0-181.0","5d6494874e9aae0019598b14","64de826425f42136dcbc62ec","","","","","582",""," ","key"," ","16.667499999998494","500","250","instPz2","20","20","35","2","","",""
"","psychophysics","182","622904","0.0-182.0","5d6494874e9aae0019598b14","64de826425f42136dcbc62ec","","","","","1302",""," ","key"," ","16.887328947368875","500","250","instPz3","30","30","100","2","","",""
"","psychophysics","183","623531","0.0-183.0","5d6494874e9aae0019598b14","64de826425f42136dcbc62ec","","","","","626",""," ","key"," ","16.668270270270924","500","250","instPz4","30","30","100","2","","",""
"","psychophysics","184","624097","0.0-184.0","5d6494874e9aae0019598b14","64de826425f42136dcbc62ec","","","","","565",""," ","key"," ","16.667575757576603","500","250","inst","","","","","","",""
"","psychophysics","185","626320","0.0-185.0","5d6494874e9aae0019598b14","64de826425f42136dcbc62ec","","","","","2221",""," ","key"," ","16.669083333333468","500","250","pz","30","26","39","2","1","",""
"","psychophysics","186","630592","0.0-186.0","5d6494874e9aae0019598b14","64de826425f42136dcbc62ec","","","","","4272",""," ","key"," ","16.667490196078287","500","250","pz","34","48","39","2","1","",""
"","psychophysics","187","635129","0.0-187.0","5d6494874e9aae0019598b14","64de826425f42136dcbc62ec","","","","","4534",""," ","key"," ","16.727110701107087","500","250","pz","42","25","52","2","1","",""
"","psychophysics","188","638009","0.0-188.0","5d6494874e9aae0019598b14","64de826425f42136dcbc62ec","","","","","2878",""," ","key"," ","16.669988304093394","500","250","pz","36","24","40","2","1","",""
"","psychophysics","189","641383","0.0-189.0","5d6494874e9aae0019598b14","64de826425f42136dcbc62ec","","","","","3374",""," ","key"," ","16.667212871287138","500","250","pz","38","25","45","2","1","",""
"","psychophysics","190","645082","0.0-190.0","5d6494874e9aae0019598b14","64de826425f42136dcbc62ec","","","","","3697",""," ","key"," ","16.667683257918377","500","250","pz","45","40","58","2","1","",""
"","psychophysics","191","649384","0.0-191.0","5d6494874e9aae0019598b14","64de826425f42136dcbc62ec","","","","","4300",""," ","key"," ","16.79515294117634","500","250","pz","21","49","22","2","1","",""
"","psychophysics","192","654704","0.0-192.0","5d6494874e9aae0019598b14","64de826425f42136dcbc62ec","","","","","5319",""," ","key"," ","16.667688679245135","500","250","pz","39","29","47","2","1","",""
"","psychophysics","193","659384","0.0-193.0","5d6494874e9aae0019598b14","64de826425f42136dcbc62ec","","","","","4679",""," ","key"," ","16.72608243727616","500","250","pz","23","44","28","2","1","",""
"","psychophysics","194","665952","0.0-194.0","5d6494874e9aae0019598b14","64de826425f42136dcbc62ec","","","","","6566",""," ","key"," ","16.710252551020393","500","250","pz","16","27","20","2","1","",""
"","psychophysics","195","669345","0.0-195.0","5d6494874e9aae0019598b14","64de826425f42136dcbc62ec","","","","","3392",""," ","key"," ","16.665660098521958","500","250","pz","43","32","53","2","1","",""
"","psychophysics","196","672856","0.0-196.0","5d6494874e9aae0019598b14","64de826425f42136dcbc62ec","","","","","3509",""," ","key"," ","16.669749999999812","500","250","pz","41","59","49","2","1","",""
"","psychophysics","197","675328","0.0-197.0","5d6494874e9aae0019598b14","64de826425f42136dcbc62ec","","","","","2471",""," ","key"," ","16.668344594594846","500","250","pz","24","31","27","2","1","",""
"","psychophysics","198","678960","0.0-198.0","5d6494874e9aae0019598b14","64de826425f42136dcbc62ec","","","","","3629",""," ","key"," ","16.666745370370336","500","250","pz","48","27","58","2","1","",""
"","psychophysics","199","681824","0.0-199.0","5d6494874e9aae0019598b14","64de826425f42136dcbc62ec","","","","","2859",""," ","key"," ","16.868479289941092","500","250","pz","32","29","31","2","1","",""
"","psychophysics","200","682513","0.0-200.0","5d6494874e9aae0019598b14","64de826425f42136dcbc62ec","","","","","689",""," ","key"," ","16.6763902439043","500","250","inst","","","","","","",""
"","psychophysics","201","685336","0.0-201.0","5d6494874e9aae0019598b14","64de826425f42136dcbc62ec","","","","","2822",""," ","key"," ","16.66724999999999","500","250","instPog0","172","190","160","1","","0","0"
"","psychophysics","202","685816","0.0-202.0","5d6494874e9aae0019598b14","64de826425f42136dcbc62ec","","","","","479",""," ","key"," ","16.635107142859074","500","250","instPog1","190","190","160","1","","0","0"
"","psychophysics","203","686288","0.0-203.0","5d6494874e9aae0019598b14","64de826425f42136dcbc62ec","","","","","471",""," ","key"," ","16.663518518519897","500","250","instPog2","160","160","160","1","","0","0"
"","psychophysics","204","686808","0.0-204.0","5d6494874e9aae0019598b14","64de826425f42136dcbc62ec","","","","","519",""," ","key"," ","16.66813333333315","500","250","inst","","","","","","",""
"","psychophysics","205","691683","0.0-205.0","5d6494874e9aae0019598b14","64de826425f42136dcbc62ec","","","","","4874",""," ","key"," ","16.724274914089232","500","250","pog","146","208","136","1","1","0","0"
"","psychophysics","206","695232","0.0-206.0","5d6494874e9aae0019598b14","64de826425f42136dcbc62ec","","","","","3548",""," ","key"," ","16.74656872037893","500","250","pog","175","121","170","1","1","0","0"
"","psychophysics","207","698120","0.0-207.0","5d6494874e9aae0019598b14","64de826425f42136dcbc62ec","","","","","2887",""," ","key"," ","16.66819186046514","500","250","pog","186","136","187","1","1","0","0"
"","psychophysics","208","699184","0.0-208.0","5d6494874e9aae0019598b14","64de826425f42136dcbc62ec","","","","","1063",""," ","key"," ","16.67366666666838","500","250","pog","173","171","167","1","1","0","0"
"","psychophysics","209","703416","0.0-209.0","5d6494874e9aae0019598b14","64de826425f42136dcbc62ec","","","","","4231",""," ","key"," ","16.667474308300566","500","250","pog","155","195","144","1","1","0","0"
"","psychophysics","210","704929","0.0-210.0","5d6494874e9aae0019598b14","64de826425f42136dcbc62ec","","","","","1512",""," ","key"," ","16.661377777778803","500","250","pog","137","135","140","1","1","0","0"
"","psychophysics","211","707864","0.0-211.0","5d6494874e9aae0019598b14","64de826425f42136dcbc62ec","","","","","2932",""," ","key"," ","16.667525714285272","500","250","pog","185","149","180","1","1","0","0"
"","psychophysics","212","711529","0.0-212.0","5d6494874e9aae0019598b14","64de826425f42136dcbc62ec","","","","","3664",""," ","key"," ","16.666470319634946","500","250","pog","174","206","163","1","1","0","0"
"","psychophysics","213","714288","0.0-213.0","5d6494874e9aae0019598b14","64de826425f42136dcbc62ec","","","","","2757",""," ","key"," ","16.768779141104215","500","250","pog","201","167","196","1","1","0","0"
"","psychophysics","214","717784","0.0-214.0","5d6494874e9aae0019598b14","64de826425f42136dcbc62ec","","","","","3495",""," ","key"," ","16.66458373205763","500","250","pog","177","121","170","1","1","0","0"
"","psychophysics","215","721336","0.0-215.0","5d6494874e9aae0019598b14","64de826425f42136dcbc62ec","","","","","3551",""," ","key"," ","16.66984433962311","500","250","pog","169","135","162","1","1","0","0"
"","psychophysics","216","726640","0.0-216.0","5d6494874e9aae0019598b14","64de826425f42136dcbc62ec","","","","","5304",""," ","key"," ","16.719306962025247","500","250","pog","135","189","125","1","1","0","0"
"","psychophysics","217","730352","0.0-217.0","5d6494874e9aae0019598b14","64de826425f42136dcbc62ec","","","","","3711",""," ","key"," ","16.66691441441412","500","250","pog","202","122","194","1","1","0","0"
"","psychophysics","218","733066","0.0-218.0","5d6494874e9aae0019598b14","64de826425f42136dcbc62ec","","","","","2713",""," ","key"," ","16.665092592592565","500","250","pog","184","206","177","1","1","0","0"
"","psychophysics","219","735720","0.0-219.0","5d6494874e9aae0019598b14","64de826425f42136dcbc62ec","","","","","2653",""," ","key"," ","16.664943037974602","500","250","pog","133","157","124","1","1","0","0"
