"success","trial_type","trial_index","time_elapsed","internal_node_id","pid","sid","timeout","failed_images","failed_audio","failed_video","rt","stimulus","response","response_type","key_press","avg_frame_time","center_x","center_y","task","resp","version","block","jitterX","jitterY","start","parA"
"true","fullscreen","0","9182","0.0-0.0","55a2fa33fdf99b073cd94947","64e50b81e019272f8535c9c0","","","","","","","","","","","","","","","","","","","",""
"true","preload","1","9613","0.0-1.0","55a2fa33fdf99b073cd94947","64e50b81e019272f8535c9c0","false","[]","[]","[]","","","","","","","","","","","","","","","",""
"","html-button-response","2","21145","0.0-2.0","55a2fa33fdf99b073cd94947","64e50b81e019272f8535c9c0","","","","","11529","Please Make Sure Your Audio Is On.","0","","","","","","","","","","","","",""
"","psychophysics","3","36563","0.0-3.0","55a2fa33fdf99b073cd94947","64e50b81e019272f8535c9c0","","","","","15403",""," ","key"," ","16.793694989106754","960","250","","","","","","","",""
"","psychophysics","4","39665","0.0-4.0","55a2fa33fdf99b073cd94947","64e50b81e019272f8535c9c0","","","","","3070",""," ","key"," ","16.66657297297297","500","250","inst","","","","","","",""
"","psychophysics","5","42762","0.0-5.0","55a2fa33fdf99b073cd94947","64e50b81e019272f8535c9c0","","","","","3093",""," ","key"," ","16.666670270270245","500","250","sample0","","","","","","",""
"","psychophysics","6","46754","0.0-6.0","55a2fa33fdf99b073cd94947","64e50b81e019272f8535c9c0","","","","","3987",""," ","key"," ","16.66663865546217","500","250","sample1","","","","","","",""
"","psychophysics","7","62305","0.0-7.0","55a2fa33fdf99b073cd94947","64e50b81e019272f8535c9c0","","","","","15548",""," ","key"," ","16.66650965665236","500","250","sample2","100","","","","","",""
"","psychophysics","8","67106","0.0-8.0","55a2fa33fdf99b073cd94947","64e50b81e019272f8535c9c0","","","","","4797",""," ","key"," ","16.66670034843206","500","250","sample3","100","","","","","",""
"","psychophysics","9","77842","0.0-9.0","55a2fa33fdf99b073cd94947","64e50b81e019272f8535c9c0","","","","","10732",""," ","key"," ","16.66655209953345","500","250","sample4","100","","","","","",""
"","psychophysics","10","82970","0.0-10.0","55a2fa33fdf99b073cd94947","64e50b81e019272f8535c9c0","","","","","5118",""," ","key"," ","16.666609120521187","500","250","sample5","","","","","","",""
"","psychophysics","11","93089","0.0-11.0","55a2fa33fdf99b073cd94947","64e50b81e019272f8535c9c0","","","","","10115",""," ","key"," ","16.66651980198021","500","250","sample6","502","","","","","",""
"","psychophysics","12","98218","0.0-12.0","55a2fa33fdf99b073cd94947","64e50b81e019272f8535c9c0","","","","","5126",""," ","key"," ","16.666511400651487","500","250","inst","","","","","","",""
"","psychophysics","13","100418","0.0-13.0","55a2fa33fdf99b073cd94947","64e50b81e019272f8535c9c0","","","","","2197",""," ","key"," ","16.666320610687027","500","250","inst","","","","","","",""
"","psychophysics","14","103962","0.0-14.0","55a2fa33fdf99b073cd94947","64e50b81e019272f8535c9c0","","","","","3541",""," ","key"," ","16.66670283018868","500","250","inst","","","","","","",""
"","psychophysics","15","105905","0.0-15.0","55a2fa33fdf99b073cd94947","64e50b81e019272f8535c9c0","","","","","1941",""," ","key"," ","16.666034782608673","500","250","inst","","","","","","",""
"","psychophysics","16","108353","0.0-16.0","55a2fa33fdf99b073cd94947","64e50b81e019272f8535c9c0","","","","","2447",""," ","key"," ","16.666308219178","500","250","inst","","","","","","",""
"","psychophysics","17","111001","0.0-17.0","55a2fa33fdf99b073cd94947","64e50b81e019272f8535c9c0","","","","","2644",""," ","key"," ","16.666316455696148","500","250","instBr0","0","","","0","0","0","300"
"","psychophysics","18","124810","0.0-18.0","55a2fa33fdf99b073cd94947","64e50b81e019272f8535c9c0","","","","","13805",""," ","key"," ","16.66665538089481","500","250","instBr1","3","","","0","0","-40","300"
"","psychophysics","19","143041","0.0-19.0","55a2fa33fdf99b073cd94947","64e50b81e019272f8535c9c0","","","","","18224",""," ","key"," ","16.66668069533396","500","250","instBr3","-12","1","","0","0","40","300"
"","psychophysics","20","145497","0.0-20.0","55a2fa33fdf99b073cd94947","64e50b81e019272f8535c9c0","","","","","2453",""," ","key"," ","16.66634693877557","500","250","inst","","","","","","",""
"","psychophysics","21","153501","0.0-21.0","55a2fa33fdf99b073cd94947","64e50b81e019272f8535c9c0","","","","","null","","null","key","null","16.666743215031307","500","250","br","-11","1","0","-8","24","14","217"
"","psychophysics","22","153753","0.0-22.0","55a2fa33fdf99b073cd94947","64e50b81e019272f8535c9c0","","","","","248",""," ","key"," ","16.66557142857138","500","250","br","25","1","0","-30","8","25","234"
"","psychophysics","23","160201","0.0-23.0","55a2fa33fdf99b073cd94947","64e50b81e019272f8535c9c0","","","","","6444",""," ","key"," ","16.66666839378239","500","250","br","-16","1","0","-9","21","20","250"
"","psychophysics","24","165497","0.0-24.0","55a2fa33fdf99b073cd94947","64e50b81e019272f8535c9c0","","","","","5289",""," ","key"," ","16.666378548895892","500","250","br","-11","1","0","-20","-18","-13","251"
"","psychophysics","25","171634","0.0-25.0","55a2fa33fdf99b073cd94947","64e50b81e019272f8535c9c0","","","","","6132",""," ","key"," ","16.666667574931843","500","250","br","-9","1","0","25","21","-4","207"
"","psychophysics","26","177658","0.0-26.0","55a2fa33fdf99b073cd94947","64e50b81e019272f8535c9c0","","","","","6019",""," ","key"," ","16.666502777777755","500","250","br","-10","1","0","-29","-11","-11","276"
"","psychophysics","27","182457","0.0-27.0","55a2fa33fdf99b073cd94947","64e50b81e019272f8535c9c0","","","","","4793",""," ","key"," ","16.724800699300616","500","250","br","-13","1","0","-3","-25","-13","245"
"","psychophysics","28","190462","0.0-28.0","55a2fa33fdf99b073cd94947","64e50b81e019272f8535c9c0","","","","","null","","null","key","null","16.666510416666643","500","250","br","-12","1","0","27","-29","-4","245"
"","psychophysics","29","197682","0.0-29.0","55a2fa33fdf99b073cd94947","64e50b81e019272f8535c9c0","","","","","7214",""," ","key"," ","16.666627314814832","500","250","br","-10","1","0","4","-7","-25","252"
"","psychophysics","30","204426","0.0-30.0","55a2fa33fdf99b073cd94947","64e50b81e019272f8535c9c0","","","","","6739",""," ","key"," ","16.666476426798997","500","250","br","-11","1","0","-19","30","16","284"
"","psychophysics","31","209666","0.0-31.0","55a2fa33fdf99b073cd94947","64e50b81e019272f8535c9c0","","","","","5233",""," ","key"," ","16.66662738853502","500","250","br","-8","1","0","-5","10","-15","220"
"","psychophysics","32","215282","0.0-32.0","55a2fa33fdf99b073cd94947","64e50b81e019272f8535c9c0","","","","","5612",""," ","key"," ","16.66655357142857","500","250","br","-8","1","0","-21","-22","-16","210"
"","psychophysics","33","223285","0.0-33.0","55a2fa33fdf99b073cd94947","64e50b81e019272f8535c9c0","","","","","null","","null","key","null","16.66651565762004","500","250","br","-12","1","0","18","5","10","232"
"","psychophysics","34","223290","0.0-34.0","55a2fa33fdf99b073cd94947","64e50b81e019272f8535c9c0","","","","","0",""," ","key"," ","NaN","500","250","br","-22","1","0","13","2","-22","229"
"","psychophysics","35","228793","0.0-35.0","55a2fa33fdf99b073cd94947","64e50b81e019272f8535c9c0","","","","","5500",""," ","key"," ","16.666592705167197","500","250","br","-11","1","0","-2","6","-19","222"
"","psychophysics","36","235249","0.0-36.0","55a2fa33fdf99b073cd94947","64e50b81e019272f8535c9c0","","","","","6445",""," ","key"," ","16.6664780361757","500","250","inst","","","","","","",""
"","psychophysics","37","249097","0.0-37.0","55a2fa33fdf99b073cd94947","64e50b81e019272f8535c9c0","","","","","13846",""," ","key"," ","16.66671927710844","500","250","instPog0","160","1","","0","0","190","160"
"","psychophysics","38","253089","0.0-38.0","55a2fa33fdf99b073cd94947","64e50b81e019272f8535c9c0","","","","","3989",""," ","key"," ","16.66660924369744","500","250","instPog1","190","1","","0","0","190","160"
"","psychophysics","39","265153","0.0-39.0","55a2fa33fdf99b073cd94947","64e50b81e019272f8535c9c0","","","","","12060",""," ","key"," ","16.666609958506186","500","250","instPog2","188","1","","0","0","160","160"
"","psychophysics","40","266698","0.0-40.0","55a2fa33fdf99b073cd94947","64e50b81e019272f8535c9c0","","","","","1542",""," ","key"," ","16.66591304347853","500","250","inst","","","","","","",""
"","psychophysics","41","271017","0.0-41.0","55a2fa33fdf99b073cd94947","64e50b81e019272f8535c9c0","","","","","4316",""," ","key"," ","16.66649999999998","500","250","pog","174","1","0","0","0","182","137"
"","psychophysics","42","277817","0.0-42.0","55a2fa33fdf99b073cd94947","64e50b81e019272f8535c9c0","","","","","6796",""," ","key"," ","16.666515970515963","500","250","pog","187","1","0","0","0","153","155"
"","psychophysics","43","284946","0.0-43.0","55a2fa33fdf99b073cd94947","64e50b81e019272f8535c9c0","","","","","7122",""," ","key"," ","16.66668618266976","500","250","pog","207","1","0","0","0","143","177"
"","psychophysics","44","292948","0.0-44.0","55a2fa33fdf99b073cd94947","64e50b81e019272f8535c9c0","","","","","null","","null","key","null","16.66654070981208","500","250","pog","196","1","0","0","0","120","161"
"","psychophysics","45","293217","0.0-45.0","55a2fa33fdf99b073cd94947","64e50b81e019272f8535c9c0","","","","","265",""," ","key"," ","16.669133333330198","500","250","pog","146","1","0","0","0","146","140"
"","psychophysics","46","299641","0.0-46.0","55a2fa33fdf99b073cd94947","64e50b81e019272f8535c9c0","","","","","6421",""," ","key"," ","16.66652083333338","500","250","pog","224","1","0","0","0","140","191"
"","psychophysics","47","303929","0.0-47.0","55a2fa33fdf99b073cd94947","64e50b81e019272f8535c9c0","","","","","4282",""," ","key"," ","16.666058365758627","500","250","pog","207","1","0","0","0","181","179"
"","psychophysics","48","311569","0.0-48.0","55a2fa33fdf99b073cd94947","64e50b81e019272f8535c9c0","","","","","7636",""," ","key"," ","16.666698030634535","500","250","pog","171","1","0","0","0","153","142"
"","psychophysics","49","315689","0.0-49.0","55a2fa33fdf99b073cd94947","64e50b81e019272f8535c9c0","","","","","4116",""," ","key"," ","16.666195121951063","500","250","pog","207","1","0","0","0","187","174"
"","psychophysics","50","321146","0.0-50.0","55a2fa33fdf99b073cd94947","64e50b81e019272f8535c9c0","","","","","5453",""," ","key"," ","16.666501529051978","500","250","pog","207","1","0","0","0","137","176"
"","psychophysics","51","327289","0.0-51.0","55a2fa33fdf99b073cd94947","64e50b81e019272f8535c9c0","","","","","6139",""," ","key"," ","16.666596730245242","500","250","pog","182","1","0","0","0","116","156"
"","psychophysics","52","332857","0.0-52.0","55a2fa33fdf99b073cd94947","64e50b81e019272f8535c9c0","","","","","5564",""," ","key"," ","16.66662762762752","500","250","pog","158","1","0","0","0","124","130"
"","psychophysics","53","339258","0.0-53.0","55a2fa33fdf99b073cd94947","64e50b81e019272f8535c9c0","","","","","6394",""," ","key"," ","16.666530026109555","500","250","pog","201","1","0","0","0","125","174"
"","psychophysics","54","345297","0.0-54.0","55a2fa33fdf99b073cd94947","64e50b81e019272f8535c9c0","","","","","6034",""," ","key"," ","16.666522099447562","500","250","pog","224","1","0","0","0","152","194"
"","psychophysics","55","349738","0.0-55.0","55a2fa33fdf99b073cd94947","64e50b81e019272f8535c9c0","","","","","4437",""," ","key"," ","16.66648301886799","500","250","pog","212","1","0","0","0","184","189"
"","psychophysics","56","351482","0.0-56.0","55a2fa33fdf99b073cd94947","64e50b81e019272f8535c9c0","","","","","1741",""," ","key"," ","16.66653846153853","500","250","inst","","","","","","",""
"","psychophysics","57","353522","0.0-57.0","55a2fa33fdf99b073cd94947","64e50b81e019272f8535c9c0","","","","","2036",""," ","key"," ","16.666991735537238","500","250","instEB0","40","1","","0","0","40","40"
"","psychophysics","58","363673","0.0-58.0","55a2fa33fdf99b073cd94947","64e50b81e019272f8535c9c0","","","","","10149",""," ","key"," ","16.666674342105246","500","250","instEB1","29","1","","0","0","40","30"
"","psychophysics","59","373802","0.0-59.0","55a2fa33fdf99b073cd94947","64e50b81e019272f8535c9c0","","","","","10121",""," ","key"," ","16.666574958813893","500","250","instEB2","38","1","","0","0","30","40"
"","psychophysics","60","386538","0.0-60.0","55a2fa33fdf99b073cd94947","64e50b81e019272f8535c9c0","","","","","12732",""," ","key"," ","16.66673656618615","500","250","instEB3","40","1","","0","0","27","45"
"","psychophysics","61","396122","0.0-61.0","55a2fa33fdf99b073cd94947","64e50b81e019272f8535c9c0","","","","","9570",""," ","key"," ","16.66637979094083","500","250","instEB4","27","1","","0","0","40","30"
"","psychophysics","62","397841","0.0-62.0","55a2fa33fdf99b073cd94947","64e50b81e019272f8535c9c0","","","","","1718",""," ","key"," ","16.66654901960739","500","250","inst","","","","","","",""
"","psychophysics","63","402642","0.0-63.0","55a2fa33fdf99b073cd94947","64e50b81e019272f8535c9c0","","","","","4790",""," ","key"," ","16.666470383275268","500","250","eb","22","1","","0","0","27","25"
"","psychophysics","64","409025","0.0-64.0","55a2fa33fdf99b073cd94947","64e50b81e019272f8535c9c0","","","","","6374",""," ","key"," ","16.666683246073323","500","250","eb","26","1","","0","0","31","30"
"","psychophysics","65","416410","0.0-65.0","55a2fa33fdf99b073cd94947","64e50b81e019272f8535c9c0","","","","","7376",""," ","key"," ","16.66660633484153","500","250","eb","24","1","","0","0","44","25"
"","psychophysics","66","422569","0.0-66.0","55a2fa33fdf99b073cd94947","64e50b81e019272f8535c9c0","","","","","6149",""," ","key"," ","16.666525745257385","500","250","eb","27","1","","0","0","48","30"
"","psychophysics","67","430338","0.0-67.0","55a2fa33fdf99b073cd94947","64e50b81e019272f8535c9c0","","","","","7764",""," ","key"," ","16.66654838709679","500","250","eb","29","1","","0","0","27","34"
"","psychophysics","68","437450","0.0-68.0","55a2fa33fdf99b073cd94947","64e50b81e019272f8535c9c0","","","","","7102",""," ","key"," ","16.666521126760617","500","250","eb","49","1","","0","0","45","51"
"","psychophysics","69","443474","0.0-69.0","55a2fa33fdf99b073cd94947","64e50b81e019272f8535c9c0","","","","","6018",""," ","key"," ","16.666613888888808","500","250","eb","46","1","","0","0","35","52"
"","psychophysics","70","447602","0.0-70.0","55a2fa33fdf99b073cd94947","64e50b81e019272f8535c9c0","","","","","4120",""," ","key"," ","16.666627530364398","500","250","eb","31","1","","0","0","36","34"
"","psychophysics","71","454362","0.0-71.0","55a2fa33fdf99b073cd94947","64e50b81e019272f8535c9c0","","","","","6756",""," ","key"," ","16.6665654320987","500","250","eb","23","1","","0","0","32","25"
"","psychophysics","72","462366","0.0-72.0","55a2fa33fdf99b073cd94947","64e50b81e019272f8535c9c0","","","","","null","","null","key","null","16.666716075156614","500","250","eb","32","1","","0","0","25","34"
"","psychophysics","73","462402","0.0-73.0","55a2fa33fdf99b073cd94947","64e50b81e019272f8535c9c0","","","","","30",""," ","key"," ","16.655999999959022","500","250","eb","36","1","","0","0","36","52"
"","psychophysics","74","470305","0.0-74.0","55a2fa33fdf99b073cd94947","64e50b81e019272f8535c9c0","","","","","7899",""," ","key"," ","16.6667124735729","500","250","eb","44","1","","0","0","36","47"
"","psychophysics","75","475849","0.0-75.0","55a2fa33fdf99b073cd94947","64e50b81e019272f8535c9c0","","","","","5539",""," ","key"," ","16.66643373493974","500","250","eb","42","1","","0","0","41","46"
"","psychophysics","76","481033","0.0-76.0","55a2fa33fdf99b073cd94947","64e50b81e019272f8535c9c0","","","","","5180",""," ","key"," ","16.666890322580567","500","250","eb","22","1","","0","0","31","24"
"","psychophysics","77","486889","0.0-77.0","55a2fa33fdf99b073cd94947","64e50b81e019272f8535c9c0","","","","","5847",""," ","key"," ","16.666654285714195","500","250","eb","52","1","","0","0","44","54"
"","psychophysics","78","489073","0.0-78.0","55a2fa33fdf99b073cd94947","64e50b81e019272f8535c9c0","","","","","2181",""," ","key"," ","16.666446153846426","500","250","inst","","","","","","",""
"","psychophysics","79","490978","0.0-79.0","55a2fa33fdf99b073cd94947","64e50b81e019272f8535c9c0","","","","","1902",""," ","key"," ","16.666535087719687","500","250","instZol0","0","","","0","0","0",""
"","psychophysics","80","502721","0.0-80.0","55a2fa33fdf99b073cd94947","64e50b81e019272f8535c9c0","","","","","11740",""," ","key"," ","16.66655192034141","500","250","instZol1","-0.19999999999999998","","","0","0","-1.3",""
"","psychophysics","81","506953","0.0-81.0","55a2fa33fdf99b073cd94947","64e50b81e019272f8535c9c0","","","","","4228",""," ","key"," ","16.666750988142386","500","250","instZol2","-3.6000000000000014","2","","0","0","2",""
"","psychophysics","82","509433","0.0-82.0","55a2fa33fdf99b073cd94947","64e50b81e019272f8535c9c0","","","","","2478",""," ","key"," ","16.665871621621616","500","250","inst","","","","","","",""
"","psychophysics","83","515884","0.0-83.0","55a2fa33fdf99b073cd94947","64e50b81e019272f8535c9c0","","","","","6444",""," ","key"," ","16.666507772020868","500","250","zol","-2.400000000000001","2","0","-15","29","-0.6",""
"","psychophysics","84","523890","0.0-84.0","55a2fa33fdf99b073cd94947","64e50b81e019272f8535c9c0","","","","","null","","null","key","null","16.666620041753625","500","250","zol","-3.3800000000000017","2","0","18","15","-0.32",""
"","psychophysics","85","530010","0.0-85.0","55a2fa33fdf99b073cd94947","64e50b81e019272f8535c9c0","","","","","6105",""," ","key"," ","16.66662295081982","500","250","zol","-2.530000000000001","2","0","20","2","-0.07",""
"","psychophysics","86","534754","0.0-86.0","55a2fa33fdf99b073cd94947","64e50b81e019272f8535c9c0","","","","","4734",""," ","key"," ","16.666609154929716","500","250","zol","-1.9000000000000006","2","0","-17","-19","-0.2",""
"","psychophysics","87","539338","0.0-87.0","55a2fa33fdf99b073cd94947","64e50b81e019272f8535c9c0","","","","","4578",""," ","key"," ","16.666452554744552","500","250","zol","-2.2000000000000006","2","0","8","-17","0.5",""
"","psychophysics","88","544346","0.0-88.0","55a2fa33fdf99b073cd94947","64e50b81e019272f8535c9c0","","","","","4999",""," ","key"," ","16.666316666666727","500","250","zol","-2.4400000000000013","2","0","-22","14","0.04",""
"","psychophysics","89","548843","0.0-89.0","55a2fa33fdf99b073cd94947","64e50b81e019272f8535c9c0","","","","","4490",""," ","key"," ","16.666634328357976","500","250","zol","-2.1800000000000006","2","0","2","12","-0.72",""
"","psychophysics","90","554922","0.0-90.0","55a2fa33fdf99b073cd94947","64e50b81e019272f8535c9c0","","","","","6069",""," ","key"," ","16.6663708791209","500","250","zol","-2.530000000000001","2","0","5","-1","-0.17",""
"","psychophysics","91","561346","0.0-91.0","55a2fa33fdf99b073cd94947","64e50b81e019272f8535c9c0","","","","","6414",""," ","key"," ","16.666677922077852","500","250","zol","-2.510000000000001","2","0","-5","-16","-0.19",""
"","psychophysics","92","567826","0.0-92.0","55a2fa33fdf99b073cd94947","64e50b81e019272f8535c9c0","","","","","6471",""," ","key"," ","16.6665865633073","500","250","zol","-2.370000000000001","2","0","16","-20","-0.43",""
"","psychophysics","93","572018","0.0-93.0","55a2fa33fdf99b073cd94947","64e50b81e019272f8535c9c0","","","","","4184",""," ","key"," ","16.66678486055782","500","250","zol","-1.8400000000000007","2","0","-9","-26","0.14",""
"","psychophysics","94","577947","0.0-94.0","55a2fa33fdf99b073cd94947","64e50b81e019272f8535c9c0","","","","","5922",""," ","key"," ","16.666608450704082","500","250","zol","-1.6300000000000003","2","0","12","-8","0.73",""
"","psychophysics","95","583258","0.0-95.0","55a2fa33fdf99b073cd94947","64e50b81e019272f8535c9c0","","","","","5304",""," ","key"," ","16.666517350157616","500","250","zol","-1.8000000000000005","2","0","-13","2","-0.3",""
"","psychophysics","96","589273","0.0-96.0","55a2fa33fdf99b073cd94947","64e50b81e019272f8535c9c0","","","","","6005",""," ","key"," ","16.66657777777776","500","250","zol","-2.210000000000001","2","0","-3","3","0.51",""
"","psychophysics","97","595049","0.0-97.0","55a2fa33fdf99b073cd94947","64e50b81e019272f8535c9c0","","","","","5766",""," ","key"," ","16.6664942196534","500","250","zol","-1.8200000000000005","2","0","25","-7","-0.68",""
"","psychophysics","98","596394","0.0-98.0","55a2fa33fdf99b073cd94947","64e50b81e019272f8535c9c0","","","","","1340",""," ","key"," ","16.66641772151895","500","250","inst","","","","","","",""
"","psychophysics","99","599706","0.0-99.0","55a2fa33fdf99b073cd94947","64e50b81e019272f8535c9c0","","","","","3306",""," ","key"," ","16.66597474747481","500","250","instPzPre","50","0","","","","50","50"
"","psychophysics","100","601905","0.0-100.0","55a2fa33fdf99b073cd94947","64e50b81e019272f8535c9c0","","","","","2187",""," ","key"," ","16.66656488549579","500","250","instPz0","51","2","","","","50","50"
"","psychophysics","101","609778","0.0-101.0","55a2fa33fdf99b073cd94947","64e50b81e019272f8535c9c0","","","","","7870",""," ","key"," ","16.666569915254083","500","250","instPz1","45","2","","","","25","50"
"","psychophysics","102","616073","0.0-102.0","55a2fa33fdf99b073cd94947","64e50b81e019272f8535c9c0","","","","","6291",""," ","key"," ","16.66660904255324","500","250","instPz2","32","2","","","","20","35"
"","psychophysics","103","620218","0.0-103.0","55a2fa33fdf99b073cd94947","64e50b81e019272f8535c9c0","","","","","4133",""," ","key"," ","16.734076923077083","500","250","instPz3","30","2","","","","30","100"
"","psychophysics","104","635170","0.0-104.0","55a2fa33fdf99b073cd94947","64e50b81e019272f8535c9c0","","","","","14948",""," ","key"," ","16.666689732142782","500","250","instPz4","68","2","","","","30","100"
"","psychophysics","105","640769","0.0-105.0","55a2fa33fdf99b073cd94947","64e50b81e019272f8535c9c0","","","","","5596",""," ","key"," ","16.66634029850725","500","250","inst","","","","","","",""
"","psychophysics","106","647153","0.0-106.0","55a2fa33fdf99b073cd94947","64e50b81e019272f8535c9c0","","","","","6379",""," ","key"," ","16.66656020942421","500","250","pz","35","2","0","","","44","42"
"","psychophysics","107","654233","0.0-107.0","55a2fa33fdf99b073cd94947","64e50b81e019272f8535c9c0","","","","","7076",""," ","key"," ","16.666568396226417","500","250","pz","20","2","0","","","24","25"
"","psychophysics","108","659138","0.0-108.0","55a2fa33fdf99b073cd94947","64e50b81e019272f8535c9c0","","","","","4900",""," ","key"," ","16.666593856655407","500","250","pz","20","2","0","","","34","24"
"","psychophysics","109","663098","0.0-109.0","55a2fa33fdf99b073cd94947","64e50b81e019272f8535c9c0","","","","","3956",""," ","key"," ","16.66647679324926","500","250","pz","22","2","0","","","36","25"
"","psychophysics","110","668531","0.0-110.0","55a2fa33fdf99b073cd94947","64e50b81e019272f8535c9c0","","","","","5427",""," ","key"," ","16.666535384615237","500","250","pz","24","2","0","","","54","29"
"","psychophysics","111","671130","0.0-111.0","55a2fa33fdf99b073cd94947","64e50b81e019272f8535c9c0","","","","","2595",""," ","key"," ","16.666141935483733","500","250","pz","22","2","0","","","23","30"
"","psychophysics","112","676690","0.0-112.0","55a2fa33fdf99b073cd94947","64e50b81e019272f8535c9c0","","","","","5556",""," ","key"," ","16.666653614457914","500","250","pz","33","2","0","","","46","41"
"","psychophysics","113","682417","0.0-113.0","55a2fa33fdf99b073cd94947","64e50b81e019272f8535c9c0","","","","","5721",""," ","key"," ","16.66659475218657","500","250","pz","33","2","0","","","31","46"
"","psychophysics","114","690423","0.0-114.0","55a2fa33fdf99b073cd94947","64e50b81e019272f8535c9c0","","","","","null","","null","key","null","16.666607515657486","500","250","pz","21","2","0","","","59","30"
"","psychophysics","115","690610","0.0-115.0","55a2fa33fdf99b073cd94947","64e50b81e019272f8535c9c0","","","","","178",""," ","key"," ","16.672099999990316","500","250","pz","32","2","0","","","32","36"
"","psychophysics","116","695618","0.0-116.0","55a2fa33fdf99b073cd94947","64e50b81e019272f8535c9c0","","","","","5001",""," ","key"," ","16.666773333333357","500","250","pz","39","2","0","","","34","56"
"","psychophysics","117","699873","0.0-117.0","55a2fa33fdf99b073cd94947","64e50b81e019272f8535c9c0","","","","","4249",""," ","key"," ","16.66662992125993","500","250","pz","14","2","0","","","26","20"
"","psychophysics","118","705026","0.0-118.0","55a2fa33fdf99b073cd94947","64e50b81e019272f8535c9c0","","","","","5144",""," ","key"," ","16.666542207792343","500","250","pz","33","2","0","","","21","41"
"","psychophysics","119","711121","0.0-119.0","55a2fa33fdf99b073cd94947","64e50b81e019272f8535c9c0","","","","","6089",""," ","key"," ","16.66672328767137","500","250","pz","21","2","0","","","47","22"
"","psychophysics","120","716393","0.0-120.0","55a2fa33fdf99b073cd94947","64e50b81e019272f8535c9c0","","","","","5268",""," ","key"," ","16.666720634920612","500","250","pz","37","2","0","","","45","52"
"","psychophysics","121","717857","0.0-121.0","55a2fa33fdf99b073cd94947","64e50b81e019272f8535c9c0","","","","","1458",""," ","key"," ","16.666563218389907","500","250","inst","","","","","","",""
"","psychophysics","122","724185","0.0-122.0","55a2fa33fdf99b073cd94947","64e50b81e019272f8535c9c0","","","","","6325",""," ","key"," ","16.66666226912908","500","250","instEB1","43","2","","0","0","30","40"
"","psychophysics","123","729065","0.0-123.0","55a2fa33fdf99b073cd94947","64e50b81e019272f8535c9c0","","","","","4876",""," ","key"," ","16.666636986301555","500","250","instEB2","38","2","","0","0","40","30"
"","psychophysics","124","738617","0.0-124.0","55a2fa33fdf99b073cd94947","64e50b81e019272f8535c9c0","","","","","9546",""," ","key"," ","16.666650349650187","500","250","instEB3","34","2","","0","0","45","27"
"","psychophysics","125","747155","0.0-125.0","55a2fa33fdf99b073cd94947","64e50b81e019272f8535c9c0","","","","","8533",""," ","key"," ","16.66665949119385","500","250","instEB4","51","2","","0","0","30","40"
"","psychophysics","126","748209","0.0-126.0","55a2fa33fdf99b073cd94947","64e50b81e019272f8535c9c0","","","","","1052",""," ","key"," ","16.666370967741035","500","250","inst","","","","","","",""
"","psychophysics","127","754233","0.0-127.0","55a2fa33fdf99b073cd94947","64e50b81e019272f8535c9c0","","","","","6016",""," ","key"," ","16.666595567867205","500","250","eb","32","2","","0","0","43","27"
"","psychophysics","128","759905","0.0-128.0","55a2fa33fdf99b073cd94947","64e50b81e019272f8535c9c0","","","","","5667",""," ","key"," ","16.66657227138641","500","250","eb","43","2","","0","0","34","36"
"","psychophysics","129","766601","0.0-129.0","55a2fa33fdf99b073cd94947","64e50b81e019272f8535c9c0","","","","","6688",""," ","key"," ","16.66642892768083","500","250","eb","53","2","","0","0","38","48"
"","psychophysics","130","769898","0.0-130.0","55a2fa33fdf99b073cd94947","64e50b81e019272f8535c9c0","","","","","3292",""," ","key"," ","16.666527918781636","500","250","eb","47","2","","0","0","54","36"
"","psychophysics","131","776689","0.0-131.0","55a2fa33fdf99b073cd94947","64e50b81e019272f8535c9c0","","","","","6785",""," ","key"," ","16.666625615763603","500","250","eb","59","2","","0","0","30","49"
"","psychophysics","132","781162","0.0-132.0","55a2fa33fdf99b073cd94947","64e50b81e019272f8535c9c0","","","","","4465",""," ","key"," ","16.66644029850757","500","250","eb","45","2","","0","0","43","35"
"","psychophysics","133","783898","0.0-133.0","55a2fa33fdf99b073cd94947","64e50b81e019272f8535c9c0","","","","","2729",""," ","key"," ","16.66620245398782","500","250","eb","31","2","","0","0","29","24"
"","psychophysics","134","790641","0.0-134.0","55a2fa33fdf99b073cd94947","64e50b81e019272f8535c9c0","","","","","6738",""," ","key"," ","16.666568238213635","500","250","eb","49","2","","0","0","31","42"
"","psychophysics","135","796554","0.0-135.0","55a2fa33fdf99b073cd94947","64e50b81e019272f8535c9c0","","","","","5904",""," ","key"," ","16.66665536723143","500","250","eb","48","2","","0","0","35","41"
"","psychophysics","136","802689","0.0-136.0","55a2fa33fdf99b073cd94947","64e50b81e019272f8535c9c0","","","","","6125",""," ","key"," ","16.666539509536772","500","250","eb","29","2","","0","0","53","25"
"","psychophysics","137","808002","0.0-137.0","55a2fa33fdf99b073cd94947","64e50b81e019272f8535c9c0","","","","","5303",""," ","key"," ","16.66643710691795","500","250","eb","29","2","","0","0","43","25"
"","psychophysics","138","814673","0.0-138.0","55a2fa33fdf99b073cd94947","64e50b81e019272f8535c9c0","","","","","6667",""," ","key"," ","16.66652631578952","500","250","eb","61","2","","0","0","40","54"
"","psychophysics","139","820809","0.0-139.0","55a2fa33fdf99b073cd94947","64e50b81e019272f8535c9c0","","","","","6128",""," ","key"," ","16.666509536784574","500","250","eb","57","2","","0","0","39","53"
"","psychophysics","140","825994","0.0-140.0","55a2fa33fdf99b073cd94947","64e50b81e019272f8535c9c0","","","","","5176",""," ","key"," ","16.66658709677417","500","250","eb","36","2","","0","0","43","32"
"","psychophysics","141","829946","0.0-141.0","55a2fa33fdf99b073cd94947","64e50b81e019272f8535c9c0","","","","","3944",""," ","key"," ","16.666721518987","500","250","eb","49","2","","0","0","48","45"
"","psychophysics","142","831258","0.0-142.0","55a2fa33fdf99b073cd94947","64e50b81e019272f8535c9c0","","","","","1310",""," ","key"," ","16.666545454545744","500","250","inst","","","","","","",""
"","psychophysics","143","839458","0.0-143.0","55a2fa33fdf99b073cd94947","64e50b81e019272f8535c9c0","","","","","8191",""," ","key"," ","16.666643584521474","500","250","instZol1","0.19999999999999982","","","0","0","-1.3",""
"","psychophysics","144","852314","0.0-144.0","55a2fa33fdf99b073cd94947","64e50b81e019272f8535c9c0","","","","","12846",""," ","key"," ","16.66669649805438","500","250","instZol2","1.9000000000000015","1","","0","0","2",""
"","psychophysics","145","853498","0.0-145.0","55a2fa33fdf99b073cd94947","64e50b81e019272f8535c9c0","","","","","1180",""," ","key"," ","16.666271428572614","500","250","inst","","","","","","",""
"","psychophysics","146","860002","0.0-146.0","55a2fa33fdf99b073cd94947","64e50b81e019272f8535c9c0","","","","","6492",""," ","key"," ","16.667041131105528","500","250","zol","0.83","1","1","21","-10","0.67",""
"","psychophysics","147","867234","0.0-147.0","55a2fa33fdf99b073cd94947","64e50b81e019272f8535c9c0","","","","","7218",""," ","key"," ","16.666628175519683","500","250","zol","1.4100000000000004","1","1","-3","-30","0.69",""
"","psychophysics","148","874474","0.0-148.0","55a2fa33fdf99b073cd94947","64e50b81e019272f8535c9c0","","","","","7233",""," ","key"," ","16.666570438799077","500","250","zol","0.7199999999999998","1","1","-8","-10","0.68",""
"","psychophysics","149","878963","0.0-149.0","55a2fa33fdf99b073cd94947","64e50b81e019272f8535c9c0","","","","","4480",""," ","key"," ","16.666765799256453","500","250","zol","1.1400000000000001","1","1","10","5","-0.64",""
"","psychophysics","150","883530","0.0-150.0","55a2fa33fdf99b073cd94947","64e50b81e019272f8535c9c0","","","","","4561",""," ","key"," ","16.66630036630045","500","250","zol","1.16","1","1","15","30","0.54",""
"","psychophysics","151","886698","0.0-151.0","55a2fa33fdf99b073cd94947","64e50b81e019272f8535c9c0","","","","","3162",""," ","key"," ","16.66679894179845","500","250","zol","-0.7499999999999999","1","1","-21","-5","0.45",""
"","psychophysics","152","894707","0.0-152.0","55a2fa33fdf99b073cd94947","64e50b81e019272f8535c9c0","","","","","null","","null","key","null","16.666739039666005","500","250","zol","1.8500000000000005","1","1","-22","0","-0.35",""
"","psychophysics","153","894962","0.0-153.0","55a2fa33fdf99b073cd94947","64e50b81e019272f8535c9c0","","","","","246",""," ","key"," ","16.668533333328863","500","250","zol","-0.45","1","1","27","-12","0.45",""
"","psychophysics","154","902969","0.0-154.0","55a2fa33fdf99b073cd94947","64e50b81e019272f8535c9c0","","","","","null","","null","key","null","16.666774530271418","500","250","zol","1.6","1","1","14","12","0.2",""
"","psychophysics","155","903241","0.0-155.0","55a2fa33fdf99b073cd94947","64e50b81e019272f8535c9c0","","","","","266",""," ","key"," ","16.664199999999255","500","250","zol","-0.51","1","1","11","-23","0.51",""
"","psychophysics","156","911249","0.0-156.0","55a2fa33fdf99b073cd94947","64e50b81e019272f8535c9c0","","","","","null","","null","key","null","16.666560416666712","500","250","zol","-0.47","1","1","-3","18","-0.33",""
"","psychophysics","157","914034","0.0-157.0","55a2fa33fdf99b073cd94947","64e50b81e019272f8535c9c0","","","","","2777",""," ","key"," ","16.66686746987994","500","250","zol","0.9999999999999999","1","1","-19","15","-0.2",""
"","psychophysics","158","918666","0.0-158.0","55a2fa33fdf99b073cd94947","64e50b81e019272f8535c9c0","","","","","4625",""," ","key"," ","16.666671480144633","500","250","zol","0.8599999999999999","1","1","5","5","0.34",""
"","psychophysics","159","922114","0.0-159.0","55a2fa33fdf99b073cd94947","64e50b81e019272f8535c9c0","","","","","3442",""," ","key"," ","16.666553398058525","500","250","zol","1.16","1","1","-11","16","0.14",""
"","psychophysics","160","924458","0.0-160.0","55a2fa33fdf99b073cd94947","64e50b81e019272f8535c9c0","","","","","2338",""," ","key"," ","16.666841726618646","500","250","zol","0.8999999999999999","1","1","9","16","0.4",""
"","psychophysics","161","925458","0.0-161.0","55a2fa33fdf99b073cd94947","64e50b81e019272f8535c9c0","","","","","993",""," ","key"," ","16.666762711865022","500","250","inst","","","","","","",""
"","psychophysics","162","933282","0.0-162.0","55a2fa33fdf99b073cd94947","64e50b81e019272f8535c9c0","","","","","7816",""," ","key"," ","16.66656503198308","500","250","instBr3","28","2","","0","0","40","300"
"","psychophysics","163","934346","0.0-163.0","55a2fa33fdf99b073cd94947","64e50b81e019272f8535c9c0","","","","","1062",""," ","key"," ","16.66634920634891","500","250","inst","","","","","","",""
"","psychophysics","164","937746","0.0-164.0","55a2fa33fdf99b073cd94947","64e50b81e019272f8535c9c0","","","","","3396",""," ","key"," ","16.666674876847107","500","250","br","22","2","1","8","22","24","207"
"","psychophysics","165","944322","0.0-165.0","55a2fa33fdf99b073cd94947","64e50b81e019272f8535c9c0","","","","","6573",""," ","key"," ","16.666643765903405","500","250","br","19","2","1","-9","-14","-28","274"
"","psychophysics","166","948521","0.0-166.0","55a2fa33fdf99b073cd94947","64e50b81e019272f8535c9c0","","","","","4195",""," ","key"," ","16.66678087649388","500","250","br","12","2","1","-2","5","9","238"
"","psychophysics","167","952754","0.0-167.0","55a2fa33fdf99b073cd94947","64e50b81e019272f8535c9c0","","","","","4228",""," ","key"," ","16.666648221343916","500","250","br","20","2","1","23","10","20","283"
"","psychophysics","168","958881","0.0-168.0","55a2fa33fdf99b073cd94947","64e50b81e019272f8535c9c0","","","","","6124",""," ","key"," ","16.666599455040853","500","250","br","14","2","1","0","14","-5","221"
"","psychophysics","169","964634","0.0-169.0","55a2fa33fdf99b073cd94947","64e50b81e019272f8535c9c0","","","","","5745",""," ","key"," ","16.666520348837366","500","250","br","17","2","1","0","-14","-28","253"
"","psychophysics","170","968033","0.0-170.0","55a2fa33fdf99b073cd94947","64e50b81e019272f8535c9c0","","","","","3395",""," ","key"," ","16.666300492611224","500","250","br","20","2","1","-25","-12","21","282"
"","psychophysics","171","971513","0.0-171.0","55a2fa33fdf99b073cd94947","64e50b81e019272f8535c9c0","","","","","3476",""," ","key"," ","16.666634615384773","500","250","br","19","2","1","28","-14","19","259"
"","psychophysics","172","976178","0.0-172.0","55a2fa33fdf99b073cd94947","64e50b81e019272f8535c9c0","","","","","4659",""," ","key"," ","16.666767025089367","500","250","br","16","2","1","25","20","24","213"
"","psychophysics","173","980241","0.0-173.0","55a2fa33fdf99b073cd94947","64e50b81e019272f8535c9c0","","","","","4058",""," ","key"," ","16.66659090909068","500","250","br","16","2","1","0","4","15","240"
"","psychophysics","174","983449","0.0-174.0","55a2fa33fdf99b073cd94947","64e50b81e019272f8535c9c0","","","","","3202",""," ","key"," ","16.666364583332932","500","250","br","23","2","1","7","25","25","239"
"","psychophysics","175","989946","0.0-175.0","55a2fa33fdf99b073cd94947","64e50b81e019272f8535c9c0","","","","","6490",""," ","key"," ","16.666642673521608","500","250","br","17","2","1","-18","26","-22","238"
"","psychophysics","176","994594","0.0-176.0","55a2fa33fdf99b073cd94947","64e50b81e019272f8535c9c0","","","","","4644",""," ","key"," ","16.6664801444043","500","250","br","20","2","1","-8","6","19","266"
"","psychophysics","177","998625","0.0-177.0","55a2fa33fdf99b073cd94947","64e50b81e019272f8535c9c0","","","","","4024",""," ","key"," ","16.666423236514554","500","250","br","16","2","1","-25","-16","12","292"
"","psychophysics","178","1005225","0.0-178.0","55a2fa33fdf99b073cd94947","64e50b81e019272f8535c9c0","","","","","6593",""," ","key"," ","16.66675443037979","500","250","br","15","2","1","24","26","-12","292"
"","psychophysics","179","1006433","0.0-179.0","55a2fa33fdf99b073cd94947","64e50b81e019272f8535c9c0","","","","","1201",""," ","key"," ","16.666708333333695","500","250","inst","","","","","","",""
"","psychophysics","180","1017817","0.0-180.0","55a2fa33fdf99b073cd94947","64e50b81e019272f8535c9c0","","","","","11380",""," ","key"," ","16.666662756598395","500","250","instPz1","51","1","","","","25","50"
"","psychophysics","181","1022978","0.0-181.0","55a2fa33fdf99b073cd94947","64e50b81e019272f8535c9c0","","","","","5157",""," ","key"," ","16.66659870550178","500","250","instPz2","23","1","","","","35","20"
"","psychophysics","182","1034161","0.0-182.0","55a2fa33fdf99b073cd94947","64e50b81e019272f8535c9c0","","","","","11176",""," ","key"," ","16.666814925373227","500","250","instPz3","92","1","","","","100","30"
"","psychophysics","183","1042721","0.0-183.0","55a2fa33fdf99b073cd94947","64e50b81e019272f8535c9c0","","","","","8557",""," ","key"," ","16.666851562499915","500","250","instPz4","70","1","","","","100","30"
"","psychophysics","184","1043947","0.0-184.0","55a2fa33fdf99b073cd94947","64e50b81e019272f8535c9c0","","","","","1223",""," ","key"," ","16.666410958904724","500","250","inst","","","","","","",""
"","psychophysics","185","1047690","0.0-185.0","55a2fa33fdf99b073cd94947","64e50b81e019272f8535c9c0","","","","","3739",""," ","key"," ","16.66657847533579","500","250","pz","36","1","1","","","49","22"
"","psychophysics","186","1055410","0.0-186.0","55a2fa33fdf99b073cd94947","64e50b81e019272f8535c9c0","","","","","7711",""," ","key"," ","16.666562770562876","500","250","pz","91","1","1","","","26","58"
"","psychophysics","187","1062465","0.0-187.0","55a2fa33fdf99b073cd94947","64e50b81e019272f8535c9c0","","","","","7045",""," ","key"," ","16.666709219857974","500","250","pz","88","1","1","","","33","59"
"","psychophysics","188","1067522","0.0-188.0","55a2fa33fdf99b073cd94947","64e50b81e019272f8535c9c0","","","","","5052",""," ","key"," ","16.666413907284714","500","250","pz","78","1","1","","","59","48"
"","psychophysics","189","1072290","0.0-189.0","55a2fa33fdf99b073cd94947","64e50b81e019272f8535c9c0","","","","","4763",""," ","key"," ","16.666764912281284","500","250","pz","38","1","1","","","37","24"
"","psychophysics","190","1079202","0.0-190.0","55a2fa33fdf99b073cd94947","64e50b81e019272f8535c9c0","","","","","6908",""," ","key"," ","16.6666400966185","500","250","pz","33","1","1","","","43","21"
"","psychophysics","191","1085098","0.0-191.0","55a2fa33fdf99b073cd94947","64e50b81e019272f8535c9c0","","","","","5892",""," ","key"," ","16.666620396600678","500","250","pz","56","1","1","","","26","33"
"","psychophysics","192","1093102","0.0-192.0","55a2fa33fdf99b073cd94947","64e50b81e019272f8535c9c0","","","","","null","","null","key","null","16.666597077244354","500","250","pz","36","1","1","","","51","24"
"","psychophysics","193","1093298","0.0-193.0","55a2fa33fdf99b073cd94947","64e50b81e019272f8535c9c0","","","","","192",""," ","key"," ","16.66563636362976","500","250","pz","50","1","1","","","50","32"
"","psychophysics","194","1100947","0.0-194.0","55a2fa33fdf99b073cd94947","64e50b81e019272f8535c9c0","","","","","7644",""," ","key"," ","16.6666310043669","500","250","pz","65","1","1","","","20","43"
"","psychophysics","195","1106786","0.0-195.0","55a2fa33fdf99b073cd94947","64e50b81e019272f8535c9c0","","","","","5833",""," ","key"," ","16.666587392550046","500","250","pz","53","1","1","","","39","32"
"","psychophysics","196","1112338","0.0-196.0","55a2fa33fdf99b073cd94947","64e50b81e019272f8535c9c0","","","","","5548",""," ","key"," ","16.66654518072238","500","250","pz","58","1","1","","","40","35"
"","psychophysics","197","1118274","0.0-197.0","55a2fa33fdf99b073cd94947","64e50b81e019272f8535c9c0","","","","","5932",""," ","key"," ","16.66645070422559","500","250","pz","48","1","1","","","46","30"
"","psychophysics","198","1124434","0.0-198.0","55a2fa33fdf99b073cd94947","64e50b81e019272f8535c9c0","","","","","6151",""," ","key"," ","16.66642547425496","500","250","pz","36","1","1","","","41","25"
"","psychophysics","199","1127545","0.0-199.0","55a2fa33fdf99b073cd94947","64e50b81e019272f8535c9c0","","","","","3106",""," ","key"," ","16.66634946236492","500","250","pz","48","1","1","","","44","32"
"","psychophysics","200","1128649","0.0-200.0","55a2fa33fdf99b073cd94947","64e50b81e019272f8535c9c0","","","","","1100",""," ","key"," ","16.666999999999714","500","250","inst","","","","","","",""
"","psychophysics","201","1134457","0.0-201.0","55a2fa33fdf99b073cd94947","64e50b81e019272f8535c9c0","","","","","5805",""," ","key"," ","16.66656484149842","500","250","instPog0","340","2","","0","0","370","340"
"","psychophysics","202","1137850","0.0-202.0","55a2fa33fdf99b073cd94947","64e50b81e019272f8535c9c0","","","","","3391",""," ","key"," ","16.667034482758886","500","250","instPog1","370","2","","0","0","370","340"
"","psychophysics","203","1142370","0.0-203.0","55a2fa33fdf99b073cd94947","64e50b81e019272f8535c9c0","","","","","4517",""," ","key"," ","16.66661481481494","500","250","instPog2","320","2","","0","0","340","340"
"","psychophysics","204","1143562","0.0-204.0","55a2fa33fdf99b073cd94947","64e50b81e019272f8535c9c0","","","","","1189",""," ","key"," ","16.6663380281698","500","250","inst","","","","","","",""
"","psychophysics","205","1148282","0.0-205.0","55a2fa33fdf99b073cd94947","64e50b81e019272f8535c9c0","","","","","4714",""," ","key"," ","16.666652482269654","500","250","pog","288","2","1","0","0","364","311"
"","psychophysics","206","1153922","0.0-206.0","55a2fa33fdf99b073cd94947","64e50b81e019272f8535c9c0","","","","","5637",""," ","key"," ","16.6666231454006","500","250","pog","311","2","1","0","0","395","330"
"","psychophysics","207","1157097","0.0-207.0","55a2fa33fdf99b073cd94947","64e50b81e019272f8535c9c0","","","","","3172",""," ","key"," ","16.666626315789394","500","250","pog","308","2","1","0","0","300","342"
"","psychophysics","208","1160594","0.0-208.0","55a2fa33fdf99b073cd94947","64e50b81e019272f8535c9c0","","","","","3493",""," ","key"," ","16.666644230769286","500","250","pog","292","2","1","0","0","280","321"
"","psychophysics","209","1167058","0.0-209.0","55a2fa33fdf99b073cd94947","64e50b81e019272f8535c9c0","","","","","6459",""," ","key"," ","16.666795865633194","500","250","pog","348","2","1","0","0","322","373"
"","psychophysics","210","1174601","0.0-210.0","55a2fa33fdf99b073cd94947","64e50b81e019272f8535c9c0","","","","","7537",""," ","key"," ","16.66661061946894","500","250","pog","283","2","1","0","0","351","309"
"","psychophysics","211","1182606","0.0-211.0","55a2fa33fdf99b073cd94947","64e50b81e019272f8535c9c0","","","","","null","","null","key","null","16.666722338204806","500","250","pog","298","2","1","0","0","366","324"
"","psychophysics","212","1182778","0.0-212.0","55a2fa33fdf99b073cd94947","64e50b81e019272f8535c9c0","","","","","166",""," ","key"," ","16.668666666658183","500","250","pog","371","2","1","0","0","371","362"
"","psychophysics","213","1190788","0.0-213.0","55a2fa33fdf99b073cd94947","64e50b81e019272f8535c9c0","","","","","null","","null","key","null","16.66680833333327","500","250","pog","285","2","1","0","0","353","313"
"","psychophysics","214","1196322","0.0-214.0","55a2fa33fdf99b073cd94947","64e50b81e019272f8535c9c0","","","","","5530",""," ","key"," ","16.66646525679716","500","250","pog","342","2","1","0","0","322","374"
"","psychophysics","215","1201579","0.0-215.0","55a2fa33fdf99b073cd94947","64e50b81e019272f8535c9c0","","","","","5253",""," ","key"," ","16.666539682540304","500","250","pog","330","2","1","0","0","394","373"
"","psychophysics","216","1209582","0.0-216.0","55a2fa33fdf99b073cd94947","64e50b81e019272f8535c9c0","","","","","null","","null","key","null","16.666592901878815","500","250","pog","312","2","1","0","0","400","343"
"","psychophysics","217","1215314","0.0-217.0","55a2fa33fdf99b073cd94947","64e50b81e019272f8535c9c0","","","","","5728",""," ","key"," ","16.666623906705546","500","250","pog","307","2","1","0","0","289","329"
"","psychophysics","218","1223320","0.0-218.0","55a2fa33fdf99b073cd94947","64e50b81e019272f8535c9c0","","","","","null","","null","key","null","16.666699373695536","500","250","pog","323","2","1","0","0","395","350"
"","psychophysics","219","1231325","0.0-219.0","55a2fa33fdf99b073cd94947","64e50b81e019272f8535c9c0","","","","","null","","null","key","null","16.666647181628438","500","250","pog","337","2","1","0","0","367","358"
