"success","trial_type","trial_index","time_elapsed","internal_node_id","pid","sid","timeout","failed_images","failed_audio","failed_video","rt","stimulus","response","response_type","key_press","avg_frame_time","center_x","center_y","task","resp","version","block","start","jitterX","jitterY","parA"
"true","fullscreen","0","8414","0.0-0.0","63ed41743848042f0261bc1f","64e5092c3458d27b08355dcf","","","","","","","","","","","","","","","","","","","",""
"true","preload","1","8747","0.0-1.0","63ed41743848042f0261bc1f","64e5092c3458d27b08355dcf","false","[]","[]","[]","","","","","","","","","","","","","","","",""
"","html-button-response","2","18287","0.0-2.0","63ed41743848042f0261bc1f","64e5092c3458d27b08355dcf","","","","","9536","Please Make Sure Your Audio Is On.","0","","","","","","","","","","","","",""
"","psychophysics","3","29689","0.0-3.0","63ed41743848042f0261bc1f","64e5092c3458d27b08355dcf","","","","","11386",""," ","key"," ","16.667695461200587","768","250","","","","","","","",""
"","psychophysics","4","42954","0.0-4.0","63ed41743848042f0261bc1f","64e5092c3458d27b08355dcf","","","","","13248",""," ","key"," ","16.666021383647795","500","250","inst","","","","","","",""
"","psychophysics","5","48664","0.0-5.0","63ed41743848042f0261bc1f","64e5092c3458d27b08355dcf","","","","","5680",""," ","key"," ","16.65928362573099","500","250","sample0","","","","","","",""
"","psychophysics","6","60423","0.0-6.0","63ed41743848042f0261bc1f","64e5092c3458d27b08355dcf","","","","","11742",""," ","key"," ","16.66767613636364","500","250","sample1","","","","","","",""
"","psychophysics","7","86578","0.0-7.0","63ed41743848042f0261bc1f","64e5092c3458d27b08355dcf","","","","","26131",""," ","key"," ","16.667621414913963","500","250","sample2","84","","","","","",""
"","psychophysics","8","92398","0.0-8.0","63ed41743848042f0261bc1f","64e5092c3458d27b08355dcf","","","","","5803",""," ","key"," ","16.668310344827585","500","250","sample3","90","","","","","",""
"","psychophysics","9","120587","0.0-9.0","63ed41743848042f0261bc1f","64e5092c3458d27b08355dcf","","","","","28167",""," ","key"," ","16.66741065088757","500","250","sample4","100","","","","","",""
"","psychophysics","10","172871","0.0-10.0","63ed41743848042f0261bc1f","64e5092c3458d27b08355dcf","","","","","52271",""," ","key"," ","16.6676881377551","500","250","sample5","","","","","","",""
"","psychophysics","11","188600","0.0-11.0","63ed41743848042f0261bc1f","64e5092c3458d27b08355dcf","","","","","15712",""," ","key"," ","16.6705567338282","500","250","sample6","500","","","","","",""
"","psychophysics","12","195349","0.0-12.0","63ed41743848042f0261bc1f","64e5092c3458d27b08355dcf","","","","","6743",""," ","key"," ","16.66804455445548","500","250","inst","","","","","","",""
"","psychophysics","13","199130","0.0-13.0","63ed41743848042f0261bc1f","64e5092c3458d27b08355dcf","","","","","3776",""," ","key"," ","16.668293333333246","500","250","inst","","","","","","",""
"","psychophysics","14","205117","0.0-14.0","63ed41743848042f0261bc1f","64e5092c3458d27b08355dcf","","","","","5975",""," ","key"," ","16.668247910863546","500","250","inst","","","","","","",""
"","psychophysics","15","209133","0.0-15.0","63ed41743848042f0261bc1f","64e5092c3458d27b08355dcf","","","","","4009",""," ","key"," ","16.667295833333387","500","250","inst","","","","","","",""
"","psychophysics","16","213133","0.0-16.0","63ed41743848042f0261bc1f","64e5092c3458d27b08355dcf","","","","","3994",""," ","key"," ","16.669100418410075","500","250","inst","","","","","","",""
"","psychophysics","17","243367","0.0-17.0","63ed41743848042f0261bc1f","64e5092c3458d27b08355dcf","","","","","30229",""," ","key"," ","16.66755212355212","500","250","instPog0","340","2","","370","0","0","340"
"","psychophysics","18","273238","0.0-18.0","63ed41743848042f0261bc1f","64e5092c3458d27b08355dcf","","","","","29865",""," ","key"," ","16.66764991624792","500","250","instPog1","340","2","","370","0","0","340"
"","psychophysics","19","288221","0.0-19.0","63ed41743848042f0261bc1f","64e5092c3458d27b08355dcf","","","","","14935",""," ","key"," ","16.667695991091332","500","250","instPog2","332","2","","340","0","0","340"
"","psychophysics","20","292424","0.0-20.0","63ed41743848042f0261bc1f","64e5092c3458d27b08355dcf","","","","","4197",""," ","key"," ","16.66916334661363","500","250","inst","","","","","","",""
"","psychophysics","21","300437","0.0-21.0","63ed41743848042f0261bc1f","64e5092c3458d27b08355dcf","","","","","null","","null","key","null","16.668156250000052","500","250","pog","335","2","0","325","0","0","360"
"","psychophysics","22","308452","0.0-22.0","63ed41743848042f0261bc1f","64e5092c3458d27b08355dcf","","","","","null","","null","key","null","16.667608333333312","500","250","pog","318","2","0","354","0","0","333"
"","psychophysics","23","308659","0.0-23.0","63ed41743848042f0261bc1f","64e5092c3458d27b08355dcf","","","","","199",""," ","key"," ","16.61863636363573","500","250","pog","328","2","0","328","0","0","322"
"","psychophysics","24","315697","0.0-24.0","63ed41743848042f0261bc1f","64e5092c3458d27b08355dcf","","","","","7025",""," ","key"," ","16.66678622327792","500","250","pog","329","2","0","363","0","0","341"
"","psychophysics","25","319568","0.0-25.0","63ed41743848042f0261bc1f","64e5092c3458d27b08355dcf","","","","","3855",""," ","key"," ","16.668528138528107","500","250","pog","363","2","0","371","0","0","372"
"","psychophysics","26","324645","0.0-26.0","63ed41743848042f0261bc1f","64e5092c3458d27b08355dcf","","","","","5067",""," ","key"," ","16.668444078947353","500","250","pog","339","2","0","361","0","0","348"
"","psychophysics","27","329275","0.0-27.0","63ed41743848042f0261bc1f","64e5092c3458d27b08355dcf","","","","","4616",""," ","key"," ","16.66818772563173","500","250","pog","297","2","0","307","0","0","307"
"","psychophysics","28","333997","0.0-28.0","63ed41743848042f0261bc1f","64e5092c3458d27b08355dcf","","","","","4707",""," ","key"," ","16.66873049645409","500","250","pog","355","2","0","315","0","0","374"
"","psychophysics","29","341337","0.0-29.0","63ed41743848042f0261bc1f","64e5092c3458d27b08355dcf","","","","","7325",""," ","key"," ","16.66763781321183","500","250","pog","332","2","0","312","0","0","351"
"","psychophysics","30","346763","0.0-30.0","63ed41743848042f0261bc1f","64e5092c3458d27b08355dcf","","","","","5417",""," ","key"," ","16.66645538461538","500","250","pog","327","2","0","369","0","0","341"
"","psychophysics","31","352158","0.0-31.0","63ed41743848042f0261bc1f","64e5092c3458d27b08355dcf","","","","","5373",""," ","key"," ","16.668071207430195","500","250","pog","303","2","0","329","0","0","317"
"","psychophysics","32","356687","0.0-32.0","63ed41743848042f0261bc1f","64e5092c3458d27b08355dcf","","","","","4522",""," ","key"," ","16.668781481481467","500","250","pog","317","2","0","325","0","0","330"
"","psychophysics","33","363047","0.0-33.0","63ed41743848042f0261bc1f","64e5092c3458d27b08355dcf","","","","","6350",""," ","key"," ","16.66761417322828","500","250","pog","310","2","0","364","0","0","320"
"","psychophysics","34","369722","0.0-34.0","63ed41743848042f0261bc1f","64e5092c3458d27b08355dcf","","","","","6661",""," ","key"," ","16.66631578947365","500","250","pog","340","2","0","296","0","0","356"
"","psychophysics","35","375237","0.0-35.0","63ed41743848042f0261bc1f","64e5092c3458d27b08355dcf","","","","","5501",""," ","key"," ","16.662554545454668","500","250","pog","347","2","0","351","0","0","361"
"","psychophysics","36","379782","0.0-36.0","63ed41743848042f0261bc1f","64e5092c3458d27b08355dcf","","","","","4535",""," ","key"," ","16.66606617647053","500","250","inst","","","","","","",""
"","psychophysics","37","406107","0.0-37.0","63ed41743848042f0261bc1f","64e5092c3458d27b08355dcf","","","","","26308",""," ","key"," ","16.667610266159695","500","250","instBr0","0","","","0","0","0","300"
"","psychophysics","38","436075","0.0-38.0","63ed41743848042f0261bc1f","64e5092c3458d27b08355dcf","","","","","29957",""," ","key"," ","16.66753756260434","500","250","instBr1","-40","","","-40","0","0","300"
"","psychophysics","39","451798","0.0-39.0","63ed41743848042f0261bc1f","64e5092c3458d27b08355dcf","","","","","15712",""," ","key"," ","16.665585365853655","500","250","instBr3","16","2","","40","0","0","300"
"","psychophysics","40","466535","0.0-40.0","63ed41743848042f0261bc1f","64e5092c3458d27b08355dcf","","","","","14727",""," ","key"," ","16.667875424688557","500","250","inst","","","","","","",""
"","psychophysics","41","474553","0.0-41.0","63ed41743848042f0261bc1f","64e5092c3458d27b08355dcf","","","","","null","","null","key","null","16.661245833333304","500","250","br","21","2","0","-24","-20","7","262"
"","psychophysics","42","481332","0.0-42.0","63ed41743848042f0261bc1f","64e5092c3458d27b08355dcf","","","","","6766",""," ","key"," ","16.66834236453204","500","250","br","23","2","0","-1","29","-9","296"
"","psychophysics","43","485216","0.0-43.0","63ed41743848042f0261bc1f","64e5092c3458d27b08355dcf","","","","","3866",""," ","key"," ","16.669060344827624","500","250","br","20","2","0","3","22","19","268"
"","psychophysics","44","491428","0.0-44.0","63ed41743848042f0261bc1f","64e5092c3458d27b08355dcf","","","","","6197",""," ","key"," ","16.66856603773585","500","250","br","15","2","0","-9","13","11","201"
"","psychophysics","45","499438","0.0-45.0","63ed41743848042f0261bc1f","64e5092c3458d27b08355dcf","","","","","null","","null","key","null","16.666266666666708","500","250","br","23","2","0","4","26","7","203"
"","psychophysics","46","505881","0.0-46.0","63ed41743848042f0261bc1f","64e5092c3458d27b08355dcf","","","","","6429",""," ","key"," ","16.667688311688305","500","250","br","16","2","0","-30","-1","16","253"
"","psychophysics","47","513158","0.0-47.0","63ed41743848042f0261bc1f","64e5092c3458d27b08355dcf","","","","","7261",""," ","key"," ","16.66745412844039","500","250","br","15","2","0","-1","-1","19","263"
"","psychophysics","48","517457","0.0-48.0","63ed41743848042f0261bc1f","64e5092c3458d27b08355dcf","","","","","4283",""," ","key"," ","16.668420233462978","500","250","br","12","2","0","24","1","-6","249"
"","psychophysics","49","524782","0.0-49.0","63ed41743848042f0261bc1f","64e5092c3458d27b08355dcf","","","","","7310",""," ","key"," ","16.668244292237556","500","250","br","16","2","0","-6","21","-19","254"
"","psychophysics","50","531696","0.0-50.0","63ed41743848042f0261bc1f","64e5092c3458d27b08355dcf","","","","","6882",""," ","key"," ","16.66792753623188","500","250","br","20","2","0","-3","19","-15","237"
"","psychophysics","51","536385","0.0-51.0","63ed41743848042f0261bc1f","64e5092c3458d27b08355dcf","","","","","4678",""," ","key"," ","16.66843416370133","500","250","br","15","2","0","-2","26","-27","219"
"","psychophysics","52","544184","0.0-52.0","63ed41743848042f0261bc1f","64e5092c3458d27b08355dcf","","","","","7791",""," ","key"," ","16.666781115880017","500","250","br","21","2","0","22","-23","-3","213"
"","psychophysics","53","548799","0.0-53.0","63ed41743848042f0261bc1f","64e5092c3458d27b08355dcf","","","","","4596",""," ","key"," ","16.67140217391315","500","250","br","19","2","0","2","-16","-16","284"
"","psychophysics","54","556813","0.0-54.0","63ed41743848042f0261bc1f","64e5092c3458d27b08355dcf","","","","","null","","null","key","null","16.663799999999902","500","250","br","12","2","0","-20","-22","16","206"
"","psychophysics","55","563053","0.0-55.0","63ed41743848042f0261bc1f","64e5092c3458d27b08355dcf","","","","","6211",""," ","key"," ","16.6598021390376","500","250","br","16","2","0","-17","-2","-20","282"
"","psychophysics","56","565837","0.0-56.0","63ed41743848042f0261bc1f","64e5092c3458d27b08355dcf","","","","","2779",""," ","key"," ","16.667861445783075","500","250","inst","","","","","","",""
"","psychophysics","57","568471","0.0-57.0","63ed41743848042f0261bc1f","64e5092c3458d27b08355dcf","","","","","2627",""," ","key"," ","16.669796178343553","500","250","instPzPre","50","0","","50","","","50"
"","psychophysics","58","572472","0.0-58.0","63ed41743848042f0261bc1f","64e5092c3458d27b08355dcf","","","","","3995",""," ","key"," ","16.667435146443484","500","250","instPz0","50","1","","50","","","50"
"","psychophysics","59","584310","0.0-59.0","63ed41743848042f0261bc1f","64e5092c3458d27b08355dcf","","","","","11816",""," ","key"," ","16.668203102961826","500","250","instPz1","47","1","","25","","","50"
"","psychophysics","60","592208","0.0-60.0","63ed41743848042f0261bc1f","64e5092c3458d27b08355dcf","","","","","7891",""," ","key"," ","16.667720338983028","500","250","instPz2","24","1","","35","","","20"
"","psychophysics","61","598860","0.0-61.0","63ed41743848042f0261bc1f","64e5092c3458d27b08355dcf","","","","","6629",""," ","key"," ","16.66747869674191","500","250","instPz3","100","1","","100","","","30"
"","psychophysics","62","612829","0.0-62.0","63ed41743848042f0261bc1f","64e5092c3458d27b08355dcf","","","","","13953",""," ","key"," ","16.667918757467227","500","250","instPz4","38","1","","100","","","30"
"","psychophysics","63","615766","0.0-63.0","63ed41743848042f0261bc1f","64e5092c3458d27b08355dcf","","","","","2931",""," ","key"," ","16.66721714285668","500","250","inst","","","","","","",""
"","psychophysics","64","623778","0.0-64.0","63ed41743848042f0261bc1f","64e5092c3458d27b08355dcf","","","","","null","","null","key","null","16.668189583333152","500","250","pz","60","1","0","55","","","53"
"","psychophysics","65","626401","0.0-65.0","63ed41743848042f0261bc1f","64e5092c3458d27b08355dcf","","","","","2609",""," ","key"," ","16.66839102564084","500","250","pz","54","1","0","57","","","45"
"","psychophysics","66","628727","0.0-66.0","63ed41743848042f0261bc1f","64e5092c3458d27b08355dcf","","","","","2313",""," ","key"," ","16.668478260869566","500","250","pz","33","1","0","33","","","21"
"","psychophysics","67","634443","0.0-67.0","63ed41743848042f0261bc1f","64e5092c3458d27b08355dcf","","","","","5700",""," ","key"," ","16.667605263157885","500","250","pz","35","1","0","54","","","24"
"","psychophysics","68","639627","0.0-68.0","63ed41743848042f0261bc1f","64e5092c3458d27b08355dcf","","","","","5167",""," ","key"," ","16.66743870967766","500","250","pz","22","1","0","22","","","20"
"","psychophysics","69","644669","0.0-69.0","63ed41743848042f0261bc1f","64e5092c3458d27b08355dcf","","","","","5032",""," ","key"," ","16.66752317880777","500","250","pz","49","1","0","42","","","41"
"","psychophysics","70","650066","0.0-70.0","63ed41743848042f0261bc1f","64e5092c3458d27b08355dcf","","","","","5383",""," ","key"," ","16.668941176470497","500","250","pz","55","1","0","27","","","50"
"","psychophysics","71","655015","0.0-71.0","63ed41743848042f0261bc1f","64e5092c3458d27b08355dcf","","","","","4945",""," ","key"," ","16.668844594594603","500","250","pz","40","1","0","38","","","27"
"","psychophysics","72","659662","0.0-72.0","63ed41743848042f0261bc1f","64e5092c3458d27b08355dcf","","","","","4632",""," ","key"," ","16.66885559566803","500","250","pz","65","1","0","38","","","43"
"","psychophysics","73","664971","0.0-73.0","63ed41743848042f0261bc1f","64e5092c3458d27b08355dcf","","","","","5293",""," ","key"," ","16.667408805031553","500","250","pz","66","1","0","52","","","53"
"","psychophysics","74","672987","0.0-74.0","63ed41743848042f0261bc1f","64e5092c3458d27b08355dcf","","","","","null","","null","key","null","16.66797083333319","500","250","pz","73","1","0","24","","","57"
"","psychophysics","75","676927","0.0-75.0","63ed41743848042f0261bc1f","64e5092c3458d27b08355dcf","","","","","3911",""," ","key"," ","16.6684808510638","500","250","pz","45","1","0","47","","","34"
"","psychophysics","76","678739","0.0-76.0","63ed41743848042f0261bc1f","64e5092c3458d27b08355dcf","","","","","1802",""," ","key"," ","16.668296296296088","500","250","pz","35","1","0","35","","","36"
"","psychophysics","77","684046","0.0-77.0","63ed41743848042f0261bc1f","64e5092c3458d27b08355dcf","","","","","5276",""," ","key"," ","16.66839432176636","500","250","pz","64","1","0","60","","","56"
"","psychophysics","78","689646","0.0-78.0","63ed41743848042f0261bc1f","64e5092c3458d27b08355dcf","","","","","5582",""," ","key"," ","16.662805970149364","500","250","pz","42","1","0","49","","","24"
"","psychophysics","79","691147","0.0-79.0","63ed41743848042f0261bc1f","64e5092c3458d27b08355dcf","","","","","1484",""," ","key"," ","16.666337078651726","500","250","inst","","","","","","",""
"","psychophysics","80","696034","0.0-80.0","63ed41743848042f0261bc1f","64e5092c3458d27b08355dcf","","","","","4877",""," ","key"," ","16.66743344709924","500","250","instEB0","40","1","","40","0","0","40"
"","psychophysics","81","711375","0.0-81.0","63ed41743848042f0261bc1f","64e5092c3458d27b08355dcf","","","","","15335",""," ","key"," ","16.667423286180593","500","250","instEB1","31","1","","40","0","0","30"
"","psychophysics","82","723948","0.0-82.0","63ed41743848042f0261bc1f","64e5092c3458d27b08355dcf","","","","","12556",""," ","key"," ","16.668005312085032","500","250","instEB2","43","1","","30","0","0","40"
"","psychophysics","83","736231","0.0-83.0","63ed41743848042f0261bc1f","64e5092c3458d27b08355dcf","","","","","12251",""," ","key"," ","16.66581793478263","500","250","instEB3","44","1","","27","0","0","45"
"","psychophysics","84","747336","0.0-84.0","63ed41743848042f0261bc1f","64e5092c3458d27b08355dcf","","","","","11095",""," ","key"," ","16.667935435435393","500","250","instEB4","29","1","","40","0","0","30"
"","psychophysics","85","748916","0.0-85.0","63ed41743848042f0261bc1f","64e5092c3458d27b08355dcf","","","","","1575",""," ","key"," ","16.66531182795648","500","250","inst","","","","","","",""
"","psychophysics","86","754856","0.0-86.0","63ed41743848042f0261bc1f","64e5092c3458d27b08355dcf","","","","","5921",""," ","key"," ","16.667311797752713","500","250","eb","30","1","","37","0","0","30"
"","psychophysics","87","760687","0.0-87.0","63ed41743848042f0261bc1f","64e5092c3458d27b08355dcf","","","","","5827",""," ","key"," ","16.667650429799455","500","250","eb","29","1","","46","0","0","31"
"","psychophysics","88","768694","0.0-88.0","63ed41743848042f0261bc1f","64e5092c3458d27b08355dcf","","","","","null","","null","key","null","16.668397916666677","500","250","eb","28","1","","48","0","0","26"
"","psychophysics","89","776179","0.0-89.0","63ed41743848042f0261bc1f","64e5092c3458d27b08355dcf","","","","","7479",""," ","key"," ","16.667874720357766","500","250","eb","42","1","","52","0","0","45"
"","psychophysics","90","784195","0.0-90.0","63ed41743848042f0261bc1f","64e5092c3458d27b08355dcf","","","","","null","","null","key","null","16.6693367983368","500","250","eb","32","1","","36","0","0","33"
"","psychophysics","91","790196","0.0-91.0","63ed41743848042f0261bc1f","64e5092c3458d27b08355dcf","","","","","5997",""," ","key"," ","16.667584958217432","500","250","eb","44","1","","26","0","0","50"
"","psychophysics","92","795556","0.0-92.0","63ed41743848042f0261bc1f","64e5092c3458d27b08355dcf","","","","","5356",""," ","key"," ","16.667553124999905","500","250","eb","49","1","","37","0","0","49"
"","psychophysics","93","800867","0.0-93.0","63ed41743848042f0261bc1f","64e5092c3458d27b08355dcf","","","","","5295",""," ","key"," ","16.66854402515708","500","250","eb","40","1","","52","0","0","41"
"","psychophysics","94","807419","0.0-94.0","63ed41743848042f0261bc1f","64e5092c3458d27b08355dcf","","","","","6545",""," ","key"," ","16.668191326530568","500","250","eb","35","1","","51","0","0","33"
"","psychophysics","95","813789","0.0-95.0","63ed41743848042f0261bc1f","64e5092c3458d27b08355dcf","","","","","6357",""," ","key"," ","16.668619422572043","500","250","eb","33","1","","52","0","0","30"
"","psychophysics","96","819478","0.0-96.0","63ed41743848042f0261bc1f","64e5092c3458d27b08355dcf","","","","","5682",""," ","key"," ","16.66857941176482","500","250","eb","34","1","","54","0","0","38"
"","psychophysics","97","826117","0.0-97.0","63ed41743848042f0261bc1f","64e5092c3458d27b08355dcf","","","","","6629",""," ","key"," ","16.66781155778892","500","250","eb","49","1","","45","0","0","46"
"","psychophysics","98","828607","0.0-98.0","63ed41743848042f0261bc1f","64e5092c3458d27b08355dcf","","","","","2469",""," ","key"," ","16.670567567567215","500","250","eb","41","1","","38","0","0","40"
"","psychophysics","99","832218","0.0-99.0","63ed41743848042f0261bc1f","64e5092c3458d27b08355dcf","","","","","3598",""," ","key"," ","16.668652777777794","500","250","eb","31","1","","28","0","0","31"
"","psychophysics","100","837732","0.0-100.0","63ed41743848042f0261bc1f","64e5092c3458d27b08355dcf","","","","","5498",""," ","key"," ","16.66883890577528","500","250","eb","46","1","","27","0","0","46"
"","psychophysics","101","839465","0.0-101.0","63ed41743848042f0261bc1f","64e5092c3458d27b08355dcf","","","","","1727",""," ","key"," ","16.66538834951488","500","250","inst","","","","","","",""
"","psychophysics","102","849605","0.0-102.0","63ed41743848042f0261bc1f","64e5092c3458d27b08355dcf","","","","","10107",""," ","key"," ","16.666495065789366","500","250","instZol0","0","","","0","0","0",""
"","psychophysics","103","850638","0.0-103.0","63ed41743848042f0261bc1f","64e5092c3458d27b08355dcf","","","","","1019",""," ","key"," ","16.672180327867373","500","250","instZol1","1.3","","","-1.3","0","0",""
"","psychophysics","104","919089","0.0-104.0","63ed41743848042f0261bc1f","64e5092c3458d27b08355dcf","","","","","68426",""," ","key"," ","16.66768989037758","500","250","instZol2","-90.19999999999915","2","","2","0","0",""
"","psychophysics","105","920243","0.0-105.0","63ed41743848042f0261bc1f","64e5092c3458d27b08355dcf","","","","","1145",""," ","key"," ","16.670521739131324","500","250","inst","","","","","","",""
"","psychophysics","106","928260","0.0-106.0","63ed41743848042f0261bc1f","64e5092c3458d27b08355dcf","","","","","null","","null","key","null","16.668462499999926","500","250","zol","-2.040000000000001","2","0","0.74","-27","22",""
"","psychophysics","107","936280","0.0-107.0","63ed41743848042f0261bc1f","64e5092c3458d27b08355dcf","","","","","null","","null","key","null","16.66740416666677","500","250","zol","-1.19","2","0","-0.11","-22","-30",""
"","psychophysics","108","944297","0.0-108.0","63ed41743848042f0261bc1f","64e5092c3458d27b08355dcf","","","","","null","","null","key","null","16.668510416666685","500","250","zol","-1.0299999999999998","2","0","0.53","-15","17",""
"","psychophysics","109","952314","0.0-109.0","63ed41743848042f0261bc1f","64e5092c3458d27b08355dcf","","","","","null","","null","key","null","16.668354166666784","500","250","zol","-0.9499999999999998","2","0","0.05","10","-24",""
"","psychophysics","110","960327","0.0-110.0","63ed41743848042f0261bc1f","64e5092c3458d27b08355dcf","","","","","null","","null","key","null","16.66813778705649","500","250","zol","-1.7000000000000004","2","0","-0.5","16","-25",""
"","psychophysics","111","968347","0.0-111.0","63ed41743848042f0261bc1f","64e5092c3458d27b08355dcf","","","","","null","","null","key","null","18.138805429864153","500","250","zol","-0.7600000000000001","2","0","-0.24","-4","27",""
"","psychophysics","112","976364","0.0-112.0","63ed41743848042f0261bc1f","64e5092c3458d27b08355dcf","","","","","null","","null","key","null","16.668006250000083","500","250","zol","-1.4500000000000002","2","0","0.25","17","-27",""
"","psychophysics","113","984373","0.0-113.0","63ed41743848042f0261bc1f","64e5092c3458d27b08355dcf","","","","","null","","null","key","null","16.667540709812062","500","250","zol","-1.4100000000000004","2","0","-0.49","19","-24",""
"","psychophysics","114","992397","0.0-114.0","63ed41743848042f0261bc1f","64e5092c3458d27b08355dcf","","","","","null","","null","key","null","16.668127083333335","500","250","zol","-1.8500000000000005","2","0","-0.25","-4","7",""
"","psychophysics","115","1000416","0.0-115.0","63ed41743848042f0261bc1f","64e5092c3458d27b08355dcf","","","","","null","","null","key","null","16.66773596673593","500","250","zol","-1.37","2","0","0.37","-24","-4",""
"","psychophysics","116","1008416","0.0-116.0","63ed41743848042f0261bc1f","64e5092c3458d27b08355dcf","","","","","null","","null","key","null","16.66838413361185","500","250","zol","-1.4200000000000004","2","0","0.12","17","1",""
"","psychophysics","117","1016441","0.0-117.0","63ed41743848042f0261bc1f","64e5092c3458d27b08355dcf","","","","","null","","null","key","null","16.668243750000208","500","250","zol","-1.3300000000000003","2","0","0.63","1","10",""
"","psychophysics","118","1024460","0.0-118.0","63ed41743848042f0261bc1f","64e5092c3458d27b08355dcf","","","","","null","","null","key","null","16.668033264033312","500","250","zol","-1.4600000000000002","2","0","-0.34","13","27",""
"","psychophysics","119","1032477","0.0-119.0","63ed41743848042f0261bc1f","64e5092c3458d27b08355dcf","","","","","null","","null","key","null","16.668441666666816","500","250","zol","-0.9400000000000001","2","0","0.54","-29","-25",""
"","psychophysics","120","1040485","0.0-120.0","63ed41743848042f0261bc1f","64e5092c3458d27b08355dcf","","","","","null","","null","key","null","16.667649269311074","500","250","zol","-1.0999999999999999","2","0","0","-27","-19",""
"","psychophysics","121","1043461","0.0-121.0","63ed41743848042f0261bc1f","64e5092c3458d27b08355dcf","","","","","2961",""," ","key"," ","16.667604519773832","500","250","inst","","","","","","",""
"","psychophysics","122","1064406","0.0-122.0","63ed41743848042f0261bc1f","64e5092c3458d27b08355dcf","","","","","20931",""," ","key"," ","16.665682324840724","500","250","instZol1","0.09999999999999981","","","-1.3","0","0",""
"","psychophysics","123","1074537","0.0-123.0","63ed41743848042f0261bc1f","64e5092c3458d27b08355dcf","","","","","10112",""," ","key"," ","16.667983498349756","500","250","instZol2","1.6000000000000012","1","","2","0","0",""
"","psychophysics","124","1075903","0.0-124.0","63ed41743848042f0261bc1f","64e5092c3458d27b08355dcf","","","","","1350",""," ","key"," ","16.665382716051635","500","250","inst","","","","","","",""
"","psychophysics","125","1083269","0.0-125.0","63ed41743848042f0261bc1f","64e5092c3458d27b08355dcf","","","","","7340",""," ","key"," ","16.668160997732393","500","250","zol","0.5700000000000002","1","1","-0.67","-13","-28",""
"","psychophysics","126","1088408","0.0-126.0","63ed41743848042f0261bc1f","64e5092c3458d27b08355dcf","","","","","5121",""," ","key"," ","16.667623376622707","500","250","zol","1.5700000000000003","1","1","0.63","29","0",""
"","psychophysics","127","1096424","0.0-127.0","63ed41743848042f0261bc1f","64e5092c3458d27b08355dcf","","","","","null","","null","key","null","16.668335416667105","500","250","zol","0.9899999999999999","1","1","0.11","19","29",""
"","psychophysics","128","1101891","0.0-128.0","63ed41743848042f0261bc1f","64e5092c3458d27b08355dcf","","","","","5447",""," ","key"," ","16.66887461773721","500","250","zol","1.4400000000000004","1","1","-0.64","1","0",""
"","psychophysics","129","1106975","0.0-129.0","63ed41743848042f0261bc1f","64e5092c3458d27b08355dcf","","","","","5062",""," ","key"," ","16.668342105263083","500","250","zol","0.4","1","1","0.1","12","19",""
"","psychophysics","130","1111708","0.0-130.0","63ed41743848042f0261bc1f","64e5092c3458d27b08355dcf","","","","","4715",""," ","key"," ","16.668590106006693","500","250","zol","1.37","1","1","0.53","15","9",""
"","psychophysics","131","1117139","0.0-131.0","63ed41743848042f0261bc1f","64e5092c3458d27b08355dcf","","","","","5411",""," ","key"," ","16.668697530863646","500","250","zol","1.0999999999999999","1","1","0.2","29","-10",""
"","psychophysics","132","1120523","0.0-132.0","63ed41743848042f0261bc1f","64e5092c3458d27b08355dcf","","","","","3362",""," ","key"," ","16.66865346534754","500","250","zol","1.7600000000000005","1","1","-0.06","-2","-4",""
"","psychophysics","133","1125188","0.0-133.0","63ed41743848042f0261bc1f","64e5092c3458d27b08355dcf","","","","","4641",""," ","key"," ","16.667419354838575","500","250","zol","1.8100000000000007","1","1","-0.31","4","15",""
"","psychophysics","134","1131295","0.0-134.0","63ed41743848042f0261bc1f","64e5092c3458d27b08355dcf","","","","","6085",""," ","key"," ","16.662434426229193","500","250","zol","1.9200000000000008","1","1","0.48","5","8",""
"","psychophysics","135","1136488","0.0-135.0","63ed41743848042f0261bc1f","64e5092c3458d27b08355dcf","","","","","5167",""," ","key"," ","16.668358064515726","500","250","zol","1.3900000000000001","1","1","-0.19","1","8",""
"","psychophysics","136","1140008","0.0-136.0","63ed41743848042f0261bc1f","64e5092c3458d27b08355dcf","","","","","3501",""," ","key"," ","16.667184834123557","500","250","zol","1.4200000000000004","1","1","-0.12","-27","14",""
"","psychophysics","137","1144448","0.0-137.0","63ed41743848042f0261bc1f","64e5092c3458d27b08355dcf","","","","","4418",""," ","key"," ","16.669037735849653","500","250","zol","1.2500000000000002","1","1","-0.65","2","3",""
"","psychophysics","138","1149478","0.0-138.0","63ed41743848042f0261bc1f","64e5092c3458d27b08355dcf","","","","","5002",""," ","key"," ","16.66837541528272","500","250","zol","1.5800000000000003","1","1","-0.48","7","-1",""
"","psychophysics","139","1155457","0.0-139.0","63ed41743848042f0261bc1f","64e5092c3458d27b08355dcf","","","","","5960",""," ","key"," ","16.66820448179304","500","250","zol","1.7000000000000004","1","1","0","-18","8",""
"","psychophysics","140","1156809","0.0-140.0","63ed41743848042f0261bc1f","64e5092c3458d27b08355dcf","","","","","1336",""," ","key"," ","16.669901234566314","500","250","inst","","","","","","",""
"","psychophysics","141","1169993","0.0-141.0","63ed41743848042f0261bc1f","64e5092c3458d27b08355dcf","","","","","13173",""," ","key"," ","16.668073417721434","500","250","instPz1","43","2","","25","","","50"
"","psychophysics","142","1175867","0.0-142.0","63ed41743848042f0261bc1f","64e5092c3458d27b08355dcf","","","","","5867",""," ","key"," ","16.668433048433368","500","250","instPz2","37","2","","20","","","35"
"","psychophysics","143","1186600","0.0-143.0","63ed41743848042f0261bc1f","64e5092c3458d27b08355dcf","","","","","10678",""," ","key"," ","16.693397196261806","500","250","instPz3","64","2","","30","","","100"
"","psychophysics","144","1192412","0.0-144.0","63ed41743848042f0261bc1f","64e5092c3458d27b08355dcf","","","","","5797",""," ","key"," ","16.6680862068964","500","250","instPz4","62","2","","30","","","100"
"","psychophysics","145","1200217","0.0-145.0","63ed41743848042f0261bc1f","64e5092c3458d27b08355dcf","","","","","7793",""," ","key"," ","16.667064239828882","500","250","inst","","","","","","",""
"","psychophysics","146","1203627","0.0-146.0","63ed41743848042f0261bc1f","64e5092c3458d27b08355dcf","","","","","3393",""," ","key"," ","16.668014778324352","500","250","pz","26","2","1","39","","","30"
"","psychophysics","147","1209845","0.0-147.0","63ed41743848042f0261bc1f","64e5092c3458d27b08355dcf","","","","","6200",""," ","key"," ","16.667645161290483","500","250","pz","28","2","1","58","","","27"
"","psychophysics","148","1213536","0.0-148.0","63ed41743848042f0261bc1f","64e5092c3458d27b08355dcf","","","","","3672",""," ","key"," ","16.66799095022593","500","250","pz","28","2","1","21","","","33"
"","psychophysics","149","1216497","0.0-149.0","63ed41743848042f0261bc1f","64e5092c3458d27b08355dcf","","","","","2946",""," ","key"," ","16.668949152541604","500","250","pz","21","2","1","21","","","22"
"","psychophysics","150","1219763","0.0-150.0","63ed41743848042f0261bc1f","64e5092c3458d27b08355dcf","","","","","3249",""," ","key"," ","16.667164102564445","500","250","pz","20","2","1","42","","","31"
"","psychophysics","151","1227778","0.0-151.0","63ed41743848042f0261bc1f","64e5092c3458d27b08355dcf","","","","","null","","null","key","null","16.668215031315142","500","250","pz","27","2","1","60","","","23"
"","psychophysics","152","1228877","0.0-152.0","63ed41743848042f0261bc1f","64e5092c3458d27b08355dcf","","","","","1080",""," ","key"," ","16.64927272727205","500","250","pz","27","2","1","28","","","50"
"","psychophysics","153","1234596","0.0-153.0","63ed41743848042f0261bc1f","64e5092c3458d27b08355dcf","","","","","5714",""," ","key"," ","16.669032258064217","500","250","pz","24","2","1","53","","","24"
"","psychophysics","154","1239280","0.0-154.0","63ed41743848042f0261bc1f","64e5092c3458d27b08355dcf","","","","","4676",""," ","key"," ","16.66751428571463","500","250","pz","24","2","1","36","","","30"
"","psychophysics","155","1243958","0.0-155.0","63ed41743848042f0261bc1f","64e5092c3458d27b08355dcf","","","","","4667",""," ","key"," ","16.66767971530255","500","250","pz","26","2","1","49","","","44"
"","psychophysics","156","1246313","0.0-156.0","63ed41743848042f0261bc1f","64e5092c3458d27b08355dcf","","","","","2339",""," ","key"," ","16.67022857142978","500","250","pz","23","2","1","22","","","24"
"","psychophysics","157","1249445","0.0-157.0","63ed41743848042f0261bc1f","64e5092c3458d27b08355dcf","","","","","3117",""," ","key"," ","16.668010695187505","500","250","pz","28","2","1","40","","","48"
"","psychophysics","158","1257459","0.0-158.0","63ed41743848042f0261bc1f","64e5092c3458d27b08355dcf","","","","","null","","null","key","null","16.667685416666306","500","250","pz","27","2","1","47","","","34"
"","psychophysics","159","1263063","0.0-159.0","63ed41743848042f0261bc1f","64e5092c3458d27b08355dcf","","","","","5587",""," ","key"," ","16.667101492537462","500","250","pz","34","2","1","38","","","55"
"","psychophysics","160","1270730","0.0-160.0","63ed41743848042f0261bc1f","64e5092c3458d27b08355dcf","","","","","7652",""," ","key"," ","16.667999999999925","500","250","pz","43","2","1","20","","","59"
"","psychophysics","161","1272274","0.0-161.0","63ed41743848042f0261bc1f","64e5092c3458d27b08355dcf","","","","","1529",""," ","key"," ","16.670637362639184","500","250","inst","","","","","","",""
"","psychophysics","162","1282560","0.0-162.0","63ed41743848042f0261bc1f","64e5092c3458d27b08355dcf","","","","","10278",""," ","key"," ","16.668150729335608","500","250","instPog0","160","1","","190","0","0","160"
"","psychophysics","163","1294731","0.0-163.0","63ed41743848042f0261bc1f","64e5092c3458d27b08355dcf","","","","","12165",""," ","key"," ","16.66755829903965","500","250","instPog1","164","1","","190","0","0","160"
"","psychophysics","164","1299878","0.0-164.0","63ed41743848042f0261bc1f","64e5092c3458d27b08355dcf","","","","","5132",""," ","key"," ","16.668337662337656","500","250","instPog2","174","1","","160","0","0","160"
"","psychophysics","165","1301313","0.0-165.0","63ed41743848042f0261bc1f","64e5092c3458d27b08355dcf","","","","","1429",""," ","key"," ","16.66485882352983","500","250","inst","","","","","","",""
"","psychophysics","166","1306358","0.0-166.0","63ed41743848042f0261bc1f","64e5092c3458d27b08355dcf","","","","","5027",""," ","key"," ","16.668717607973374","500","250","pog","157","1","1","107","0","0","141"
"","psychophysics","167","1312051","0.0-167.0","63ed41743848042f0261bc1f","64e5092c3458d27b08355dcf","","","","","5685",""," ","key"," ","16.668164222873337","500","250","pog","152","1","1","106","0","0","147"
"","psychophysics","168","1314082","0.0-168.0","63ed41743848042f0261bc1f","64e5092c3458d27b08355dcf","","","","","2014",""," ","key"," ","16.67322314049556","500","250","pog","175","1","1","175","0","0","176"
"","psychophysics","169","1320660","0.0-169.0","63ed41743848042f0261bc1f","64e5092c3458d27b08355dcf","","","","","6564",""," ","key"," ","16.668180661577537","500","250","pog","174","1","1","164","0","0","173"
"","psychophysics","170","1325844","0.0-170.0","63ed41743848042f0261bc1f","64e5092c3458d27b08355dcf","","","","","5167",""," ","key"," ","16.6679742765273","500","250","pog","130","1","1","152","0","0","122"
"","psychophysics","171","1333850","0.0-171.0","63ed41743848042f0261bc1f","64e5092c3458d27b08355dcf","","","","","null","","null","key","null","16.66664509394591","500","250","pog","205","1","1","111","0","0","188"
"","psychophysics","172","1337228","0.0-172.0","63ed41743848042f0261bc1f","64e5092c3458d27b08355dcf","","","","","3364",""," ","key"," ","16.668855721392756","500","250","pog","141","1","1","115","0","0","121"
"","psychophysics","173","1343003","0.0-173.0","63ed41743848042f0261bc1f","64e5092c3458d27b08355dcf","","","","","5761",""," ","key"," ","16.668283236993616","500","250","pog","158","1","1","194","0","0","144"
"","psychophysics","174","1348628","0.0-174.0","63ed41743848042f0261bc1f","64e5092c3458d27b08355dcf","","","","","5592",""," ","key"," ","16.668345238095277","500","250","pog","160","1","1","182","0","0","139"
"","psychophysics","175","1352500","0.0-175.0","63ed41743848042f0261bc1f","64e5092c3458d27b08355dcf","","","","","3855",""," ","key"," ","16.66706465517275","500","250","pog","197","1","1","159","0","0","184"
"","psychophysics","176","1355469","0.0-176.0","63ed41743848042f0261bc1f","64e5092c3458d27b08355dcf","","","","","2954",""," ","key"," ","16.667627118643647","500","250","pog","184","1","1","178","0","0","173"
"","psychophysics","177","1361534","0.0-177.0","63ed41743848042f0261bc1f","64e5092c3458d27b08355dcf","","","","","6048",""," ","key"," ","16.66802203856773","500","250","pog","209","1","1","131","0","0","196"
"","psychophysics","178","1368277","0.0-178.0","63ed41743848042f0261bc1f","64e5092c3458d27b08355dcf","","","","","6719",""," ","key"," ","16.66821588089322","500","250","pog","139","1","1","121","0","0","125"
"","psychophysics","179","1370304","0.0-179.0","63ed41743848042f0261bc1f","64e5092c3458d27b08355dcf","","","","","2012",""," ","key"," ","16.6694049586769","500","250","pog","139","1","1","135","0","0","127"
"","psychophysics","180","1373939","0.0-180.0","63ed41743848042f0261bc1f","64e5092c3458d27b08355dcf","","","","","3594",""," ","key"," ","16.669299539170026","500","250","pog","156","1","1","178","0","0","138"
"","psychophysics","181","1375378","0.0-181.0","63ed41743848042f0261bc1f","64e5092c3458d27b08355dcf","","","","","1432",""," ","key"," ","16.67418823529254","500","250","inst","","","","","","",""
"","psychophysics","182","1386345","0.0-182.0","63ed41743848042f0261bc1f","64e5092c3458d27b08355dcf","","","","","10951",""," ","key"," ","16.667729071537075","500","250","instBr3","-1","1","","40","0","0","300"
"","psychophysics","183","1387275","0.0-183.0","63ed41743848042f0261bc1f","64e5092c3458d27b08355dcf","","","","","917",""," ","key"," ","16.672327272725205","500","250","inst","","","","","","",""
"","psychophysics","184","1393293","0.0-184.0","63ed41743848042f0261bc1f","64e5092c3458d27b08355dcf","","","","","6000",""," ","key"," ","16.667941666666756","500","250","br","1","1","1","13","29","-6","284"
"","psychophysics","185","1397689","0.0-185.0","63ed41743848042f0261bc1f","64e5092c3458d27b08355dcf","","","","","4379",""," ","key"," ","16.65601140684395","500","250","br","-7","1","1","18","-2","23","295"
"","psychophysics","186","1403839","0.0-186.0","63ed41743848042f0261bc1f","64e5092c3458d27b08355dcf","","","","","6134",""," ","key"," ","16.66867574931843","500","250","br","-9","1","1","21","18","-19","228"
"","psychophysics","187","1411846","0.0-187.0","63ed41743848042f0261bc1f","64e5092c3458d27b08355dcf","","","","","null","","null","key","null","16.667581250000026","500","250","br","-15","1","1","-25","11","15","239"
"","psychophysics","188","1412030","0.0-188.0","63ed41743848042f0261bc1f","64e5092c3458d27b08355dcf","","","","","167",""," ","key"," ","16.656899999990127","500","250","br","-9","1","1","-9","-30","-19","259"
"","psychophysics","189","1415288","0.0-189.0","63ed41743848042f0261bc1f","64e5092c3458d27b08355dcf","","","","","3229",""," ","key"," ","16.669051546392215","500","250","br","-8","1","1","-5","-5","12","226"
"","psychophysics","190","1420758","0.0-190.0","63ed41743848042f0261bc1f","64e5092c3458d27b08355dcf","","","","","5460",""," ","key"," ","16.665902439025004","500","250","br","-8","1","1","-26","-21","-21","281"
"","psychophysics","191","1428506","0.0-191.0","63ed41743848042f0261bc1f","64e5092c3458d27b08355dcf","","","","","7733",""," ","key"," ","16.671892241379126","500","250","br","-14","1","1","28","-3","-2","294"
"","psychophysics","192","1436515","0.0-192.0","63ed41743848042f0261bc1f","64e5092c3458d27b08355dcf","","","","","null","","null","key","null","16.668705636743333","500","250","br","-12","1","1","27","-23","5","265"
"","psychophysics","193","1442024","0.0-193.0","63ed41743848042f0261bc1f","64e5092c3458d27b08355dcf","","","","","5495",""," ","key"," ","16.66819090909099","500","250","br","-12","1","1","18","-23","-29","277"
"","psychophysics","194","1448774","0.0-194.0","63ed41743848042f0261bc1f","64e5092c3458d27b08355dcf","","","","","6744",""," ","key"," ","16.66874441687334","500","250","br","-16","1","1","-26","22","0","299"
"","psychophysics","195","1455438","0.0-195.0","63ed41743848042f0261bc1f","64e5092c3458d27b08355dcf","","","","","6617",""," ","key"," ","16.7097864321605","500","250","br","-21","1","1","-25","-13","30","287"
"","psychophysics","196","1459522","0.0-196.0","63ed41743848042f0261bc1f","64e5092c3458d27b08355dcf","","","","","4072",""," ","key"," ","16.662098360655364","500","250","br","-14","1","1","-14","-24","-28","229"
"","psychophysics","197","1464834","0.0-197.0","63ed41743848042f0261bc1f","64e5092c3458d27b08355dcf","","","","","5302",""," ","key"," ","16.666968553459547","500","250","br","-15","1","1","1","-15","-8","209"
"","psychophysics","198","1470930","0.0-198.0","63ed41743848042f0261bc1f","64e5092c3458d27b08355dcf","","","","","6088",""," ","key"," ","16.66857534246583","500","250","br","-23","1","1","-25","-8","16","291"
"","psychophysics","199","1472532","0.0-199.0","63ed41743848042f0261bc1f","64e5092c3458d27b08355dcf","","","","","1573",""," ","key"," ","16.671326315790218","500","250","inst","","","","","","",""
"","psychophysics","200","1480962","0.0-200.0","63ed41743848042f0261bc1f","64e5092c3458d27b08355dcf","","","","","8386",""," ","key"," ","16.666902970297187","500","250","instEB1","37","2","","30","0","0","40"
"","psychophysics","201","1488446","0.0-201.0","63ed41743848042f0261bc1f","64e5092c3458d27b08355dcf","","","","","7467",""," ","key"," ","16.668234375000402","500","250","instEB2","36","2","","40","0","0","30"
"","psychophysics","202","1495512","0.0-202.0","63ed41743848042f0261bc1f","64e5092c3458d27b08355dcf","","","","","7052",""," ","key"," ","16.668482269503915","500","250","instEB3","30","2","","45","0","0","27"
"","psychophysics","203","1501697","0.0-203.0","63ed41743848042f0261bc1f","64e5092c3458d27b08355dcf","","","","","6170",""," ","key"," ","16.668348648648937","500","250","instEB4","41","2","","30","0","0","40"
"","psychophysics","204","1502825","0.0-204.0","63ed41743848042f0261bc1f","64e5092c3458d27b08355dcf","","","","","1123",""," ","key"," ","16.667075757575788","500","250","inst","","","","","","",""
"","psychophysics","205","1509682","0.0-205.0","63ed41743848042f0261bc1f","64e5092c3458d27b08355dcf","","","","","6838",""," ","key"," ","16.66650851581522","500","250","eb","31","2","","29","0","0","27"
"","psychophysics","206","1515844","0.0-206.0","63ed41743848042f0261bc1f","64e5092c3458d27b08355dcf","","","","","6149",""," ","key"," ","16.666021680217085","500","250","eb","30","2","","37","0","0","26"
"","psychophysics","207","1521063","0.0-207.0","63ed41743848042f0261bc1f","64e5092c3458d27b08355dcf","","","","","5211",""," ","key"," ","16.666990384615463","500","250","eb","40","2","","53","0","0","38"
"","psychophysics","208","1526278","0.0-208.0","63ed41743848042f0261bc1f","64e5092c3458d27b08355dcf","","","","","5208",""," ","key"," ","16.66796153846185","500","250","eb","47","2","","38","0","0","48"
"","psychophysics","209","1530746","0.0-209.0","63ed41743848042f0261bc1f","64e5092c3458d27b08355dcf","","","","","4460",""," ","key"," ","16.66763295880118","500","250","eb","45","2","","51","0","0","43"
"","psychophysics","210","1535732","0.0-210.0","63ed41743848042f0261bc1f","64e5092c3458d27b08355dcf","","","","","4978",""," ","key"," ","16.669161073825222","500","250","eb","49","2","","34","0","0","48"
"","psychophysics","211","1542913","0.0-211.0","63ed41743848042f0261bc1f","64e5092c3458d27b08355dcf","","","","","7162",""," ","key"," ","16.668306976744127","500","250","eb","48","2","","27","0","0","50"
"","psychophysics","212","1547534","0.0-212.0","63ed41743848042f0261bc1f","64e5092c3458d27b08355dcf","","","","","4615",""," ","key"," ","16.667630434782833","500","250","eb","50","2","","35","0","0","52"
"","psychophysics","213","1553081","0.0-213.0","63ed41743848042f0261bc1f","64e5092c3458d27b08355dcf","","","","","5527",""," ","key"," ","16.66892771084347","500","250","eb","45","2","","31","0","0","46"
"","psychophysics","214","1559476","0.0-214.0","63ed41743848042f0261bc1f","64e5092c3458d27b08355dcf","","","","","6379",""," ","key"," ","16.667806282722395","500","250","eb","30","2","","48","0","0","28"
"","psychophysics","215","1564596","0.0-215.0","63ed41743848042f0261bc1f","64e5092c3458d27b08355dcf","","","","","5108",""," ","key"," ","16.665615635179286","500","250","eb","29","2","","35","0","0","24"
"","psychophysics","216","1568901","0.0-216.0","63ed41743848042f0261bc1f","64e5092c3458d27b08355dcf","","","","","4297",""," ","key"," ","16.667548638131606","500","250","eb","46","2","","51","0","0","42"
"","psychophysics","217","1571052","0.0-217.0","63ed41743848042f0261bc1f","64e5092c3458d27b08355dcf","","","","","2136",""," ","key"," ","16.670859375000873","500","250","eb","48","2","","49","0","0","48"
"","psychophysics","218","1578414","0.0-218.0","63ed41743848042f0261bc1f","64e5092c3458d27b08355dcf","","","","","7337",""," ","key"," ","16.668455782312638","500","250","eb","44","2","","25","0","0","40"
"","psychophysics","219","1582359","0.0-219.0","63ed41743848042f0261bc1f","64e5092c3458d27b08355dcf","","","","","3934",""," ","key"," ","16.671506382978738","500","250","eb","29","2","","35","0","0","25"
