"success","trial_type","trial_index","time_elapsed","internal_node_id","pid","sid","timeout","failed_images","failed_audio","failed_video","rt","stimulus","response","response_type","key_press","avg_frame_time","center_x","center_y","task","resp","version","block","start","jitterX","jitterY","parA"
"true","fullscreen","0","5192","0.0-0.0","60e8a63f733f423be3da1846","64de81ceb374b12807c252b1","","","","","","","","","","","","","","","","","","","",""
"true","preload","1","5682","0.0-1.0","60e8a63f733f423be3da1846","64de81ceb374b12807c252b1","false","[]","[]","[]","","","","","","","","","","","","","","","",""
"","html-button-response","2","9139","0.0-2.0","60e8a63f733f423be3da1846","64de81ceb374b12807c252b1","","","","","3451","Please Make Sure Your Audio Is On.","0","","","","","","","","","","","","",""
"","psychophysics","3","14327","0.0-3.0","60e8a63f733f423be3da1846","64de81ceb374b12807c252b1","","","","","5164",""," ","key"," ","16.808475728155337","683","250","","","","","","","",""
"","psychophysics","4","18395","0.0-4.0","60e8a63f733f423be3da1846","64de81ceb374b12807c252b1","","","","","4041",""," ","key"," ","16.648102880658428","500","250","inst","","","","","","",""
"","psychophysics","5","22131","0.0-5.0","60e8a63f733f423be3da1846","64de81ceb374b12807c252b1","","","","","3724",""," ","key"," ","16.64825892857144","500","250","sample0","","","","","","",""
"","psychophysics","6","24597","0.0-6.0","60e8a63f733f423be3da1846","64de81ceb374b12807c252b1","","","","","2461",""," ","key"," ","16.64851700680271","500","250","sample1","","","","","","",""
"","psychophysics","7","35978","0.0-7.0","60e8a63f733f423be3da1846","64de81ceb374b12807c252b1","","","","","11366",""," ","key"," ","16.647039531478775","500","250","sample2","100","","","","","",""
"","psychophysics","8","42771","0.0-8.0","60e8a63f733f423be3da1846","64de81ceb374b12807c252b1","","","","","6789",""," ","key"," ","16.647749385749382","500","250","sample3","98","","","","","",""
"","psychophysics","9","49315","0.0-9.0","60e8a63f733f423be3da1846","64de81ceb374b12807c252b1","","","","","6538",""," ","key"," ","16.647691326530623","500","250","sample4","102","","","","","",""
"","psychophysics","10","56211","0.0-10.0","60e8a63f733f423be3da1846","64de81ceb374b12807c252b1","","","","","6883",""," ","key"," ","16.64797094430991","500","250","sample5","","","","","","",""
"","psychophysics","11","61634","0.0-11.0","60e8a63f733f423be3da1846","64de81ceb374b12807c252b1","","","","","5410",""," ","key"," ","16.64800307692306","500","250","sample6","500","","","","","",""
"","psychophysics","12","66324","0.0-12.0","60e8a63f733f423be3da1846","64de81ceb374b12807c252b1","","","","","4677",""," ","key"," ","16.64723131672599","500","250","inst","","","","","","",""
"","psychophysics","13","72105","0.0-13.0","60e8a63f733f423be3da1846","64de81ceb374b12807c252b1","","","","","5776",""," ","key"," ","16.647777456647383","500","250","inst","","","","","","",""
"","psychophysics","14","75715","0.0-14.0","60e8a63f733f423be3da1846","64de81ceb374b12807c252b1","","","","","3592",""," ","key"," ","16.647925925925946","500","250","inst","","","","","","",""
"","psychophysics","15","77763","0.0-15.0","60e8a63f733f423be3da1846","64de81ceb374b12807c252b1","","","","","2043",""," ","key"," ","16.648459016393392","500","250","inst","","","","","","",""
"","psychophysics","16","79359","0.0-16.0","60e8a63f733f423be3da1846","64de81ceb374b12807c252b1","","","","","1591",""," ","key"," ","16.644978723404222","500","250","inst","","","","","","",""
"","psychophysics","17","85418","0.0-17.0","60e8a63f733f423be3da1846","64de81ceb374b12807c252b1","","","","","6046",""," ","key"," ","16.647944903581262","500","250","instPog0","160","1","","190","0","0","160"
"","psychophysics","18","94212","0.0-18.0","60e8a63f733f423be3da1846","64de81ceb374b12807c252b1","","","","","8762",""," ","key"," ","16.646926136363646","500","250","instPog1","172","1","","190","0","0","160"
"","psychophysics","19","105390","0.0-19.0","60e8a63f733f423be3da1846","64de81ceb374b12807c252b1","","","","","11168",""," ","key"," ","16.647883582089566","500","250","instPog2","184","1","","160","0","0","160"
"","psychophysics","20","108722","0.0-20.0","60e8a63f733f423be3da1846","64de81ceb374b12807c252b1","","","","","3317",""," ","key"," ","16.648216080402058","500","250","inst","","","","","","",""
"","psychophysics","21","115892","0.0-21.0","60e8a63f733f423be3da1846","64de81ceb374b12807c252b1","","","","","7156",""," ","key"," ","16.647962790697665","500","250","pog","203","1","0","207","0","0","180"
"","psychophysics","22","123347","0.0-22.0","60e8a63f733f423be3da1846","64de81ceb374b12807c252b1","","","","","7450",""," ","key"," ","16.64791031390133","500","250","pog","209","1","0","197","0","0","171"
"","psychophysics","23","129644","0.0-23.0","60e8a63f733f423be3da1846","64de81ceb374b12807c252b1","","","","","6288",""," ","key"," ","16.64756878306879","500","250","pog","223","1","0","179","0","0","194"
"","psychophysics","24","137661","0.0-24.0","60e8a63f733f423be3da1846","64de81ceb374b12807c252b1","","","","","null","","null","key","null","16.681686847599146","500","250","pog","172","1","0","218","0","0","136"
"","psychophysics","25","143257","0.0-25.0","60e8a63f733f423be3da1846","64de81ceb374b12807c252b1","","","","","5587",""," ","key"," ","16.648157738095204","500","250","pog","220","1","0","206","0","0","196"
"","psychophysics","26","149719","0.0-26.0","60e8a63f733f423be3da1846","64de81ceb374b12807c252b1","","","","","6456",""," ","key"," ","16.647087855297183","500","250","pog","186","1","0","162","0","0","157"
"","psychophysics","27","153332","0.0-27.0","60e8a63f733f423be3da1846","64de81ceb374b12807c252b1","","","","","3605",""," ","key"," ","16.647726851851782","500","250","pog","205","1","0","217","0","0","171"
"","psychophysics","28","156011","0.0-28.0","60e8a63f733f423be3da1846","64de81ceb374b12807c252b1","","","","","2672",""," ","key"," ","16.647275000000082","500","250","pog","183","1","0","191","0","0","148"
"","psychophysics","29","158139","0.0-29.0","60e8a63f733f423be3da1846","64de81ceb374b12807c252b1","","","","","2119",""," ","key"," ","16.649031746031905","500","250","pog","157","1","0","157","0","0","129"
"","psychophysics","30","165244","0.0-30.0","60e8a63f733f423be3da1846","64de81ceb374b12807c252b1","","","","","7103",""," ","key"," ","16.646748826291045","500","250","pog","215","1","0","149","0","0","181"
"","psychophysics","31","170877","0.0-31.0","60e8a63f733f423be3da1846","64de81ceb374b12807c252b1","","","","","5619",""," ","key"," ","16.648275147928988","500","250","pog","202","1","0","136","0","0","169"
"","psychophysics","32","178889","0.0-32.0","60e8a63f733f423be3da1846","64de81ceb374b12807c252b1","","","","","null","","null","key","null","16.859141350210926","500","250","pog","241","1","0","137","0","0","197"
"","psychophysics","33","186899","0.0-33.0","60e8a63f733f423be3da1846","64de81ceb374b12807c252b1","","","","","null","","null","key","null","16.64852083333335","500","250","pog","211","1","0","173","0","0","187"
"","psychophysics","34","186937","0.0-34.0","60e8a63f733f423be3da1846","64de81ceb374b12807c252b1","","","","","28",""," ","key"," ","16.829999999987194","500","250","pog","193","1","0","193","0","0","183"
"","psychophysics","35","192148","0.0-35.0","60e8a63f733f423be3da1846","64de81ceb374b12807c252b1","","","","","5195",""," ","key"," ","16.6453993610223","500","250","pog","156","1","0","138","0","0","121"
"","psychophysics","36","283976","0.0-36.0","60e8a63f733f423be3da1846","64de81ceb374b12807c252b1","","","","","91823",""," ","key"," ","16.656656204644413","500","250","inst","","","","","","",""
"","psychophysics","37","288866","0.0-37.0","60e8a63f733f423be3da1846","64de81ceb374b12807c252b1","","","","","4876",""," ","key"," ","16.64754452054809","500","250","instBr0","1","","","0","0","0","300"
"","psychophysics","38","293328","0.0-38.0","60e8a63f733f423be3da1846","64de81ceb374b12807c252b1","","","","","4455",""," ","key"," ","16.646767790262302","500","250","instBr1","1","","","-40","0","0","300"
"","psychophysics","39","303586","0.0-39.0","60e8a63f733f423be3da1846","64de81ceb374b12807c252b1","","","","","10250",""," ","key"," ","16.647646103896122","500","250","instBr3","-13","1","","40","0","0","300"
"","psychophysics","40","306279","0.0-40.0","60e8a63f733f423be3da1846","64de81ceb374b12807c252b1","","","","","2690",""," ","key"," ","16.64740624999977","500","250","inst","","","","","","",""
"","psychophysics","41","309941","0.0-41.0","60e8a63f733f423be3da1846","64de81ceb374b12807c252b1","","","","","3652",""," ","key"," ","16.647456621004324","500","250","br","-7","1","0","5","-21","-26","250"
"","psychophysics","42","312854","0.0-42.0","60e8a63f733f423be3da1846","64de81ceb374b12807c252b1","","","","","2903",""," ","key"," ","16.839534883721065","500","250","br","-8","1","0","6","25","-4","217"
"","psychophysics","43","315265","0.0-43.0","60e8a63f733f423be3da1846","64de81ceb374b12807c252b1","","","","","2395",""," ","key"," ","16.647833333333338","500","250","br","-12","1","0","-11","-12","11","215"
"","psychophysics","44","321202","0.0-44.0","60e8a63f733f423be3da1846","64de81ceb374b12807c252b1","","","","","5923",""," ","key"," ","16.64742415730339","500","250","br","-13","1","0","-1","25","-16","264"
"","psychophysics","45","324548","0.0-45.0","60e8a63f733f423be3da1846","64de81ceb374b12807c252b1","","","","","3334",""," ","key"," ","16.64837499999994","500","250","br","-11","1","0","-5","20","-4","209"
"","psychophysics","46","329331","0.0-46.0","60e8a63f733f423be3da1846","64de81ceb374b12807c252b1","","","","","4765",""," ","key"," ","16.64767132867132","500","250","br","-13","1","0","30","-29","-30","294"
"","psychophysics","47","334984","0.0-47.0","60e8a63f733f423be3da1846","64de81ceb374b12807c252b1","","","","","5640",""," ","key"," ","16.648180473372843","500","250","br","-11","1","0","13","15","-12","265"
"","psychophysics","48","339726","0.0-48.0","60e8a63f733f423be3da1846","64de81ceb374b12807c252b1","","","","","4729",""," ","key"," ","16.647684210526407","500","250","br","-17","1","0","6","9","-27","272"
"","psychophysics","49","346055","0.0-49.0","60e8a63f733f423be3da1846","64de81ceb374b12807c252b1","","","","","6321",""," ","key"," ","16.647271767810004","500","250","br","-11","1","0","24","-21","20","246"
"","psychophysics","50","350470","0.0-50.0","60e8a63f733f423be3da1846","64de81ceb374b12807c252b1","","","","","4408",""," ","key"," ","16.647776515151428","500","250","br","-15","1","0","29","-30","2","259"
"","psychophysics","51","356646","0.0-51.0","60e8a63f733f423be3da1846","64de81ceb374b12807c252b1","","","","","6171",""," ","key"," ","16.648262872628653","500","250","br","-9","1","0","30","12","-23","251"
"","psychophysics","52","362737","0.0-52.0","60e8a63f733f423be3da1846","64de81ceb374b12807c252b1","","","","","6077",""," ","key"," ","16.646950684931475","500","250","br","-6","1","0","-28","-24","4","280"
"","psychophysics","53","367632","0.0-53.0","60e8a63f733f423be3da1846","64de81ceb374b12807c252b1","","","","","4875",""," ","key"," ","16.64550680272122","500","250","br","-15","1","0","0","1","-20","217"
"","psychophysics","54","371127","0.0-54.0","60e8a63f733f423be3da1846","64de81ceb374b12807c252b1","","","","","3491",""," ","key"," ","16.64735885167469","500","250","br","-14","1","0","15","1","4","292"
"","psychophysics","55","373249","0.0-55.0","60e8a63f733f423be3da1846","64de81ceb374b12807c252b1","","","","","2118",""," ","key"," ","16.645166666666416","500","250","br","-15","1","0","-11","26","24","243"
"","psychophysics","56","399466","0.0-56.0","60e8a63f733f423be3da1846","64de81ceb374b12807c252b1","","","","","26206",""," ","key"," ","16.648047013977138","500","250","inst","","","","","","",""
"","psychophysics","57","404641","0.0-57.0","60e8a63f733f423be3da1846","64de81ceb374b12807c252b1","","","","","5164",""," ","key"," ","16.647367741935323","500","250","instPzPre","50","0","","50","","","50"
"","psychophysics","58","412896","0.0-58.0","60e8a63f733f423be3da1846","64de81ceb374b12807c252b1","","","","","8241",""," ","key"," ","16.647026262626245","500","250","instPz0","50","1","","50","","","50"
"","psychophysics","59","418476","0.0-59.0","60e8a63f733f423be3da1846","64de81ceb374b12807c252b1","","","","","5566",""," ","key"," ","16.648194610778365","500","250","instPz1","45","1","","25","","","50"
"","psychophysics","60","423179","0.0-60.0","60e8a63f733f423be3da1846","64de81ceb374b12807c252b1","","","","","4688",""," ","key"," ","16.6479007092198","500","250","instPz2","22","1","","35","","","20"
"","psychophysics","61","435725","0.0-61.0","60e8a63f733f423be3da1846","64de81ceb374b12807c252b1","","","","","12539",""," ","key"," ","16.824342741935467","500","250","instPz3","59","1","","100","","","30"
"","psychophysics","62","439528","0.0-62.0","60e8a63f733f423be3da1846","64de81ceb374b12807c252b1","","","","","3789",""," ","key"," ","16.648837004405383","500","250","instPz4","89","1","","100","","","30"
"","psychophysics","63","441477","0.0-63.0","60e8a63f733f423be3da1846","64de81ceb374b12807c252b1","","","","","1941",""," ","key"," ","16.647568965517387","500","250","inst","","","","","","",""
"","psychophysics","64","446842","0.0-64.0","60e8a63f733f423be3da1846","64de81ceb374b12807c252b1","","","","","5346",""," ","key"," ","16.64757763975143","500","250","pz","55","1","0","48","","","26"
"","psychophysics","65","454857","0.0-65.0","60e8a63f733f423be3da1846","64de81ceb374b12807c252b1","","","","","null","","null","key","null","16.64833958333329","500","250","pz","136","1","0","49","","","58"
"","psychophysics","66","459888","0.0-66.0","60e8a63f733f423be3da1846","64de81ceb374b12807c252b1","","","","","5022",""," ","key"," ","16.647476821192054","500","250","pz","87","1","0","28","","","49"
"","psychophysics","67","463507","0.0-67.0","60e8a63f733f423be3da1846","64de81ceb374b12807c252b1","","","","","3607",""," ","key"," ","16.647537037037115","500","250","pz","69","1","0","37","","","40"
"","psychophysics","68","466874","0.0-68.0","60e8a63f733f423be3da1846","64de81ceb374b12807c252b1","","","","","3362",""," ","key"," ","16.646114427860727","500","250","pz","63","1","0","22","","","32"
"","psychophysics","69","472866","0.0-69.0","60e8a63f733f423be3da1846","64de81ceb374b12807c252b1","","","","","5979",""," ","key"," ","16.647169916434468","500","250","pz","75","1","0","58","","","34"
"","psychophysics","70","478076","0.0-70.0","60e8a63f733f423be3da1846","64de81ceb374b12807c252b1","","","","","5194",""," ","key"," ","16.648131410256422","500","250","pz","74","1","0","59","","","41"
"","psychophysics","71","483560","0.0-71.0","60e8a63f733f423be3da1846","64de81ceb374b12807c252b1","","","","","5465",""," ","key"," ","16.64727743902448","500","250","pz","50","1","0","20","","","29"
"","psychophysics","72","490702","0.0-72.0","60e8a63f733f423be3da1846","64de81ceb374b12807c252b1","","","","","7130",""," ","key"," ","16.647474299065298","500","250","pz","104","1","0","38","","","54"
"","psychophysics","73","494812","0.0-73.0","60e8a63f733f423be3da1846","64de81ceb374b12807c252b1","","","","","4097",""," ","key"," ","16.649426829268375","500","250","pz","58","1","0","30","","","30"
"","psychophysics","74","498306","0.0-74.0","60e8a63f733f423be3da1846","64de81ceb374b12807c252b1","","","","","3483",""," ","key"," ","16.64844976076561","500","250","pz","86","1","0","50","","","49"
"","psychophysics","75","502782","0.0-75.0","60e8a63f733f423be3da1846","64de81ceb374b12807c252b1","","","","","4461",""," ","key"," ","16.647417910447658","500","250","pz","70","1","0","30","","","39"
"","psychophysics","76","507224","0.0-76.0","60e8a63f733f423be3da1846","64de81ceb374b12807c252b1","","","","","4425",""," ","key"," ","16.648233082706742","500","250","pz","84","1","0","41","","","47"
"","psychophysics","77","513003","0.0-77.0","60e8a63f733f423be3da1846","64de81ceb374b12807c252b1","","","","","5772",""," ","key"," ","16.648193641618565","500","250","pz","88","1","0","21","","","24"
"","psychophysics","78","518626","0.0-78.0","60e8a63f733f423be3da1846","64de81ceb374b12807c252b1","","","","","5616",""," ","key"," ","16.646982142857137","500","250","pz","119","1","0","59","","","53"
"","psychophysics","79","520606","0.0-79.0","60e8a63f733f423be3da1846","64de81ceb374b12807c252b1","","","","","1977",""," ","key"," ","16.646798319327587","500","250","inst","","","","","","",""
"","psychophysics","80","523052","0.0-80.0","60e8a63f733f423be3da1846","64de81ceb374b12807c252b1","","","","","2441",""," ","key"," ","16.64456849315081","500","250","instEB0","40","2","","40","0","0","40"
"","psychophysics","81","530131","0.0-81.0","60e8a63f733f423be3da1846","64de81ceb374b12807c252b1","","","","","7075",""," ","key"," ","16.647502358490765","500","250","instEB1","44","2","","30","0","0","40"
"","psychophysics","82","538137","0.0-82.0","60e8a63f733f423be3da1846","64de81ceb374b12807c252b1","","","","","7991",""," ","key"," ","17.00241063829794","500","250","instEB2","35","2","","40","0","0","30"
"","psychophysics","83","548500","0.0-83.0","60e8a63f733f423be3da1846","64de81ceb374b12807c252b1","","","","","10358",""," ","key"," ","16.701573505654242","500","250","instEB3","44","2","","45","0","0","27"
"","psychophysics","84","555332","0.0-84.0","60e8a63f733f423be3da1846","64de81ceb374b12807c252b1","","","","","6824",""," ","key"," ","16.647375609756097","500","250","instEB4","57","2","","30","0","0","40"
"","psychophysics","85","556516","0.0-85.0","60e8a63f733f423be3da1846","64de81ceb374b12807c252b1","","","","","1179",""," ","key"," ","16.64688571428581","500","250","inst","","","","","","",""
"","psychophysics","86","560361","0.0-86.0","60e8a63f733f423be3da1846","64de81ceb374b12807c252b1","","","","","3824",""," ","key"," ","16.64718260869546","500","250","eb","39","2","","27","0","0","27"
"","psychophysics","87","563435","0.0-87.0","60e8a63f733f423be3da1846","64de81ceb374b12807c252b1","","","","","3061",""," ","key"," ","16.6483770491806","500","250","eb","52","2","","38","0","0","45"
"","psychophysics","88","568312","0.0-88.0","60e8a63f733f423be3da1846","64de81ceb374b12807c252b1","","","","","4870",""," ","key"," ","16.648530821917955","500","250","eb","30","2","","49","0","0","24"
"","psychophysics","89","573782","0.0-89.0","60e8a63f733f423be3da1846","64de81ceb374b12807c252b1","","","","","5449",""," ","key"," ","16.698039755351566","500","250","eb","60","2","","25","0","0","47"
"","psychophysics","90","578985","0.0-90.0","60e8a63f733f423be3da1846","64de81ceb374b12807c252b1","","","","","5187",""," ","key"," ","16.64738263665598","500","250","eb","34","2","","50","0","0","25"
"","psychophysics","91","583838","0.0-91.0","60e8a63f733f423be3da1846","64de81ceb374b12807c252b1","","","","","4829",""," ","key"," ","16.646883161511685","500","250","eb","65","2","","46","0","0","52"
"","psychophysics","92","588694","0.0-92.0","60e8a63f733f423be3da1846","64de81ceb374b12807c252b1","","","","","4841",""," ","key"," ","16.647458620689775","500","250","eb","49","2","","24","0","0","41"
"","psychophysics","93","591793","0.0-93.0","60e8a63f733f423be3da1846","64de81ceb374b12807c252b1","","","","","3091",""," ","key"," ","16.645945945945947","500","250","eb","32","2","","35","0","0","24"
"","psychophysics","94","595528","0.0-94.0","60e8a63f733f423be3da1846","64de81ceb374b12807c252b1","","","","","3715",""," ","key"," ","16.646294642857224","500","250","eb","57","2","","52","0","0","54"
"","psychophysics","95","603061","0.0-95.0","60e8a63f733f423be3da1846","64de81ceb374b12807c252b1","","","","","7520",""," ","key"," ","16.64785365853665","500","250","eb","32","2","","54","0","0","25"
"","psychophysics","96","611070","0.0-96.0","60e8a63f733f423be3da1846","64de81ceb374b12807c252b1","","","","","null","","null","key","null","16.647555093554946","500","250","eb","42","2","","27","0","0","31"
"","psychophysics","97","611341","0.0-97.0","60e8a63f733f423be3da1846","64de81ceb374b12807c252b1","","","","","264",""," ","key"," ","16.66266666666294","500","250","eb","38","2","","38","0","0","30"
"","psychophysics","98","616433","0.0-98.0","60e8a63f733f423be3da1846","64de81ceb374b12807c252b1","","","","","5084",""," ","key"," ","16.64673355263183","500","250","eb","48","2","","34","0","0","36"
"","psychophysics","99","619978","0.0-99.0","60e8a63f733f423be3da1846","64de81ceb374b12807c252b1","","","","","3528",""," ","key"," ","16.649647887323944","500","250","eb","44","2","","46","0","0","35"
"","psychophysics","100","624062","0.0-100.0","60e8a63f733f423be3da1846","64de81ceb374b12807c252b1","","","","","4078",""," ","key"," ","16.647696721311238","500","250","eb","38","2","","54","0","0","27"
"","psychophysics","101","625254","0.0-101.0","60e8a63f733f423be3da1846","64de81ceb374b12807c252b1","","","","","1175",""," ","key"," ","16.646714285714552","500","250","inst","","","","","","",""
"","psychophysics","102","629690","0.0-102.0","60e8a63f733f423be3da1846","64de81ceb374b12807c252b1","","","","","4424",""," ","key"," ","16.648590225563996","500","250","instZol0","0","","","0","0","0",""
"","psychophysics","103","640285","0.0-103.0","60e8a63f733f423be3da1846","64de81ceb374b12807c252b1","","","","","10586",""," ","key"," ","16.77972741679878","500","250","instZol1","0.30000000000000004","","","-1.3","0","0",""
"","psychophysics","104","648598","0.0-104.0","60e8a63f733f423be3da1846","64de81ceb374b12807c252b1","","","","","8306",""," ","key"," ","16.681241448692017","500","250","instZol2","-0.09999999999999937","1","","2","0","0",""
"","psychophysics","105","649638","0.0-105.0","60e8a63f733f423be3da1846","64de81ceb374b12807c252b1","","","","","1027",""," ","key"," ","17.508793103448436","500","250","inst","","","","","","",""
"","psychophysics","106","655566","0.0-106.0","60e8a63f733f423be3da1846","64de81ceb374b12807c252b1","","","","","5917",""," ","key"," ","16.64772471910103","500","250","zol","1.7400000000000007","1","0","0.06","14","11",""
"","psychophysics","107","662599","0.0-107.0","60e8a63f733f423be3da1846","64de81ceb374b12807c252b1","","","","","7026",""," ","key"," ","16.766901913875742","500","250","zol","0.8599999999999999","1","0","-0.06","-6","-18",""
"","psychophysics","108","668238","0.0-108.0","60e8a63f733f423be3da1846","64de81ceb374b12807c252b1","","","","","5623",""," ","key"," ","16.647556213017957","500","250","zol","0.7199999999999999","1","0","-0.42","-17","-6",""
"","psychophysics","109","672030","0.0-109.0","60e8a63f733f423be3da1846","64de81ceb374b12807c252b1","","","","","3778",""," ","key"," ","16.647132158590203","500","250","zol","1.12","1","0","0.28","-14","-20",""
"","psychophysics","110","675925","0.0-110.0","60e8a63f733f423be3da1846","64de81ceb374b12807c252b1","","","","","3845",""," ","key"," ","16.719588744588645","500","250","zol","1.0799999999999998","1","0","0.52","14","16",""
"","psychophysics","111","679159","0.0-111.0","60e8a63f733f423be3da1846","64de81ceb374b12807c252b1","","","","","3218",""," ","key"," ","16.733797927460646","500","250","zol","1.7500000000000004","1","0","-0.15","-3","-4",""
"","psychophysics","112","682924","0.0-112.0","60e8a63f733f423be3da1846","64de81ceb374b12807c252b1","","","","","3751",""," ","key"," ","16.721848214285792","500","250","zol","1.4800000000000002","1","0","-0.18","25","-8",""
"","psychophysics","113","687933","0.0-113.0","60e8a63f733f423be3da1846","64de81ceb374b12807c252b1","","","","","4994",""," ","key"," ","16.647823333333168","500","250","zol","1.6900000000000004","1","0","-0.19","-29","9",""
"","psychophysics","114","690809","0.0-114.0","60e8a63f733f423be3da1846","64de81ceb374b12807c252b1","","","","","2862",""," ","key"," ","16.64720930232596","500","250","zol","1.3100000000000003","1","0","-0.01","18","-4",""
"","psychophysics","115","694993","0.0-115.0","60e8a63f733f423be3da1846","64de81ceb374b12807c252b1","","","","","4178",""," ","key"," ","16.64752399999974","500","250","zol","0.9699999999999999","1","0","-0.37","22","-1",""
"","psychophysics","116","701416","0.0-116.0","60e8a63f733f423be3da1846","64de81ceb374b12807c252b1","","","","","6407",""," ","key"," ","16.64748831168815","500","250","zol","-0.12","1","0","-0.08","-9","13",""
"","psychophysics","117","707640","0.0-117.0","60e8a63f733f423be3da1846","64de81ceb374b12807c252b1","","","","","6215",""," ","key"," ","16.648086021505346","500","250","zol","1.6400000000000003","1","0","0.46","24","-7",""
"","psychophysics","118","710771","0.0-118.0","60e8a63f733f423be3da1846","64de81ceb374b12807c252b1","","","","","3114",""," ","key"," ","16.647537234042986","500","250","zol","2.040000000000001","1","0","0.46","29","21",""
"","psychophysics","119","713610","0.0-119.0","60e8a63f733f423be3da1846","64de81ceb374b12807c252b1","","","","","2828",""," ","key"," ","16.6465443786979","500","250","zol","2.0000000000000004","1","0","-0.6","-27","15",""
"","psychophysics","120","716586","0.0-120.0","60e8a63f733f423be3da1846","64de81ceb374b12807c252b1","","","","","2964",""," ","key"," ","16.741338983050543","500","250","zol","2.140000000000001","1","0","-0.44","-23","-4",""
"","psychophysics","121","746996","0.0-121.0","60e8a63f733f423be3da1846","64de81ceb374b12807c252b1","","","","","30406",""," ","key"," ","16.67495117937465","500","250","inst","","","","","","",""
"","psychophysics","122","750959","0.0-122.0","60e8a63f733f423be3da1846","64de81ceb374b12807c252b1","","","","","3958",""," ","key"," ","16.647762711864296","500","250","instZol1","-0.09999999999999998","","","-1.3","0","0",""
"","psychophysics","123","754024","0.0-123.0","60e8a63f733f423be3da1846","64de81ceb374b12807c252b1","","","","","3044",""," ","key"," ","16.647820652174033","500","250","instZol2","-1.2999999999999994","2","","2","0","0",""
"","psychophysics","124","755403","0.0-124.0","60e8a63f733f423be3da1846","64de81ceb374b12807c252b1","","","","","1375",""," ","key"," ","16.647353658536392","500","250","inst","","","","","","",""
"","psychophysics","125","759803","0.0-125.0","60e8a63f733f423be3da1846","64de81ceb374b12807c252b1","","","","","4393",""," ","key"," ","16.90383397683395","500","250","zol","-1.0599999999999998","2","1","0.16","-12","-20",""
"","psychophysics","126","763460","0.0-126.0","60e8a63f733f423be3da1846","64de81ceb374b12807c252b1","","","","","3647",""," ","key"," ","16.64833789954353","500","250","zol","-1.5700000000000003","2","1","-0.63","22","17",""
"","psychophysics","127","768354","0.0-127.0","60e8a63f733f423be3da1846","64de81ceb374b12807c252b1","","","","","4875",""," ","key"," ","16.647221843003607","500","250","zol","-0.23000000000000007","2","1","-0.57","-21","21",""
"","psychophysics","128","772152","0.0-128.0","60e8a63f733f423be3da1846","64de81ceb374b12807c252b1","","","","","3780",""," ","key"," ","16.647973568282307","500","250","zol","-0.94","2","1","-0.36","16","-26",""
"","psychophysics","129","775502","0.0-129.0","60e8a63f733f423be3da1846","64de81ceb374b12807c252b1","","","","","3333",""," ","key"," ","16.648435000000173","500","250","zol","-1.4900000000000002","2","1","-0.01","17","29",""
"","psychophysics","130","779211","0.0-130.0","60e8a63f733f423be3da1846","64de81ceb374b12807c252b1","","","","","3696",""," ","key"," ","16.648500000000283","500","250","zol","-1.7100000000000004","2","1","0.61","-15","3",""
"","psychophysics","131","782194","0.0-131.0","60e8a63f733f423be3da1846","64de81ceb374b12807c252b1","","","","","2952",""," ","key"," ","16.648601123595512","500","250","zol","-1.8200000000000007","2","1","0.12","-26","22",""
"","psychophysics","132","784701","0.0-132.0","60e8a63f733f423be3da1846","64de81ceb374b12807c252b1","","","","","2479",""," ","key"," ","16.646873333333062","500","250","zol","-1.9500000000000006","2","1","-0.25","-22","-9",""
"","psychophysics","133","786816","0.0-133.0","60e8a63f733f423be3da1846","64de81ceb374b12807c252b1","","","","","2109",""," ","key"," ","16.644904761905007","500","250","zol","-1.2300000000000002","2","1","-0.47","14","15",""
"","psychophysics","134","789979","0.0-134.0","60e8a63f733f423be3da1846","64de81ceb374b12807c252b1","","","","","3156",""," ","key"," ","16.648319148936586","500","250","zol","-2.0100000000000007","2","1","0.31","4","13",""
"","psychophysics","135","794296","0.0-135.0","60e8a63f733f423be3da1846","64de81ceb374b12807c252b1","","","","","4296",""," ","key"," ","16.645803088803227","500","250","zol","-1.5300000000000002","2","1","0.43","-9","-24",""
"","psychophysics","136","798706","0.0-136.0","60e8a63f733f423be3da1846","64de81ceb374b12807c252b1","","","","","4395",""," ","key"," ","16.64761363636397","500","250","zol","-3.550000000000002","2","1","0.25","22","16",""
"","psychophysics","137","802837","0.0-137.0","60e8a63f733f423be3da1846","64de81ceb374b12807c252b1","","","","","4111",""," ","key"," ","16.648910931173923","500","250","zol","-1.4900000000000002","2","1","-0.31","20","9",""
"","psychophysics","138","806223","0.0-138.0","60e8a63f733f423be3da1846","64de81ceb374b12807c252b1","","","","","3372",""," ","key"," ","16.64698514851481","500","250","zol","-2.470000000000001","2","1","0.47","-25","13",""
"","psychophysics","139","809928","0.0-139.0","60e8a63f733f423be3da1846","64de81ceb374b12807c252b1","","","","","3695",""," ","key"," ","16.64610810810805","500","250","zol","-1.58","2","1","0.38","17","24",""
"","psychophysics","140","820349","0.0-140.0","60e8a63f733f423be3da1846","64de81ceb374b12807c252b1","","","","","10411",""," ","key"," ","16.64751520000007","500","250","inst","","","","","","",""
"","psychophysics","141","832163","0.0-141.0","60e8a63f733f423be3da1846","64de81ceb374b12807c252b1","","","","","11803",""," ","key"," ","16.64764174894211","500","250","instPz1","45","2","","25","","","50"
"","psychophysics","142","835142","0.0-142.0","60e8a63f733f423be3da1846","64de81ceb374b12807c252b1","","","","","2974",""," ","key"," ","16.646382022471812","500","250","instPz2","31","2","","20","","","35"
"","psychophysics","143","839438","0.0-143.0","60e8a63f733f423be3da1846","64de81ceb374b12807c252b1","","","","","4274",""," ","key"," ","16.648548638132393","500","250","instPz3","39","2","","30","","","100"
"","psychophysics","144","841319","0.0-144.0","60e8a63f733f423be3da1846","64de81ceb374b12807c252b1","","","","","1876",""," ","key"," ","16.647482142857502","500","250","instPz4","41","2","","30","","","100"
"","psychophysics","145","843781","0.0-145.0","60e8a63f733f423be3da1846","64de81ceb374b12807c252b1","","","","","2459",""," ","key"," ","16.64759863945608","500","250","inst","","","","","","",""
"","psychophysics","146","847468","0.0-146.0","60e8a63f733f423be3da1846","64de81ceb374b12807c252b1","","","","","3668",""," ","key"," ","16.64779545454499","500","250","pz","33","2","1","24","","","55"
"","psychophysics","147","851843","0.0-147.0","60e8a63f733f423be3da1846","64de81ceb374b12807c252b1","","","","","4361",""," ","key"," ","16.647072519084176","500","250","pz","17","2","1","56","","","40"
"","psychophysics","148","854352","0.0-148.0","60e8a63f733f423be3da1846","64de81ceb374b12807c252b1","","","","","2496",""," ","key"," ","16.647899328859136","500","250","pz","27","2","1","34","","","60"
"","psychophysics","149","857501","0.0-149.0","60e8a63f733f423be3da1846","64de81ceb374b12807c252b1","","","","","3140",""," ","key"," ","16.646814814814313","500","250","pz","27","2","1","50","","","58"
"","psychophysics","150","861513","0.0-150.0","60e8a63f733f423be3da1846","64de81ceb374b12807c252b1","","","","","4006",""," ","key"," ","16.64725416666673","500","250","pz","21","2","1","36","","","21"
"","psychophysics","151","864313","0.0-151.0","60e8a63f733f423be3da1846","64de81ceb374b12807c252b1","","","","","2796",""," ","key"," ","16.647538922155487","500","250","pz","26","2","1","52","","","57"
"","psychophysics","152","867620","0.0-152.0","60e8a63f733f423be3da1846","64de81ceb374b12807c252b1","","","","","3295",""," ","key"," ","16.647368686868706","500","250","pz","28","2","1","60","","","52"
"","psychophysics","153","871170","0.0-153.0","60e8a63f733f423be3da1846","64de81ceb374b12807c252b1","","","","","3546",""," ","key"," ","16.647735849056364","500","250","pz","11","2","1","60","","","22"
"","psychophysics","154","873319","0.0-154.0","60e8a63f733f423be3da1846","64de81ceb374b12807c252b1","","","","","2145",""," ","key"," ","16.64740625000013","500","250","pz","20","2","1","34","","","45"
"","psychophysics","155","875878","0.0-155.0","60e8a63f733f423be3da1846","64de81ceb374b12807c252b1","","","","","2546",""," ","key"," ","16.647385620914577","500","250","pz","13","2","1","33","","","22"
"","psychophysics","156","879122","0.0-156.0","60e8a63f733f423be3da1846","64de81ceb374b12807c252b1","","","","","3240",""," ","key"," ","16.647730569948124","500","250","pz","24","2","1","43","","","53"
"","psychophysics","157","882440","0.0-157.0","60e8a63f733f423be3da1846","64de81ceb374b12807c252b1","","","","","3310",""," ","key"," ","16.647371859296726","500","250","pz","14","2","1","43","","","35"
"","psychophysics","158","885302","0.0-158.0","60e8a63f733f423be3da1846","64de81ceb374b12807c252b1","","","","","2848",""," ","key"," ","16.645795321637323","500","250","pz","13","2","1","44","","","22"
"","psychophysics","159","889061","0.0-159.0","60e8a63f733f423be3da1846","64de81ceb374b12807c252b1","","","","","3753",""," ","key"," ","16.646147321428412","500","250","pz","17","2","1","49","","","32"
"","psychophysics","160","891910","0.0-160.0","60e8a63f733f423be3da1846","64de81ceb374b12807c252b1","","","","","2839",""," ","key"," ","16.647415094339706","500","250","pz","21","2","1","22","","","58"
"","psychophysics","161","893161","0.0-161.0","60e8a63f733f423be3da1846","64de81ceb374b12807c252b1","","","","","1247",""," ","key"," ","16.64785135135124","500","250","inst","","","","","","",""
"","psychophysics","162","899883","0.0-162.0","60e8a63f733f423be3da1846","64de81ceb374b12807c252b1","","","","","6718",""," ","key"," ","16.646888337468972","500","250","instPog0","340","2","","370","0","0","340"
"","psychophysics","163","904723","0.0-163.0","60e8a63f733f423be3da1846","64de81ceb374b12807c252b1","","","","","4836",""," ","key"," ","16.647055363321634","500","250","instPog1","352","2","","370","0","0","340"
"","psychophysics","164","909388","0.0-164.0","60e8a63f733f423be3da1846","64de81ceb374b12807c252b1","","","","","4658",""," ","key"," ","16.646517857142523","500","250","instPog2","330","2","","340","0","0","340"
"","psychophysics","165","910335","0.0-165.0","60e8a63f733f423be3da1846","64de81ceb374b12807c252b1","","","","","944",""," ","key"," ","16.64829090909228","500","250","inst","","","","","","",""
"","psychophysics","166","912814","0.0-166.0","60e8a63f733f423be3da1846","64de81ceb374b12807c252b1","","","","","2471",""," ","key"," ","16.646425675675495","500","250","pog","325","2","1","325","0","0","341"
"","psychophysics","167","916222","0.0-167.0","60e8a63f733f423be3da1846","64de81ceb374b12807c252b1","","","","","3401",""," ","key"," ","16.645862745098295","500","250","pog","356","2","1","340","0","0","380"
"","psychophysics","168","919598","0.0-168.0","60e8a63f733f423be3da1846","64de81ceb374b12807c252b1","","","","","3351",""," ","key"," ","16.647960396039778","500","250","pog","352","2","1","308","0","0","379"
"","psychophysics","169","923622","0.0-169.0","60e8a63f733f423be3da1846","64de81ceb374b12807c252b1","","","","","4010",""," ","key"," ","16.646228215767792","500","250","pog","320","2","1","338","0","0","326"
"","psychophysics","170","928704","0.0-170.0","60e8a63f733f423be3da1846","64de81ceb374b12807c252b1","","","","","5077",""," ","key"," ","16.64755921052634","500","250","pog","344","2","1","312","0","0","362"
"","psychophysics","171","932928","0.0-171.0","60e8a63f733f423be3da1846","64de81ceb374b12807c252b1","","","","","4218",""," ","key"," ","16.64749603174601","500","250","pog","282","2","1","330","0","0","304"
"","psychophysics","172","935942","0.0-172.0","60e8a63f733f423be3da1846","64de81ceb374b12807c252b1","","","","","2994",""," ","key"," ","16.64668888888878","500","250","pog","290","2","1","366","0","0","311"
"","psychophysics","173","939669","0.0-173.0","60e8a63f733f423be3da1846","64de81ceb374b12807c252b1","","","","","3713",""," ","key"," ","16.647441964285722","500","250","pog","320","2","1","296","0","0","343"
"","psychophysics","174","943863","0.0-174.0","60e8a63f733f423be3da1846","64de81ceb374b12807c252b1","","","","","4188",""," ","key"," ","16.647720000000206","500","250","pog","301","2","1","395","0","0","330"
"","psychophysics","175","947376","0.0-175.0","60e8a63f733f423be3da1846","64de81ceb374b12807c252b1","","","","","3505",""," ","key"," ","16.645704761904753","500","250","pog","294","2","1","304","0","0","312"
"","psychophysics","176","953225","0.0-176.0","60e8a63f733f423be3da1846","64de81ceb374b12807c252b1","","","","","5840",""," ","key"," ","16.838945244956943","500","250","pog","286","2","1","376","0","0","308"
"","psychophysics","177","958524","0.0-177.0","60e8a63f733f423be3da1846","64de81ceb374b12807c252b1","","","","","5293",""," ","key"," ","16.647895899053726","500","250","pog","286","2","1","382","0","0","302"
"","psychophysics","178","960847","0.0-178.0","60e8a63f733f423be3da1846","64de81ceb374b12807c252b1","","","","","2297",""," ","key"," ","16.647050359711827","500","250","pog","351","2","1","359","0","0","365"
"","psychophysics","179","964059","0.0-179.0","60e8a63f733f423be3da1846","64de81ceb374b12807c252b1","","","","","3208",""," ","key"," ","16.823099999999823","500","250","pog","349","2","1","327","0","0","366"
"","psychophysics","180","967544","0.0-180.0","60e8a63f733f423be3da1846","64de81ceb374b12807c252b1","","","","","3481",""," ","key"," ","16.647413461538516","500","250","pog","329","2","1","337","0","0","347"
"","psychophysics","181","969020","0.0-181.0","60e8a63f733f423be3da1846","64de81ceb374b12807c252b1","","","","","1473",""," ","key"," ","16.646954545454886","500","250","inst","","","","","","",""
"","psychophysics","182","973670","0.0-182.0","60e8a63f733f423be3da1846","64de81ceb374b12807c252b1","","","","","4646",""," ","key"," ","16.647694244604345","500","250","instBr3","17","2","","40","0","0","300"
"","psychophysics","183","974414","0.0-183.0","60e8a63f733f423be3da1846","64de81ceb374b12807c252b1","","","","","741",""," ","key"," ","16.64597727272617","500","250","inst","","","","","","",""
"","psychophysics","184","978141","0.0-184.0","60e8a63f733f423be3da1846","64de81ceb374b12807c252b1","","","","","3720",""," ","key"," ","16.798918181818127","500","250","br","17","2","1","-24","-30","-6","223"
"","psychophysics","185","981589","0.0-185.0","60e8a63f733f423be3da1846","64de81ceb374b12807c252b1","","","","","3442",""," ","key"," ","16.647376811594686","500","250","br","13","2","1","-14","22","-1","277"
"","psychophysics","186","986205","0.0-186.0","60e8a63f733f423be3da1846","64de81ceb374b12807c252b1","","","","","4611",""," ","key"," ","16.64735144927534","500","250","br","15","2","1","-18","10","19","239"
"","psychophysics","187","989378","0.0-187.0","60e8a63f733f423be3da1846","64de81ceb374b12807c252b1","","","","","3161",""," ","key"," ","16.646211640211437","500","250","br","20","2","1","-12","26","26","249"
"","psychophysics","188","993108","0.0-188.0","60e8a63f733f423be3da1846","64de81ceb374b12807c252b1","","","","","3722",""," ","key"," ","16.64737053571402","500","250","br","20","2","1","-7","-23","-22","211"
"","psychophysics","189","994495","0.0-189.0","60e8a63f733f423be3da1846","64de81ceb374b12807c252b1","","","","","1382",""," ","key"," ","16.647000000000045","500","250","br","23","2","1","25","16","29","253"
"","psychophysics","190","997670","0.0-190.0","60e8a63f733f423be3da1846","64de81ceb374b12807c252b1","","","","","3169",""," ","key"," ","16.647317460318042","500","250","br","16","2","1","-23","-16","13","241"
"","psychophysics","191","1000820","0.0-191.0","60e8a63f733f423be3da1846","64de81ceb374b12807c252b1","","","","","3117",""," ","key"," ","16.64708510638299","500","250","br","17","2","1","-10","1","21","294"
"","psychophysics","192","1004231","0.0-192.0","60e8a63f733f423be3da1846","64de81ceb374b12807c252b1","","","","","3396",""," ","key"," ","16.64670731707351","500","250","br","23","2","1","-5","9","16","250"
"","psychophysics","193","1008018","0.0-193.0","60e8a63f733f423be3da1846","64de81ceb374b12807c252b1","","","","","3781",""," ","key"," ","16.64752654867212","500","250","br","15","2","1","-21","6","-23","265"
"","psychophysics","194","1011706","0.0-194.0","60e8a63f733f423be3da1846","64de81ceb374b12807c252b1","","","","","3678",""," ","key"," ","16.64732579185524","500","250","br","18","2","1","26","20","20","257"
"","psychophysics","195","1015373","0.0-195.0","60e8a63f733f423be3da1846","64de81ceb374b12807c252b1","","","","","3661",""," ","key"," ","16.648054794520544","500","250","br","15","2","1","-1","-29","22","245"
"","psychophysics","196","1018034","0.0-196.0","60e8a63f733f423be3da1846","64de81ceb374b12807c252b1","","","","","2623",""," ","key"," ","16.75212025316432","500","250","br","11","2","1","-18","1","-19","242"
"","psychophysics","197","1022049","0.0-197.0","60e8a63f733f423be3da1846","64de81ceb374b12807c252b1","","","","","4010",""," ","key"," ","16.71717991631782","500","250","br","20","2","1","-15","0","0","268"
"","psychophysics","198","1024175","0.0-198.0","60e8a63f733f423be3da1846","64de81ceb374b12807c252b1","","","","","2106",""," ","key"," ","16.64757142857083","500","250","br","20","2","1","0","26","27","233"
"","psychophysics","199","1025741","0.0-199.0","60e8a63f733f423be3da1846","64de81ceb374b12807c252b1","","","","","1560",""," ","key"," ","16.644290322580584","500","250","inst","","","","","","",""
"","psychophysics","200","1034585","0.0-200.0","60e8a63f733f423be3da1846","64de81ceb374b12807c252b1","","","","","8837",""," ","key"," ","16.64752165725053","500","250","instEB1","29","1","","40","0","0","30"
"","psychophysics","201","1039525","0.0-201.0","60e8a63f733f423be3da1846","64de81ceb374b12807c252b1","","","","","4935",""," ","key"," ","16.761174061433366","500","250","instEB2","42","1","","30","0","0","40"
"","psychophysics","202","1042539","0.0-202.0","60e8a63f733f423be3da1846","64de81ceb374b12807c252b1","","","","","3008",""," ","key"," ","16.645226519336816","500","250","instEB3","37","1","","27","0","0","45"
"","psychophysics","203","1046533","0.0-203.0","60e8a63f733f423be3da1846","64de81ceb374b12807c252b1","","","","","3988",""," ","key"," ","16.647243697479457","500","250","instEB4","27","1","","40","0","0","30"
"","psychophysics","204","1047668","0.0-204.0","60e8a63f733f423be3da1846","64de81ceb374b12807c252b1","","","","","1127",""," ","key"," ","16.644294117645853","500","250","inst","","","","","","",""
"","psychophysics","205","1053425","0.0-205.0","60e8a63f733f423be3da1846","64de81ceb374b12807c252b1","","","","","5750",""," ","key"," ","16.64667441860467","500","250","eb","54","1","","44","0","0","54"
"","psychophysics","206","1058856","0.0-206.0","60e8a63f733f423be3da1846","64de81ceb374b12807c252b1","","","","","5424",""," ","key"," ","16.647506134969504","500","250","eb","26","1","","52","0","0","29"
"","psychophysics","207","1061318","0.0-207.0","60e8a63f733f423be3da1846","64de81ceb374b12807c252b1","","","","","2456",""," ","key"," ","16.648041095889223","500","250","eb","35","1","","39","0","0","35"
"","psychophysics","208","1064711","0.0-208.0","60e8a63f733f423be3da1846","64de81ceb374b12807c252b1","","","","","3385",""," ","key"," ","16.647561576355045","500","250","eb","31","1","","28","0","0","34"
"","psychophysics","209","1069407","0.0-209.0","60e8a63f733f423be3da1846","64de81ceb374b12807c252b1","","","","","4685",""," ","key"," ","16.647007117437337","500","250","eb","48","1","","28","0","0","52"
"","psychophysics","210","1072688","0.0-210.0","60e8a63f733f423be3da1846","64de81ceb374b12807c252b1","","","","","3275",""," ","key"," ","16.648629441624507","500","250","eb","44","1","","50","0","0","48"
"","psychophysics","211","1077363","0.0-211.0","60e8a63f733f423be3da1846","64de81ceb374b12807c252b1","","","","","4669",""," ","key"," ","16.647480286737924","500","250","eb","47","1","","27","0","0","47"
"","psychophysics","212","1080503","0.0-212.0","60e8a63f733f423be3da1846","64de81ceb374b12807c252b1","","","","","3132",""," ","key"," ","16.646265957446303","500","250","eb","29","1","","47","0","0","33"
"","psychophysics","213","1084241","0.0-213.0","60e8a63f733f423be3da1846","64de81ceb374b12807c252b1","","","","","3727",""," ","key"," ","16.647428571429504","500","250","eb","47","1","","24","0","0","50"
"","psychophysics","214","1089687","0.0-214.0","60e8a63f733f423be3da1846","64de81ceb374b12807c252b1","","","","","5441",""," ","key"," ","16.647432515337673","500","250","eb","29","1","","38","0","0","29"
"","psychophysics","215","1093866","0.0-215.0","60e8a63f733f423be3da1846","64de81ceb374b12807c252b1","","","","","4175",""," ","key"," ","16.648691999999805","500","250","eb","32","1","","53","0","0","33"
"","psychophysics","216","1098359","0.0-216.0","60e8a63f733f423be3da1846","64de81ceb374b12807c252b1","","","","","4487",""," ","key"," ","16.89992803030305","500","250","eb","33","1","","47","0","0","36"
"","psychophysics","217","1103337","0.0-217.0","60e8a63f733f423be3da1846","64de81ceb374b12807c252b1","","","","","4965",""," ","key"," ","16.647456375839056","500","250","eb","29","1","","53","0","0","29"
"","psychophysics","218","1105863","0.0-218.0","60e8a63f733f423be3da1846","64de81ceb374b12807c252b1","","","","","2515",""," ","key"," ","16.644350993377618","500","250","eb","50","1","","52","0","0","51"
"","psychophysics","219","1109248","0.0-219.0","60e8a63f733f423be3da1846","64de81ceb374b12807c252b1","","","","","3341",""," ","key"," ","16.728866336634383","500","250","eb","28","1","","31","0","0","29"
