"success","trial_type","trial_index","time_elapsed","internal_node_id","pid","sid","timeout","failed_images","failed_audio","failed_video","rt","stimulus","response","response_type","key_press","avg_frame_time","center_x","center_y","task","resp","version","block","jitterX","jitterY","start","parA"
"true","fullscreen","0","6169","0.0-0.0","607ba74574a49a21a1811634","64e50c920b9df2fde4c937ef","","","","","","","","","","","","","","","","","","","",""
"true","preload","1","6482","0.0-1.0","607ba74574a49a21a1811634","64e50c920b9df2fde4c937ef","false","[]","[]","[]","","","","","","","","","","","","","","","",""
"","html-button-response","2","19221","0.0-2.0","607ba74574a49a21a1811634","64e50c920b9df2fde4c937ef","","","","","12738","Please Make Sure Your Audio Is On.","0","","","","","","","","","","","","",""
"","psychophysics","3","27422","0.0-3.0","607ba74574a49a21a1811634","64e50c920b9df2fde4c937ef","","","","","8185",""," ","key"," ","16.66735975609756","564","250","","","","","","","",""
"","psychophysics","4","29907","0.0-4.0","607ba74574a49a21a1811634","64e50c920b9df2fde4c937ef","","","","","2482",""," ","key"," ","16.668939189189192","500","250","inst","","","","","","",""
"","psychophysics","5","32933","0.0-5.0","607ba74574a49a21a1811634","64e50c920b9df2fde4c937ef","","","","","3022",""," ","key"," ","16.66770718232042","500","250","sample0","","","","","","",""
"","psychophysics","6","36878","0.0-6.0","607ba74574a49a21a1811634","64e50c920b9df2fde4c937ef","","","","","3941",""," ","key"," ","16.668617021276596","500","250","sample1","","","","","","",""
"","psychophysics","7","48392","0.0-7.0","607ba74574a49a21a1811634","64e50c920b9df2fde4c937ef","","","","","11503",""," ","key"," ","16.66716086956522","500","250","sample2","98","","","","","",""
"","psychophysics","8","51303","0.0-8.0","607ba74574a49a21a1811634","64e50c920b9df2fde4c937ef","","","","","2909",""," ","key"," ","16.669321839080457","500","250","sample3","78","","","","","",""
"","psychophysics","9","59204","0.0-9.0","607ba74574a49a21a1811634","64e50c920b9df2fde4c937ef","","","","","7897",""," ","key"," ","16.667131078224102","500","250","sample4","102","","","","","",""
"","psychophysics","10","74323","0.0-10.0","607ba74574a49a21a1811634","64e50c920b9df2fde4c937ef","","","","","15115",""," ","key"," ","16.68573149171271","500","250","sample5","","","","","","",""
"","psychophysics","11","83959","0.0-11.0","607ba74574a49a21a1811634","64e50c920b9df2fde4c937ef","","","","","9633",""," ","key"," ","16.66755979202773","500","250","sample6","504","","","","","",""
"","psychophysics","12","89630","0.0-12.0","607ba74574a49a21a1811634","64e50c920b9df2fde4c937ef","","","","","5661",""," ","key"," ","16.666994117647075","500","250","inst","","","","","","",""
"","psychophysics","13","96738","0.0-13.0","607ba74574a49a21a1811634","64e50c920b9df2fde4c937ef","","","","","7103",""," ","key"," ","16.667901176470572","500","250","inst","","","","","","",""
"","psychophysics","14","100049","0.0-14.0","607ba74574a49a21a1811634","64e50c920b9df2fde4c937ef","","","","","3307",""," ","key"," ","16.6687828282828","500","250","inst","","","","","","",""
"","psychophysics","15","101824","0.0-15.0","607ba74574a49a21a1811634","64e50c920b9df2fde4c937ef","","","","","1771",""," ","key"," ","16.667190476190548","500","250","inst","","","","","","",""
"","psychophysics","16","103333","0.0-16.0","607ba74574a49a21a1811634","64e50c920b9df2fde4c937ef","","","","","1498",""," ","key"," ","16.6711888888888","500","250","inst","","","","","","",""
"","psychophysics","17","105625","0.0-17.0","607ba74574a49a21a1811634","64e50c920b9df2fde4c937ef","","","","","2287",""," ","key"," ","16.667507352941197","500","250","instZol0","0","","","0","0","0",""
"","psychophysics","18","114181","0.0-18.0","607ba74574a49a21a1811634","64e50c920b9df2fde4c937ef","","","","","8552",""," ","key"," ","16.667235867446397","500","250","instZol1","0.20000000000000004","","","0","0","-1.3",""
"","psychophysics","19","131197","0.0-19.0","607ba74574a49a21a1811634","64e50c920b9df2fde4c937ef","","","","","17013",""," ","key"," ","16.667084313725496","500","250","instZol2","-1.5999999999999996","2","","0","0","2",""
"","psychophysics","20","134287","0.0-20.0","607ba74574a49a21a1811634","64e50c920b9df2fde4c937ef","","","","","3087",""," ","key"," ","16.666880434782637","500","250","inst","","","","","","",""
"","psychophysics","21","141510","0.0-21.0","607ba74574a49a21a1811634","64e50c920b9df2fde4c937ef","","","","","7212",""," ","key"," ","16.66771064814815","500","250","zol","-1.3","2","0","-15","-18","0",""
"","psychophysics","22","146769","0.0-22.0","607ba74574a49a21a1811634","64e50c920b9df2fde4c937ef","","","","","5249",""," ","key"," ","16.667961904761892","500","250","zol","-1.01","2","0","-30","-27","0.31",""
"","psychophysics","23","152378","0.0-23.0","607ba74574a49a21a1811634","64e50c920b9df2fde4c937ef","","","","","5603",""," ","key"," ","16.66809253731348","500","250","zol","-0.83","2","0","-12","-14","-0.07",""
"","psychophysics","24","160391","0.0-24.0","607ba74574a49a21a1811634","64e50c920b9df2fde4c937ef","","","","","null","","null","key","null","16.667081250000045","500","250","zol","-0.36","2","0","5","28","0.36",""
"","psychophysics","25","168396","0.0-25.0","607ba74574a49a21a1811634","64e50c920b9df2fde4c937ef","","","","","null","","null","key","null","16.667100000000026","500","250","zol","-1.2600000000000002","2","0","15","29","0.66",""
"","psychophysics","26","172021","0.0-26.0","607ba74574a49a21a1811634","64e50c920b9df2fde4c937ef","","","","","3619",""," ","key"," ","16.66849074074074","500","250","zol","-0.34","2","0","29","25","-0.46",""
"","psychophysics","27","179649","0.0-27.0","607ba74574a49a21a1811634","64e50c920b9df2fde4c937ef","","","","","7615",""," ","key"," ","16.66710722100654","500","250","zol","-1.36","2","0","7","-8","0.16",""
"","psychophysics","28","182753","0.0-28.0","607ba74574a49a21a1811634","64e50c920b9df2fde4c937ef","","","","","3097",""," ","key"," ","16.668205405405338","500","250","zol","-1.5100000000000005","2","0","18","11","0.61",""
"","psychophysics","29","188096","0.0-29.0","607ba74574a49a21a1811634","64e50c920b9df2fde4c937ef","","","","","5340",""," ","key"," ","16.66749529780568","500","250","zol","-0.8699999999999999","2","0","30","21","0.17",""
"","psychophysics","30","195969","0.0-30.0","607ba74574a49a21a1811634","64e50c920b9df2fde4c937ef","","","","","7862",""," ","key"," ","16.667019067796637","500","250","zol","-1.6100000000000005","2","0","-27","5","-0.59",""
"","psychophysics","31","200905","0.0-31.0","607ba74574a49a21a1811634","64e50c920b9df2fde4c937ef","","","","","4931",""," ","key"," ","16.665799999999976","500","250","zol","-0.51","2","0","-5","13","-0.69",""
"","psychophysics","32","205376","0.0-32.0","607ba74574a49a21a1811634","64e50c920b9df2fde4c937ef","","","","","4464",""," ","key"," ","16.667411985018703","500","250","zol","-0.66","2","0","10","21","-0.44",""
"","psychophysics","33","209630","0.0-33.0","607ba74574a49a21a1811634","64e50c920b9df2fde4c937ef","","","","","4246",""," ","key"," ","16.6675590551181","500","250","zol","-0.9399999999999998","2","0","27","-4","-0.56",""
"","psychophysics","34","215321","0.0-34.0","607ba74574a49a21a1811634","64e50c920b9df2fde4c937ef","","","","","5682",""," ","key"," ","16.66717302052784","500","250","zol","-1.08","2","0","7","-18","0.68",""
"","psychophysics","35","220752","0.0-35.0","607ba74574a49a21a1811634","64e50c920b9df2fde4c937ef","","","","","5424",""," ","key"," ","16.668153846153828","500","250","zol","-1.2600000000000002","2","0","-26","-8","-0.44",""
"","psychophysics","36","222616","0.0-36.0","607ba74574a49a21a1811634","64e50c920b9df2fde4c937ef","","","","","1860",""," ","key"," ","16.669315315315266","500","250","inst","","","","","","",""
"","psychophysics","37","233679","0.0-37.0","607ba74574a49a21a1811634","64e50c920b9df2fde4c937ef","","","","","11058",""," ","key"," ","16.667217522658618","500","250","instPog0","340","2","","0","0","370","340"
"","psychophysics","38","243482","0.0-38.0","607ba74574a49a21a1811634","64e50c920b9df2fde4c937ef","","","","","9797",""," ","key"," ","16.667159863945592","500","250","instPog1","330","2","","0","0","370","340"
"","psychophysics","39","249240","0.0-39.0","607ba74574a49a21a1811634","64e50c920b9df2fde4c937ef","","","","","5755",""," ","key"," ","16.667308139534896","500","250","instPog2","312","2","","0","0","340","340"
"","psychophysics","40","250151","0.0-40.0","607ba74574a49a21a1811634","64e50c920b9df2fde4c937ef","","","","","907",""," ","key"," ","16.671259259259656","500","250","inst","","","","","","",""
"","psychophysics","41","254194","0.0-41.0","607ba74574a49a21a1811634","64e50c920b9df2fde4c937ef","","","","","4038",""," ","key"," ","16.667834024896283","500","250","pog","345","2","0","0","0","381","376"
"","psychophysics","42","259193","0.0-42.0","607ba74574a49a21a1811634","64e50c920b9df2fde4c937ef","","","","","4992",""," ","key"," ","16.6681872909699","500","250","pog","294","2","0","0","0","326","324"
"","psychophysics","43","261993","0.0-43.0","607ba74574a49a21a1811634","64e50c920b9df2fde4c937ef","","","","","2793",""," ","key"," ","16.66745508982034","500","250","pog","302","2","0","0","0","290","335"
"","psychophysics","44","269120","0.0-44.0","607ba74574a49a21a1811634","64e50c920b9df2fde4c937ef","","","","","7119",""," ","key"," ","16.667274004683925","500","250","pog","321","2","0","0","0","391","353"
"","psychophysics","45","276917","0.0-45.0","607ba74574a49a21a1811634","64e50c920b9df2fde4c937ef","","","","","7792",""," ","key"," ","16.667832976445453","500","250","pog","339","2","0","0","0","305","365"
"","psychophysics","46","284924","0.0-46.0","607ba74574a49a21a1811634","64e50c920b9df2fde4c937ef","","","","","null","","null","key","null","16.66775782880996","500","250","pog","400","2","0","0","0","400","369"
"","psychophysics","47","287966","0.0-47.0","607ba74574a49a21a1811634","64e50c920b9df2fde4c937ef","","","","","3040",""," ","key"," ","16.667027624309494","500","250","pog","361","2","0","0","0","377","364"
"","psychophysics","48","295978","0.0-48.0","607ba74574a49a21a1811634","64e50c920b9df2fde4c937ef","","","","","null","","null","key","null","16.66711041666664","500","250","pog","363","2","0","0","0","363","321"
"","psychophysics","49","303981","0.0-49.0","607ba74574a49a21a1811634","64e50c920b9df2fde4c937ef","","","","","null","","null","key","null","16.66705427974954","500","250","pog","400","2","0","0","0","400","362"
"","psychophysics","50","307277","0.0-50.0","607ba74574a49a21a1811634","64e50c920b9df2fde4c937ef","","","","","3292",""," ","key"," ","16.66790862944152","500","250","pog","276","2","0","0","0","316","303"
"","psychophysics","51","315283","0.0-51.0","607ba74574a49a21a1811634","64e50c920b9df2fde4c937ef","","","","","null","","null","key","null","16.667855949895596","500","250","pog","318","2","0","0","0","366","343"
"","psychophysics","52","315394","0.0-52.0","607ba74574a49a21a1811634","64e50c920b9df2fde4c937ef","","","","","107",""," ","key"," ","16.68816666666923","500","250","pog","333","2","0","0","0","333","373"
"","psychophysics","53","321268","0.0-53.0","607ba74574a49a21a1811634","64e50c920b9df2fde4c937ef","","","","","5872",""," ","key"," ","16.668133522727327","500","250","pog","312","2","0","0","0","396","338"
"","psychophysics","54","322326","0.0-54.0","607ba74574a49a21a1811634","64e50c920b9df2fde4c937ef","","","","","1056",""," ","key"," ","16.6680322580646","500","250","pog","330","2","0","0","0","330","347"
"","psychophysics","55","327924","0.0-55.0","607ba74574a49a21a1811634","64e50c920b9df2fde4c937ef","","","","","5595",""," ","key"," ","16.66806865671646","500","250","pog","329","2","0","0","0","373","345"
"","psychophysics","56","356496","0.0-56.0","607ba74574a49a21a1811634","64e50c920b9df2fde4c937ef","","","","","28565",""," ","key"," ","16.66724576765906","500","250","inst","","","","","","",""
"","psychophysics","57","359361","0.0-57.0","607ba74574a49a21a1811634","64e50c920b9df2fde4c937ef","","","","","2860",""," ","key"," ","16.669081871345032","500","250","instPzPre","50","0","","","","50","50"
"","psychophysics","58","361789","0.0-58.0","607ba74574a49a21a1811634","64e50c920b9df2fde4c937ef","","","","","2423",""," ","key"," ","16.67003448275841","500","250","instPz0","49","2","","","","50","50"
"","psychophysics","59","363066","0.0-59.0","607ba74574a49a21a1811634","64e50c920b9df2fde4c937ef","","","","","1272",""," ","key"," ","16.671826666666504","500","250","instPz1","25","2","","","","25","50"
"","psychophysics","60","380000","0.0-60.0","607ba74574a49a21a1811634","64e50c920b9df2fde4c937ef","","","","","16925",""," ","key"," ","16.667225615763545","500","250","instPz2","34","2","","","","20","35"
"","psychophysics","61","389104","0.0-61.0","607ba74574a49a21a1811634","64e50c920b9df2fde4c937ef","","","","","9092",""," ","key"," ","16.66769357798162","500","250","instPz3","82","2","","","","30","100"
"","psychophysics","62","399423","0.0-62.0","607ba74574a49a21a1811634","64e50c920b9df2fde4c937ef","","","","","10311",""," ","key"," ","16.667765751211647","500","250","instPz4","93","2","","","","30","100"
"","psychophysics","63","773713","0.0-63.0","607ba74574a49a21a1811634","64e50c920b9df2fde4c937ef","","","","","374284",""," ","key"," ","16.676746323857053","500","250","inst","","","","","","",""
"","psychophysics","64","780834","0.0-64.0","607ba74574a49a21a1811634","64e50c920b9df2fde4c937ef","","","","","7114",""," ","key"," ","16.667789227166157","500","250","pz","25","2","0","","","54","30"
"","psychophysics","65","784128","0.0-65.0","607ba74574a49a21a1811634","64e50c920b9df2fde4c937ef","","","","","3289",""," ","key"," ","16.839773195876127","500","250","pz","38","2","0","","","49","40"
"","psychophysics","66","790029","0.0-66.0","607ba74574a49a21a1811634","64e50c920b9df2fde4c937ef","","","","","5896",""," ","key"," ","16.667869688385355","500","250","pz","54","2","0","","","46","56"
"","psychophysics","67","791641","0.0-67.0","607ba74574a49a21a1811634","64e50c920b9df2fde4c937ef","","","","","1604",""," ","key"," ","16.667218749999545","500","250","pz","39","2","0","","","39","45"
"","psychophysics","68","795203","0.0-68.0","607ba74574a49a21a1811634","64e50c920b9df2fde4c937ef","","","","","3558",""," ","key"," ","16.668732394366483","500","250","pz","31","2","0","","","55","34"
"","psychophysics","69","797633","0.0-69.0","607ba74574a49a21a1811634","64e50c920b9df2fde4c937ef","","","","","2426",""," ","key"," ","16.66701379310388","500","250","pz","35","2","0","","","54","38"
"","psychophysics","70","798837","0.0-70.0","607ba74574a49a21a1811634","64e50c920b9df2fde4c937ef","","","","","1201",""," ","key"," ","16.672464788732327","500","250","pz","33","2","0","","","33","41"
"","psychophysics","71","801723","0.0-71.0","607ba74574a49a21a1811634","64e50c920b9df2fde4c937ef","","","","","2881",""," ","key"," ","16.668220930232607","500","250","pz","23","2","0","","","43","26"
"","psychophysics","72","806819","0.0-72.0","607ba74574a49a21a1811634","64e50c920b9df2fde4c937ef","","","","","5093",""," ","key"," ","16.66817377049163","500","250","pz","41","2","0","","","24","44"
"","psychophysics","73","808877","0.0-73.0","607ba74574a49a21a1811634","64e50c920b9df2fde4c937ef","","","","","2054",""," ","key"," ","16.667081967212802","500","250","pz","41","2","0","","","37","45"
"","psychophysics","74","811326","0.0-74.0","607ba74574a49a21a1811634","64e50c920b9df2fde4c937ef","","","","","2419",""," ","key"," ","16.66745205479435","500","250","pz","35","2","0","","","29","38"
"","psychophysics","75","815808","0.0-75.0","607ba74574a49a21a1811634","64e50c920b9df2fde4c937ef","","","","","4480",""," ","key"," ","16.667533582089895","500","250","pz","55","2","0","","","38","59"
"","psychophysics","76","818178","0.0-76.0","607ba74574a49a21a1811634","64e50c920b9df2fde4c937ef","","","","","2365",""," ","key"," ","16.669460992907595","500","250","pz","56","2","0","","","50","57"
"","psychophysics","77","819598","0.0-77.0","607ba74574a49a21a1811634","64e50c920b9df2fde4c937ef","","","","","1411",""," ","key"," ","16.667058823530233","500","250","pz","37","2","0","","","37","35"
"","psychophysics","78","822615","0.0-78.0","607ba74574a49a21a1811634","64e50c920b9df2fde4c937ef","","","","","3013",""," ","key"," ","16.669788888888434","500","250","pz","49","2","0","","","58","53"
"","psychophysics","79","823545","0.0-79.0","607ba74574a49a21a1811634","64e50c920b9df2fde4c937ef","","","","","926",""," ","key"," ","16.661444444444324","500","250","inst","","","","","","",""
"","psychophysics","80","826193","0.0-80.0","607ba74574a49a21a1811634","64e50c920b9df2fde4c937ef","","","","","2641",""," ","key"," ","16.668835443037832","500","250","instEB0","40","2","","0","0","40","40"
"","psychophysics","81","829006","0.0-81.0","607ba74574a49a21a1811634","64e50c920b9df2fde4c937ef","","","","","2802",""," ","key"," ","16.66913095238089","500","250","instEB1","44","2","","0","0","30","40"
"","psychophysics","82","831316","0.0-82.0","607ba74574a49a21a1811634","64e50c920b9df2fde4c937ef","","","","","2306",""," ","key"," ","16.66941304347795","500","250","instEB2","45","2","","0","0","40","30"
"","psychophysics","83","836886","0.0-83.0","607ba74574a49a21a1811634","64e50c920b9df2fde4c937ef","","","","","5566",""," ","key"," ","16.666246246246555","500","250","instEB3","43","2","","0","0","45","27"
"","psychophysics","84","840309","0.0-84.0","607ba74574a49a21a1811634","64e50c920b9df2fde4c937ef","","","","","3419",""," ","key"," ","16.668710784313234","500","250","instEB4","55","2","","0","0","30","40"
"","psychophysics","85","841550","0.0-85.0","607ba74574a49a21a1811634","64e50c920b9df2fde4c937ef","","","","","1237",""," ","key"," ","16.669310810810547","500","250","inst","","","","","","",""
"","psychophysics","86","844470","0.0-86.0","607ba74574a49a21a1811634","64e50c920b9df2fde4c937ef","","","","","2916",""," ","key"," ","16.669431034482255","500","250","eb","46","2","","0","0","28","27"
"","psychophysics","87","847238","0.0-87.0","607ba74574a49a21a1811634","64e50c920b9df2fde4c937ef","","","","","2764",""," ","key"," ","16.667460606060217","500","250","eb","65","2","","0","0","45","47"
"","psychophysics","88","849691","0.0-88.0","607ba74574a49a21a1811634","64e50c920b9df2fde4c937ef","","","","","2449",""," ","key"," ","16.669493150685224","500","250","eb","61","2","","0","0","35","44"
"","psychophysics","89","852887","0.0-89.0","607ba74574a49a21a1811634","64e50c920b9df2fde4c937ef","","","","","3192",""," ","key"," ","16.66890052355965","500","250","eb","51","2","","0","0","53","27"
"","psychophysics","90","855075","0.0-90.0","607ba74574a49a21a1811634","64e50c920b9df2fde4c937ef","","","","","2183",""," ","key"," ","16.66636923076943","500","250","eb","44","2","","0","0","35","29"
"","psychophysics","91","858219","0.0-91.0","607ba74574a49a21a1811634","64e50c920b9df2fde4c937ef","","","","","3141",""," ","key"," ","16.667404255318885","500","250","eb","68","2","","0","0","35","49"
"","psychophysics","92","860010","0.0-92.0","607ba74574a49a21a1811634","64e50c920b9df2fde4c937ef","","","","","1788",""," ","key"," ","16.67035849056567","500","250","eb","58","2","","0","0","54","38"
"","psychophysics","93","861785","0.0-93.0","607ba74574a49a21a1811634","64e50c920b9df2fde4c937ef","","","","","1772",""," ","key"," ","16.66979245283039","500","250","eb","56","2","","0","0","47","30"
"","psychophysics","94","863705","0.0-94.0","607ba74574a49a21a1811634","64e50c920b9df2fde4c937ef","","","","","1917",""," ","key"," ","16.665771929824952","500","250","eb","48","2","","0","0","53","29"
"","psychophysics","95","865416","0.0-95.0","607ba74574a49a21a1811634","64e50c920b9df2fde4c937ef","","","","","1705",""," ","key"," ","16.667058823528635","500","250","eb","41","2","","0","0","33","27"
"","psychophysics","96","867560","0.0-96.0","607ba74574a49a21a1811634","64e50c920b9df2fde4c937ef","","","","","2140",""," ","key"," ","16.670023622047193","500","250","eb","69","2","","0","0","53","48"
"","psychophysics","97","869895","0.0-97.0","607ba74574a49a21a1811634","64e50c920b9df2fde4c937ef","","","","","2332",""," ","key"," ","16.669223021582713","500","250","eb","59","2","","0","0","35","53"
"","psychophysics","98","873413","0.0-98.0","607ba74574a49a21a1811634","64e50c920b9df2fde4c937ef","","","","","3510",""," ","key"," ","16.668666666666866","500","250","eb","43","2","","0","0","50","33"
"","psychophysics","99","875655","0.0-99.0","607ba74574a49a21a1811634","64e50c920b9df2fde4c937ef","","","","","2237",""," ","key"," ","16.669776119402986","500","250","eb","58","2","","0","0","37","48"
"","psychophysics","100","877850","0.0-100.0","607ba74574a49a21a1811634","64e50c920b9df2fde4c937ef","","","","","2191",""," ","key"," ","16.664572519083144","500","250","eb","57","2","","0","0","37","46"
"","psychophysics","101","878787","0.0-101.0","607ba74574a49a21a1811634","64e50c920b9df2fde4c937ef","","","","","934",""," ","key"," ","16.67083636363545","500","250","inst","","","","","","",""
"","psychophysics","102","881013","0.0-102.0","607ba74574a49a21a1811634","64e50c920b9df2fde4c937ef","","","","","2220",""," ","key"," ","16.669159090909297","500","250","instBr0","0","","","0","0","0","300"
"","psychophysics","103","884238","0.0-103.0","607ba74574a49a21a1811634","64e50c920b9df2fde4c937ef","","","","","3217",""," ","key"," ","16.66861139896381","500","250","instBr1","-3","","","0","0","-40","300"
"","psychophysics","104","888742","0.0-104.0","607ba74574a49a21a1811634","64e50c920b9df2fde4c937ef","","","","","4499",""," ","key"," ","16.66740520446099","500","250","instBr3","-9","1","","0","0","40","300"
"","psychophysics","105","889443","0.0-105.0","607ba74574a49a21a1811634","64e50c920b9df2fde4c937ef","","","","","699",""," ","key"," ","16.675829268293455","500","250","inst","","","","","","",""
"","psychophysics","106","892817","0.0-106.0","607ba74574a49a21a1811634","64e50c920b9df2fde4c937ef","","","","","3369",""," ","key"," ","16.667821782178333","500","250","br","-21","1","0","26","10","-19","297"
"","psychophysics","107","900790","0.0-107.0","607ba74574a49a21a1811634","64e50c920b9df2fde4c937ef","","","","","7969",""," ","key"," ","16.667794549266127","500","250","br","-13","1","0","2","6","23","247"
"","psychophysics","108","903742","0.0-108.0","607ba74574a49a21a1811634","64e50c920b9df2fde4c937ef","","","","","2949",""," ","key"," ","17.672391566264874","500","250","br","-17","1","0","-27","-28","-26","295"
"","psychophysics","109","905145","0.0-109.0","607ba74574a49a21a1811634","64e50c920b9df2fde4c937ef","","","","","1401",""," ","key"," ","16.665012048192725","500","250","br","-10","1","0","5","6","-10","206"
"","psychophysics","110","909588","0.0-110.0","607ba74574a49a21a1811634","64e50c920b9df2fde4c937ef","","","","","4436",""," ","key"," ","16.66799248120296","500","250","br","-11","1","0","-6","29","1","220"
"","psychophysics","111","912476","0.0-111.0","607ba74574a49a21a1811634","64e50c920b9df2fde4c937ef","","","","","2883",""," ","key"," ","16.66799418604662","500","250","br","-21","1","0","13","-2","-27","201"
"","psychophysics","112","915520","0.0-112.0","607ba74574a49a21a1811634","64e50c920b9df2fde4c937ef","","","","","3040",""," ","key"," ","16.668956043956044","500","250","br","-16","1","0","-15","-22","1","238"
"","psychophysics","113","919253","0.0-113.0","607ba74574a49a21a1811634","64e50c920b9df2fde4c937ef","","","","","3728",""," ","key"," ","16.66875784753377","500","250","br","-15","1","0","20","19","27","293"
"","psychophysics","114","921581","0.0-114.0","607ba74574a49a21a1811634","64e50c920b9df2fde4c937ef","","","","","2324",""," ","key"," ","16.669855072464205","500","250","br","-11","1","0","-4","-14","7","266"
"","psychophysics","115","924618","0.0-115.0","607ba74574a49a21a1811634","64e50c920b9df2fde4c937ef","","","","","3030",""," ","key"," ","16.6696373626371","500","250","br","-20","1","0","-19","14","-22","284"
"","psychophysics","116","928590","0.0-116.0","607ba74574a49a21a1811634","64e50c920b9df2fde4c937ef","","","","","3969",""," ","key"," ","16.66707172995789","500","250","br","-22","1","0","-4","29","14","273"
"","psychophysics","117","930556","0.0-117.0","607ba74574a49a21a1811634","64e50c920b9df2fde4c937ef","","","","","1963",""," ","key"," ","16.66642735042693","500","250","br","-21","1","0","-18","-3","-28","233"
"","psychophysics","118","933393","0.0-118.0","607ba74574a49a21a1811634","64e50c920b9df2fde4c937ef","","","","","2834",""," ","key"," ","16.667928994082867","500","250","br","-16","1","0","-7","29","-10","216"
"","psychophysics","119","936751","0.0-119.0","607ba74574a49a21a1811634","64e50c920b9df2fde4c937ef","","","","","3354",""," ","key"," ","16.66946766169195","500","250","br","-10","1","0","-17","27","21","265"
"","psychophysics","120","938535","0.0-120.0","607ba74574a49a21a1811634","64e50c920b9df2fde4c937ef","","","","","1779",""," ","key"," ","16.670632075471143","500","250","br","-20","1","0","-22","13","-26","276"
"","psychophysics","121","939315","0.0-121.0","607ba74574a49a21a1811634","64e50c920b9df2fde4c937ef","","","","","776",""," ","key"," ","16.67519999999915","500","250","inst","","","","","","",""
"","psychophysics","122","943732","0.0-122.0","607ba74574a49a21a1811634","64e50c920b9df2fde4c937ef","","","","","4411",""," ","key"," ","16.668000000000273","500","250","instPog0","160","1","","0","0","190","160"
"","psychophysics","123","947237","0.0-123.0","607ba74574a49a21a1811634","64e50c920b9df2fde4c937ef","","","","","3498",""," ","key"," ","16.668704761904554","500","250","instPog1","172","1","","0","0","190","160"
"","psychophysics","124","950048","0.0-124.0","607ba74574a49a21a1811634","64e50c920b9df2fde4c937ef","","","","","2808",""," ","key"," ","16.66909580838359","500","250","instPog2","188","1","","0","0","160","160"
"","psychophysics","125","951678","0.0-125.0","607ba74574a49a21a1811634","64e50c920b9df2fde4c937ef","","","","","1623",""," ","key"," ","16.66993814432926","500","250","inst","","","","","","",""
"","psychophysics","126","953068","0.0-126.0","607ba74574a49a21a1811634","64e50c920b9df2fde4c937ef","","","","","1385",""," ","key"," ","16.667373493975813","500","250","pog","166","1","1","0","0","172","132"
"","psychophysics","127","954762","0.0-127.0","607ba74574a49a21a1811634","64e50c920b9df2fde4c937ef","","","","","1690",""," ","key"," ","16.670259999999544","500","250","pog","142","1","1","0","0","116","136"
"","psychophysics","128","956902","0.0-128.0","607ba74574a49a21a1811634","64e50c920b9df2fde4c937ef","","","","","2138",""," ","key"," ","16.667070312500073","500","250","pog","189","1","1","0","0","207","137"
"","psychophysics","129","957754","0.0-129.0","607ba74574a49a21a1811634","64e50c920b9df2fde4c937ef","","","","","848",""," ","key"," ","16.66976000000024","500","250","pog","150","1","1","0","0","150","120"
"","psychophysics","130","960254","0.0-130.0","607ba74574a49a21a1811634","64e50c920b9df2fde4c937ef","","","","","2498",""," ","key"," ","16.667174496644197","500","250","pog","177","1","1","0","0","163","188"
"","psychophysics","131","961068","0.0-131.0","607ba74574a49a21a1811634","64e50c920b9df2fde4c937ef","","","","","808",""," ","key"," ","16.672499999998156","500","250","pog","152","1","1","0","0","152","128"
"","psychophysics","132","962720","0.0-132.0","607ba74574a49a21a1811634","64e50c920b9df2fde4c937ef","","","","","1648",""," ","key"," ","16.66967346938802","500","250","pog","181","1","1","0","0","185","155"
"","psychophysics","133","964100","0.0-133.0","607ba74574a49a21a1811634","64e50c920b9df2fde4c937ef","","","","","1377",""," ","key"," ","16.66797560975722","500","250","pog","209","1","1","0","0","209","176"
"","psychophysics","134","966875","0.0-134.0","607ba74574a49a21a1811634","64e50c920b9df2fde4c937ef","","","","","2770",""," ","key"," ","16.668078787878834","500","250","pog","222","1","1","0","0","140","196"
"","psychophysics","135","969479","0.0-135.0","607ba74574a49a21a1811634","64e50c920b9df2fde4c937ef","","","","","2601",""," ","key"," ","16.66790967741906","500","250","pog","168","1","1","0","0","128","147"
"","psychophysics","136","973110","0.0-136.0","607ba74574a49a21a1811634","64e50c920b9df2fde4c937ef","","","","","3625",""," ","key"," ","16.66874654377888","500","250","pog","211","1","1","0","0","123","164"
"","psychophysics","137","974357","0.0-137.0","607ba74574a49a21a1811634","64e50c920b9df2fde4c937ef","","","","","1244",""," ","key"," ","16.66793243243277","500","250","pog","171","1","1","0","0","171","155"
"","psychophysics","138","977042","0.0-138.0","607ba74574a49a21a1811634","64e50c920b9df2fde4c937ef","","","","","2683",""," ","key"," ","16.665249999999652","500","250","pog","231","1","1","0","0","169","196"
"","psychophysics","139","977906","0.0-139.0","607ba74574a49a21a1811634","64e50c920b9df2fde4c937ef","","","","","860",""," ","key"," ","16.674196078432907","500","250","pog","188","1","1","0","0","188","169"
"","psychophysics","140","979110","0.0-140.0","607ba74574a49a21a1811634","64e50c920b9df2fde4c937ef","","","","","1201",""," ","key"," ","16.67043661971865","500","250","pog","189","1","1","0","0","195","154"
"","psychophysics","141","980300","0.0-141.0","607ba74574a49a21a1811634","64e50c920b9df2fde4c937ef","","","","","1187",""," ","key"," ","16.668732394365936","500","250","inst","","","","","","",""
"","psychophysics","142","982961","0.0-142.0","607ba74574a49a21a1811634","64e50c920b9df2fde4c937ef","","","","","2655",""," ","key"," ","16.66832278480995","500","250","instBr3","17","2","","0","0","40","300"
"","psychophysics","143","983702","0.0-143.0","607ba74574a49a21a1811634","64e50c920b9df2fde4c937ef","","","","","738",""," ","key"," ","16.673022727273004","500","250","inst","","","","","","",""
"","psychophysics","144","986332","0.0-144.0","607ba74574a49a21a1811634","64e50c920b9df2fde4c937ef","","","","","2625",""," ","key"," ","16.66932051282045","500","250","br","12","2","1","17","23","-14","255"
"","psychophysics","145","987312","0.0-145.0","607ba74574a49a21a1811634","64e50c920b9df2fde4c937ef","","","","","975",""," ","key"," ","16.67125862068898","500","250","br","10","2","1","-30","23","10","279"
"","psychophysics","146","990389","0.0-146.0","607ba74574a49a21a1811634","64e50c920b9df2fde4c937ef","","","","","3073",""," ","key"," ","16.668902173912933","500","250","br","15","2","1","-9","-16","-6","203"
"","psychophysics","147","992501","0.0-147.0","607ba74574a49a21a1811634","64e50c920b9df2fde4c937ef","","","","","2108",""," ","key"," ","16.670904761904644","500","250","br","17","2","1","5","-25","-8","230"
"","psychophysics","148","993844","0.0-148.0","607ba74574a49a21a1811634","64e50c920b9df2fde4c937ef","","","","","1337",""," ","key"," ","16.670708860758445","500","250","br","19","2","1","3","-29","22","262"
"","psychophysics","149","995004","0.0-149.0","607ba74574a49a21a1811634","64e50c920b9df2fde4c937ef","","","","","1156",""," ","key"," ","16.669014492753785","500","250","br","15","2","1","0","17","12","267"
"","psychophysics","150","996204","0.0-150.0","607ba74574a49a21a1811634","64e50c920b9df2fde4c937ef","","","","","1195",""," ","key"," ","16.672281690141922","500","250","br","18","2","1","15","-19","17","226"
"","psychophysics","151","999122","0.0-151.0","607ba74574a49a21a1811634","64e50c920b9df2fde4c937ef","","","","","2914",""," ","key"," ","16.668948275862054","500","250","br","16","2","1","4","-15","-29","203"
"","psychophysics","152","1001543","0.0-152.0","607ba74574a49a21a1811634","64e50c920b9df2fde4c937ef","","","","","2417",""," ","key"," ","16.669173611111344","500","250","br","12","2","1","16","-3","-8","204"
"","psychophysics","153","1002482","0.0-153.0","607ba74574a49a21a1811634","64e50c920b9df2fde4c937ef","","","","","936",""," ","key"," ","16.672072727273388","500","250","br","12","2","1","-29","-16","12","266"
"","psychophysics","154","1003706","0.0-154.0","607ba74574a49a21a1811634","64e50c920b9df2fde4c937ef","","","","","1217",""," ","key"," ","16.67190410958903","500","250","br","5","2","1","27","10","4","268"
"","psychophysics","155","1006076","0.0-155.0","607ba74574a49a21a1811634","64e50c920b9df2fde4c937ef","","","","","2366",""," ","key"," ","16.669354609928774","500","250","br","11","2","1","-14","-23","-19","281"
"","psychophysics","156","1008442","0.0-156.0","607ba74574a49a21a1811634","64e50c920b9df2fde4c937ef","","","","","2361",""," ","key"," ","16.66678014184358","500","250","br","8","2","1","7","15","-26","290"
"","psychophysics","157","1010342","0.0-157.0","607ba74574a49a21a1811634","64e50c920b9df2fde4c937ef","","","","","1898",""," ","key"," ","16.66849557522157","500","250","br","14","2","1","-22","17","24","224"
"","psychophysics","158","1012009","0.0-158.0","607ba74574a49a21a1811634","64e50c920b9df2fde4c937ef","","","","","1663",""," ","key"," ","16.669595959596336","500","250","br","17","2","1","-10","-15","25","288"
"","psychophysics","159","1012823","0.0-159.0","607ba74574a49a21a1811634","64e50c920b9df2fde4c937ef","","","","","811",""," ","key"," ","16.674374999999902","500","250","inst","","","","","","",""
"","psychophysics","160","1016845","0.0-160.0","607ba74574a49a21a1811634","64e50c920b9df2fde4c937ef","","","","","4015",""," ","key"," ","16.666095833333383","500","250","instZol1","0.10000000000000003","","","0","0","-1.3",""
"","psychophysics","161","1025029","0.0-161.0","607ba74574a49a21a1811634","64e50c920b9df2fde4c937ef","","","","","8182",""," ","key"," ","16.97970893970892","500","250","instZol2","1.0000000000000007","1","","0","0","2",""
"","psychophysics","162","1025734","0.0-162.0","607ba74574a49a21a1811634","64e50c920b9df2fde4c937ef","","","","","702",""," ","key"," ","16.667560975609643","500","250","inst","","","","","","",""
"","psychophysics","163","1030417","0.0-163.0","607ba74574a49a21a1811634","64e50c920b9df2fde4c937ef","","","","","4673",""," ","key"," ","16.667528571428765","500","250","zol","0.7000000000000002","1","1","16","-25","0.6",""
"","psychophysics","164","1033355","0.0-164.0","607ba74574a49a21a1811634","64e50c920b9df2fde4c937ef","","","","","2928",""," ","key"," ","16.669011428571704","500","250","zol","1.3300000000000003","1","1","18","14","0.07",""
"","psychophysics","165","1037690","0.0-165.0","607ba74574a49a21a1811634","64e50c920b9df2fde4c937ef","","","","","4324",""," ","key"," ","16.667246153845916","500","250","zol","0.82","1","1","-11","6","0.38",""
"","psychophysics","166","1040607","0.0-166.0","607ba74574a49a21a1811634","64e50c920b9df2fde4c937ef","","","","","2908",""," ","key"," ","16.667183908046457","500","250","zol","1.3100000000000003","1","1","3","-2","-0.31",""
"","psychophysics","167","1044356","0.0-167.0","607ba74574a49a21a1811634","64e50c920b9df2fde4c937ef","","","","","3744",""," ","key"," ","16.668358744394595","500","250","zol","1.27","1","1","-15","-17","0.73",""
"","psychophysics","168","1047660","0.0-168.0","607ba74574a49a21a1811634","64e50c920b9df2fde4c937ef","","","","","3297",""," ","key"," ","16.667454545454337","500","250","zol","0.64","1","1","-15","20","-0.04",""
"","psychophysics","169","1050263","0.0-169.0","607ba74574a49a21a1811634","64e50c920b9df2fde4c937ef","","","","","2599",""," ","key"," ","16.667864516129598","500","250","zol","1.05","1","1","19","18","0.35",""
"","psychophysics","170","1053102","0.0-170.0","607ba74574a49a21a1811634","64e50c920b9df2fde4c937ef","","","","","2832",""," ","key"," ","16.669047337277522","500","250","zol","0.7499999999999999","1","1","19","13","-0.05",""
"","psychophysics","171","1056365","0.0-171.0","607ba74574a49a21a1811634","64e50c920b9df2fde4c937ef","","","","","3253",""," ","key"," ","16.668984615384865","500","250","zol","0.3599999999999999","1","1","-4","8","0.34",""
"","psychophysics","172","1058135","0.0-172.0","607ba74574a49a21a1811634","64e50c920b9df2fde4c937ef","","","","","1765",""," ","key"," ","16.664980952379604","500","250","zol","1.2400000000000002","1","1","-28","25","-0.14",""
"","psychophysics","173","1060254","0.0-173.0","607ba74574a49a21a1811634","64e50c920b9df2fde4c937ef","","","","","2111",""," ","key"," ","16.667428571427802","500","250","zol","0.9899999999999999","1","1","-19","-7","0.01",""
"","psychophysics","174","1062072","0.0-174.0","607ba74574a49a21a1811634","64e50c920b9df2fde4c937ef","","","","","1807",""," ","key"," ","16.669694444444893","500","250","zol","0.38","1","1","-17","22","0.62",""
"","psychophysics","175","1063864","0.0-175.0","607ba74574a49a21a1811634","64e50c920b9df2fde4c937ef","","","","","1782",""," ","key"," ","16.66969158878402","500","250","zol","1.24","1","1","-2","-18","-0.24",""
"","psychophysics","176","1065914","0.0-176.0","607ba74574a49a21a1811634","64e50c920b9df2fde4c937ef","","","","","2044",""," ","key"," ","16.667991803279605","500","250","zol","0.8399999999999999","1","1","-8","15","0.56",""
"","psychophysics","177","1067635","0.0-177.0","607ba74574a49a21a1811634","64e50c920b9df2fde4c937ef","","","","","1715",""," ","key"," ","16.669303921569487","500","250","zol","1.1300000000000001","1","1","-9","-11","0.47",""
"","psychophysics","178","1068842","0.0-178.0","607ba74574a49a21a1811634","64e50c920b9df2fde4c937ef","","","","","1204",""," ","key"," ","16.671847222220904","500","250","inst","","","","","","",""
"","psychophysics","179","1070498","0.0-179.0","607ba74574a49a21a1811634","64e50c920b9df2fde4c937ef","","","","","1652",""," ","key"," ","16.67041836734576","500","250","instEB1","43","1","","0","0","40","30"
"","psychophysics","180","1070698","0.0-180.0","607ba74574a49a21a1811634","64e50c920b9df2fde4c937ef","","","","","196",""," ","key"," ","16.673454545459457","500","250","instEB2","30","1","","0","0","30","40"
"","psychophysics","181","1071051","0.0-181.0","607ba74574a49a21a1811634","64e50c920b9df2fde4c937ef","","","","","350",""," ","key"," ","16.668299999996087","500","250","instEB3","27","1","","0","0","27","45"
"","psychophysics","182","1071410","0.0-182.0","607ba74574a49a21a1811634","64e50c920b9df2fde4c937ef","","","","","354",""," ","key"," ","16.680904761899175","500","250","instEB4","40","1","","0","0","40","30"
"","psychophysics","183","1072019","0.0-183.0","607ba74574a49a21a1811634","64e50c920b9df2fde4c937ef","","","","","606",""," ","key"," ","16.676285714283587","500","250","inst","","","","","","",""
"","psychophysics","184","1075681","0.0-184.0","607ba74574a49a21a1811634","64e50c920b9df2fde4c937ef","","","","","3657",""," ","key"," ","16.667141552511644","500","250","eb","21","1","","0","0","33","29"
"","psychophysics","185","1079429","0.0-185.0","607ba74574a49a21a1811634","64e50c920b9df2fde4c937ef","","","","","3742",""," ","key"," ","16.66857142857043","500","250","eb","26","1","","0","0","34","32"
"","psychophysics","186","1080717","0.0-186.0","607ba74574a49a21a1811634","64e50c920b9df2fde4c937ef","","","","","1284",""," ","key"," ","16.66931578947084","500","250","eb","33","1","","0","0","33","51"
"","psychophysics","187","1081910","0.0-187.0","607ba74574a49a21a1811634","64e50c920b9df2fde4c937ef","","","","","1186",""," ","key"," ","16.672042253522307","500","250","eb","31","1","","0","0","31","53"
"","psychophysics","188","1085584","0.0-188.0","607ba74574a49a21a1811634","64e50c920b9df2fde4c937ef","","","","","3671",""," ","key"," ","16.666753424657934","500","250","eb","38","1","","0","0","48","43"
"","psychophysics","189","1087662","0.0-189.0","607ba74574a49a21a1811634","64e50c920b9df2fde4c937ef","","","","","2072",""," ","key"," ","16.669895161290636","500","250","eb","23","1","","0","0","25","27"
"","psychophysics","190","1093885","0.0-190.0","607ba74574a49a21a1811634","64e50c920b9df2fde4c937ef","","","","","6219",""," ","key"," ","16.667168900804423","500","250","eb","24","1","","0","0","40","25"
"","psychophysics","191","1097299","0.0-191.0","607ba74574a49a21a1811634","64e50c920b9df2fde4c937ef","","","","","3410",""," ","key"," ","16.668167487684904","500","250","eb","24","1","","0","0","49","32"
"","psychophysics","192","1099117","0.0-192.0","607ba74574a49a21a1811634","64e50c920b9df2fde4c937ef","","","","","1801",""," ","key"," ","16.669509259259534","500","250","eb","31","1","","0","0","26","40"
"","psychophysics","193","1101215","0.0-193.0","607ba74574a49a21a1811634","64e50c920b9df2fde4c937ef","","","","","2090",""," ","key"," ","16.669311999998985","500","250","eb","25","1","","0","0","36","28"
"","psychophysics","194","1103730","0.0-194.0","607ba74574a49a21a1811634","64e50c920b9df2fde4c937ef","","","","","2509",""," ","key"," ","16.66819333333367","500","250","eb","38","1","","0","0","52","44"
"","psychophysics","195","1106055","0.0-195.0","607ba74574a49a21a1811634","64e50c920b9df2fde4c937ef","","","","","2321",""," ","key"," ","16.668812949639214","500","250","eb","30","1","","0","0","34","33"
"","psychophysics","196","1107808","0.0-196.0","607ba74574a49a21a1811634","64e50c920b9df2fde4c937ef","","","","","1749",""," ","key"," ","16.667086538460214","500","250","eb","43","1","","0","0","37","54"
"","psychophysics","197","1108967","0.0-197.0","607ba74574a49a21a1811634","64e50c920b9df2fde4c937ef","","","","","1155",""," ","key"," ","16.668632352943806","500","250","eb","41","1","","0","0","41","50"
"","psychophysics","198","1112244","0.0-198.0","607ba74574a49a21a1811634","64e50c920b9df2fde4c937ef","","","","","3270",""," ","key"," ","16.668668367347575","500","250","eb","27","1","","0","0","34","29"
"","psychophysics","199","1113074","0.0-199.0","607ba74574a49a21a1811634","64e50c920b9df2fde4c937ef","","","","","828",""," ","key"," ","16.666999999999202","500","250","inst","","","","","","",""
"","psychophysics","200","1115287","0.0-200.0","607ba74574a49a21a1811634","64e50c920b9df2fde4c937ef","","","","","2209",""," ","key"," ","16.669727272728007","500","250","instPz1","25","1","","","","25","50"
"","psychophysics","201","1115506","0.0-201.0","607ba74574a49a21a1811634","64e50c920b9df2fde4c937ef","","","","","215",""," ","key"," ","16.693416666666355","500","250","instPz2","35","1","","","","35","20"
"","psychophysics","202","1116888","0.0-202.0","607ba74574a49a21a1811634","64e50c920b9df2fde4c937ef","","","","","1376",""," ","key"," ","16.669987804878208","500","250","instPz3","100","1","","","","100","30"
"","psychophysics","203","1117871","0.0-203.0","607ba74574a49a21a1811634","64e50c920b9df2fde4c937ef","","","","","979",""," ","key"," ","16.667396551724686","500","250","instPz4","100","1","","","","100","30"
"","psychophysics","204","1118557","0.0-204.0","607ba74574a49a21a1811634","64e50c920b9df2fde4c937ef","","","","","682",""," ","key"," ","16.675424999999812","500","250","inst","","","","","","",""
"","psychophysics","205","1124322","0.0-205.0","607ba74574a49a21a1811634","64e50c920b9df2fde4c937ef","","","","","5758",""," ","key"," ","16.668098550725162","500","250","pz","50","1","1","","","54","35"
"","psychophysics","206","1127650","0.0-206.0","607ba74574a49a21a1811634","64e50c920b9df2fde4c937ef","","","","","3323",""," ","key"," ","16.667242424242726","500","250","pz","40","1","1","","","52","28"
"","psychophysics","207","1131656","0.0-207.0","607ba74574a49a21a1811634","64e50c920b9df2fde4c937ef","","","","","3998",""," ","key"," ","16.66757083333311","500","250","pz","48","1","1","","","26","35"
"","psychophysics","208","1136208","0.0-208.0","607ba74574a49a21a1811634","64e50c920b9df2fde4c937ef","","","","","4540",""," ","key"," ","16.667874538745195","500","250","pz","74","1","1","","","25","52"
"","psychophysics","209","1139470","0.0-209.0","607ba74574a49a21a1811634","64e50c920b9df2fde4c937ef","","","","","3255",""," ","key"," ","16.668512820512152","500","250","pz","34","1","1","","","45","20"
"","psychophysics","210","1142285","0.0-210.0","607ba74574a49a21a1811634","64e50c920b9df2fde4c937ef","","","","","2807",""," ","key"," ","16.66777976190566","500","250","pz","42","1","1","","","52","21"
"","psychophysics","211","1144673","0.0-211.0","607ba74574a49a21a1811634","64e50c920b9df2fde4c937ef","","","","","2383",""," ","key"," ","16.669521126760053","500","250","pz","50","1","1","","","30","34"
"","psychophysics","212","1147477","0.0-212.0","607ba74574a49a21a1811634","64e50c920b9df2fde4c937ef","","","","","2796",""," ","key"," ","17.50051875000063","500","250","pz","58","1","1","","","50","47"
"","psychophysics","213","1148898","0.0-213.0","607ba74574a49a21a1811634","64e50c920b9df2fde4c937ef","","","","","1418",""," ","key"," ","16.667083333332336","500","250","pz","29","1","1","","","29","21"
"","psychophysics","214","1149822","0.0-214.0","607ba74574a49a21a1811634","64e50c920b9df2fde4c937ef","","","","","920",""," ","key"," ","16.67205555555497","500","250","pz","59","1","1","","","59","46"
"","psychophysics","215","1152347","0.0-215.0","607ba74574a49a21a1811634","64e50c920b9df2fde4c937ef","","","","","2515",""," ","key"," ","16.669384105960585","500","250","pz","74","1","1","","","38","58"
"","psychophysics","216","1153523","0.0-216.0","607ba74574a49a21a1811634","64e50c920b9df2fde4c937ef","","","","","1171",""," ","key"," ","16.66989855072461","500","250","pz","52","1","1","","","52","49"
"","psychophysics","217","1157157","0.0-217.0","607ba74574a49a21a1811634","64e50c920b9df2fde4c937ef","","","","","3626",""," ","key"," ","16.66868202765","500","250","pz","94","1","1","","","26","59"
"","psychophysics","218","1160247","0.0-218.0","607ba74574a49a21a1811634","64e50c920b9df2fde4c937ef","","","","","3083",""," ","key"," ","16.666918918918316","500","250","pz","71","1","1","","","21","52"
"","psychophysics","219","1161334","0.0-219.0","607ba74574a49a21a1811634","64e50c920b9df2fde4c937ef","","","","","1084",""," ","key"," ","16.672468749999098","500","250","pz","24","1","1","","","24","22"
