"success","trial_type","trial_index","time_elapsed","internal_node_id","pid","sid","timeout","failed_images","failed_audio","failed_video","rt","stimulus","response","response_type","key_press","avg_frame_time","center_x","center_y","task","resp","version","block","start","jitterX","jitterY","parA"
"true","fullscreen","0","12129","0.0-0.0","5dd299a27f1bbf2a83554ecf","64e50e0594d9b345978f18fb","","","","","","","","","","","","","","","","","","","",""
"true","preload","1","12330","0.0-1.0","5dd299a27f1bbf2a83554ecf","64e50e0594d9b345978f18fb","false","[]","[]","[]","","","","","","","","","","","","","","","",""
"","html-button-response","2","14245","0.0-2.0","5dd299a27f1bbf2a83554ecf","64e50e0594d9b345978f18fb","","","","","1915","Please Make Sure Your Audio Is On.","0","","","","","","","","","","","","",""
"","psychophysics","3","21932","0.0-3.0","5dd299a27f1bbf2a83554ecf","64e50e0594d9b345978f18fb","","","","","7679",""," ","key"," ","16.670980477223427","683","250","","","","","","","",""
"","psychophysics","4","24759","0.0-4.0","5dd299a27f1bbf2a83554ecf","64e50e0594d9b345978f18fb","","","","","2818",""," ","key"," ","16.671532544378685","500","250","inst","","","","","","",""
"","psychophysics","5","29244","0.0-5.0","5dd299a27f1bbf2a83554ecf","64e50e0594d9b345978f18fb","","","","","4481",""," ","key"," ","16.670567164179104","500","250","sample0","","","","","","",""
"","psychophysics","6","31868","0.0-6.0","5dd299a27f1bbf2a83554ecf","64e50e0594d9b345978f18fb","","","","","2622",""," ","key"," ","16.670750000000016","500","250","sample1","","","","","","",""
"","psychophysics","7","51561","0.0-7.0","5dd299a27f1bbf2a83554ecf","64e50e0594d9b345978f18fb","","","","","19680",""," ","key"," ","16.670553767993226","500","250","sample2","100","","","","","",""
"","psychophysics","8","63001","0.0-8.0","5dd299a27f1bbf2a83554ecf","64e50e0594d9b345978f18fb","","","","","11436",""," ","key"," ","16.670716788321165","500","250","sample3","102","","","","","",""
"","psychophysics","9","73952","0.0-9.0","5dd299a27f1bbf2a83554ecf","64e50e0594d9b345978f18fb","","","","","10946",""," ","key"," ","16.670466463414623","500","250","sample4","102","","","","","",""
"","psychophysics","10","79811","0.0-10.0","5dd299a27f1bbf2a83554ecf","64e50e0594d9b345978f18fb","","","","","5853",""," ","key"," ","16.67042285714286","500","250","sample5","","","","","","",""
"","psychophysics","11","92843","0.0-11.0","5dd299a27f1bbf2a83554ecf","64e50e0594d9b345978f18fb","","","","","13022",""," ","key"," ","16.67069526248399","500","250","sample6","502","","","","","",""
"","psychophysics","12","137876","0.0-12.0","5dd299a27f1bbf2a83554ecf","64e50e0594d9b345978f18fb","","","","","45030",""," ","key"," ","16.670584444444444","500","250","inst","","","","","","",""
"","psychophysics","13","141740","0.0-13.0","5dd299a27f1bbf2a83554ecf","64e50e0594d9b345978f18fb","","","","","3853",""," ","key"," ","16.670709956709867","500","250","inst","","","","","","",""
"","psychophysics","14","145163","0.0-14.0","5dd299a27f1bbf2a83554ecf","64e50e0594d9b345978f18fb","","","","","3419",""," ","key"," ","16.670578431372597","500","250","inst","","","","","","",""
"","psychophysics","15","148158","0.0-15.0","5dd299a27f1bbf2a83554ecf","64e50e0594d9b345978f18fb","","","","","2987",""," ","key"," ","16.67058100558651","500","250","inst","","","","","","",""
"","psychophysics","16","150752","0.0-16.0","5dd299a27f1bbf2a83554ecf","64e50e0594d9b345978f18fb","","","","","2591",""," ","key"," ","16.67084516129032","500","250","inst","","","","","","",""
"","psychophysics","17","161715","0.0-17.0","5dd299a27f1bbf2a83554ecf","64e50e0594d9b345978f18fb","","","","","10958",""," ","key"," ","16.670692073170756","500","250","instPog0","162","1","","190","0","0","160"
"","psychophysics","18","167613","0.0-18.0","5dd299a27f1bbf2a83554ecf","64e50e0594d9b345978f18fb","","","","","5888",""," ","key"," ","16.67079886685557","500","250","instPog1","178","1","","190","0","0","160"
"","psychophysics","19","174975","0.0-19.0","5dd299a27f1bbf2a83554ecf","64e50e0594d9b345978f18fb","","","","","7358",""," ","key"," ","16.67061451247161","500","250","instPog2","178","1","","160","0","0","160"
"","psychophysics","20","177502","0.0-20.0","5dd299a27f1bbf2a83554ecf","64e50e0594d9b345978f18fb","","","","","2522",""," ","key"," ","16.67068000000009","500","250","inst","","","","","","",""
"","psychophysics","21","182836","0.0-21.0","5dd299a27f1bbf2a83554ecf","64e50e0594d9b345978f18fb","","","","","5320",""," ","key"," ","16.670821316614415","500","250","pog","148","1","0","112","0","0","124"
"","psychophysics","22","187235","0.0-22.0","5dd299a27f1bbf2a83554ecf","64e50e0594d9b345978f18fb","","","","","4390",""," ","key"," ","16.670980988593133","500","250","pog","207","1","0","199","0","0","178"
"","psychophysics","23","194287","0.0-23.0","5dd299a27f1bbf2a83554ecf","64e50e0594d9b345978f18fb","","","","","7042",""," ","key"," ","16.67091232227488","500","250","pog","207","1","0","143","0","0","183"
"","psychophysics","24","199379","0.0-24.0","5dd299a27f1bbf2a83554ecf","64e50e0594d9b345978f18fb","","","","","5082",""," ","key"," ","16.670531147540945","500","250","pog","214","1","0","208","0","0","189"
"","psychophysics","25","203569","0.0-25.0","5dd299a27f1bbf2a83554ecf","64e50e0594d9b345978f18fb","","","","","4184",""," ","key"," ","16.6705","500","250","pog","169","1","0","143","0","0","153"
"","psychophysics","26","210169","0.0-26.0","5dd299a27f1bbf2a83554ecf","64e50e0594d9b345978f18fb","","","","","6597",""," ","key"," ","16.670711392405092","500","250","pog","150","1","0","108","0","0","137"
"","psychophysics","27","217336","0.0-27.0","5dd299a27f1bbf2a83554ecf","64e50e0594d9b345978f18fb","","","","","7163",""," ","key"," ","16.670547785547804","500","250","pog","162","1","0","210","0","0","148"
"","psychophysics","28","225340","0.0-28.0","5dd299a27f1bbf2a83554ecf","64e50e0594d9b345978f18fb","","","","","null","","null","key","null","16.6701670146138","500","250","pog","204","1","0","134","0","0","190"
"","psychophysics","29","230412","0.0-29.0","5dd299a27f1bbf2a83554ecf","64e50e0594d9b345978f18fb","","","","","5069",""," ","key"," ","16.670366336633613","500","250","pog","209","1","0","165","0","0","186"
"","psychophysics","30","232730","0.0-30.0","5dd299a27f1bbf2a83554ecf","64e50e0594d9b345978f18fb","","","","","2316",""," ","key"," ","16.670565217391307","500","250","pog","197","1","0","187","0","0","178"
"","psychophysics","31","234986","0.0-31.0","5dd299a27f1bbf2a83554ecf","64e50e0594d9b345978f18fb","","","","","2248",""," ","key"," ","16.67149253731351","500","250","pog","179","1","0","173","0","0","152"
"","psychophysics","32","238674","0.0-32.0","5dd299a27f1bbf2a83554ecf","64e50e0594d9b345978f18fb","","","","","3680",""," ","key"," ","16.67071945701354","500","250","pog","201","1","0","177","0","0","177"
"","psychophysics","33","242897","0.0-33.0","5dd299a27f1bbf2a83554ecf","64e50e0594d9b345978f18fb","","","","","4219",""," ","key"," ","16.670242063492115","500","250","pog","210","1","0","220","0","0","192"
"","psychophysics","34","247292","0.0-34.0","5dd299a27f1bbf2a83554ecf","64e50e0594d9b345978f18fb","","","","","4389",""," ","key"," ","16.671022813688182","500","250","pog","147","1","0","113","0","0","127"
"","psychophysics","35","252477","0.0-35.0","5dd299a27f1bbf2a83554ecf","64e50e0594d9b345978f18fb","","","","","5181",""," ","key"," ","16.670132258064545","500","250","pog","189","1","0","145","0","0","175"
"","psychophysics","36","254917","0.0-36.0","5dd299a27f1bbf2a83554ecf","64e50e0594d9b345978f18fb","","","","","2436",""," ","key"," ","16.670062068965414","500","250","inst","","","","","","",""
"","psychophysics","37","258128","0.0-37.0","5dd299a27f1bbf2a83554ecf","64e50e0594d9b345978f18fb","","","","","3206",""," ","key"," ","16.671156249999967","500","250","instZol0","0","","","0","0","0",""
"","psychophysics","38","271636","0.0-38.0","5dd299a27f1bbf2a83554ecf","64e50e0594d9b345978f18fb","","","","","13504",""," ","key"," ","16.670533992583472","500","250","instZol1","-0.09999999999999998","","","-1.3","0","0",""
"","psychophysics","39","289201","0.0-39.0","5dd299a27f1bbf2a83554ecf","64e50e0594d9b345978f18fb","","","","","17554",""," ","key"," ","16.670558404558403","500","250","instZol2","1.300000000000001","1","","2","0","0",""
"","psychophysics","40","291670","0.0-40.0","5dd299a27f1bbf2a83554ecf","64e50e0594d9b345978f18fb","","","","","2466",""," ","key"," ","16.670952380952414","500","250","inst","","","","","","",""
"","psychophysics","41","297817","0.0-41.0","5dd299a27f1bbf2a83554ecf","64e50e0594d9b345978f18fb","","","","","6137",""," ","key"," ","16.67062125340604","500","250","zol","0.29","1","0","0.41","-4","25",""
"","psychophysics","42","303244","0.0-42.0","5dd299a27f1bbf2a83554ecf","64e50e0594d9b345978f18fb","","","","","5415",""," ","key"," ","16.670975384615325","500","250","zol","0.3500000000000001","1","0","-0.55","-22","-2",""
"","psychophysics","43","306799","0.0-43.0","5dd299a27f1bbf2a83554ecf","64e50e0594d9b345978f18fb","","","","","3543",""," ","key"," ","16.671127358490473","500","250","zol","0.57","1","0","0.03","-29","-9",""
"","psychophysics","44","309423","0.0-44.0","5dd299a27f1bbf2a83554ecf","64e50e0594d9b345978f18fb","","","","","2610",""," ","key"," ","16.670834394904436","500","250","zol","0.51","1","0","-0.61","6","-7",""
"","psychophysics","45","313611","0.0-45.0","5dd299a27f1bbf2a83554ecf","64e50e0594d9b345978f18fb","","","","","4181",""," ","key"," ","16.670632000000214","500","250","zol","0.36","1","0","-0.46","-16","-14",""
"","psychophysics","46","321619","0.0-46.0","5dd299a27f1bbf2a83554ecf","64e50e0594d9b345978f18fb","","","","","null","","null","key","null","16.670405010438316","500","250","zol","-0.45999999999999996","1","0","0.26","-5","14",""
"","psychophysics","47","324792","0.0-47.0","5dd299a27f1bbf2a83554ecf","64e50e0594d9b345978f18fb","","","","","3164",""," ","key"," ","16.671057894736787","500","250","zol","0.63","1","0","-0.23","-3","-28",""
"","psychophysics","48","328527","0.0-48.0","5dd299a27f1bbf2a83554ecf","64e50e0594d9b345978f18fb","","","","","3732",""," ","key"," ","16.670842342342457","500","250","zol","0.16999999999999996","1","0","0.33","-21","16",""
"","psychophysics","49","332630","0.0-49.0","5dd299a27f1bbf2a83554ecf","64e50e0594d9b345978f18fb","","","","","4094",""," ","key"," ","16.67064634146362","500","250","zol","0.07","1","0","0.03","12","12",""
"","psychophysics","50","335117","0.0-50.0","5dd299a27f1bbf2a83554ecf","64e50e0594d9b345978f18fb","","","","","2479",""," ","key"," ","16.67142567567557","500","250","zol","0.49","1","0","-0.29","-20","25",""
"","psychophysics","51","340086","0.0-51.0","5dd299a27f1bbf2a83554ecf","64e50e0594d9b345978f18fb","","","","","4962",""," ","key"," ","16.670734006733955","500","250","zol","0.52","1","0","-0.02","-28","8",""
"","psychophysics","52","343492","0.0-52.0","5dd299a27f1bbf2a83554ecf","64e50e0594d9b345978f18fb","","","","","3393",""," ","key"," ","16.67049261083737","500","250","zol","0.72","1","0","-0.12","-8","-22",""
"","psychophysics","53","346411","0.0-53.0","5dd299a27f1bbf2a83554ecf","64e50e0594d9b345978f18fb","","","","","2907",""," ","key"," ","16.670867816091786","500","250","zol","1.3","1","0","-0.7","-11","22",""
"","psychophysics","54","349688","0.0-54.0","5dd299a27f1bbf2a83554ecf","64e50e0594d9b345978f18fb","","","","","3265",""," ","key"," ","16.670316326530525","500","250","zol","0.1499999999999999","1","0","0.75","1","-11",""
"","psychophysics","55","352586","0.0-55.0","5dd299a27f1bbf2a83554ecf","64e50e0594d9b345978f18fb","","","","","2883",""," ","key"," ","16.671196531792067","500","250","zol","0.19999999999999998","1","0","0.4","-30","19",""
"","psychophysics","56","355971","0.0-56.0","5dd299a27f1bbf2a83554ecf","64e50e0594d9b345978f18fb","","","","","3382",""," ","key"," ","16.66953465346527","500","250","inst","","","","","","",""
"","psychophysics","57","359230","0.0-57.0","5dd299a27f1bbf2a83554ecf","64e50e0594d9b345978f18fb","","","","","3256",""," ","key"," ","16.670958762886734","500","250","instEB0","40","2","","40","0","0","40"
"","psychophysics","58","365091","0.0-58.0","5dd299a27f1bbf2a83554ecf","64e50e0594d9b345978f18fb","","","","","5853",""," ","key"," ","16.670851851851804","500","250","instEB1","41","2","","30","0","0","40"
"","psychophysics","59","371141","0.0-59.0","5dd299a27f1bbf2a83554ecf","64e50e0594d9b345978f18fb","","","","","6045",""," ","key"," ","16.670616022099384","500","250","instEB2","32","2","","40","0","0","30"
"","psychophysics","60","378571","0.0-60.0","5dd299a27f1bbf2a83554ecf","64e50e0594d9b345978f18fb","","","","","7426",""," ","key"," ","16.670783783783868","500","250","instEB3","32","2","","45","0","0","27"
"","psychophysics","61","388641","0.0-61.0","5dd299a27f1bbf2a83554ecf","64e50e0594d9b345978f18fb","","","","","10065",""," ","key"," ","16.67069039735101","500","250","instEB4","50","2","","30","0","0","40"
"","psychophysics","62","391747","0.0-62.0","5dd299a27f1bbf2a83554ecf","64e50e0594d9b345978f18fb","","","","","3104",""," ","key"," ","16.671308108108004","500","250","inst","","","","","","",""
"","psychophysics","63","396298","0.0-63.0","5dd299a27f1bbf2a83554ecf","64e50e0594d9b345978f18fb","","","","","4545",""," ","key"," ","16.67023161764711","500","250","eb","54","2","","46","0","0","44"
"","psychophysics","64","401748","0.0-64.0","5dd299a27f1bbf2a83554ecf","64e50e0594d9b345978f18fb","","","","","5435",""," ","key"," ","16.67073926380375","500","250","eb","53","2","","28","0","0","45"
"","psychophysics","65","405320","0.0-65.0","5dd299a27f1bbf2a83554ecf","64e50e0594d9b345978f18fb","","","","","3564",""," ","key"," ","16.670769953051693","500","250","eb","60","2","","47","0","0","53"
"","psychophysics","66","409151","0.0-66.0","5dd299a27f1bbf2a83554ecf","64e50e0594d9b345978f18fb","","","","","3822",""," ","key"," ","16.67088646288223","500","250","eb","60","2","","47","0","0","54"
"","psychophysics","67","413169","0.0-67.0","5dd299a27f1bbf2a83554ecf","64e50e0594d9b345978f18fb","","","","","4012",""," ","key"," ","16.670270833333294","500","250","eb","33","2","","32","0","0","30"
"","psychophysics","68","416240","0.0-68.0","5dd299a27f1bbf2a83554ecf","64e50e0594d9b345978f18fb","","","","","3065",""," ","key"," ","16.67049726775957","500","250","eb","43","2","","50","0","0","36"
"","psychophysics","69","419442","0.0-69.0","5dd299a27f1bbf2a83554ecf","64e50e0594d9b345978f18fb","","","","","3194",""," ","key"," ","16.67050785340304","500","250","eb","54","2","","45","0","0","45"
"","psychophysics","70","425033","0.0-70.0","5dd299a27f1bbf2a83554ecf","64e50e0594d9b345978f18fb","","","","","5586",""," ","key"," ","16.67085373134321","500","250","eb","55","2","","24","0","0","48"
"","psychophysics","71","428157","0.0-71.0","5dd299a27f1bbf2a83554ecf","64e50e0594d9b345978f18fb","","","","","3114",""," ","key"," ","16.66956989247332","500","250","eb","61","2","","42","0","0","54"
"","psychophysics","72","432807","0.0-72.0","5dd299a27f1bbf2a83554ecf","64e50e0594d9b345978f18fb","","","","","4647",""," ","key"," ","16.670625899280605","500","250","eb","45","2","","47","0","0","37"
"","psychophysics","73","437397","0.0-73.0","5dd299a27f1bbf2a83554ecf","64e50e0594d9b345978f18fb","","","","","4587",""," ","key"," ","16.670598540146006","500","250","eb","59","2","","28","0","0","51"
"","psychophysics","74","441543","0.0-74.0","5dd299a27f1bbf2a83554ecf","64e50e0594d9b345978f18fb","","","","","4137",""," ","key"," ","16.670084677419283","500","250","eb","44","2","","53","0","0","39"
"","psychophysics","75","443818","0.0-75.0","5dd299a27f1bbf2a83554ecf","64e50e0594d9b345978f18fb","","","","","2272",""," ","key"," ","16.67088148148118","500","250","eb","41","2","","45","0","0","35"
"","psychophysics","76","448640","0.0-76.0","5dd299a27f1bbf2a83554ecf","64e50e0594d9b345978f18fb","","","","","4813",""," ","key"," ","16.67086505190313","500","250","eb","33","2","","47","0","0","28"
"","psychophysics","77","454932","0.0-77.0","5dd299a27f1bbf2a83554ecf","64e50e0594d9b345978f18fb","","","","","6286",""," ","key"," ","16.670220744680766","500","250","eb","41","2","","25","0","0","36"
"","psychophysics","78","456825","0.0-78.0","5dd299a27f1bbf2a83554ecf","64e50e0594d9b345978f18fb","","","","","1891",""," ","key"," ","16.672424778761034","500","250","inst","","","","","","",""
"","psychophysics","79","458925","0.0-79.0","5dd299a27f1bbf2a83554ecf","64e50e0594d9b345978f18fb","","","","","2079",""," ","key"," ","16.671456000000237","500","250","instPzPre","50","0","","50","","","50"
"","psychophysics","80","462222","0.0-80.0","5dd299a27f1bbf2a83554ecf","64e50e0594d9b345978f18fb","","","","","3291",""," ","key"," ","16.671005102040777","500","250","instPz0","50","1","","50","","","50"
"","psychophysics","81","470662","0.0-81.0","5dd299a27f1bbf2a83554ecf","64e50e0594d9b345978f18fb","","","","","8431",""," ","key"," ","16.670703557312233","500","250","instPz1","53","1","","25","","","50"
"","psychophysics","82","477077","0.0-82.0","5dd299a27f1bbf2a83554ecf","64e50e0594d9b345978f18fb","","","","","6410",""," ","key"," ","16.670981723237535","500","250","instPz2","21","1","","35","","","20"
"","psychophysics","83","486896","0.0-83.0","5dd299a27f1bbf2a83554ecf","64e50e0594d9b345978f18fb","","","","","9802",""," ","key"," ","16.670629881154483","500","250","instPz3","32","1","","100","","","30"
"","psychophysics","84","493907","0.0-84.0","5dd299a27f1bbf2a83554ecf","64e50e0594d9b345978f18fb","","","","","7009",""," ","key"," ","16.670775656324565","500","250","instPz4","32","1","","100","","","30"
"","psychophysics","85","495885","0.0-85.0","5dd299a27f1bbf2a83554ecf","64e50e0594d9b345978f18fb","","","","","1974",""," ","key"," ","16.67156779661013","500","250","inst","","","","","","",""
"","psychophysics","86","499824","0.0-86.0","5dd299a27f1bbf2a83554ecf","64e50e0594d9b345978f18fb","","","","","3933",""," ","key"," ","16.670442553191506","500","250","pz","35","1","0","52","","","31"
"","psychophysics","87","502843","0.0-87.0","5dd299a27f1bbf2a83554ecf","64e50e0594d9b345978f18fb","","","","","3016",""," ","key"," ","16.67065555555552","500","250","pz","34","1","0","25","","","31"
"","psychophysics","88","505236","0.0-88.0","5dd299a27f1bbf2a83554ecf","64e50e0594d9b345978f18fb","","","","","2382",""," ","key"," ","16.67108391608369","500","250","pz","45","1","0","49","","","44"
"","psychophysics","89","507442","0.0-89.0","5dd299a27f1bbf2a83554ecf","64e50e0594d9b345978f18fb","","","","","2201",""," ","key"," ","16.670129770992453","500","250","pz","47","1","0","53","","","45"
"","psychophysics","90","511848","0.0-90.0","5dd299a27f1bbf2a83554ecf","64e50e0594d9b345978f18fb","","","","","4401",""," ","key"," ","16.670973384030255","500","250","pz","57","1","0","26","","","56"
"","psychophysics","91","515822","0.0-91.0","5dd299a27f1bbf2a83554ecf","64e50e0594d9b345978f18fb","","","","","3965",""," ","key"," ","16.671088235294047","500","250","pz","23","1","0","41","","","22"
"","psychophysics","92","519589","0.0-92.0","5dd299a27f1bbf2a83554ecf","64e50e0594d9b345978f18fb","","","","","3761",""," ","key"," ","16.670240000000017","500","250","pz","25","1","0","53","","","24"
"","psychophysics","93","521325","0.0-93.0","5dd299a27f1bbf2a83554ecf","64e50e0594d9b345978f18fb","","","","","1730",""," ","key"," ","16.67055339805807","500","250","pz","55","1","0","55","","","54"
"","psychophysics","94","524094","0.0-94.0","5dd299a27f1bbf2a83554ecf","64e50e0594d9b345978f18fb","","","","","2761",""," ","key"," ","16.67057575757587","500","250","pz","55","1","0","55","","","50"
"","psychophysics","95","526959","0.0-95.0","5dd299a27f1bbf2a83554ecf","64e50e0594d9b345978f18fb","","","","","2860",""," ","key"," ","16.671245614034724","500","250","pz","51","1","0","58","","","52"
"","psychophysics","96","533453","0.0-96.0","5dd299a27f1bbf2a83554ecf","64e50e0594d9b345978f18fb","","","","","6490",""," ","key"," ","16.670989690721754","500","250","pz","54","1","0","46","","","54"
"","psychophysics","97","535837","0.0-97.0","5dd299a27f1bbf2a83554ecf","64e50e0594d9b345978f18fb","","","","","2373",""," ","key"," ","16.669626760562966","500","250","pz","36","1","0","30","","","33"
"","psychophysics","98","540327","0.0-98.0","5dd299a27f1bbf2a83554ecf","64e50e0594d9b345978f18fb","","","","","4484",""," ","key"," ","16.67088104089199","500","250","pz","27","1","0","53","","","27"
"","psychophysics","99","542179","0.0-99.0","5dd299a27f1bbf2a83554ecf","64e50e0594d9b345978f18fb","","","","","1846",""," ","key"," ","16.66966363636311","500","250","pz","27","1","0","27","","","27"
"","psychophysics","100","547339","0.0-100.0","5dd299a27f1bbf2a83554ecf","64e50e0594d9b345978f18fb","","","","","5155",""," ","key"," ","16.670639610389706","500","250","pz","53","1","0","21","","","50"
"","psychophysics","101","549884","0.0-101.0","5dd299a27f1bbf2a83554ecf","64e50e0594d9b345978f18fb","","","","","2534",""," ","key"," ","16.671249999999418","500","250","inst","","","","","","",""
"","psychophysics","102","554949","0.0-102.0","5dd299a27f1bbf2a83554ecf","64e50e0594d9b345978f18fb","","","","","5060",""," ","key"," ","16.670554455445785","500","250","instBr0","0","","","0","0","0","300"
"","psychophysics","103","561750","0.0-103.0","5dd299a27f1bbf2a83554ecf","64e50e0594d9b345978f18fb","","","","","6796",""," ","key"," ","16.670395577395638","500","250","instBr1","3","","","-40","0","0","300"
"","psychophysics","104","568190","0.0-104.0","5dd299a27f1bbf2a83554ecf","64e50e0594d9b345978f18fb","","","","","6436",""," ","key"," ","16.67056883116912","500","250","instBr3","-16","1","","40","0","0","300"
"","psychophysics","105","569184","0.0-105.0","5dd299a27f1bbf2a83554ecf","64e50e0594d9b345978f18fb","","","","","991",""," ","key"," ","16.67062711864276","500","250","inst","","","","","","",""
"","psychophysics","106","572591","0.0-106.0","5dd299a27f1bbf2a83554ecf","64e50e0594d9b345978f18fb","","","","","3401",""," ","key"," ","16.670502463054014","500","250","br","-14","1","0","13","-22","18","225"
"","psychophysics","107","574619","0.0-107.0","5dd299a27f1bbf2a83554ecf","64e50e0594d9b345978f18fb","","","","","2024",""," ","key"," ","16.67085123966902","500","250","br","-11","1","0","-1","9","3","238"
"","psychophysics","108","576373","0.0-108.0","5dd299a27f1bbf2a83554ecf","64e50e0594d9b345978f18fb","","","","","1749",""," ","key"," ","16.670086538461664","500","250","br","-17","1","0","-6","-6","-17","247"
"","psychophysics","109","578668","0.0-109.0","5dd299a27f1bbf2a83554ecf","64e50e0594d9b345978f18fb","","","","","2291",""," ","key"," ","16.670211678832246","500","250","br","-6","1","0","28","-7","-3","261"
"","psychophysics","110","581242","0.0-110.0","5dd299a27f1bbf2a83554ecf","64e50e0594d9b345978f18fb","","","","","2569",""," ","key"," ","16.669771241829913","500","250","br","-20","1","0","-27","0","-6","292"
"","psychophysics","111","583781","0.0-111.0","5dd299a27f1bbf2a83554ecf","64e50e0594d9b345978f18fb","","","","","2534",""," ","key"," ","16.669847682119187","500","250","br","-16","1","0","9","-4","5","261"
"","psychophysics","112","585703","0.0-112.0","5dd299a27f1bbf2a83554ecf","64e50e0594d9b345978f18fb","","","","","1913",""," ","key"," ","16.670791304347347","500","250","br","-18","1","0","1","1","-20","219"
"","psychophysics","113","588902","0.0-113.0","5dd299a27f1bbf2a83554ecf","64e50e0594d9b345978f18fb","","","","","3194",""," ","key"," ","16.670452631578634","500","250","br","-10","1","0","4","18","-5","236"
"","psychophysics","114","590791","0.0-114.0","5dd299a27f1bbf2a83554ecf","64e50e0594d9b345978f18fb","","","","","1880",""," ","key"," ","16.671619469026904","500","250","br","-18","1","0","-6","-8","-13","263"
"","psychophysics","115","592745","0.0-115.0","5dd299a27f1bbf2a83554ecf","64e50e0594d9b345978f18fb","","","","","1950",""," ","key"," ","16.669163793103632","500","250","br","-11","1","0","14","-3","19","234"
"","psychophysics","116","596968","0.0-116.0","5dd299a27f1bbf2a83554ecf","64e50e0594d9b345978f18fb","","","","","4220",""," ","key"," ","16.670876984127393","500","250","br","-20","1","0","-19","22","1","290"
"","psychophysics","117","600311","0.0-117.0","5dd299a27f1bbf2a83554ecf","64e50e0594d9b345978f18fb","","","","","3331",""," ","key"," ","16.67119000000006","500","250","br","-12","1","0","15","22","18","231"
"","psychophysics","118","602728","0.0-118.0","5dd299a27f1bbf2a83554ecf","64e50e0594d9b345978f18fb","","","","","2412",""," ","key"," ","16.669916666666623","500","250","br","-17","1","0","-29","29","-1","203"
"","psychophysics","119","605009","0.0-119.0","5dd299a27f1bbf2a83554ecf","64e50e0594d9b345978f18fb","","","","","2276",""," ","key"," ","16.671242647058747","500","250","br","-15","1","0","-14","29","-26","219"
"","psychophysics","120","609277","0.0-120.0","5dd299a27f1bbf2a83554ecf","64e50e0594d9b345978f18fb","","","","","4263",""," ","key"," ","16.670823529411983","500","250","br","-5","1","0","16","-26","10","221"
"","psychophysics","121","611127","0.0-121.0","5dd299a27f1bbf2a83554ecf","64e50e0594d9b345978f18fb","","","","","1845",""," ","key"," ","16.66928181818115","500","250","inst","","","","","","",""
"","psychophysics","122","616432","0.0-122.0","5dd299a27f1bbf2a83554ecf","64e50e0594d9b345978f18fb","","","","","5301",""," ","key"," ","16.670388012618407","500","250","instZol1","0.10000000000000003","","","-1.3","0","0",""
"","psychophysics","123","623886","0.0-123.0","5dd299a27f1bbf2a83554ecf","64e50e0594d9b345978f18fb","","","","","7440",""," ","key"," ","16.670746636771412","500","250","instZol2","-1.0999999999999992","2","","2","0","0",""
"","psychophysics","124","624882","0.0-124.0","5dd299a27f1bbf2a83554ecf","64e50e0594d9b345978f18fb","","","","","992",""," ","key"," ","16.670813559321687","500","250","inst","","","","","","",""
"","psychophysics","125","632889","0.0-125.0","5dd299a27f1bbf2a83554ecf","64e50e0594d9b345978f18fb","","","","","null","","null","key","null","16.670503131524196","500","250","zol","-1.2","2","1","0.5","30","25",""
"","psychophysics","126","633664","0.0-126.0","5dd299a27f1bbf2a83554ecf","64e50e0594d9b345978f18fb","","","","","772",""," ","key"," ","16.672130434783984","500","250","zol","-0.30000000000000004","2","1","0.4","30","29",""
"","psychophysics","127","641667","0.0-127.0","5dd299a27f1bbf2a83554ecf","64e50e0594d9b345978f18fb","","","","","null","","null","key","null","16.670382045929045","500","250","zol","-1.19","2","1","0.09","-29","15",""
"","psychophysics","128","641838","0.0-128.0","5dd299a27f1bbf2a83554ecf","64e50e0594d9b345978f18fb","","","","","167",""," ","key"," ","16.67133333333509","500","250","zol","0.53","2","1","-0.53","-15","-10",""
"","psychophysics","129","646241","0.0-129.0","5dd299a27f1bbf2a83554ecf","64e50e0594d9b345978f18fb","","","","","4400",""," ","key"," ","16.670958174905163","500","250","zol","-0.84","2","1","-0.26","-13","24",""
"","psychophysics","130","649321","0.0-130.0","5dd299a27f1bbf2a83554ecf","64e50e0594d9b345978f18fb","","","","","3066",""," ","key"," ","16.670836956521786","500","250","zol","-0.6699999999999999","2","1","-0.33","-12","18",""
"","psychophysics","131","652561","0.0-131.0","5dd299a27f1bbf2a83554ecf","64e50e0594d9b345978f18fb","","","","","3235",""," ","key"," ","16.670512953367798","500","250","zol","-1.5300000000000005","2","1","0.73","23","15",""
"","psychophysics","132","654695","0.0-132.0","5dd299a27f1bbf2a83554ecf","64e50e0594d9b345978f18fb","","","","","2119",""," ","key"," ","16.67117322834601","500","250","zol","-1.2400000000000002","2","1","-0.06","25","21",""
"","psychophysics","133","657753","0.0-133.0","5dd299a27f1bbf2a83554ecf","64e50e0594d9b345978f18fb","","","","","3041",""," ","key"," ","16.670010928961556","500","250","zol","-0.72","2","1","0.02","-17","27",""
"","psychophysics","134","660410","0.0-134.0","5dd299a27f1bbf2a83554ecf","64e50e0594d9b345978f18fb","","","","","2653",""," ","key"," ","16.670677215190267","500","250","zol","-0.24000000000000002","2","1","-0.46","-3","28",""
"","psychophysics","135","662287","0.0-135.0","5dd299a27f1bbf2a83554ecf","64e50e0594d9b345978f18fb","","","","","1870",""," ","key"," ","16.670767857143282","500","250","zol","-0.5499999999999999","2","1","0.05","-19","-24",""
"","psychophysics","136","664440","0.0-136.0","5dd299a27f1bbf2a83554ecf","64e50e0594d9b345978f18fb","","","","","2144",""," ","key"," ","16.669406250000065","500","250","zol","-1.2500000000000002","2","1","0.65","4","16",""
"","psychophysics","137","667478","0.0-137.0","5dd299a27f1bbf2a83554ecf","64e50e0594d9b345978f18fb","","","","","3032",""," ","key"," ","16.669994475137962","500","250","zol","-0.9599999999999999","2","1","-0.04","26","-29",""
"","psychophysics","138","671155","0.0-138.0","5dd299a27f1bbf2a83554ecf","64e50e0594d9b345978f18fb","","","","","3670",""," ","key"," ","16.671178082191837","500","250","zol","-0.6299999999999999","2","1","-0.67","-8","14",""
"","psychophysics","139","673026","0.0-139.0","5dd299a27f1bbf2a83554ecf","64e50e0594d9b345978f18fb","","","","","1860",""," ","key"," ","16.671392857142823","500","250","zol","-0.7599999999999999","2","1","0.06","-28","7",""
"","psychophysics","140","674075","0.0-140.0","5dd299a27f1bbf2a83554ecf","64e50e0594d9b345978f18fb","","","","","1045",""," ","key"," ","16.668967741935873","500","250","inst","","","","","","",""
"","psychophysics","141","679120","0.0-141.0","5dd299a27f1bbf2a83554ecf","64e50e0594d9b345978f18fb","","","","","5041",""," ","key"," ","16.67070764119573","500","250","instPog0","340","2","","370","0","0","340"
"","psychophysics","142","682484","0.0-142.0","5dd299a27f1bbf2a83554ecf","64e50e0594d9b345978f18fb","","","","","3357",""," ","key"," ","16.67087064676603","500","250","instPog1","342","2","","370","0","0","340"
"","psychophysics","143","684228","0.0-143.0","5dd299a27f1bbf2a83554ecf","64e50e0594d9b345978f18fb","","","","","1739",""," ","key"," ","16.671192307692344","500","250","instPog2","330","2","","340","0","0","340"
"","psychophysics","144","685095","0.0-144.0","5dd299a27f1bbf2a83554ecf","64e50e0594d9b345978f18fb","","","","","863",""," ","key"," ","16.670862745096468","500","250","inst","","","","","","",""
"","psychophysics","145","687684","0.0-145.0","5dd299a27f1bbf2a83554ecf","64e50e0594d9b345978f18fb","","","","","2583",""," ","key"," ","16.670584415584536","500","250","pog","336","2","1","332","0","0","357"
"","psychophysics","146","689840","0.0-146.0","5dd299a27f1bbf2a83554ecf","64e50e0594d9b345978f18fb","","","","","2152",""," ","key"," ","16.67084375000013","500","250","pog","338","2","1","354","0","0","346"
"","psychophysics","147","693100","0.0-147.0","5dd299a27f1bbf2a83554ecf","64e50e0594d9b345978f18fb","","","","","3255",""," ","key"," ","16.671256410256508","500","250","pog","324","2","1","392","0","0","324"
"","psychophysics","148","695493","0.0-148.0","5dd299a27f1bbf2a83554ecf","64e50e0594d9b345978f18fb","","","","","2389",""," ","key"," ","16.6697042253521","500","250","pog","362","2","1","390","0","0","352"
"","psychophysics","149","697199","0.0-149.0","5dd299a27f1bbf2a83554ecf","64e50e0594d9b345978f18fb","","","","","1696",""," ","key"," ","16.67161764705773","500","250","pog","328","2","1","336","0","0","332"
"","psychophysics","150","699558","0.0-150.0","5dd299a27f1bbf2a83554ecf","64e50e0594d9b345978f18fb","","","","","2355",""," ","key"," ","16.67104285714283","500","250","pog","338","2","1","340","0","0","356"
"","psychophysics","151","702683","0.0-151.0","5dd299a27f1bbf2a83554ecf","64e50e0594d9b345978f18fb","","","","","3116",""," ","key"," ","16.67044385026687","500","250","pog","332","2","1","398","0","0","336"
"","psychophysics","152","704199","0.0-152.0","5dd299a27f1bbf2a83554ecf","64e50e0594d9b345978f18fb","","","","","1512",""," ","key"," ","16.671399999999753","500","250","pog","314","2","1","322","0","0","316"
"","psychophysics","153","705165","0.0-153.0","5dd299a27f1bbf2a83554ecf","64e50e0594d9b345978f18fb","","","","","961",""," ","key"," ","16.67061403508731","500","250","pog","305","2","1","307","0","0","321"
"","psychophysics","154","707576","0.0-154.0","5dd299a27f1bbf2a83554ecf","64e50e0594d9b345978f18fb","","","","","2405",""," ","key"," ","16.670279720279556","500","250","pog","333","2","1","383","0","0","342"
"","psychophysics","155","708751","0.0-155.0","5dd299a27f1bbf2a83554ecf","64e50e0594d9b345978f18fb","","","","","1167",""," ","key"," ","16.670442857142604","500","250","pog","358","2","1","360","0","0","351"
"","psychophysics","156","711229","0.0-156.0","5dd299a27f1bbf2a83554ecf","64e50e0594d9b345978f18fb","","","","","2475",""," ","key"," ","16.670530612244693","500","250","pog","318","2","1","324","0","0","324"
"","psychophysics","157","714212","0.0-157.0","5dd299a27f1bbf2a83554ecf","64e50e0594d9b345978f18fb","","","","","2973",""," ","key"," ","16.670938202246678","500","250","pog","317","2","1","391","0","0","337"
"","psychophysics","158","716351","0.0-158.0","5dd299a27f1bbf2a83554ecf","64e50e0594d9b345978f18fb","","","","","2131",""," ","key"," ","16.671125984252026","500","250","pog","348","2","1","362","0","0","360"
"","psychophysics","159","718720","0.0-159.0","5dd299a27f1bbf2a83554ecf","64e50e0594d9b345978f18fb","","","","","2363",""," ","key"," ","16.670267605634315","500","250","pog","318","2","1","376","0","0","331"
"","psychophysics","160","719799","0.0-160.0","5dd299a27f1bbf2a83554ecf","64e50e0594d9b345978f18fb","","","","","1075",""," ","key"," ","16.67071428571436","500","250","inst","","","","","","",""
"","psychophysics","161","723829","0.0-161.0","5dd299a27f1bbf2a83554ecf","64e50e0594d9b345978f18fb","","","","","4023",""," ","key"," ","16.67070954356872","500","250","instBr3","20","2","","40","0","0","300"
"","psychophysics","162","724826","0.0-162.0","5dd299a27f1bbf2a83554ecf","64e50e0594d9b345978f18fb","","","","","989",""," ","key"," ","16.6725593220336","500","250","inst","","","","","","",""
"","psychophysics","163","727661","0.0-163.0","5dd299a27f1bbf2a83554ecf","64e50e0594d9b345978f18fb","","","","","2830",""," ","key"," ","16.67021301775184","500","250","br","36","2","1","4","10","10","276"
"","psychophysics","164","730554","0.0-164.0","5dd299a27f1bbf2a83554ecf","64e50e0594d9b345978f18fb","","","","","2886",""," ","key"," ","16.67044508670567","500","250","br","35","2","1","11","-30","-17","295"
"","psychophysics","165","732189","0.0-165.0","5dd299a27f1bbf2a83554ecf","64e50e0594d9b345978f18fb","","","","","1631",""," ","key"," ","16.671247422680757","500","250","br","13","2","1","13","-7","-27","209"
"","psychophysics","166","735611","0.0-166.0","5dd299a27f1bbf2a83554ecf","64e50e0594d9b345978f18fb","","","","","3418",""," ","key"," ","16.671151960784496","500","250","br","24","2","1","-3","-1","-22","236"
"","psychophysics","167","739292","0.0-167.0","5dd299a27f1bbf2a83554ecf","64e50e0594d9b345978f18fb","","","","","3676",""," ","key"," ","16.66979545454537","500","250","br","27","2","1","-9","1","-12","300"
"","psychophysics","168","742202","0.0-168.0","5dd299a27f1bbf2a83554ecf","64e50e0594d9b345978f18fb","","","","","2906",""," ","key"," ","16.670867052023443","500","250","br","25","2","1","-6","-15","-30","275"
"","psychophysics","169","744214","0.0-169.0","5dd299a27f1bbf2a83554ecf","64e50e0594d9b345978f18fb","","","","","2003",""," ","key"," ","16.66976666666645","500","250","br","5","2","1","-19","-2","-16","214"
"","psychophysics","170","745703","0.0-170.0","5dd299a27f1bbf2a83554ecf","64e50e0594d9b345978f18fb","","","","","1485",""," ","key"," ","16.671170454546385","500","250","br","26","2","1","13","-12","-19","222"
"","psychophysics","171","747278","0.0-171.0","5dd299a27f1bbf2a83554ecf","64e50e0594d9b345978f18fb","","","","","1567",""," ","key"," ","16.671702127659724","500","250","br","27","2","1","15","15","-18","249"
"","psychophysics","172","749752","0.0-172.0","5dd299a27f1bbf2a83554ecf","64e50e0594d9b345978f18fb","","","","","2469",""," ","key"," ","16.67040136054421","500","250","br","8","2","1","-28","14","15","226"
"","psychophysics","173","751805","0.0-173.0","5dd299a27f1bbf2a83554ecf","64e50e0594d9b345978f18fb","","","","","2044",""," ","key"," ","16.670844262295027","500","250","br","26","2","1","-5","-22","21","243"
"","psychophysics","174","753029","0.0-174.0","5dd299a27f1bbf2a83554ecf","64e50e0594d9b345978f18fb","","","","","1217",""," ","key"," ","16.6730136986302","500","250","br","16","2","1","15","9","28","243"
"","psychophysics","175","755533","0.0-175.0","5dd299a27f1bbf2a83554ecf","64e50e0594d9b345978f18fb","","","","","2500",""," ","key"," ","16.67133557046967","500","250","br","8","2","1","-28","2","-19","248"
"","psychophysics","176","757556","0.0-176.0","5dd299a27f1bbf2a83554ecf","64e50e0594d9b345978f18fb","","","","","2019",""," ","key"," ","16.669983333333708","500","250","br","23","2","1","6","17","1","262"
"","psychophysics","177","758692","0.0-177.0","5dd299a27f1bbf2a83554ecf","64e50e0594d9b345978f18fb","","","","","1127",""," ","key"," ","16.670701492537827","500","250","br","18","2","1","17","-10","29","280"
"","psychophysics","178","759776","0.0-178.0","5dd299a27f1bbf2a83554ecf","64e50e0594d9b345978f18fb","","","","","1077",""," ","key"," ","16.67084615384587","500","250","inst","","","","","","",""
"","psychophysics","179","764935","0.0-179.0","5dd299a27f1bbf2a83554ecf","64e50e0594d9b345978f18fb","","","","","5157",""," ","key"," ","16.670902597402712","500","250","instEB1","30","1","","40","0","0","30"
"","psychophysics","180","770173","0.0-180.0","5dd299a27f1bbf2a83554ecf","64e50e0594d9b345978f18fb","","","","","5233",""," ","key"," ","16.67023322683686","500","250","instEB2","41","1","","30","0","0","40"
"","psychophysics","181","773417","0.0-181.0","5dd299a27f1bbf2a83554ecf","64e50e0594d9b345978f18fb","","","","","3232",""," ","key"," ","16.671077319587695","500","250","instEB3","39","1","","27","0","0","45"
"","psychophysics","182","777240","0.0-182.0","5dd299a27f1bbf2a83554ecf","64e50e0594d9b345978f18fb","","","","","3819",""," ","key"," ","16.66996929824573","500","250","instEB4","27","1","","40","0","0","30"
"","psychophysics","183","778022","0.0-183.0","5dd299a27f1bbf2a83554ecf","64e50e0594d9b345978f18fb","","","","","779",""," ","key"," ","16.671304347826187","500","250","inst","","","","","","",""
"","psychophysics","184","780795","0.0-184.0","5dd299a27f1bbf2a83554ecf","64e50e0594d9b345978f18fb","","","","","2767",""," ","key"," ","16.670375757575542","500","250","eb","36","1","","31","0","0","39"
"","psychophysics","185","783893","0.0-185.0","5dd299a27f1bbf2a83554ecf","64e50e0594d9b345978f18fb","","","","","3089",""," ","key"," ","16.670902702703167","500","250","eb","51","1","","43","0","0","54"
"","psychophysics","186","786878","0.0-186.0","5dd299a27f1bbf2a83554ecf","64e50e0594d9b345978f18fb","","","","","2973",""," ","key"," ","16.670320224719323","500","250","eb","44","1","","26","0","0","51"
"","psychophysics","187","788902","0.0-187.0","5dd299a27f1bbf2a83554ecf","64e50e0594d9b345978f18fb","","","","","2013",""," ","key"," ","16.67062809917314","500","250","eb","48","1","","33","0","0","52"
"","psychophysics","188","791212","0.0-188.0","5dd299a27f1bbf2a83554ecf","64e50e0594d9b345978f18fb","","","","","2304",""," ","key"," ","16.670474452554608","500","250","eb","47","1","","43","0","0","49"
"","psychophysics","189","793125","0.0-189.0","5dd299a27f1bbf2a83554ecf","64e50e0594d9b345978f18fb","","","","","1901",""," ","key"," ","16.671175438596197","500","250","eb","28","1","","27","0","0","29"
"","psychophysics","190","795822","0.0-190.0","5dd299a27f1bbf2a83554ecf","64e50e0594d9b345978f18fb","","","","","2690",""," ","key"," ","16.671217391304296","500","250","eb","36","1","","47","0","0","43"
"","psychophysics","191","798138","0.0-191.0","5dd299a27f1bbf2a83554ecf","64e50e0594d9b345978f18fb","","","","","2311",""," ","key"," ","16.66965217391228","500","250","eb","23","1","","25","0","0","26"
"","psychophysics","192","802314","0.0-192.0","5dd299a27f1bbf2a83554ecf","64e50e0594d9b345978f18fb","","","","","4169",""," ","key"," ","16.670979919678803","500","250","eb","26","1","","50","0","0","29"
"","psychophysics","193","804525","0.0-193.0","5dd299a27f1bbf2a83554ecf","64e50e0594d9b345978f18fb","","","","","2201",""," ","key"," ","16.671068181818224","500","250","eb","31","1","","26","0","0","38"
"","psychophysics","194","806833","0.0-194.0","5dd299a27f1bbf2a83554ecf","64e50e0594d9b345978f18fb","","","","","2302",""," ","key"," ","16.670649635036185","500","250","eb","44","1","","40","0","0","48"
"","psychophysics","195","809714","0.0-195.0","5dd299a27f1bbf2a83554ecf","64e50e0594d9b345978f18fb","","","","","2871",""," ","key"," ","16.670540697674326","500","250","eb","28","1","","35","0","0","30"
"","psychophysics","196","813128","0.0-196.0","5dd299a27f1bbf2a83554ecf","64e50e0594d9b345978f18fb","","","","","3410",""," ","key"," ","16.670892156863143","500","250","eb","27","1","","46","0","0","24"
"","psychophysics","197","815472","0.0-197.0","5dd299a27f1bbf2a83554ecf","64e50e0594d9b345978f18fb","","","","","2337",""," ","key"," ","16.670985611510737","500","250","eb","40","1","","38","0","0","41"
"","psychophysics","198","817430","0.0-198.0","5dd299a27f1bbf2a83554ecf","64e50e0594d9b345978f18fb","","","","","1950",""," ","key"," ","16.671085470085405","500","250","eb","36","1","","36","0","0","41"
"","psychophysics","199","818981","0.0-199.0","5dd299a27f1bbf2a83554ecf","64e50e0594d9b345978f18fb","","","","","1548",""," ","key"," ","16.66941304347837","500","250","inst","","","","","","",""
"","psychophysics","200","831667","0.0-200.0","5dd299a27f1bbf2a83554ecf","64e50e0594d9b345978f18fb","","","","","12680",""," ","key"," ","16.670705263157938","500","250","instPz1","40","2","","25","","","50"
"","psychophysics","201","833846","0.0-201.0","5dd299a27f1bbf2a83554ecf","64e50e0594d9b345978f18fb","","","","","2175",""," ","key"," ","16.670630769231","500","250","instPz2","33","2","","20","","","35"
"","psychophysics","202","842425","0.0-202.0","5dd299a27f1bbf2a83554ecf","64e50e0594d9b345978f18fb","","","","","8571",""," ","key"," ","16.67064912280714","500","250","instPz3","85","2","","30","","","100"
"","psychophysics","203","846611","0.0-203.0","5dd299a27f1bbf2a83554ecf","64e50e0594d9b345978f18fb","","","","","4179",""," ","key"," ","16.67068399999989","500","250","instPz4","92","2","","30","","","100"
"","psychophysics","204","847915","0.0-204.0","5dd299a27f1bbf2a83554ecf","64e50e0594d9b345978f18fb","","","","","1299",""," ","key"," ","16.671679487180274","500","250","inst","","","","","","",""
"","psychophysics","205","850589","0.0-205.0","5dd299a27f1bbf2a83554ecf","64e50e0594d9b345978f18fb","","","","","2668",""," ","key"," ","16.67016981132021","500","250","pz","50","2","1","34","","","55"
"","psychophysics","206","855034","0.0-206.0","5dd299a27f1bbf2a83554ecf","64e50e0594d9b345978f18fb","","","","","4440",""," ","key"," ","16.67040225563928","500","250","pz","18","2","1","47","","","21"
"","psychophysics","207","858161","0.0-207.0","5dd299a27f1bbf2a83554ecf","64e50e0594d9b345978f18fb","","","","","3121",""," ","key"," ","16.670586021505645","500","250","pz","33","2","1","46","","","34"
"","psychophysics","208","860756","0.0-208.0","5dd299a27f1bbf2a83554ecf","64e50e0594d9b345978f18fb","","","","","2584",""," ","key"," ","16.670277419354345","500","250","pz","46","2","1","36","","","51"
"","psychophysics","209","862766","0.0-209.0","5dd299a27f1bbf2a83554ecf","64e50e0594d9b345978f18fb","","","","","2007",""," ","key"," ","16.6698416666671","500","250","pz","40","2","1","35","","","44"
"","psychophysics","210","865681","0.0-210.0","5dd299a27f1bbf2a83554ecf","64e50e0594d9b345978f18fb","","","","","2912",""," ","key"," ","16.67168208092486","500","250","pz","40","2","1","60","","","43"
"","psychophysics","211","868219","0.0-211.0","5dd299a27f1bbf2a83554ecf","64e50e0594d9b345978f18fb","","","","","2527",""," ","key"," ","16.670671052631835","500","250","pz","30","2","1","53","","","45"
"","psychophysics","212","871356","0.0-212.0","5dd299a27f1bbf2a83554ecf","64e50e0594d9b345978f18fb","","","","","3131",""," ","key"," ","16.67065240641655","500","250","pz","40","2","1","22","","","51"
"","psychophysics","213","873395","0.0-213.0","5dd299a27f1bbf2a83554ecf","64e50e0594d9b345978f18fb","","","","","2031",""," ","key"," ","16.67022314049546","500","250","pz","43","2","1","23","","","49"
"","psychophysics","214","877381","0.0-214.0","5dd299a27f1bbf2a83554ecf","64e50e0594d9b345978f18fb","","","","","3981",""," ","key"," ","16.670966386554387","500","250","pz","36","2","1","25","","","42"
"","psychophysics","215","880797","0.0-215.0","5dd299a27f1bbf2a83554ecf","64e50e0594d9b345978f18fb","","","","","3405",""," ","key"," ","16.670450980392143","500","250","pz","35","2","1","59","","","38"
"","psychophysics","216","883443","0.0-216.0","5dd299a27f1bbf2a83554ecf","64e50e0594d9b345978f18fb","","","","","2636",""," ","key"," ","16.670500000000082","500","250","pz","20","2","1","22","","","20"
"","psychophysics","217","885392","0.0-217.0","5dd299a27f1bbf2a83554ecf","64e50e0594d9b345978f18fb","","","","","1945",""," ","key"," ","16.67149999999975","500","250","pz","40","2","1","37","","","45"
"","psychophysics","218","888543","0.0-218.0","5dd299a27f1bbf2a83554ecf","64e50e0594d9b345978f18fb","","","","","3146",""," ","key"," ","16.67068085106439","500","250","pz","25","2","1","53","","","24"
"","psychophysics","219","891752","0.0-219.0","5dd299a27f1bbf2a83554ecf","64e50e0594d9b345978f18fb","","","","","3203",""," ","key"," ","16.671308900523414","500","250","pz","34","2","1","26","","","36"
