"success","trial_type","trial_index","time_elapsed","internal_node_id","pid","sid","timeout","failed_images","failed_audio","failed_video","rt","stimulus","response","response_type","key_press","avg_frame_time","center_x","center_y","task","resp","version","block","start","jitterX","jitterY","parA"
"true","fullscreen","0","2346","0.0-0.0","594936ad4152bf0001bfd5cd","64de7b9a93c0622ed9fddb6d","","","","","","","","","","","","","","","","","","","",""
"true","preload","1","2638","0.0-1.0","594936ad4152bf0001bfd5cd","64de7b9a93c0622ed9fddb6d","false","[]","[]","[]","","","","","","","","","","","","","","","",""
"","html-button-response","2","4584","0.0-2.0","594936ad4152bf0001bfd5cd","64de7b9a93c0622ed9fddb6d","","","","","1944","Please Make Sure Your Audio Is On.","0","","","","","","","","","","","","",""
"","psychophysics","3","15622","0.0-3.0","594936ad4152bf0001bfd5cd","64de7b9a93c0622ed9fddb6d","","","","","11033",""," ","key"," ","7.085365853658536","960","250","","","","","","","",""
"","psychophysics","4","18882","0.0-4.0","594936ad4152bf0001bfd5cd","64de7b9a93c0622ed9fddb6d","","","","","3259",""," ","key"," ","7.169603524229075","500","250","inst","","","","","","",""
"","psychophysics","5","22216","0.0-5.0","594936ad4152bf0001bfd5cd","64de7b9a93c0622ed9fddb6d","","","","","3332",""," ","key"," ","7.168103448275862","500","250","sample0","","","","","","",""
"","psychophysics","6","23839","0.0-6.0","594936ad4152bf0001bfd5cd","64de7b9a93c0622ed9fddb6d","","","","","1620",""," ","key"," ","6.944206008583691","500","250","sample1","","","","","","",""
"","psychophysics","7","29931","0.0-7.0","594936ad4152bf0001bfd5cd","64de7b9a93c0622ed9fddb6d","","","","","6092",""," ","key"," ","8.071618037135279","500","250","sample2","130","","","","","",""
"","psychophysics","8","35087","0.0-8.0","594936ad4152bf0001bfd5cd","64de7b9a93c0622ed9fddb6d","","","","","5155",""," ","key"," ","6.944669365721997","500","250","sample3","80","","","","","",""
"","psychophysics","9","43368","0.0-9.0","594936ad4152bf0001bfd5cd","64de7b9a93c0622ed9fddb6d","","","","","8273",""," ","key"," ","6.95546218487395","500","250","sample4","100","","","","","",""
"","psychophysics","10","46767","0.0-10.0","594936ad4152bf0001bfd5cd","64de7b9a93c0622ed9fddb6d","","","","","3399",""," ","key"," ","6.944672131147541","500","250","sample5","","","","","","",""
"","psychophysics","11","56188","0.0-11.0","594936ad4152bf0001bfd5cd","64de7b9a93c0622ed9fddb6d","","","","","9415",""," ","key"," ","6.943952802359882","500","250","sample6","502","","","","","",""
"","psychophysics","12","60911","0.0-12.0","594936ad4152bf0001bfd5cd","64de7b9a93c0622ed9fddb6d","","","","","4722",""," ","key"," ","6.944035346097202","500","250","inst","","","","","","",""
"","psychophysics","13","67475","0.0-13.0","594936ad4152bf0001bfd5cd","64de7b9a93c0622ed9fddb6d","","","","","6561",""," ","key"," ","6.94385593220339","500","250","inst","","","","","","",""
"","psychophysics","14","69276","0.0-14.0","594936ad4152bf0001bfd5cd","64de7b9a93c0622ed9fddb6d","","","","","1799",""," ","key"," ","6.945736434108527","500","250","inst","","","","","","",""
"","psychophysics","15","70507","0.0-15.0","594936ad4152bf0001bfd5cd","64de7b9a93c0622ed9fddb6d","","","","","1222",""," ","key"," ","6.943502824858757","500","250","inst","","","","","","",""
"","psychophysics","16","71137","0.0-16.0","594936ad4152bf0001bfd5cd","64de7b9a93c0622ed9fddb6d","","","","","627",""," ","key"," ","6.943820224719101","500","250","inst","","","","","","",""
"","psychophysics","17","74269","0.0-17.0","594936ad4152bf0001bfd5cd","64de7b9a93c0622ed9fddb6d","","","","","3126",""," ","key"," ","6.948888888888889","500","250","instEB0","40","2","","40","0","0","40"
"","psychophysics","18","80460","0.0-18.0","594936ad4152bf0001bfd5cd","64de7b9a93c0622ed9fddb6d","","","","","6189",""," ","key"," ","6.94388327721661","500","250","instEB1","39","2","","30","0","0","40"
"","psychophysics","19","88163","0.0-19.0","594936ad4152bf0001bfd5cd","64de7b9a93c0622ed9fddb6d","","","","","7700",""," ","key"," ","6.947606142728094","500","250","instEB2","36","2","","40","0","0","30"
"","psychophysics","20","98181","0.0-20.0","594936ad4152bf0001bfd5cd","64de7b9a93c0622ed9fddb6d","","","","","10016",""," ","key"," ","6.944521497919556","500","250","instEB3","34","2","","45","0","0","27"
"","psychophysics","21","103682","0.0-21.0","594936ad4152bf0001bfd5cd","64de7b9a93c0622ed9fddb6d","","","","","5497",""," ","key"," ","6.944374209860936","500","250","instEB4","55","2","","30","0","0","40"
"","psychophysics","22","109148","0.0-22.0","594936ad4152bf0001bfd5cd","64de7b9a93c0622ed9fddb6d","","","","","5465",""," ","key"," ","6.9440203562340965","500","250","inst","","","","","","",""
"","psychophysics","23","113264","0.0-23.0","594936ad4152bf0001bfd5cd","64de7b9a93c0622ed9fddb6d","","","","","4100",""," ","key"," ","6.945945945945946","500","250","eb","39","2","","41","0","0","28"
"","psychophysics","24","116626","0.0-24.0","594936ad4152bf0001bfd5cd","64de7b9a93c0622ed9fddb6d","","","","","3360",""," ","key"," ","6.944099378881988","500","250","eb","50","2","","40","0","0","46"
"","psychophysics","25","120866","0.0-25.0","594936ad4152bf0001bfd5cd","64de7b9a93c0622ed9fddb6d","","","","","4232",""," ","key"," ","6.944262295081967","500","250","eb","55","2","","47","0","0","45"
"","psychophysics","26","126881","0.0-26.0","594936ad4152bf0001bfd5cd","64de7b9a93c0622ed9fddb6d","","","","","6011",""," ","key"," ","6.94335260115607","500","250","eb","43","2","","51","0","0","33"
"","psychophysics","27","131792","0.0-27.0","594936ad4152bf0001bfd5cd","64de7b9a93c0622ed9fddb6d","","","","","4907",""," ","key"," ","6.944759206798867","500","250","eb","38","2","","34","0","0","29"
"","psychophysics","28","135477","0.0-28.0","594936ad4152bf0001bfd5cd","64de7b9a93c0622ed9fddb6d","","","","","3684",""," ","key"," ","6.943396226415095","500","250","eb","47","2","","44","0","0","36"
"","psychophysics","29","139289","0.0-29.0","594936ad4152bf0001bfd5cd","64de7b9a93c0622ed9fddb6d","","","","","3808",""," ","key"," ","6.945255474452555","500","250","eb","47","2","","50","0","0","34"
"","psychophysics","30","147067","0.0-30.0","594936ad4152bf0001bfd5cd","64de7b9a93c0622ed9fddb6d","","","","","7774",""," ","key"," ","6.943699731903485","500","250","eb","64","2","","51","0","0","54"
"","psychophysics","31","152944","0.0-31.0","594936ad4152bf0001bfd5cd","64de7b9a93c0622ed9fddb6d","","","","","5875",""," ","key"," ","6.944378698224852","500","250","eb","40","2","","35","0","0","31"
"","psychophysics","32","158869","0.0-32.0","594936ad4152bf0001bfd5cd","64de7b9a93c0622ed9fddb6d","","","","","5919",""," ","key"," ","6.943661971830986","500","250","eb","61","2","","45","0","0","52"
"","psychophysics","33","163317","0.0-33.0","594936ad4152bf0001bfd5cd","64de7b9a93c0622ed9fddb6d","","","","","4442",""," ","key"," ","6.9453125","500","250","eb","33","2","","27","0","0","28"
"","psychophysics","34","169945","0.0-34.0","594936ad4152bf0001bfd5cd","64de7b9a93c0622ed9fddb6d","","","","","6624",""," ","key"," ","6.944386149003148","500","250","eb","62","2","","49","0","0","52"
"","psychophysics","35","174472","0.0-35.0","594936ad4152bf0001bfd5cd","64de7b9a93c0622ed9fddb6d","","","","","4521",""," ","key"," ","6.944700460829493","500","250","eb","58","2","","53","0","0","47"
"","psychophysics","36","182474","0.0-36.0","594936ad4152bf0001bfd5cd","64de7b9a93c0622ed9fddb6d","","","","","null","","null","key","null","6.944444444444445","500","250","eb","61","2","","51","0","0","51"
"","psychophysics","37","187153","0.0-37.0","594936ad4152bf0001bfd5cd","64de7b9a93c0622ed9fddb6d","","","","","4676",""," ","key"," ","6.943452380952381","500","250","eb","63","2","","49","0","0","50"
"","psychophysics","38","196908","0.0-38.0","594936ad4152bf0001bfd5cd","64de7b9a93c0622ed9fddb6d","","","","","9753",""," ","key"," ","6.944444444444445","500","250","inst","","","","","","",""
"","psychophysics","39","204160","0.0-39.0","594936ad4152bf0001bfd5cd","64de7b9a93c0622ed9fddb6d","","","","","7249",""," ","key"," ","6.943432406519655","500","250","instPzPre","50","0","","50","","","50"
"","psychophysics","40","210795","0.0-40.0","594936ad4152bf0001bfd5cd","64de7b9a93c0622ed9fddb6d","","","","","6628",""," ","key"," ","6.944502617801047","500","250","instPz0","51","2","","50","","","50"
"","psychophysics","41","216056","0.0-41.0","594936ad4152bf0001bfd5cd","64de7b9a93c0622ed9fddb6d","","","","","5250",""," ","key"," ","6.944444444444445","500","250","instPz1","49","2","","25","","","50"
"","psychophysics","42","222772","0.0-42.0","594936ad4152bf0001bfd5cd","64de7b9a93c0622ed9fddb6d","","","","","6709",""," ","key"," ","6.9441571871768355","500","250","instPz2","33","2","","20","","","35"
"","psychophysics","43","231004","0.0-43.0","594936ad4152bf0001bfd5cd","64de7b9a93c0622ed9fddb6d","","","","","8230",""," ","key"," ","6.979626485568761","500","250","instPz3","96","2","","30","","","100"
"","psychophysics","44","236405","0.0-44.0","594936ad4152bf0001bfd5cd","64de7b9a93c0622ed9fddb6d","","","","","5397",""," ","key"," ","6.944587628865979","500","250","instPz4","99","2","","30","","","100"
"","psychophysics","45","243123","0.0-45.0","594936ad4152bf0001bfd5cd","64de7b9a93c0622ed9fddb6d","","","","","6713",""," ","key"," ","6.9441571871768355","500","250","inst","","","","","","",""
"","psychophysics","46","248423","0.0-46.0","594936ad4152bf0001bfd5cd","64de7b9a93c0622ed9fddb6d","","","","","5295",""," ","key"," ","6.943569553805775","500","250","pz","24","2","0","54","","","26"
"","psychophysics","47","253877","0.0-47.0","594936ad4152bf0001bfd5cd","64de7b9a93c0622ed9fddb6d","","","","","5449",""," ","key"," ","6.9438775510204085","500","250","pz","21","2","0","51","","","25"
"","psychophysics","48","257339","0.0-48.0","594936ad4152bf0001bfd5cd","64de7b9a93c0622ed9fddb6d","","","","","3455",""," ","key"," ","6.943775100401607","500","250","pz","34","2","0","59","","","39"
"","psychophysics","49","261431","0.0-49.0","594936ad4152bf0001bfd5cd","64de7b9a93c0622ed9fddb6d","","","","","4083",""," ","key"," ","6.945578231292517","500","250","pz","34","2","0","45","","","44"
"","psychophysics","50","267733","0.0-50.0","594936ad4152bf0001bfd5cd","64de7b9a93c0622ed9fddb6d","","","","","6296",""," ","key"," ","6.943770672546858","500","250","pz","40","2","0","47","","","50"
"","psychophysics","51","272527","0.0-51.0","594936ad4152bf0001bfd5cd","64de7b9a93c0622ed9fddb6d","","","","","4787",""," ","key"," ","6.943396226415095","500","250","pz","47","2","0","56","","","56"
"","psychophysics","52","276155","0.0-52.0","594936ad4152bf0001bfd5cd","64de7b9a93c0622ed9fddb6d","","","","","3623",""," ","key"," ","6.944444444444445","500","250","pz","20","2","0","23","","","21"
"","psychophysics","53","282133","0.0-53.0","594936ad4152bf0001bfd5cd","64de7b9a93c0622ed9fddb6d","","","","","5976",""," ","key"," ","6.944186046511628","500","250","pz","45","2","0","22","","","51"
"","psychophysics","54","287755","0.0-54.0","594936ad4152bf0001bfd5cd","64de7b9a93c0622ed9fddb6d","","","","","5617",""," ","key"," ","6.944306930693069","500","250","pz","22","2","0","40","","","25"
"","psychophysics","55","293116","0.0-55.0","594936ad4152bf0001bfd5cd","64de7b9a93c0622ed9fddb6d","","","","","5356",""," ","key"," ","6.944228274967575","500","250","pz","21","2","0","36","","","32"
"","psychophysics","56","297789","0.0-56.0","594936ad4152bf0001bfd5cd","64de7b9a93c0622ed9fddb6d","","","","","4668",""," ","key"," ","6.943452380952381","500","250","pz","38","2","0","27","","","45"
"","psychophysics","57","302336","0.0-57.0","594936ad4152bf0001bfd5cd","64de7b9a93c0622ed9fddb6d","","","","","4540",""," ","key"," ","6.944954128440367","500","250","pz","34","2","0","24","","","38"
"","psychophysics","58","306720","0.0-58.0","594936ad4152bf0001bfd5cd","64de7b9a93c0622ed9fddb6d","","","","","4383",""," ","key"," ","6.944444444444445","500","250","pz","37","2","0","31","","","46"
"","psychophysics","59","309530","0.0-59.0","594936ad4152bf0001bfd5cd","64de7b9a93c0622ed9fddb6d","","","","","2807",""," ","key"," ","6.943069306930693","500","250","pz","28","2","0","38","","","27"
"","psychophysics","60","317380","0.0-60.0","594936ad4152bf0001bfd5cd","64de7b9a93c0622ed9fddb6d","","","","","7847",""," ","key"," ","6.944198405668733","500","250","pz","35","2","0","24","","","45"
"","psychophysics","61","412001","0.0-61.0","594936ad4152bf0001bfd5cd","64de7b9a93c0622ed9fddb6d","","","","","94616",""," ","key"," ","6.944220183486238","500","250","inst","","","","","","",""
"","psychophysics","62","426018","0.0-62.0","594936ad4152bf0001bfd5cd","64de7b9a93c0622ed9fddb6d","","","","","14011",""," ","key"," ","6.9440039643211104","500","250","instPog0","340","2","","370","0","0","340"
"","psychophysics","63","430128","0.0-63.0","594936ad4152bf0001bfd5cd","64de7b9a93c0622ed9fddb6d","","","","","4107",""," ","key"," ","6.944162436548224","500","250","instPog1","346","2","","370","0","0","340"
"","psychophysics","64","434355","0.0-64.0","594936ad4152bf0001bfd5cd","64de7b9a93c0622ed9fddb6d","","","","","4224",""," ","key"," ","6.943986820428336","500","250","instPog2","322","2","","340","0","0","340"
"","psychophysics","65","438325","0.0-65.0","594936ad4152bf0001bfd5cd","64de7b9a93c0622ed9fddb6d","","","","","3964",""," ","key"," ","6.943957968476357","500","250","inst","","","","","","",""
"","psychophysics","66","444141","0.0-66.0","594936ad4152bf0001bfd5cd","64de7b9a93c0622ed9fddb6d","","","","","5811",""," ","key"," ","6.945041816009558","500","250","pog","335","2","0","315","0","0","368"
"","psychophysics","67","452061","0.0-67.0","594936ad4152bf0001bfd5cd","64de7b9a93c0622ed9fddb6d","","","","","7916",""," ","key"," ","6.943810359964881","500","250","pog","327","2","0","285","0","0","345"
"","psychophysics","68","456389","0.0-68.0","594936ad4152bf0001bfd5cd","64de7b9a93c0622ed9fddb6d","","","","","4323",""," ","key"," ","6.943729903536977","500","250","pog","342","2","0","302","0","0","371"
"","psychophysics","69","460449","0.0-69.0","594936ad4152bf0001bfd5cd","64de7b9a93c0622ed9fddb6d","","","","","4058",""," ","key"," ","6.945205479452055","500","250","pog","308","2","0","378","0","0","333"
"","psychophysics","70","464445","0.0-70.0","594936ad4152bf0001bfd5cd","64de7b9a93c0622ed9fddb6d","","","","","3994",""," ","key"," ","6.944250871080139","500","250","pog","310","2","0","376","0","0","339"
"","psychophysics","71","467440","0.0-71.0","594936ad4152bf0001bfd5cd","64de7b9a93c0622ed9fddb6d","","","","","2986",""," ","key"," ","6.94431554524362","500","250","pog","342","2","0","340","0","0","362"
"","psychophysics","72","471866","0.0-72.0","594936ad4152bf0001bfd5cd","64de7b9a93c0622ed9fddb6d","","","","","4423",""," ","key"," ","6.94496855345912","500","250","pog","328","2","0","390","0","0","356"
"","psychophysics","73","476092","0.0-73.0","594936ad4152bf0001bfd5cd","64de7b9a93c0622ed9fddb6d","","","","","4218",""," ","key"," ","6.944078947368421","500","250","pog","320","2","0","396","0","0","332"
"","psychophysics","74","478591","0.0-74.0","594936ad4152bf0001bfd5cd","64de7b9a93c0622ed9fddb6d","","","","","2496",""," ","key"," ","6.944134078212291","500","250","pog","360","2","0","368","0","0","376"
"","psychophysics","75","481098","0.0-75.0","594936ad4152bf0001bfd5cd","64de7b9a93c0622ed9fddb6d","","","","","2501",""," ","key"," ","6.944444444444445","500","250","pog","344","2","0","352","0","0","354"
"","psychophysics","76","484503","0.0-76.0","594936ad4152bf0001bfd5cd","64de7b9a93c0622ed9fddb6d","","","","","3400",""," ","key"," ","6.942857142857143","500","250","pog","325","2","0","353","0","0","333"
"","psychophysics","77","488509","0.0-77.0","594936ad4152bf0001bfd5cd","64de7b9a93c0622ed9fddb6d","","","","","4003",""," ","key"," ","6.944444444444445","500","250","pog","296","2","0","360","0","0","311"
"","psychophysics","78","492610","0.0-78.0","594936ad4152bf0001bfd5cd","64de7b9a93c0622ed9fddb6d","","","","","4100",""," ","key"," ","6.943972835314091","500","250","pog","375","2","0","345","0","0","377"
"","psychophysics","79","496796","0.0-79.0","594936ad4152bf0001bfd5cd","64de7b9a93c0622ed9fddb6d","","","","","4180",""," ","key"," ","6.945182724252492","500","250","pog","352","2","0","364","0","0","362"
"","psychophysics","80","499447","0.0-80.0","594936ad4152bf0001bfd5cd","64de7b9a93c0622ed9fddb6d","","","","","2645",""," ","key"," ","6.942257217847769","500","250","pog","361","2","0","365","0","0","379"
"","psychophysics","81","501549","0.0-81.0","594936ad4152bf0001bfd5cd","64de7b9a93c0622ed9fddb6d","","","","","2089",""," ","key"," ","6.943708609271523","500","250","inst","","","","","","",""
"","psychophysics","82","508284","0.0-82.0","594936ad4152bf0001bfd5cd","64de7b9a93c0622ed9fddb6d","","","","","6732",""," ","key"," ","6.944214876033058","500","250","instZol0","0","","","0","0","0",""
"","psychophysics","83","513598","0.0-83.0","594936ad4152bf0001bfd5cd","64de7b9a93c0622ed9fddb6d","","","","","5304",""," ","key"," ","6.9450980392156865","500","250","instZol1","-0.1000000000000002","","","-1.3","0","0",""
"","psychophysics","84","533754","0.0-84.0","594936ad4152bf0001bfd5cd","64de7b9a93c0622ed9fddb6d","","","","","20147",""," ","key"," ","6.9441571871768355","500","250","instZol2","-0.09999999999999937","2","","2","0","0",""
"","psychophysics","85","534611","0.0-85.0","594936ad4152bf0001bfd5cd","64de7b9a93c0622ed9fddb6d","","","","","851",""," ","key"," ","6.943089430894309","500","250","inst","","","","","","",""
"","psychophysics","86","542617","0.0-86.0","594936ad4152bf0001bfd5cd","64de7b9a93c0622ed9fddb6d","","","","","null","","null","key","null","6.944444444444445","500","250","zol","-0.13000000000000017","2","0","-0.57","-30","19",""
"","psychophysics","87","542921","0.0-87.0","594936ad4152bf0001bfd5cd","64de7b9a93c0622ed9fddb6d","","","","","300",""," ","key"," ","6.953488372093023","500","250","zol","-0.35","2","0","0.35","-8","17",""
"","psychophysics","88","548312","0.0-88.0","594936ad4152bf0001bfd5cd","64de7b9a93c0622ed9fddb6d","","","","","5389",""," ","key"," ","6.944516129032258","500","250","zol","-0.83","2","0","0.33","12","-27",""
"","psychophysics","89","552824","0.0-89.0","594936ad4152bf0001bfd5cd","64de7b9a93c0622ed9fddb6d","","","","","4505",""," ","key"," ","6.944444444444445","500","250","zol","-0.7899999999999998","2","0","-0.61","-22","4",""
"","psychophysics","90","557158","0.0-90.0","594936ad4152bf0001bfd5cd","64de7b9a93c0622ed9fddb6d","","","","","4326",""," ","key"," ","6.94551282051282","500","250","zol","-1.1300000000000001","2","0","-0.27","29","-14",""
"","psychophysics","91","561618","0.0-91.0","594936ad4152bf0001bfd5cd","64de7b9a93c0622ed9fddb6d","","","","","4454",""," ","key"," ","6.943837753510141","500","250","zol","-0.59","2","0","0.29","4","20",""
"","psychophysics","92","564357","0.0-92.0","594936ad4152bf0001bfd5cd","64de7b9a93c0622ed9fddb6d","","","","","2731",""," ","key"," ","6.9440203562340965","500","250","zol","-0.5","2","0","0.3","26","22",""
"","psychophysics","93","568983","0.0-93.0","594936ad4152bf0001bfd5cd","64de7b9a93c0622ed9fddb6d","","","","","4615",""," ","key"," ","6.944444444444445","500","250","zol","-0.5499999999999999","2","0","-0.45","-5","-14",""
"","psychophysics","94","573776","0.0-94.0","594936ad4152bf0001bfd5cd","64de7b9a93c0622ed9fddb6d","","","","","4792",""," ","key"," ","6.943396226415095","500","250","zol","-0.7699999999999999","2","0","0.47","-9","17",""
"","psychophysics","95","577949","0.0-95.0","594936ad4152bf0001bfd5cd","64de7b9a93c0622ed9fddb6d","","","","","4159",""," ","key"," ","6.945","500","250","zol","-0.1500000000000001","2","0","-0.25","-14","8",""
"","psychophysics","96","580271","0.0-96.0","594936ad4152bf0001bfd5cd","64de7b9a93c0622ed9fddb6d","","","","","2317",""," ","key"," ","6.942942942942943","500","250","zol","-0.49","2","0","-0.11","13","-14",""
"","psychophysics","97","583355","0.0-97.0","594936ad4152bf0001bfd5cd","64de7b9a93c0622ed9fddb6d","","","","","3075",""," ","key"," ","6.943566591422122","500","250","zol","-0.27","2","0","-0.63","-19","-22",""
"","psychophysics","98","585937","0.0-98.0","594936ad4152bf0001bfd5cd","64de7b9a93c0622ed9fddb6d","","","","","2573",""," ","key"," ","6.943396226415095","500","250","zol","-0.29","2","0","-0.71","11","-25",""
"","psychophysics","99","589715","0.0-99.0","594936ad4152bf0001bfd5cd","64de7b9a93c0622ed9fddb6d","","","","","3770",""," ","key"," ","6.94475138121547","500","250","zol","-0.49","2","0","0.49","-13","-22",""
"","psychophysics","100","593270","0.0-100.0","594936ad4152bf0001bfd5cd","64de7b9a93c0622ed9fddb6d","","","","","3554",""," ","key"," ","6.945205479452055","500","250","zol","-0.45999999999999985","2","0","-0.64","-18","-12",""
"","psychophysics","101","594357","0.0-101.0","594936ad4152bf0001bfd5cd","64de7b9a93c0622ed9fddb6d","","","","","1079",""," ","key"," ","6.948387096774193","500","250","inst","","","","","","",""
"","psychophysics","102","597693","0.0-102.0","594936ad4152bf0001bfd5cd","64de7b9a93c0622ed9fddb6d","","","","","3329",""," ","key"," ","6.94375","500","250","instBr0","0","","","0","0","0","300"
"","psychophysics","103","601513","0.0-103.0","594936ad4152bf0001bfd5cd","64de7b9a93c0622ed9fddb6d","","","","","3819",""," ","key"," ","6.943533697632058","500","250","instBr1","4","","","-40","0","0","300"
"","psychophysics","104","607515","0.0-104.0","594936ad4152bf0001bfd5cd","64de7b9a93c0622ed9fddb6d","","","","","6000",""," ","key"," ","6.944380069524913","500","250","instBr3","-8","1","","40","0","0","300"
"","psychophysics","105","608284","0.0-105.0","594936ad4152bf0001bfd5cd","64de7b9a93c0622ed9fddb6d","","","","","765",""," ","key"," ","6.945454545454545","500","250","inst","","","","","","",""
"","psychophysics","106","610741","0.0-106.0","594936ad4152bf0001bfd5cd","64de7b9a93c0622ed9fddb6d","","","","","2456",""," ","key"," ","6.943342776203966","500","250","br","-14","1","0","-17","-25","4","201"
"","psychophysics","107","612895","0.0-107.0","594936ad4152bf0001bfd5cd","64de7b9a93c0622ed9fddb6d","","","","","2151",""," ","key"," ","6.944983818770226","500","250","br","-12","1","0","-10","-22","18","242"
"","psychophysics","108","615489","0.0-108.0","594936ad4152bf0001bfd5cd","64de7b9a93c0622ed9fddb6d","","","","","2592",""," ","key"," ","6.943548387096774","500","250","br","-11","1","0","1","-25","-28","224"
"","psychophysics","109","617580","0.0-109.0","594936ad4152bf0001bfd5cd","64de7b9a93c0622ed9fddb6d","","","","","2087",""," ","key"," ","6.943521594684386","500","250","br","-15","1","0","-24","-8","28","265"
"","psychophysics","110","619578","0.0-110.0","594936ad4152bf0001bfd5cd","64de7b9a93c0622ed9fddb6d","","","","","1995",""," ","key"," ","6.944055944055944","500","250","br","-12","1","0","-14","-21","-15","205"
"","psychophysics","111","622959","0.0-111.0","594936ad4152bf0001bfd5cd","64de7b9a93c0622ed9fddb6d","","","","","3377",""," ","key"," ","6.944444444444445","500","250","br","-17","1","0","-30","16","-20","219"
"","psychophysics","112","626542","0.0-112.0","594936ad4152bf0001bfd5cd","64de7b9a93c0622ed9fddb6d","","","","","3579",""," ","key"," ","6.94368932038835","500","250","br","-16","1","0","29","26","-27","288"
"","psychophysics","113","629279","0.0-113.0","594936ad4152bf0001bfd5cd","64de7b9a93c0622ed9fddb6d","","","","","2733",""," ","key"," ","6.9440203562340965","500","250","br","-15","1","0","-18","10","8","290"
"","psychophysics","114","632241","0.0-114.0","594936ad4152bf0001bfd5cd","64de7b9a93c0622ed9fddb6d","","","","","2956",""," ","key"," ","6.943661971830986","500","250","br","-15","1","0","7","19","10","231"
"","psychophysics","115","635387","0.0-115.0","594936ad4152bf0001bfd5cd","64de7b9a93c0622ed9fddb6d","","","","","3144",""," ","key"," ","6.9446902654867255","500","250","br","-13","1","0","14","22","14","271"
"","psychophysics","116","639182","0.0-116.0","594936ad4152bf0001bfd5cd","64de7b9a93c0622ed9fddb6d","","","","","3790",""," ","key"," ","6.944954128440367","500","250","br","-13","1","0","30","16","19","268"
"","psychophysics","117","640842","0.0-117.0","594936ad4152bf0001bfd5cd","64de7b9a93c0622ed9fddb6d","","","","","1655",""," ","key"," ","6.9411764705882355","500","250","br","-16","1","0","-19","-14","-10","200"
"","psychophysics","118","642920","0.0-118.0","594936ad4152bf0001bfd5cd","64de7b9a93c0622ed9fddb6d","","","","","2073",""," ","key"," ","6.946488294314381","500","250","br","-18","1","0","-10","-19","-10","292"
"","psychophysics","119","646256","0.0-119.0","594936ad4152bf0001bfd5cd","64de7b9a93c0622ed9fddb6d","","","","","3332",""," ","key"," ","6.943632567849686","500","250","br","-13","1","0","21","8","-18","230"
"","psychophysics","120","648111","0.0-120.0","594936ad4152bf0001bfd5cd","64de7b9a93c0622ed9fddb6d","","","","","1850",""," ","key"," ","6.943609022556391","500","250","br","-19","1","0","-2","1","4","291"
"","psychophysics","121","648957","0.0-121.0","594936ad4152bf0001bfd5cd","64de7b9a93c0622ed9fddb6d","","","","","840",""," ","key"," ","6.9421487603305785","500","250","inst","","","","","","",""
"","psychophysics","122","652485","0.0-122.0","594936ad4152bf0001bfd5cd","64de7b9a93c0622ed9fddb6d","","","","","3526",""," ","key"," ","6.944773175542406","500","250","instPz1","14","1","","25","","","50"
"","psychophysics","123","659496","0.0-123.0","594936ad4152bf0001bfd5cd","64de7b9a93c0622ed9fddb6d","","","","","7004",""," ","key"," ","6.943508424182359","500","250","instPz2","20","1","","35","","","20"
"","psychophysics","124","665587","0.0-124.0","594936ad4152bf0001bfd5cd","64de7b9a93c0622ed9fddb6d","","","","","6088",""," ","key"," ","6.945205479452055","500","250","instPz3","32","1","","100","","","30"
"","psychophysics","125","670708","0.0-125.0","594936ad4152bf0001bfd5cd","64de7b9a93c0622ed9fddb6d","","","","","5120",""," ","key"," ","6.942934782608695","500","250","instPz4","35","1","","100","","","30"
"","psychophysics","126","671366","0.0-126.0","594936ad4152bf0001bfd5cd","64de7b9a93c0622ed9fddb6d","","","","","653",""," ","key"," ","6.946808510638298","500","250","inst","","","","","","",""
"","psychophysics","127","673122","0.0-127.0","594936ad4152bf0001bfd5cd","64de7b9a93c0622ed9fddb6d","","","","","1750",""," ","key"," ","6.944444444444445","500","250","pz","36","1","1","39","","","33"
"","psychophysics","128","677167","0.0-128.0","594936ad4152bf0001bfd5cd","64de7b9a93c0622ed9fddb6d","","","","","4041",""," ","key"," ","6.944922547332186","500","250","pz","79","1","1","48","","","60"
"","psychophysics","129","680751","0.0-129.0","594936ad4152bf0001bfd5cd","64de7b9a93c0622ed9fddb6d","","","","","3577",""," ","key"," ","6.94368932038835","500","250","pz","54","1","1","21","","","46"
"","psychophysics","130","683431","0.0-130.0","594936ad4152bf0001bfd5cd","64de7b9a93c0622ed9fddb6d","","","","","2675",""," ","key"," ","6.942857142857143","500","250","pz","49","1","1","31","","","41"
"","psychophysics","131","687408","0.0-131.0","594936ad4152bf0001bfd5cd","64de7b9a93c0622ed9fddb6d","","","","","3972",""," ","key"," ","6.944055944055944","500","250","pz","28","1","1","50","","","25"
"","psychophysics","132","690853","0.0-132.0","594936ad4152bf0001bfd5cd","64de7b9a93c0622ed9fddb6d","","","","","3438",""," ","key"," ","6.945454545454545","500","250","pz","68","1","1","47","","","51"
"","psychophysics","133","693466","0.0-133.0","594936ad4152bf0001bfd5cd","64de7b9a93c0622ed9fddb6d","","","","","2607",""," ","key"," ","6.944148936170213","500","250","pz","55","1","1","41","","","44"
"","psychophysics","134","697355","0.0-134.0","594936ad4152bf0001bfd5cd","64de7b9a93c0622ed9fddb6d","","","","","3884",""," ","key"," ","6.942754919499105","500","250","pz","71","1","1","26","","","59"
"","psychophysics","135","701526","0.0-135.0","594936ad4152bf0001bfd5cd","64de7b9a93c0622ed9fddb6d","","","","","4167",""," ","key"," ","6.944908180300501","500","250","pz","60","1","1","25","","","47"
"","psychophysics","136","703258","0.0-136.0","594936ad4152bf0001bfd5cd","64de7b9a93c0622ed9fddb6d","","","","","1726",""," ","key"," ","6.943775100401607","500","250","pz","62","1","1","50","","","56"
"","psychophysics","137","706454","0.0-137.0","594936ad4152bf0001bfd5cd","64de7b9a93c0622ed9fddb6d","","","","","3191",""," ","key"," ","6.943355119825708","500","250","pz","73","1","1","50","","","57"
"","psychophysics","138","709244","0.0-138.0","594936ad4152bf0001bfd5cd","64de7b9a93c0622ed9fddb6d","","","","","2787",""," ","key"," ","6.945137157107232","500","250","pz","62","1","1","31","","","52"
"","psychophysics","139","713185","0.0-139.0","594936ad4152bf0001bfd5cd","64de7b9a93c0622ed9fddb6d","","","","","3938",""," ","key"," ","6.943462897526501","500","250","pz","57","1","1","59","","","43"
"","psychophysics","140","716079","0.0-140.0","594936ad4152bf0001bfd5cd","64de7b9a93c0622ed9fddb6d","","","","","2892",""," ","key"," ","6.944711538461538","500","250","pz","49","1","1","52","","","42"
"","psychophysics","141","721799","0.0-141.0","594936ad4152bf0001bfd5cd","64de7b9a93c0622ed9fddb6d","","","","","5719",""," ","key"," ","6.944106925880924","500","250","pz","76","1","1","24","","","59"
"","psychophysics","142","722741","0.0-142.0","594936ad4152bf0001bfd5cd","64de7b9a93c0622ed9fddb6d","","","","","939",""," ","key"," ","6.940298507462686","500","250","inst","","","","","","",""
"","psychophysics","143","727495","0.0-143.0","594936ad4152bf0001bfd5cd","64de7b9a93c0622ed9fddb6d","","","","","4752",""," ","key"," ","6.944444444444445","500","250","instEB1","32","1","","40","0","0","30"
"","psychophysics","144","730850","0.0-144.0","594936ad4152bf0001bfd5cd","64de7b9a93c0622ed9fddb6d","","","","","3341",""," ","key"," ","6.943983402489627","500","250","instEB2","39","1","","30","0","0","40"
"","psychophysics","145","734297","0.0-145.0","594936ad4152bf0001bfd5cd","64de7b9a93c0622ed9fddb6d","","","","","3442",""," ","key"," ","6.945454545454545","500","250","instEB3","35","1","","27","0","0","45"
"","psychophysics","146","738062","0.0-146.0","594936ad4152bf0001bfd5cd","64de7b9a93c0622ed9fddb6d","","","","","3759",""," ","key"," ","6.942804428044281","500","250","instEB4","24","1","","40","0","0","30"
"","psychophysics","147","738837","0.0-147.0","594936ad4152bf0001bfd5cd","64de7b9a93c0622ed9fddb6d","","","","","773",""," ","key"," ","6.945454545454545","500","250","inst","","","","","","",""
"","psychophysics","148","742604","0.0-148.0","594936ad4152bf0001bfd5cd","64de7b9a93c0622ed9fddb6d","","","","","3762",""," ","key"," ","6.944649446494465","500","250","eb","25","1","","49","0","0","30"
"","psychophysics","149","746243","0.0-149.0","594936ad4152bf0001bfd5cd","64de7b9a93c0622ed9fddb6d","","","","","3634",""," ","key"," ","6.944550669216061","500","250","eb","21","1","","51","0","0","24"
"","psychophysics","150","748862","0.0-150.0","594936ad4152bf0001bfd5cd","64de7b9a93c0622ed9fddb6d","","","","","2615",""," ","key"," ","6.941489361702128","500","250","eb","23","1","","27","0","0","26"
"","psychophysics","151","752475","0.0-151.0","594936ad4152bf0001bfd5cd","64de7b9a93c0622ed9fddb6d","","","","","3608",""," ","key"," ","6.944123314065511","500","250","eb","35","1","","27","0","0","40"
"","psychophysics","152","755865","0.0-152.0","594936ad4152bf0001bfd5cd","64de7b9a93c0622ed9fddb6d","","","","","3385",""," ","key"," ","6.944558521560575","500","250","eb","29","1","","28","0","0","33"
"","psychophysics","153","759707","0.0-153.0","594936ad4152bf0001bfd5cd","64de7b9a93c0622ed9fddb6d","","","","","3836",""," ","key"," ","6.943942133815551","500","250","eb","21","1","","54","0","0","25"
"","psychophysics","154","763253","0.0-154.0","594936ad4152bf0001bfd5cd","64de7b9a93c0622ed9fddb6d","","","","","3546",""," ","key"," ","6.944990176817289","500","250","eb","21","1","","48","0","0","25"
"","psychophysics","155","764860","0.0-155.0","594936ad4152bf0001bfd5cd","64de7b9a93c0622ed9fddb6d","","","","","1603",""," ","key"," ","6.9437229437229435","500","250","eb","28","1","","29","0","0","31"
"","psychophysics","156","766884","0.0-156.0","594936ad4152bf0001bfd5cd","64de7b9a93c0622ed9fddb6d","","","","","2021",""," ","key"," ","6.944827586206896","500","250","eb","27","1","","24","0","0","30"
"","psychophysics","157","769463","0.0-157.0","594936ad4152bf0001bfd5cd","64de7b9a93c0622ed9fddb6d","","","","","2573",""," ","key"," ","6.943396226415095","500","250","eb","28","1","","36","0","0","31"
"","psychophysics","158","771865","0.0-158.0","594936ad4152bf0001bfd5cd","64de7b9a93c0622ed9fddb6d","","","","","2398",""," ","key"," ","6.944767441860465","500","250","eb","28","1","","27","0","0","33"
"","psychophysics","159","775959","0.0-159.0","594936ad4152bf0001bfd5cd","64de7b9a93c0622ed9fddb6d","","","","","4088",""," ","key"," ","6.943972835314091","500","250","eb","37","1","","51","0","0","44"
"","psychophysics","160","778365","0.0-160.0","594936ad4152bf0001bfd5cd","64de7b9a93c0622ed9fddb6d","","","","","2398",""," ","key"," ","6.944927536231884","500","250","eb","31","1","","28","0","0","37"
"","psychophysics","161","783432","0.0-161.0","594936ad4152bf0001bfd5cd","64de7b9a93c0622ed9fddb6d","","","","","5065",""," ","key"," ","6.945130315500686","500","250","eb","21","1","","54","0","0","26"
"","psychophysics","162","786667","0.0-162.0","594936ad4152bf0001bfd5cd","64de7b9a93c0622ed9fddb6d","","","","","3229",""," ","key"," ","6.944086021505377","500","250","eb","22","1","","47","0","0","27"
"","psychophysics","163","787449","0.0-163.0","594936ad4152bf0001bfd5cd","64de7b9a93c0622ed9fddb6d","","","","","778",""," ","key"," ","6.945945945945946","500","250","inst","","","","","","",""
"","psychophysics","164","791073","0.0-164.0","594936ad4152bf0001bfd5cd","64de7b9a93c0622ed9fddb6d","","","","","3616",""," ","key"," ","6.942418426103647","500","250","instPog0","160","1","","190","0","0","160"
"","psychophysics","165","794275","0.0-165.0","594936ad4152bf0001bfd5cd","64de7b9a93c0622ed9fddb6d","","","","","3198",""," ","key"," ","6.945652173913044","500","250","instPog1","174","1","","190","0","0","160"
"","psychophysics","166","796550","0.0-166.0","594936ad4152bf0001bfd5cd","64de7b9a93c0622ed9fddb6d","","","","","2268",""," ","key"," ","6.941896024464832","500","250","instPog2","172","1","","160","0","0","160"
"","psychophysics","167","797205","0.0-167.0","594936ad4152bf0001bfd5cd","64de7b9a93c0622ed9fddb6d","","","","","655",""," ","key"," ","6.946808510638298","500","250","inst","","","","","","",""
"","psychophysics","168","800126","0.0-168.0","594936ad4152bf0001bfd5cd","64de7b9a93c0622ed9fddb6d","","","","","2918",""," ","key"," ","6.945107398568019","500","250","pog","204","1","1","200","0","0","191"
"","psychophysics","169","802527","0.0-169.0","594936ad4152bf0001bfd5cd","64de7b9a93c0622ed9fddb6d","","","","","2397",""," ","key"," ","6.942028985507246","500","250","pog","167","1","1","163","0","0","158"
"","psychophysics","170","805738","0.0-170.0","594936ad4152bf0001bfd5cd","64de7b9a93c0622ed9fddb6d","","","","","3208",""," ","key"," ","6.945770065075922","500","250","pog","170","1","1","202","0","0","152"
"","psychophysics","171","809240","0.0-171.0","594936ad4152bf0001bfd5cd","64de7b9a93c0622ed9fddb6d","","","","","3500",""," ","key"," ","6.944444444444445","500","250","pog","172","1","1","140","0","0","162"
"","psychophysics","172","812905","0.0-172.0","594936ad4152bf0001bfd5cd","64de7b9a93c0622ed9fddb6d","","","","","3663",""," ","key"," ","6.944971537001898","500","250","pog","198","1","1","158","0","0","191"
"","psychophysics","173","815430","0.0-173.0","594936ad4152bf0001bfd5cd","64de7b9a93c0622ed9fddb6d","","","","","2523",""," ","key"," ","6.94475138121547","500","250","pog","147","1","1","139","0","0","145"
"","psychophysics","174","818014","0.0-174.0","594936ad4152bf0001bfd5cd","64de7b9a93c0622ed9fddb6d","","","","","2584",""," ","key"," ","6.943396226415095","500","250","pog","211","1","1","209","0","0","196"
"","psychophysics","175","820344","0.0-175.0","594936ad4152bf0001bfd5cd","64de7b9a93c0622ed9fddb6d","","","","","2323",""," ","key"," ","6.9431137724550895","500","250","pog","193","1","1","201","0","0","172"
"","psychophysics","176","823411","0.0-176.0","594936ad4152bf0001bfd5cd","64de7b9a93c0622ed9fddb6d","","","","","3064",""," ","key"," ","6.945578231292517","500","250","pog","150","1","1","164","0","0","135"
"","psychophysics","177","826414","0.0-177.0","594936ad4152bf0001bfd5cd","64de7b9a93c0622ed9fddb6d","","","","","2998",""," ","key"," ","6.94212962962963","500","250","pog","206","1","1","166","0","0","190"
"","psychophysics","178","828735","0.0-178.0","594936ad4152bf0001bfd5cd","64de7b9a93c0622ed9fddb6d","","","","","2320",""," ","key"," ","6.945945945945946","500","250","pog","139","1","1","153","0","0","127"
"","psychophysics","179","830846","0.0-179.0","594936ad4152bf0001bfd5cd","64de7b9a93c0622ed9fddb6d","","","","","2105",""," ","key"," ","6.9438943894389435","500","250","pog","187","1","1","183","0","0","176"
"","psychophysics","180","835777","0.0-180.0","594936ad4152bf0001bfd5cd","64de7b9a93c0622ed9fddb6d","","","","","4929",""," ","key"," ","6.943582510578279","500","250","pog","208","1","1","104","0","0","199"
"","psychophysics","181","840441","0.0-181.0","594936ad4152bf0001bfd5cd","64de7b9a93c0622ed9fddb6d","","","","","4661",""," ","key"," ","6.944858420268257","500","250","pog","178","1","1","136","0","0","173"
"","psychophysics","182","845329","0.0-182.0","594936ad4152bf0001bfd5cd","64de7b9a93c0622ed9fddb6d","","","","","4887",""," ","key"," ","6.94452347083926","500","250","pog","187","1","1","111","0","0","181"
"","psychophysics","183","846230","0.0-183.0","594936ad4152bf0001bfd5cd","64de7b9a93c0622ed9fddb6d","","","","","899",""," ","key"," ","6.9453125","500","250","inst","","","","","","",""
"","psychophysics","184","850533","0.0-184.0","594936ad4152bf0001bfd5cd","64de7b9a93c0622ed9fddb6d","","","","","4297",""," ","key"," ","6.945072697899838","500","250","instZol1","0.10000000000000003","","","-1.3","0","0",""
"","psychophysics","185","858865","0.0-185.0","594936ad4152bf0001bfd5cd","64de7b9a93c0622ed9fddb6d","","","","","8322",""," ","key"," ","6.944120100083403","500","250","instZol2","0.2000000000000007","1","","2","0","0",""
"","psychophysics","186","859424","0.0-186.0","594936ad4152bf0001bfd5cd","64de7b9a93c0622ed9fddb6d","","","","","557",""," ","key"," ","6.936708860759493","500","250","inst","","","","","","",""
"","psychophysics","187","863235","0.0-187.0","594936ad4152bf0001bfd5cd","64de7b9a93c0622ed9fddb6d","","","","","3802",""," ","key"," ","6.945255474452555","500","250","zol","0.4500000000000002","1","1","-0.55","-29","11",""
"","psychophysics","188","866822","0.0-188.0","594936ad4152bf0001bfd5cd","64de7b9a93c0622ed9fddb6d","","","","","3579",""," ","key"," ","6.9437984496124034","500","250","zol","0.6499999999999999","1","1","-0.15","-6","3",""
"","psychophysics","189","868666","0.0-189.0","594936ad4152bf0001bfd5cd","64de7b9a93c0622ed9fddb6d","","","","","1834",""," ","key"," ","6.943181818181818","500","250","zol","0.63","1","1","-0.33","13","-20",""
"","psychophysics","190","870238","0.0-190.0","594936ad4152bf0001bfd5cd","64de7b9a93c0622ed9fddb6d","","","","","1564",""," ","key"," ","6.942477876106195","500","250","zol","0.7599999999999999","1","1","-0.36","-1","-21",""
"","psychophysics","191","872417","0.0-191.0","594936ad4152bf0001bfd5cd","64de7b9a93c0622ed9fddb6d","","","","","2178",""," ","key"," ","6.94551282051282","500","250","zol","0.009999999999999981","1","1","0.69","29","22",""
"","psychophysics","192","874401","0.0-192.0","594936ad4152bf0001bfd5cd","64de7b9a93c0622ed9fddb6d","","","","","1975",""," ","key"," ","6.943859649122807","500","250","zol","0.27","1","1","0.23","28","6",""
"","psychophysics","193","875915","0.0-193.0","594936ad4152bf0001bfd5cd","64de7b9a93c0622ed9fddb6d","","","","","1511",""," ","key"," ","6.944700460829493","500","250","zol","0.38","1","1","0.12","5","-12",""
"","psychophysics","194","878341","0.0-194.0","594936ad4152bf0001bfd5cd","64de7b9a93c0622ed9fddb6d","","","","","2423",""," ","key"," ","6.9426934097421205","500","250","zol","0.20000000000000004","1","1","0.3","-10","9",""
"","psychophysics","195","881085","0.0-195.0","594936ad4152bf0001bfd5cd","64de7b9a93c0622ed9fddb6d","","","","","2741",""," ","key"," ","6.944162436548224","500","250","zol","0.77","1","1","0.43","-6","-11",""
"","psychophysics","196","884049","0.0-196.0","594936ad4152bf0001bfd5cd","64de7b9a93c0622ed9fddb6d","","","","","2959",""," ","key"," ","6.943661971830986","500","250","zol","0.71","1","1","-0.51","23","-26",""
"","psychophysics","197","886912","0.0-197.0","594936ad4152bf0001bfd5cd","64de7b9a93c0622ed9fddb6d","","","","","2861",""," ","key"," ","6.9440389294403895","500","250","zol","0.5499999999999999","1","1","-0.05","-2","-18",""
"","psychophysics","198","889468","0.0-198.0","594936ad4152bf0001bfd5cd","64de7b9a93c0622ed9fddb6d","","","","","2552",""," ","key"," ","6.94550408719346","500","250","zol","0.9099999999999999","1","1","-0.21","11","25",""
"","psychophysics","199","891451","0.0-199.0","594936ad4152bf0001bfd5cd","64de7b9a93c0622ed9fddb6d","","","","","1981",""," ","key"," ","6.943661971830986","500","250","zol","0.83","1","1","-0.23","12","-16",""
"","psychophysics","200","892906","0.0-200.0","594936ad4152bf0001bfd5cd","64de7b9a93c0622ed9fddb6d","","","","","1450",""," ","key"," ","6.942583732057416","500","250","zol","0.4","1","1","0.1","-25","-1",""
"","psychophysics","201","895187","0.0-201.0","594936ad4152bf0001bfd5cd","64de7b9a93c0622ed9fddb6d","","","","","2272",""," ","key"," ","6.944954128440367","500","250","zol","0.10999999999999999","1","1","0.49","4","25",""
"","psychophysics","202","895922","0.0-202.0","594936ad4152bf0001bfd5cd","64de7b9a93c0622ed9fddb6d","","","","","730",""," ","key"," ","6.942857142857143","500","250","inst","","","","","","",""
"","psychophysics","203","898825","0.0-203.0","594936ad4152bf0001bfd5cd","64de7b9a93c0622ed9fddb6d","","","","","2897",""," ","key"," ","6.94484412470024","500","250","instBr3","40","2","","40","0","0","300"
"","psychophysics","204","900446","0.0-204.0","594936ad4152bf0001bfd5cd","64de7b9a93c0622ed9fddb6d","","","","","1616",""," ","key"," ","6.944206008583691","500","250","inst","","","","","","",""
"","psychophysics","205","904520","0.0-205.0","594936ad4152bf0001bfd5cd","64de7b9a93c0622ed9fddb6d","","","","","4073",""," ","key"," ","6.943589743589744","500","250","br","15","2","1","-13","-24","8","215"
"","psychophysics","206","906727","0.0-206.0","594936ad4152bf0001bfd5cd","64de7b9a93c0622ed9fddb6d","","","","","2204",""," ","key"," ","6.943217665615142","500","250","br","14","2","1","30","0","4","247"
"","psychophysics","207","909204","0.0-207.0","594936ad4152bf0001bfd5cd","64de7b9a93c0622ed9fddb6d","","","","","2473",""," ","key"," ","6.943820224719101","500","250","br","11","2","1","-15","28","8","206"
"","psychophysics","208","914550","0.0-208.0","594936ad4152bf0001bfd5cd","64de7b9a93c0622ed9fddb6d","","","","","5341",""," ","key"," ","6.94408322496749","500","250","br","12","2","1","-30","-13","11","241"
"","psychophysics","209","916746","0.0-209.0","594936ad4152bf0001bfd5cd","64de7b9a93c0622ed9fddb6d","","","","","2186",""," ","key"," ","6.946031746031746","500","250","br","11","2","1","-9","-22","21","228"
"","psychophysics","210","921730","0.0-210.0","594936ad4152bf0001bfd5cd","64de7b9a93c0622ed9fddb6d","","","","","4978",""," ","key"," ","6.9442119944212","500","250","br","19","2","1","-15","21","16","289"
"","psychophysics","211","923531","0.0-211.0","594936ad4152bf0001bfd5cd","64de7b9a93c0622ed9fddb6d","","","","","1798",""," ","key"," ","6.941860465116279","500","250","br","27","2","1","28","25","-16","242"
"","psychophysics","212","925964","0.0-212.0","594936ad4152bf0001bfd5cd","64de7b9a93c0622ed9fddb6d","","","","","2428",""," ","key"," ","6.945558739255015","500","250","br","19","2","1","4","12","19","208"
"","psychophysics","213","927473","0.0-213.0","594936ad4152bf0001bfd5cd","64de7b9a93c0622ed9fddb6d","","","","","1503",""," ","key"," ","6.944700460829493","500","250","br","24","2","1","17","9","-23","260"
"","psychophysics","214","929351","0.0-214.0","594936ad4152bf0001bfd5cd","64de7b9a93c0622ed9fddb6d","","","","","1875",""," ","key"," ","6.947955390334572","500","250","br","25","2","1","21","19","-3","273"
"","psychophysics","215","931015","0.0-215.0","594936ad4152bf0001bfd5cd","64de7b9a93c0622ed9fddb6d","","","","","1657",""," ","key"," ","6.945606694560669","500","250","br","25","2","1","30","18","20","298"
"","psychophysics","216","934208","0.0-216.0","594936ad4152bf0001bfd5cd","64de7b9a93c0622ed9fddb6d","","","","","3189",""," ","key"," ","6.945414847161572","500","250","br","20","2","1","-14","11","-22","214"
"","psychophysics","217","936060","0.0-217.0","594936ad4152bf0001bfd5cd","64de7b9a93c0622ed9fddb6d","","","","","1847",""," ","key"," ","6.947368421052632","500","250","br","19","2","1","20","-3","-18","283"
"","psychophysics","218","939148","0.0-218.0","594936ad4152bf0001bfd5cd","64de7b9a93c0622ed9fddb6d","","","","","3084",""," ","key"," ","6.945945945945946","500","250","br","15","2","1","-15","20","27","292"
"","psychophysics","219","940819","0.0-219.0","594936ad4152bf0001bfd5cd","64de7b9a93c0622ed9fddb6d","","","","","1670",""," ","key"," ","6.941422594142259","500","250","br","22","2","1","25","-15","21","219"
