"success","trial_type","trial_index","time_elapsed","internal_node_id","pid","sid","timeout","failed_images","failed_audio","failed_video","rt","stimulus","response","response_type","key_press","avg_frame_time","center_x","center_y","task","resp","start","parA","version","block","jitterX","jitterY"
"true","fullscreen","0","8490","0.0-0.0","5e72e05556204e23fe260184","64e50b28a8fe596fe3a43236","","","","","","","","","","","","","","","","","","","",""
"true","preload","1","10893","0.0-1.0","5e72e05556204e23fe260184","64e50b28a8fe596fe3a43236","false","[]","[]","[]","","","","","","","","","","","","","","","",""
"","html-button-response","2","17454","0.0-2.0","5e72e05556204e23fe260184","64e50b28a8fe596fe3a43236","","","","","6559","Please Make Sure Your Audio Is On.","0","","","","","","","","","","","","",""
"","psychophysics","3","23671","0.0-3.0","5e72e05556204e23fe260184","64e50b28a8fe596fe3a43236","","","","","6177",""," ","key"," ","16.69559139784947","1024","250","","","","","","","",""
"","psychophysics","4","28839","0.0-4.0","5e72e05556204e23fe260184","64e50b28a8fe596fe3a43236","","","","","5168",""," ","key"," ","16.672297734627826","500","250","inst","","","","","","",""
"","psychophysics","5","33639","0.0-5.0","5e72e05556204e23fe260184","64e50b28a8fe596fe3a43236","","","","","4798",""," ","key"," ","16.675888501742147","500","250","sample0","","","","","","",""
"","psychophysics","6","39592","0.0-6.0","5e72e05556204e23fe260184","64e50b28a8fe596fe3a43236","","","","","5950",""," ","key"," ","16.673258426966292","500","250","sample1","","","","","","",""
"","psychophysics","7","49952","0.0-7.0","5e72e05556204e23fe260184","64e50b28a8fe596fe3a43236","","","","","10360",""," ","key"," ","16.67225806451612","500","250","sample2","120","","","","","",""
"","psychophysics","8","56816","0.0-8.0","5e72e05556204e23fe260184","64e50b28a8fe596fe3a43236","","","","","6862",""," ","key"," ","16.67240875912409","500","250","sample3","100","","","","","",""
"","psychophysics","9","69079","0.0-9.0","5e72e05556204e23fe260184","64e50b28a8fe596fe3a43236","","","","","12261",""," ","key"," ","16.672179836512257","500","250","sample4","98","","","","","",""
"","psychophysics","10","73889","0.0-10.0","5e72e05556204e23fe260184","64e50b28a8fe596fe3a43236","","","","","4803",""," ","key"," ","16.676041666666656","500","250","sample5","","","","","","",""
"","psychophysics","11","87538","0.0-11.0","5e72e05556204e23fe260184","64e50b28a8fe596fe3a43236","","","","","13648",""," ","key"," ","16.672264381884933","500","250","sample6","504","","","","","",""
"","psychophysics","12","96587","0.0-12.0","5e72e05556204e23fe260184","64e50b28a8fe596fe3a43236","","","","","9045",""," ","key"," ","16.673616236162374","500","250","inst","","","","","","",""
"","psychophysics","13","101928","0.0-13.0","5e72e05556204e23fe260184","64e50b28a8fe596fe3a43236","","","","","5341",""," ","key"," ","16.66887499999998","500","250","inst","","","","","","",""
"","psychophysics","14","107858","0.0-14.0","5e72e05556204e23fe260184","64e50b28a8fe596fe3a43236","","","","","5928",""," ","key"," ","16.6750847457627","500","250","inst","","","","","","",""
"","psychophysics","15","110985","0.0-15.0","5e72e05556204e23fe260184","64e50b28a8fe596fe3a43236","","","","","3126",""," ","key"," ","16.669411764705924","500","250","inst","","","","","","",""
"","psychophysics","16","113706","0.0-16.0","5e72e05556204e23fe260184","64e50b28a8fe596fe3a43236","","","","","2720",""," ","key"," ","16.67382716049385","500","250","inst","","","","","","",""
"","psychophysics","17","122841","0.0-17.0","5e72e05556204e23fe260184","64e50b28a8fe596fe3a43236","","","","","9133",""," ","key"," ","16.672175502742245","500","250","instPzPre","50","50","50","0","","",""
"","psychophysics","18","127082","0.0-18.0","5e72e05556204e23fe260184","64e50b28a8fe596fe3a43236","","","","","4239",""," ","key"," ","16.60692913385828","500","250","instPz0","50","50","50","2","","",""
"","psychophysics","19","143218","0.0-19.0","5e72e05556204e23fe260184","64e50b28a8fe596fe3a43236","","","","","16134",""," ","key"," ","16.671085832471565","500","250","instPz1","45","25","50","2","","",""
"","psychophysics","20","155218","0.0-20.0","5e72e05556204e23fe260184","64e50b28a8fe596fe3a43236","","","","","11999",""," ","key"," ","16.671543810848394","500","250","instPz2","34","20","35","2","","",""
"","psychophysics","21","165091","0.0-21.0","5e72e05556204e23fe260184","64e50b28a8fe596fe3a43236","","","","","9870",""," ","key"," ","16.67302876480543","500","250","instPz3","30","30","100","2","","",""
"","psychophysics","22","194380","0.0-22.0","5e72e05556204e23fe260184","64e50b28a8fe596fe3a43236","","","","","29288",""," ","key"," ","16.672255125284742","500","250","instPz4","79","30","100","2","","",""
"","psychophysics","23","198812","0.0-23.0","5e72e05556204e23fe260184","64e50b28a8fe596fe3a43236","","","","","4429",""," ","key"," ","16.672226415094283","500","250","inst","","","","","","",""
"","psychophysics","24","205100","0.0-24.0","5e72e05556204e23fe260184","64e50b28a8fe596fe3a43236","","","","","6287",""," ","key"," ","16.67356382978718","500","250","pz","21","34","23","2","0","",""
"","psychophysics","25","213134","0.0-25.0","5e72e05556204e23fe260184","64e50b28a8fe596fe3a43236","","","","","null","","null","key","null","16.67268191268197","500","250","pz","30","41","37","2","0","",""
"","psychophysics","26","217661","0.0-26.0","5e72e05556204e23fe260184","64e50b28a8fe596fe3a43236","","","","","4525",""," ","key"," ","16.672370370370402","500","250","pz","38","54","50","2","0","",""
"","psychophysics","27","223877","0.0-27.0","5e72e05556204e23fe260184","64e50b28a8fe596fe3a43236","","","","","6216",""," ","key"," ","16.672258064516093","500","250","pz","23","56","26","2","0","",""
"","psychophysics","28","228277","0.0-28.0","5e72e05556204e23fe260184","64e50b28a8fe596fe3a43236","","","","","4398",""," ","key"," ","16.672167300380224","500","250","pz","39","33","58","2","0","",""
"","psychophysics","29","233061","0.0-29.0","5e72e05556204e23fe260184","64e50b28a8fe596fe3a43236","","","","","4783",""," ","key"," ","16.668951048951072","500","250","pz","32","43","42","2","0","",""
"","psychophysics","30","240212","0.0-30.0","5e72e05556204e23fe260184","64e50b28a8fe596fe3a43236","","","","","7150",""," ","key"," ","16.670280373831787","500","250","pz","37","29","50","2","0","",""
"","psychophysics","31","244054","0.0-31.0","5e72e05556204e23fe260184","64e50b28a8fe596fe3a43236","","","","","3840",""," ","key"," ","16.6732751091704","500","250","pz","41","52","52","2","0","",""
"","psychophysics","32","248237","0.0-32.0","5e72e05556204e23fe260184","64e50b28a8fe596fe3a43236","","","","","4182",""," ","key"," ","16.669119999999996","500","250","pz","36","43","46","2","0","",""
"","psychophysics","33","252661","0.0-33.0","5e72e05556204e23fe260184","64e50b28a8fe596fe3a43236","","","","","4422",""," ","key"," ","16.673181818181824","500","250","pz","40","41","52","2","0","",""
"","psychophysics","34","257014","0.0-34.0","5e72e05556204e23fe260184","64e50b28a8fe596fe3a43236","","","","","4352",""," ","key"," ","16.676384615384563","500","250","pz","40","52","52","2","0","",""
"","psychophysics","35","263302","0.0-35.0","5e72e05556204e23fe260184","64e50b28a8fe596fe3a43236","","","","","6284",""," ","key"," ","16.67236074270552","500","250","pz","18","33","22","2","0","",""
"","psychophysics","36","267007","0.0-36.0","5e72e05556204e23fe260184","64e50b28a8fe596fe3a43236","","","","","3703",""," ","key"," ","16.675746606334958","500","250","pz","39","36","56","2","0","",""
"","psychophysics","37","271503","0.0-37.0","5e72e05556204e23fe260184","64e50b28a8fe596fe3a43236","","","","","4496",""," ","key"," ","16.67216417910453","500","250","pz","37","56","44","2","0","",""
"","psychophysics","38","275855","0.0-38.0","5e72e05556204e23fe260184","64e50b28a8fe596fe3a43236","","","","","4350",""," ","key"," ","16.676076923076806","500","250","pz","25","33","32","2","0","",""
"","psychophysics","39","278007","0.0-39.0","5e72e05556204e23fe260184","64e50b28a8fe596fe3a43236","","","","","2151",""," ","key"," ","16.668527131782874","500","250","inst","","","","","","",""
"","psychophysics","40","290135","0.0-40.0","5e72e05556204e23fe260184","64e50b28a8fe596fe3a43236","","","","","12126",""," ","key"," ","16.673112947658392","500","250","instPog0","160","190","160","1","","0","0"
"","psychophysics","41","305567","0.0-41.0","5e72e05556204e23fe260184","64e50b28a8fe596fe3a43236","","","","","15429",""," ","key"," ","16.671774891774863","500","250","instPog1","174","190","160","1","","0","0"
"","psychophysics","42","314902","0.0-42.0","5e72e05556204e23fe260184","64e50b28a8fe596fe3a43236","","","","","9332",""," ","key"," ","16.67205724508059","500","250","instPog2","170","160","160","1","","0","0"
"","psychophysics","43","317456","0.0-43.0","5e72e05556204e23fe260184","64e50b28a8fe596fe3a43236","","","","","2551",""," ","key"," ","16.671372549019424","500","250","inst","","","","","","",""
"","psychophysics","44","323104","0.0-44.0","5e72e05556204e23fe260184","64e50b28a8fe596fe3a43236","","","","","5647",""," ","key"," ","16.672344213649726","500","250","pog","176","116","167","1","0","0","0"
"","psychophysics","45","325255","0.0-45.0","5e72e05556204e23fe260184","64e50b28a8fe596fe3a43236","","","","","2150",""," ","key"," ","16.672187499999836","500","250","pog","172","178","159","1","0","0","0"
"","psychophysics","46","329847","0.0-46.0","5e72e05556204e23fe260184","64e50b28a8fe596fe3a43236","","","","","4591",""," ","key"," ","16.675999999999874","500","250","pog","161","113","151","1","0","0","0"
"","psychophysics","47","333760","0.0-47.0","5e72e05556204e23fe260184","64e50b28a8fe596fe3a43236","","","","","3911",""," ","key"," ","16.672532188841252","500","250","pog","160","116","149","1","0","0","0"
"","psychophysics","48","335425","0.0-48.0","5e72e05556204e23fe260184","64e50b28a8fe596fe3a43236","","","","","1662",""," ","key"," ","16.675151515151185","500","250","pog","145","141","130","1","0","0","0"
"","psychophysics","49","343336","0.0-49.0","5e72e05556204e23fe260184","64e50b28a8fe596fe3a43236","","","","","7910",""," ","key"," ","16.6742616033756","500","250","pog","198","120","188","1","0","0","0"
"","psychophysics","50","346608","0.0-50.0","5e72e05556204e23fe260184","64e50b28a8fe596fe3a43236","","","","","3270",""," ","key"," ","16.666461538461647","500","250","pog","154","114","149","1","0","0","0"
"","psychophysics","51","350128","0.0-51.0","5e72e05556204e23fe260184","64e50b28a8fe596fe3a43236","","","","","3519",""," ","key"," ","16.67714285714291","500","250","pog","205","155","200","1","0","0","0"
"","psychophysics","52","356057","0.0-52.0","5e72e05556204e23fe260184","64e50b28a8fe596fe3a43236","","","","","5928",""," ","key"," ","16.672507042253496","500","250","pog","203","103","195","1","0","0","0"
"","psychophysics","53","359793","0.0-53.0","5e72e05556204e23fe260184","64e50b28a8fe596fe3a43236","","","","","3734",""," ","key"," ","16.672197309417143","500","250","pog","139","103","133","1","0","0","0"
"","psychophysics","54","362817","0.0-54.0","5e72e05556204e23fe260184","64e50b28a8fe596fe3a43236","","","","","3023",""," ","key"," ","16.678111111111097","500","250","pog","186","150","177","1","0","0","0"
"","psychophysics","55","364809","0.0-55.0","5e72e05556204e23fe260184","64e50b28a8fe596fe3a43236","","","","","1989",""," ","key"," ","16.673109243697283","500","250","pog","218","218","200","1","0","0","0"
"","psychophysics","56","368522","0.0-56.0","5e72e05556204e23fe260184","64e50b28a8fe596fe3a43236","","","","","3713",""," ","key"," ","16.676289592760277","500","250","pog","165","147","155","1","0","0","0"
"","psychophysics","57","370873","0.0-57.0","5e72e05556204e23fe260184","64e50b28a8fe596fe3a43236","","","","","2350",""," ","key"," ","16.67242857142867","500","250","pog","141","141","125","1","0","0","0"
"","psychophysics","58","374746","0.0-58.0","5e72e05556204e23fe260184","64e50b28a8fe596fe3a43236","","","","","3871",""," ","key"," ","16.674568965517242","500","250","pog","170","178","150","1","0","0","0"
"","psychophysics","59","375905","0.0-59.0","5e72e05556204e23fe260184","64e50b28a8fe596fe3a43236","","","","","1159",""," ","key"," ","16.656176470588168","500","250","inst","","","","","","",""
"","psychophysics","60","379145","0.0-60.0","5e72e05556204e23fe260184","64e50b28a8fe596fe3a43236","","","","","3239",""," ","key"," ","16.669793814433003","500","250","instBr0","0","0","300","","","0","0"
"","psychophysics","61","387266","0.0-61.0","5e72e05556204e23fe260184","64e50b28a8fe596fe3a43236","","","","","8119",""," ","key"," ","16.67226337448566","500","250","instBr1","-2","-40","300","","","0","0"
"","psychophysics","62","399778","0.0-62.0","5e72e05556204e23fe260184","64e50b28a8fe596fe3a43236","","","","","12510",""," ","key"," ","16.673698264352517","500","250","instBr3","-10","40","300","1","","0","0"
"","psychophysics","63","401922","0.0-63.0","5e72e05556204e23fe260184","64e50b28a8fe596fe3a43236","","","","","2143",""," ","key"," ","16.66390625000031","500","250","inst","","","","","","",""
"","psychophysics","64","404098","0.0-64.0","5e72e05556204e23fe260184","64e50b28a8fe596fe3a43236","","","","","2174",""," ","key"," ","16.679534883721182","500","250","br","-25","-30","231","1","0","-7","-4"
"","psychophysics","65","407770","0.0-65.0","5e72e05556204e23fe260184","64e50b28a8fe596fe3a43236","","","","","3671",""," ","key"," ","16.67278538812797","500","250","br","-7","16","232","1","0","21","29"
"","psychophysics","66","412458","0.0-66.0","5e72e05556204e23fe260184","64e50b28a8fe596fe3a43236","","","","","4684",""," ","key"," ","16.6718861209964","500","250","br","-15","19","293","1","0","2","14"
"","psychophysics","67","416739","0.0-67.0","5e72e05556204e23fe260184","64e50b28a8fe596fe3a43236","","","","","4281",""," ","key"," ","16.67662745098031","500","250","br","-17","11","252","1","0","-27","-20"
"","psychophysics","68","421723","0.0-68.0","5e72e05556204e23fe260184","64e50b28a8fe596fe3a43236","","","","","4981",""," ","key"," ","16.66906040268458","500","250","br","-13","23","256","1","0","12","21"
"","psychophysics","69","426603","0.0-69.0","5e72e05556204e23fe260184","64e50b28a8fe596fe3a43236","","","","","4880",""," ","key"," ","16.675821917808307","500","250","br","-15","9","216","1","0","-5","-25"
"","psychophysics","70","429019","0.0-70.0","5e72e05556204e23fe260184","64e50b28a8fe596fe3a43236","","","","","2414",""," ","key"," ","16.673194444444462","500","250","br","-13","-22","289","1","0","11","8"
"","psychophysics","71","432586","0.0-71.0","5e72e05556204e23fe260184","64e50b28a8fe596fe3a43236","","","","","3566",""," ","key"," ","16.669014084507044","500","250","br","-11","-13","254","1","0","-3","26"
"","psychophysics","72","437540","0.0-72.0","5e72e05556204e23fe260184","64e50b28a8fe596fe3a43236","","","","","4952",""," ","key"," ","16.672364864864928","500","250","br","-5","19","229","1","0","-7","-4"
"","psychophysics","73","441837","0.0-73.0","5e72e05556204e23fe260184","64e50b28a8fe596fe3a43236","","","","","4296",""," ","key"," ","16.669494163424115","500","250","br","-14","-11","206","1","0","-1","-9"
"","psychophysics","74","446764","0.0-74.0","5e72e05556204e23fe260184","64e50b28a8fe596fe3a43236","","","","","4925",""," ","key"," ","16.671292517006755","500","250","br","-9","17","262","1","0","14","7"
"","psychophysics","75","451619","0.0-75.0","5e72e05556204e23fe260184","64e50b28a8fe596fe3a43236","","","","","4855",""," ","key"," ","16.670827586206823","500","250","br","-9","15","229","1","0","-24","-6"
"","psychophysics","76","457843","0.0-76.0","5e72e05556204e23fe260184","64e50b28a8fe596fe3a43236","","","","","6221",""," ","key"," ","16.675227882037653","500","250","br","-10","21","205","1","0","16","-6"
"","psychophysics","77","462244","0.0-77.0","5e72e05556204e23fe260184","64e50b28a8fe596fe3a43236","","","","","4400",""," ","key"," ","16.67323193916371","500","250","br","-17","-10","278","1","0","4","-10"
"","psychophysics","78","465436","0.0-78.0","5e72e05556204e23fe260184","64e50b28a8fe596fe3a43236","","","","","3190",""," ","key"," ","16.66736842105257","500","250","br","-13","-4","245","1","0","-27","-16"
"","psychophysics","79","466388","0.0-79.0","5e72e05556204e23fe260184","64e50b28a8fe596fe3a43236","","","","","950",""," ","key"," ","16.680357142857765","500","250","inst","","","","","","",""
"","psychophysics","80","467884","0.0-80.0","5e72e05556204e23fe260184","64e50b28a8fe596fe3a43236","","","","","1496",""," ","key"," ","16.682471910112255","500","250","instEB0","40","40","40","1","","0","0"
"","psychophysics","81","477949","0.0-81.0","5e72e05556204e23fe260184","64e50b28a8fe596fe3a43236","","","","","10063",""," ","key"," ","16.6725373134328","500","250","instEB1","30","40","30","1","","0","0"
"","psychophysics","82","487620","0.0-82.0","5e72e05556204e23fe260184","64e50b28a8fe596fe3a43236","","","","","9669",""," ","key"," ","16.670708117443812","500","250","instEB2","36","30","40","1","","0","0"
"","psychophysics","83","497652","0.0-83.0","5e72e05556204e23fe260184","64e50b28a8fe596fe3a43236","","","","","10031",""," ","key"," ","16.67186666666666","500","250","instEB3","37","27","45","1","","0","0"
"","psychophysics","84","509004","0.0-84.0","5e72e05556204e23fe260184","64e50b28a8fe596fe3a43236","","","","","11348",""," ","key"," ","16.673705882352934","500","250","instEB4","28","40","30","1","","0","0"
"","psychophysics","85","511766","0.0-85.0","5e72e05556204e23fe260184","64e50b28a8fe596fe3a43236","","","","","2759",""," ","key"," ","16.677454545454715","500","250","inst","","","","","","",""
"","psychophysics","86","519709","0.0-86.0","5e72e05556204e23fe260184","64e50b28a8fe596fe3a43236","","","","","7942",""," ","key"," ","16.670021052631597","500","250","eb","33","52","36","1","","0","0"
"","psychophysics","87","524214","0.0-87.0","5e72e05556204e23fe260184","64e50b28a8fe596fe3a43236","","","","","4504",""," ","key"," ","16.672666666666863","500","250","eb","28","38","30","1","","0","0"
"","psychophysics","88","526847","0.0-88.0","5e72e05556204e23fe260184","64e50b28a8fe596fe3a43236","","","","","2631",""," ","key"," ","16.6721794871794","500","250","eb","27","25","30","1","","0","0"
"","psychophysics","89","530821","0.0-89.0","5e72e05556204e23fe260184","64e50b28a8fe596fe3a43236","","","","","3970",""," ","key"," ","16.671848739495896","500","250","eb","28","37","30","1","","0","0"
"","psychophysics","90","537399","0.0-90.0","5e72e05556204e23fe260184","64e50b28a8fe596fe3a43236","","","","","6575",""," ","key"," ","16.672264631043138","500","250","eb","37","50","41","1","","0","0"
"","psychophysics","91","543045","0.0-91.0","5e72e05556204e23fe260184","64e50b28a8fe596fe3a43236","","","","","5646",""," ","key"," ","16.67065088757377","500","250","eb","35","26","40","1","","0","0"
"","psychophysics","92","548870","0.0-92.0","5e72e05556204e23fe260184","64e50b28a8fe596fe3a43236","","","","","5823",""," ","key"," ","16.67229885057494","500","250","eb","24","30","26","1","","0","0"
"","psychophysics","93","555631","0.0-93.0","5e72e05556204e23fe260184","64e50b28a8fe596fe3a43236","","","","","6759",""," ","key"," ","16.674666666666642","500","250","eb","32","51","34","1","","0","0"
"","psychophysics","94","561430","0.0-94.0","5e72e05556204e23fe260184","64e50b28a8fe596fe3a43236","","","","","5798",""," ","key"," ","16.669106628241888","500","250","eb","45","40","46","1","","0","0"
"","psychophysics","95","568031","0.0-95.0","5e72e05556204e23fe260184","64e50b28a8fe596fe3a43236","","","","","6600",""," ","key"," ","16.670582278481024","500","250","eb","49","44","52","1","","0","0"
"","psychophysics","96","574665","0.0-96.0","5e72e05556204e23fe260184","64e50b28a8fe596fe3a43236","","","","","6631",""," ","key"," ","16.67065656565646","500","250","eb","39","28","42","1","","0","0"
"","psychophysics","97","580752","0.0-97.0","5e72e05556204e23fe260184","64e50b28a8fe596fe3a43236","","","","","6084",""," ","key"," ","16.6717260273974","500","250","eb","44","24","48","1","","0","0"
"","psychophysics","98","584135","0.0-98.0","5e72e05556204e23fe260184","64e50b28a8fe596fe3a43236","","","","","3383",""," ","key"," ","16.670646766168808","500","250","eb","41","27","45","1","","0","0"
"","psychophysics","99","591840","0.0-99.0","5e72e05556204e23fe260184","64e50b28a8fe596fe3a43236","","","","","7702",""," ","key"," ","16.672337662337654","500","250","eb","39","25","42","1","","0","0"
"","psychophysics","100","596193","0.0-100.0","5e72e05556204e23fe260184","64e50b28a8fe596fe3a43236","","","","","4350",""," ","key"," ","16.672999999999927","500","250","eb","39","31","40","1","","0","0"
"","psychophysics","101","596952","0.0-101.0","5e72e05556204e23fe260184","64e50b28a8fe596fe3a43236","","","","","759",""," ","key"," ","16.673181818181714","500","250","inst","","","","","","",""
"","psychophysics","102","599224","0.0-102.0","5e72e05556204e23fe260184","64e50b28a8fe596fe3a43236","","","","","2272",""," ","key"," ","16.66632352941173","500","250","instZol0","0","0","","","","0","0"
"","psychophysics","103","607321","0.0-103.0","5e72e05556204e23fe260184","64e50b28a8fe596fe3a43236","","","","","8095",""," ","key"," ","16.674380165289303","500","250","instZol1","0.10000000000000003","-1.3","","","","0","0"
"","psychophysics","104","618065","0.0-104.0","5e72e05556204e23fe260184","64e50b28a8fe596fe3a43236","","","","","10741",""," ","key"," ","16.672080745341717","500","250","instZol2","-0.8999999999999992","2","","2","","0","0"
"","psychophysics","105","619314","0.0-105.0","5e72e05556204e23fe260184","64e50b28a8fe596fe3a43236","","","","","1247",""," ","key"," ","16.67205479451972","500","250","inst","","","","","","",""
"","psychophysics","106","624034","0.0-106.0","5e72e05556204e23fe260184","64e50b28a8fe596fe3a43236","","","","","4717",""," ","key"," ","16.67166077738501","500","250","zol","-0.7999999999999999","0.5","","2","0","15","-26"
"","psychophysics","107","629777","0.0-107.0","5e72e05556204e23fe260184","64e50b28a8fe596fe3a43236","","","","","5739",""," ","key"," ","16.67475218658876","500","250","zol","-0.98","0.68","","2","0","27","-9"
"","psychophysics","108","635593","0.0-108.0","5e72e05556204e23fe260184","64e50b28a8fe596fe3a43236","","","","","5814",""," ","key"," ","16.672873563218484","500","250","zol","-1.01","-0.19","","2","0","-16","25"
"","psychophysics","109","640162","0.0-109.0","5e72e05556204e23fe260184","64e50b28a8fe596fe3a43236","","","","","4567",""," ","key"," ","16.671135531135857","500","250","zol","-0.84","-0.26","","2","0","-27","17"
"","psychophysics","110","642770","0.0-110.0","5e72e05556204e23fe260184","64e50b28a8fe596fe3a43236","","","","","2606",""," ","key"," ","16.674967741935454","500","250","zol","-1.01","-0.29","","2","0","27","1"
"","psychophysics","111","650776","0.0-111.0","5e72e05556204e23fe260184","64e50b28a8fe596fe3a43236","","","","","null","","null","key","null","16.67448851774546","500","250","zol","-1.03","-0.17","","2","0","15","-21"
"","psychophysics","112","654329","0.0-112.0","5e72e05556204e23fe260184","64e50b28a8fe596fe3a43236","","","","","3549",""," ","key"," ","16.667605633802598","500","250","zol","-0.6200000000000001","0.62","","2","0","-30","-11"
"","psychophysics","113","659353","0.0-113.0","5e72e05556204e23fe260184","64e50b28a8fe596fe3a43236","","","","","5023",""," ","key"," ","16.67013333333307","500","250","zol","-0.7","-0.4","","2","0","17","-25"
"","psychophysics","114","664810","0.0-114.0","5e72e05556204e23fe260184","64e50b28a8fe596fe3a43236","","","","","5457",""," ","key"," ","16.671533742331416","500","250","zol","-0.7300000000000001","0.73","","2","0","9","-5"
"","psychophysics","115","669057","0.0-115.0","5e72e05556204e23fe260184","64e50b28a8fe596fe3a43236","","","","","4246",""," ","key"," ","16.672440944881615","500","250","zol","-0.58","-0.32","","2","0","16","16"
"","psychophysics","116","671931","0.0-116.0","5e72e05556204e23fe260184","64e50b28a8fe596fe3a43236","","","","","2872",""," ","key"," ","16.675555555554983","500","250","zol","-0.8699999999999999","0.57","","2","0","-2","7"
"","psychophysics","117","676634","0.0-117.0","5e72e05556204e23fe260184","64e50b28a8fe596fe3a43236","","","","","4703",""," ","key"," ","16.672882562277845","500","250","zol","-0.57","-0.63","","2","0","25","-14"
"","psychophysics","118","680370","0.0-118.0","5e72e05556204e23fe260184","64e50b28a8fe596fe3a43236","","","","","3731",""," ","key"," ","16.67282511210779","500","250","zol","-0.5399999999999999","-0.66","","2","0","24","7"
"","psychophysics","119","683083","0.0-119.0","5e72e05556204e23fe260184","64e50b28a8fe596fe3a43236","","","","","2709",""," ","key"," ","16.673827160494028","500","250","zol","-0.75","-0.35","","2","0","25","19"
"","psychophysics","120","686379","0.0-120.0","5e72e05556204e23fe260184","64e50b28a8fe596fe3a43236","","","","","3295",""," ","key"," ","16.67258883248731","500","250","zol","-0.69","0.09","","2","0","9","-13"
"","psychophysics","121","687082","0.0-121.0","5e72e05556204e23fe260184","64e50b28a8fe596fe3a43236","","","","","702",""," ","key"," ","16.651219512193986","500","250","inst","","","","","","",""
"","psychophysics","122","695363","0.0-122.0","5e72e05556204e23fe260184","64e50b28a8fe596fe3a43236","","","","","8280",""," ","key"," ","16.672177419354885","500","250","instPog0","340","370","340","2","","0","0"
"","psychophysics","123","702499","0.0-123.0","5e72e05556204e23fe260184","64e50b28a8fe596fe3a43236","","","","","7134",""," ","key"," ","16.671475409836","500","250","instPog1","346","370","340","2","","0","0"
"","psychophysics","124","708660","0.0-124.0","5e72e05556204e23fe260184","64e50b28a8fe596fe3a43236","","","","","6160",""," ","key"," ","16.675217391304297","500","250","instPog2","334","340","340","2","","0","0"
"","psychophysics","125","709772","0.0-125.0","5e72e05556204e23fe260184","64e50b28a8fe596fe3a43236","","","","","1110",""," ","key"," ","16.670909090909515","500","250","inst","","","","","","",""
"","psychophysics","126","712011","0.0-126.0","5e72e05556204e23fe260184","64e50b28a8fe596fe3a43236","","","","","2238",""," ","key"," ","16.66511278195461","500","250","pog","329","339","333","2","1","0","0"
"","psychophysics","127","716308","0.0-127.0","5e72e05556204e23fe260184","64e50b28a8fe596fe3a43236","","","","","4295",""," ","key"," ","16.67291828793798","500","250","pog","307","329","308","2","1","0","0"
"","psychophysics","128","720100","0.0-128.0","5e72e05556204e23fe260184","64e50b28a8fe596fe3a43236","","","","","3791",""," ","key"," ","16.672831858407328","500","250","pog","356","352","360","2","1","0","0"
"","psychophysics","129","723971","0.0-129.0","5e72e05556204e23fe260184","64e50b28a8fe596fe3a43236","","","","","3869",""," ","key"," ","16.6714655172415","500","250","pog","365","377","362","2","1","0","0"
"","psychophysics","130","727220","0.0-130.0","5e72e05556204e23fe260184","64e50b28a8fe596fe3a43236","","","","","3247",""," ","key"," ","16.677512953367923","500","250","pog","341","341","345","2","1","0","0"
"","psychophysics","131","733771","0.0-131.0","5e72e05556204e23fe260184","64e50b28a8fe596fe3a43236","","","","","6548",""," ","key"," ","16.671632653061","500","250","pog","361","283","372","2","1","0","0"
"","psychophysics","132","739077","0.0-132.0","5e72e05556204e23fe260184","64e50b28a8fe596fe3a43236","","","","","5303",""," ","key"," ","16.6722012578613","500","250","pog","298","348","304","2","1","0","0"
"","psychophysics","133","743484","0.0-133.0","5e72e05556204e23fe260184","64e50b28a8fe596fe3a43236","","","","","4406",""," ","key"," ","16.731832061068665","500","250","pog","354","368","356","2","1","0","0"
"","psychophysics","134","751487","0.0-134.0","5e72e05556204e23fe260184","64e50b28a8fe596fe3a43236","","","","","null","","null","key","null","16.670521920668165","500","250","pog","343","293","346","2","1","0","0"
"","psychophysics","135","759429","0.0-135.0","5e72e05556204e23fe260184","64e50b28a8fe596fe3a43236","","","","","7942",""," ","key"," ","16.67178947368416","500","250","pog","337","397","341","2","1","0","0"
"","psychophysics","136","762556","0.0-136.0","5e72e05556204e23fe260184","64e50b28a8fe596fe3a43236","","","","","3126",""," ","key"," ","16.67807486631041","500","250","pog","336","350","337","2","1","0","0"
"","psychophysics","137","766988","0.0-137.0","5e72e05556204e23fe260184","64e50b28a8fe596fe3a43236","","","","","4430",""," ","key"," ","16.670566037735675","500","250","pog","352","344","361","2","1","0","0"
"","psychophysics","138","773686","0.0-138.0","5e72e05556204e23fe260184","64e50b28a8fe596fe3a43236","","","","","6696",""," ","key"," ","16.673450000000013","500","250","pog","334","284","339","2","1","0","0"
"","psychophysics","139","779470","0.0-139.0","5e72e05556204e23fe260184","64e50b28a8fe596fe3a43236","","","","","5780",""," ","key"," ","16.674277456647197","500","250","pog","382","304","380","2","1","0","0"
"","psychophysics","140","782542","0.0-140.0","5e72e05556204e23fe260184","64e50b28a8fe596fe3a43236","","","","","3072",""," ","key"," ","16.6727173913045","500","250","pog","357","381","362","2","1","0","0"
"","psychophysics","141","783254","0.0-141.0","5e72e05556204e23fe260184","64e50b28a8fe596fe3a43236","","","","","711",""," ","key"," ","16.645365853657626","500","250","inst","","","","","","",""
"","psychophysics","142","789414","0.0-142.0","5e72e05556204e23fe260184","64e50b28a8fe596fe3a43236","","","","","6159",""," ","key"," ","16.672682926829193","500","250","instEB1","40","30","40","2","","0","0"
"","psychophysics","143","796438","0.0-143.0","5e72e05556204e23fe260184","64e50b28a8fe596fe3a43236","","","","","7023",""," ","key"," ","16.672190476190355","500","250","instEB2","34","40","30","2","","0","0"
"","psychophysics","144","807877","0.0-144.0","5e72e05556204e23fe260184","64e50b28a8fe596fe3a43236","","","","","11438",""," ","key"," ","16.672788321167864","500","250","instEB3","30","45","27","2","","0","0"
"","psychophysics","145","816726","0.0-145.0","5e72e05556204e23fe260184","64e50b28a8fe596fe3a43236","","","","","8847",""," ","key"," ","16.672943396226255","500","250","instEB4","48","30","40","2","","0","0"
"","psychophysics","146","817872","0.0-146.0","5e72e05556204e23fe260184","64e50b28a8fe596fe3a43236","","","","","1145",""," ","key"," ","16.667058823529207","500","250","inst","","","","","","",""
"","psychophysics","147","822383","0.0-147.0","5e72e05556204e23fe260184","64e50b28a8fe596fe3a43236","","","","","4509",""," ","key"," ","16.675241635687783","500","250","eb","32","48","29","2","","0","0"
"","psychophysics","148","827912","0.0-148.0","5e72e05556204e23fe260184","64e50b28a8fe596fe3a43236","","","","","5527",""," ","key"," ","16.6708157099699","500","250","eb","25","33","24","2","","0","0"
"","psychophysics","149","831174","0.0-149.0","5e72e05556204e23fe260184","64e50b28a8fe596fe3a43236","","","","","3260",""," ","key"," ","16.671855670102925","500","250","eb","37","41","34","2","","0","0"
"","psychophysics","150","838495","0.0-150.0","5e72e05556204e23fe260184","64e50b28a8fe596fe3a43236","","","","","7320",""," ","key"," ","16.67134396355373","500","250","eb","30","36","27","2","","0","0"
"","psychophysics","151","843278","0.0-151.0","5e72e05556204e23fe260184","64e50b28a8fe596fe3a43236","","","","","4781",""," ","key"," ","16.67382456140323","500","250","eb","30","48","26","2","","0","0"
"","psychophysics","152","848368","0.0-152.0","5e72e05556204e23fe260184","64e50b28a8fe596fe3a43236","","","","","5088",""," ","key"," ","16.671868852459152","500","250","eb","32","45","29","2","","0","0"
"","psychophysics","153","853968","0.0-153.0","5e72e05556204e23fe260184","64e50b28a8fe596fe3a43236","","","","","5599",""," ","key"," ","16.669373134328332","500","250","eb","56","33","53","2","","0","0"
"","psychophysics","154","858585","0.0-154.0","5e72e05556204e23fe260184","64e50b28a8fe596fe3a43236","","","","","4614",""," ","key"," ","16.67221818181813","500","250","eb","40","28","34","2","","0","0"
"","psychophysics","155","864408","0.0-155.0","5e72e05556204e23fe260184","64e50b28a8fe596fe3a43236","","","","","5821",""," ","key"," ","16.672034383954262","500","250","eb","33","24","29","2","","0","0"
"","psychophysics","156","869128","0.0-156.0","5e72e05556204e23fe260184","64e50b28a8fe596fe3a43236","","","","","4720",""," ","key"," ","16.674326241134867","500","250","eb","46","52","44","2","","0","0"
"","psychophysics","157","874424","0.0-157.0","5e72e05556204e23fe260184","64e50b28a8fe596fe3a43236","","","","","5293",""," ","key"," ","16.673354430379835","500","250","eb","51","24","49","2","","0","0"
"","psychophysics","158","878696","0.0-158.0","5e72e05556204e23fe260184","64e50b28a8fe596fe3a43236","","","","","4268",""," ","key"," ","16.671249999999873","500","250","eb","29","25","25","2","","0","0"
"","psychophysics","159","885521","0.0-159.0","5e72e05556204e23fe260184","64e50b28a8fe596fe3a43236","","","","","6822",""," ","key"," ","16.67225490196085","500","250","eb","56","24","52","2","","0","0"
"","psychophysics","160","888513","0.0-160.0","5e72e05556204e23fe260184","64e50b28a8fe596fe3a43236","","","","","2990",""," ","key"," ","16.672247191010765","500","250","eb","50","49","46","2","","0","0"
"","psychophysics","161","892385","0.0-161.0","5e72e05556204e23fe260184","64e50b28a8fe596fe3a43236","","","","","3869",""," ","key"," ","16.67206896551692","500","250","eb","48","41","41","2","","0","0"
"","psychophysics","162","893160","0.0-162.0","5e72e05556204e23fe260184","64e50b28a8fe596fe3a43236","","","","","774",""," ","key"," ","16.651111111109557","500","250","inst","","","","","","",""
"","psychophysics","163","906194","0.0-163.0","5e72e05556204e23fe260184","64e50b28a8fe596fe3a43236","","","","","13032",""," ","key"," ","16.671882202304726","500","250","instPz1","50","25","50","1","","",""
"","psychophysics","164","912482","0.0-164.0","5e72e05556204e23fe260184","64e50b28a8fe596fe3a43236","","","","","6287",""," ","key"," ","16.67164893617","500","250","instPz2","20","35","20","1","","",""
"","psychophysics","165","915801","0.0-165.0","5e72e05556204e23fe260184","64e50b28a8fe596fe3a43236","","","","","3317",""," ","key"," ","16.6705050505051","500","250","instPz3","100","100","30","1","","",""
"","psychophysics","166","918882","0.0-166.0","5e72e05556204e23fe260184","64e50b28a8fe596fe3a43236","","","","","3079",""," ","key"," ","16.67782608695637","500","250","instPz4","100","100","30","1","","",""
"","psychophysics","167","920066","0.0-167.0","5e72e05556204e23fe260184","64e50b28a8fe596fe3a43236","","","","","1182",""," ","key"," ","16.67228571428485","500","250","inst","","","","","","",""
"","psychophysics","168","924722","0.0-168.0","5e72e05556204e23fe260184","64e50b28a8fe596fe3a43236","","","","","4655",""," ","key"," ","16.672446043165685","500","250","pz","62","55","45","1","1","",""
"","psychophysics","169","929121","0.0-169.0","5e72e05556204e23fe260184","64e50b28a8fe596fe3a43236","","","","","4398",""," ","key"," ","16.67247148288968","500","250","pz","44","41","32","1","1","",""
"","psychophysics","170","934378","0.0-170.0","5e72e05556204e23fe260184","64e50b28a8fe596fe3a43236","","","","","5256",""," ","key"," ","16.6725477707008","500","250","pz","29","53","20","1","1","",""
"","psychophysics","171","940003","0.0-171.0","5e72e05556204e23fe260184","64e50b28a8fe596fe3a43236","","","","","5623",""," ","key"," ","16.67483679525235","500","250","pz","37","58","29","1","1","",""
"","psychophysics","172","943466","0.0-172.0","5e72e05556204e23fe260184","64e50b28a8fe596fe3a43236","","","","","3463",""," ","key"," ","16.671400966183484","500","250","pz","50","56","37","1","1","",""
"","psychophysics","173","949516","0.0-173.0","5e72e05556204e23fe260184","64e50b28a8fe596fe3a43236","","","","","6047",""," ","key"," ","16.67229916897526","500","250","pz","63","39","50","1","1","",""
"","psychophysics","174","955188","0.0-174.0","5e72e05556204e23fe260184","64e50b28a8fe596fe3a43236","","","","","5671",""," ","key"," ","16.672470588235335","500","250","pz","69","44","59","1","1","",""
"","psychophysics","175","961787","0.0-175.0","5e72e05556204e23fe260184","64e50b28a8fe596fe3a43236","","","","","6595",""," ","key"," ","16.67406091370548","500","250","pz","60","20","50","1","1","",""
"","psychophysics","176","965235","0.0-176.0","5e72e05556204e23fe260184","64e50b28a8fe596fe3a43236","","","","","3446",""," ","key"," ","16.673398058252292","500","250","pz","27","20","22","1","1","",""
"","psychophysics","177","970290","0.0-177.0","5e72e05556204e23fe260184","64e50b28a8fe596fe3a43236","","","","","5055",""," ","key"," ","16.669602649006915","500","250","pz","52","55","40","1","1","",""
"","psychophysics","178","974260","0.0-178.0","5e72e05556204e23fe260184","64e50b28a8fe596fe3a43236","","","","","3967",""," ","key"," ","16.67628691983085","500","250","pz","34","26","27","1","1","",""
"","psychophysics","179","979588","0.0-179.0","5e72e05556204e23fe260184","64e50b28a8fe596fe3a43236","","","","","5327",""," ","key"," ","16.675297805642764","500","250","pz","61","55","51","1","1","",""
"","psychophysics","180","986620","0.0-180.0","5e72e05556204e23fe260184","64e50b28a8fe596fe3a43236","","","","","7031",""," ","key"," ","16.674964370546395","500","250","pz","58","20","48","1","1","",""
"","psychophysics","181","990707","0.0-181.0","5e72e05556204e23fe260184","64e50b28a8fe596fe3a43236","","","","","4085",""," ","key"," ","16.67180327868822","500","250","pz","59","50","54","1","1","",""
"","psychophysics","182","995092","0.0-182.0","5e72e05556204e23fe260184","64e50b28a8fe596fe3a43236","","","","","4382",""," ","key"," ","16.674503816793788","500","250","pz","40","36","28","1","1","",""
"","psychophysics","183","995820","0.0-183.0","5e72e05556204e23fe260184","64e50b28a8fe596fe3a43236","","","","","727",""," ","key"," ","16.668372093023038","500","250","inst","","","","","","",""
"","psychophysics","184","1002299","0.0-184.0","5e72e05556204e23fe260184","64e50b28a8fe596fe3a43236","","","","","6477",""," ","key"," ","16.6695607235142","500","250","instZol1","2.7755575615628914e-17","-1.3","","","","0","0"
"","psychophysics","185","1014509","0.0-185.0","5e72e05556204e23fe260184","64e50b28a8fe596fe3a43236","","","","","12207",""," ","key"," ","16.673761969904266","500","250","instZol2","0.5000000000000007","2","","1","","0","0"
"","psychophysics","186","1015557","0.0-186.0","5e72e05556204e23fe260184","64e50b28a8fe596fe3a43236","","","","","1047",""," ","key"," ","16.688064516129558","500","250","inst","","","","","","",""
"","psychophysics","187","1021430","0.0-187.0","5e72e05556204e23fe260184","64e50b28a8fe596fe3a43236","","","","","5872",""," ","key"," ","16.674034090909117","500","250","zol","0.7300000000000001","-0.33","","1","1","8","27"
"","psychophysics","188","1025397","0.0-188.0","5e72e05556204e23fe260184","64e50b28a8fe596fe3a43236","","","","","3966",""," ","key"," ","16.669789029535824","500","250","zol","0.71","0.49","","1","1","-12","-13"
"","psychophysics","189","1029069","0.0-189.0","5e72e05556204e23fe260184","64e50b28a8fe596fe3a43236","","","","","3670",""," ","key"," ","16.672328767123243","500","250","zol","0.8599999999999999","0.24","","1","1","4","8"
"","psychophysics","190","1032844","0.0-190.0","5e72e05556204e23fe260184","64e50b28a8fe596fe3a43236","","","","","3773",""," ","key"," ","16.67191111111134","500","250","zol","0.6","0.7","","1","1","15","18"
"","psychophysics","191","1035382","0.0-191.0","5e72e05556204e23fe260184","64e50b28a8fe596fe3a43236","","","","","2537",""," ","key"," ","16.669933774834654","500","250","zol","0.8099999999999999","-0.51","","1","1","-14","-17"
"","psychophysics","192","1038598","0.0-192.0","5e72e05556204e23fe260184","64e50b28a8fe596fe3a43236","","","","","3215",""," ","key"," ","16.677812500000073","500","250","zol","0.6499999999999999","0.55","","1","1","23","-17"
"","psychophysics","193","1042637","0.0-193.0","5e72e05556204e23fe260184","64e50b28a8fe596fe3a43236","","","","","4038",""," ","key"," ","16.67239669421476","500","250","zol","0.8499999999999999","0.55","","1","1","29","-15"
"","psychophysics","194","1045148","0.0-194.0","5e72e05556204e23fe260184","64e50b28a8fe596fe3a43236","","","","","2510",""," ","key"," ","16.67167785234871","500","250","zol","0.83","0.07","","1","1","-11","8"
"","psychophysics","195","1048773","0.0-195.0","5e72e05556204e23fe260184","64e50b28a8fe596fe3a43236","","","","","3622",""," ","key"," ","16.672442396313556","500","250","zol","0.7","-0.6","","1","1","12","-30"
"","psychophysics","196","1051021","0.0-196.0","5e72e05556204e23fe260184","64e50b28a8fe596fe3a43236","","","","","2246",""," ","key"," ","16.674285714286974","500","250","zol","0.9999999999999999","-0.3","","1","1","-27","-20"
"","psychophysics","197","1053534","0.0-197.0","5e72e05556204e23fe260184","64e50b28a8fe596fe3a43236","","","","","2509",""," ","key"," ","16.673199999999877","500","250","zol","0.6699999999999999","0.73","","1","1","22","-14"
"","psychophysics","198","1057429","0.0-198.0","5e72e05556204e23fe260184","64e50b28a8fe596fe3a43236","","","","","3894",""," ","key"," ","16.67167381974249","500","250","zol","0.62","0.58","","1","1","1","11"
"","psychophysics","199","1059366","0.0-199.0","5e72e05556204e23fe260184","64e50b28a8fe596fe3a43236","","","","","1935",""," ","key"," ","16.67652173913084","500","250","zol","0.7899999999999999","-0.39","","1","1","21","7"
"","psychophysics","200","1062950","0.0-200.0","5e72e05556204e23fe260184","64e50b28a8fe596fe3a43236","","","","","3582",""," ","key"," ","16.67710280373788","500","250","zol","0.73","-0.03","","1","1","-28","-2"
"","psychophysics","201","1065782","0.0-201.0","5e72e05556204e23fe260184","64e50b28a8fe596fe3a43236","","","","","2831",""," ","key"," ","16.66603550295891","500","250","zol","0.74","0.06","","1","1","0","-18"
"","psychophysics","202","1066765","0.0-202.0","5e72e05556204e23fe260184","64e50b28a8fe596fe3a43236","","","","","983",""," ","key"," ","16.654827586206576","500","250","inst","","","","","","",""
"","psychophysics","203","1073471","0.0-203.0","5e72e05556204e23fe260184","64e50b28a8fe596fe3a43236","","","","","6705",""," ","key"," ","16.673017456359403","500","250","instBr3","40","40","300","2","","0","0"
"","psychophysics","204","1074615","0.0-204.0","5e72e05556204e23fe260184","64e50b28a8fe596fe3a43236","","","","","1142",""," ","key"," ","16.65764705882312","500","250","inst","","","","","","",""
"","psychophysics","205","1078398","0.0-205.0","5e72e05556204e23fe260184","64e50b28a8fe596fe3a43236","","","","","3782",""," ","key"," ","16.676977777778067","500","250","br","18","4","267","2","1","-1","4"
"","psychophysics","206","1086367","0.0-206.0","5e72e05556204e23fe260184","64e50b28a8fe596fe3a43236","","","","","7965",""," ","key"," ","16.67102725366892","500","250","br","12","-7","245","2","1","1","17"
"","psychophysics","207","1089462","0.0-207.0","5e72e05556204e23fe260184","64e50b28a8fe596fe3a43236","","","","","3095",""," ","key"," ","16.678054054053753","500","250","br","15","12","204","2","1","21","-23"
"","psychophysics","208","1091407","0.0-208.0","5e72e05556204e23fe260184","64e50b28a8fe596fe3a43236","","","","","1943",""," ","key"," ","16.66310344827522","500","250","br","15","15","200","2","1","-17","-15"
"","psychophysics","209","1094663","0.0-209.0","5e72e05556204e23fe260184","64e50b28a8fe596fe3a43236","","","","","3255",""," ","key"," ","16.678041237113593","500","250","br","14","13","208","2","1","5","-21"
"","psychophysics","210","1097534","0.0-210.0","5e72e05556204e23fe260184","64e50b28a8fe596fe3a43236","","","","","2870",""," ","key"," ","16.670175438595674","500","250","br","16","5","294","2","1","-30","5"
"","psychophysics","211","1102318","0.0-211.0","5e72e05556204e23fe260184","64e50b28a8fe596fe3a43236","","","","","4784",""," ","key"," ","16.671888111887817","500","250","br","11","-25","200","2","1","0","13"
"","psychophysics","212","1105783","0.0-212.0","5e72e05556204e23fe260184","64e50b28a8fe596fe3a43236","","","","","3464",""," ","key"," ","16.671400966183484","500","250","br","21","28","258","2","1","22","19"
"","psychophysics","213","1111400","0.0-213.0","5e72e05556204e23fe260184","64e50b28a8fe596fe3a43236","","","","","5616",""," ","key"," ","16.672023809523257","500","250","br","9","-23","217","2","1","25","16"
"","psychophysics","214","1114863","0.0-214.0","5e72e05556204e23fe260184","64e50b28a8fe596fe3a43236","","","","","3462",""," ","key"," ","16.668019323671633","500","250","br","21","30","271","2","1","30","23"
"","psychophysics","215","1118015","0.0-215.0","5e72e05556204e23fe260184","64e50b28a8fe596fe3a43236","","","","","3151",""," ","key"," ","16.672978723404356","500","250","br","13","6","242","2","1","-6","-14"
"","psychophysics","216","1120767","0.0-216.0","5e72e05556204e23fe260184","64e50b28a8fe596fe3a43236","","","","","2750",""," ","key"," ","16.669634146340442","500","250","br","18","16","293","2","1","5","-14"
"","psychophysics","217","1123727","0.0-217.0","5e72e05556204e23fe260184","64e50b28a8fe596fe3a43236","","","","","2958",""," ","key"," ","16.67295454545423","500","250","br","15","4","273","2","1","5","28"
"","psychophysics","218","1126193","0.0-218.0","5e72e05556204e23fe260184","64e50b28a8fe596fe3a43236","","","","","2463",""," ","key"," ","16.67265306122373","500","250","br","15","15","245","2","1","17","8"
"","psychophysics","219","1132081","0.0-219.0","5e72e05556204e23fe260184","64e50b28a8fe596fe3a43236","","","","","5886",""," ","key"," ","16.67249999999992","500","250","br","11","-25","266","2","1","27","-10"
