"success","trial_type","trial_index","time_elapsed","internal_node_id","pid","sid","timeout","failed_images","failed_audio","failed_video","rt","stimulus","response","response_type","key_press","avg_frame_time","center_x","center_y","task","resp","start","parA","version","block","jitterX","jitterY"
"true","fullscreen","0","8838","0.0-0.0","64ac1eb53eed64043858a5d1","64e50ca3d05d64a4d4a40b81","","","","","","","","","","","","","","","","","","","",""
"true","preload","1","10614","0.0-1.0","64ac1eb53eed64043858a5d1","64e50ca3d05d64a4d4a40b81","false","[]","[]","[]","","","","","","","","","","","","","","","",""
"","html-button-response","2","16516","0.0-2.0","64ac1eb53eed64043858a5d1","64e50ca3d05d64a4d4a40b81","","","","","5900","Please Make Sure Your Audio Is On.","0","","","","","","","","","","","","",""
"","psychophysics","3","164847","0.0-3.0","64ac1eb53eed64043858a5d1","64e50ca3d05d64a4d4a40b81","","","","","148321",""," ","key"," ","16.6775350798291","683","250","","","","","","","",""
"","psychophysics","4","169668","0.0-4.0","64ac1eb53eed64043858a5d1","64e50ca3d05d64a4d4a40b81","","","","","4819",""," ","key"," ","16.66824305555555","500","250","inst","","","","","","",""
"","psychophysics","5","176492","0.0-5.0","64ac1eb53eed64043858a5d1","64e50ca3d05d64a4d4a40b81","","","","","6821",""," ","key"," ","16.667992647058817","500","250","sample0","","","","","","",""
"","psychophysics","6","180071","0.0-6.0","64ac1eb53eed64043858a5d1","64e50ca3d05d64a4d4a40b81","","","","","3578",""," ","key"," ","16.66835981308402","500","250","sample1","","","","","","",""
"","psychophysics","7","198227","0.0-7.0","64ac1eb53eed64043858a5d1","64e50ca3d05d64a4d4a40b81","","","","","18154",""," ","key"," ","16.683602575896966","500","250","sample2","100","","","","","",""
"","psychophysics","8","206362","0.0-8.0","64ac1eb53eed64043858a5d1","64e50ca3d05d64a4d4a40b81","","","","","8133",""," ","key"," ","16.668127310061596","500","250","sample3","100","","","","","",""
"","psychophysics","9","216256","0.0-9.0","64ac1eb53eed64043858a5d1","64e50ca3d05d64a4d4a40b81","","","","","9889",""," ","key"," ","16.668074198988204","500","250","sample4","100","","","","","",""
"","psychophysics","10","221929","0.0-10.0","64ac1eb53eed64043858a5d1","64e50ca3d05d64a4d4a40b81","","","","","5671",""," ","key"," ","16.669106194690237","500","250","sample5","","","","","","",""
"","psychophysics","11","229802","0.0-11.0","64ac1eb53eed64043858a5d1","64e50ca3d05d64a4d4a40b81","","","","","7866",""," ","key"," ","16.667654661016954","500","250","sample6","498","","","","","",""
"","psychophysics","12","236905","0.0-12.0","64ac1eb53eed64043858a5d1","64e50ca3d05d64a4d4a40b81","","","","","7101",""," ","key"," ","16.668120000000002","500","250","inst","","","","","","",""
"","psychophysics","13","249734","0.0-13.0","64ac1eb53eed64043858a5d1","64e50ca3d05d64a4d4a40b81","","","","","12828",""," ","key"," ","16.667989583333338","500","250","inst","","","","","","",""
"","psychophysics","14","255957","0.0-14.0","64ac1eb53eed64043858a5d1","64e50ca3d05d64a4d4a40b81","","","","","6219",""," ","key"," ","16.757954177897577","500","250","inst","","","","","","",""
"","psychophysics","15","258654","0.0-15.0","64ac1eb53eed64043858a5d1","64e50ca3d05d64a4d4a40b81","","","","","2695",""," ","key"," ","16.667372670807545","500","250","inst","","","","","","",""
"","psychophysics","16","261996","0.0-16.0","64ac1eb53eed64043858a5d1","64e50ca3d05d64a4d4a40b81","","","","","3341",""," ","key"," ","16.667231155778797","500","250","inst","","","","","","",""
"","psychophysics","17","264458","0.0-17.0","64ac1eb53eed64043858a5d1","64e50ca3d05d64a4d4a40b81","","","","","2460",""," ","key"," ","16.668040816326464","500","250","instPzPre","50","50","50","0","","",""
"","psychophysics","18","267614","0.0-18.0","64ac1eb53eed64043858a5d1","64e50ca3d05d64a4d4a40b81","","","","","3154",""," ","key"," ","16.667478723404123","500","250","instPz0","50","50","50","1","","",""
"","psychophysics","19","275734","0.0-19.0","64ac1eb53eed64043858a5d1","64e50ca3d05d64a4d4a40b81","","","","","8118",""," ","key"," ","16.66808641975309","500","250","instPz1","42","25","50","1","","",""
"","psychophysics","20","283592","0.0-20.0","64ac1eb53eed64043858a5d1","64e50ca3d05d64a4d4a40b81","","","","","7852",""," ","key"," ","16.667864118895995","500","250","instPz2","20","35","20","1","","",""
"","psychophysics","21","290234","0.0-21.0","64ac1eb53eed64043858a5d1","64e50ca3d05d64a4d4a40b81","","","","","6639",""," ","key"," ","16.667745591939475","500","250","instPz3","100","100","30","1","","",""
"","psychophysics","22","302878","0.0-22.0","64ac1eb53eed64043858a5d1","64e50ca3d05d64a4d4a40b81","","","","","12642",""," ","key"," ","16.667584432717653","500","250","instPz4","54","100","30","1","","",""
"","psychophysics","23","319610","0.0-23.0","64ac1eb53eed64043858a5d1","64e50ca3d05d64a4d4a40b81","","","","","16730",""," ","key"," ","16.718126999999978","500","250","inst","","","","","","",""
"","psychophysics","24","325770","0.0-24.0","64ac1eb53eed64043858a5d1","64e50ca3d05d64a4d4a40b81","","","","","6157",""," ","key"," ","16.66711413043484","500","250","pz","71","42","51","1","0","",""
"","psychophysics","25","327850","0.0-25.0","64ac1eb53eed64043858a5d1","64e50ca3d05d64a4d4a40b81","","","","","2078",""," ","key"," ","16.667709677419605","500","250","pz","55","53","40","1","0","",""
"","psychophysics","26","332015","0.0-26.0","64ac1eb53eed64043858a5d1","64e50ca3d05d64a4d4a40b81","","","","","4162",""," ","key"," ","16.6679397590363","500","250","pz","58","33","48","1","0","",""
"","psychophysics","27","335528","0.0-27.0","64ac1eb53eed64043858a5d1","64e50ca3d05d64a4d4a40b81","","","","","3512",""," ","key"," ","16.667657142857067","500","250","pz","55","39","28","1","0","",""
"","psychophysics","28","339704","0.0-28.0","64ac1eb53eed64043858a5d1","64e50ca3d05d64a4d4a40b81","","","","","4173",""," ","key"," ","16.668405622489804","500","250","pz","63","44","36","1","0","",""
"","psychophysics","29","341960","0.0-29.0","64ac1eb53eed64043858a5d1","64e50ca3d05d64a4d4a40b81","","","","","2254",""," ","key"," ","16.667940298507144","500","250","pz","66","60","45","1","0","",""
"","psychophysics","30","347252","0.0-30.0","64ac1eb53eed64043858a5d1","64e50ca3d05d64a4d4a40b81","","","","","5288",""," ","key"," ","16.667772870662485","500","250","pz","71","21","43","1","0","",""
"","psychophysics","31","350571","0.0-31.0","64ac1eb53eed64043858a5d1","64e50ca3d05d64a4d4a40b81","","","","","3316",""," ","key"," ","16.667969696969557","500","250","pz","70","44","51","1","0","",""
"","psychophysics","32","357779","0.0-32.0","64ac1eb53eed64043858a5d1","64e50ca3d05d64a4d4a40b81","","","","","7205",""," ","key"," ","16.668041763341016","500","250","pz","64","28","37","1","0","",""
"","psychophysics","33","362108","0.0-33.0","64ac1eb53eed64043858a5d1","64e50ca3d05d64a4d4a40b81","","","","","4326",""," ","key"," ","16.668227799227786","500","250","pz","86","54","57","1","0","",""
"","psychophysics","34","366617","0.0-34.0","64ac1eb53eed64043858a5d1","64e50ca3d05d64a4d4a40b81","","","","","4503",""," ","key"," ","16.668088888888747","500","250","pz","45","26","27","1","0","",""
"","psychophysics","35","370883","0.0-35.0","64ac1eb53eed64043858a5d1","64e50ca3d05d64a4d4a40b81","","","","","4263",""," ","key"," ","16.667898039215736","500","250","pz","85","34","59","1","0","",""
"","psychophysics","36","372306","0.0-36.0","64ac1eb53eed64043858a5d1","64e50ca3d05d64a4d4a40b81","","","","","1421",""," ","key"," ","16.670678571428567","500","250","pz","42","40","25","1","0","",""
"","psychophysics","37","378290","0.0-37.0","64ac1eb53eed64043858a5d1","64e50ca3d05d64a4d4a40b81","","","","","5982",""," ","key"," ","16.762022471910026","500","250","pz","92","42","48","1","0","",""
"","psychophysics","38","382450","0.0-38.0","64ac1eb53eed64043858a5d1","64e50ca3d05d64a4d4a40b81","","","","","4158",""," ","key"," ","16.667939759036067","500","250","pz","81","46","48","1","0","",""
"","psychophysics","39","628407","0.0-39.0","64ac1eb53eed64043858a5d1","64e50ca3d05d64a4d4a40b81","","","","","245955",""," ","key"," ","16.67945981688708","500","250","inst","","","","","","",""
"","psychophysics","40","631697","0.0-40.0","64ac1eb53eed64043858a5d1","64e50ca3d05d64a4d4a40b81","","","","","3289",""," ","key"," ","16.753225641026017","500","250","instEB0","40","40","40","1","","0","0"
"","psychophysics","41","637898","0.0-41.0","64ac1eb53eed64043858a5d1","64e50ca3d05d64a4d4a40b81","","","","","6199",""," ","key"," ","16.713289189189233","500","250","instEB1","33","40","30","1","","0","0"
"","psychophysics","42","642889","0.0-42.0","64ac1eb53eed64043858a5d1","64e50ca3d05d64a4d4a40b81","","","","","4989",""," ","key"," ","16.667826086956303","500","250","instEB2","35","30","40","1","","0","0"
"","psychophysics","43","650218","0.0-43.0","64ac1eb53eed64043858a5d1","64e50ca3d05d64a4d4a40b81","","","","","7327",""," ","key"," ","16.7822367816093","500","250","instEB3","36","27","45","1","","0","0"
"","psychophysics","44","655308","0.0-44.0","64ac1eb53eed64043858a5d1","64e50ca3d05d64a4d4a40b81","","","","","5083",""," ","key"," ","16.667780327868694","500","250","instEB4","25","40","30","1","","0","0"
"","psychophysics","45","657813","0.0-45.0","64ac1eb53eed64043858a5d1","64e50ca3d05d64a4d4a40b81","","","","","2504",""," ","key"," ","16.668100671141076","500","250","inst","","","","","","",""
"","psychophysics","46","663006","0.0-46.0","64ac1eb53eed64043858a5d1","64e50ca3d05d64a4d4a40b81","","","","","5190",""," ","key"," ","16.667348387096858","500","250","eb","21","31","25","1","","0","0"
"","psychophysics","47","666624","0.0-47.0","64ac1eb53eed64043858a5d1","64e50ca3d05d64a4d4a40b81","","","","","3615",""," ","key"," ","16.665829493087493","500","250","eb","28","35","37","1","","0","0"
"","psychophysics","48","669436","0.0-48.0","64ac1eb53eed64043858a5d1","64e50ca3d05d64a4d4a40b81","","","","","2808",""," ","key"," ","16.66810778443127","500","250","eb","32","41","38","1","","0","0"
"","psychophysics","49","673492","0.0-49.0","64ac1eb53eed64043858a5d1","64e50ca3d05d64a4d4a40b81","","","","","4051",""," ","key"," ","16.668139917695505","500","250","eb","31","24","40","1","","0","0"
"","psychophysics","50","677250","0.0-50.0","64ac1eb53eed64043858a5d1","64e50ca3d05d64a4d4a40b81","","","","","3756",""," ","key"," ","16.668816964285984","500","250","eb","21","35","25","1","","0","0"
"","psychophysics","51","681534","0.0-51.0","64ac1eb53eed64043858a5d1","64e50ca3d05d64a4d4a40b81","","","","","4282",""," ","key"," ","16.66876171874992","500","250","eb","32","45","35","1","","0","0"
"","psychophysics","52","685310","0.0-52.0","64ac1eb53eed64043858a5d1","64e50ca3d05d64a4d4a40b81","","","","","3773",""," ","key"," ","16.668283185840735","500","250","eb","26","35","30","1","","0","0"
"","psychophysics","53","690500","0.0-53.0","64ac1eb53eed64043858a5d1","64e50ca3d05d64a4d4a40b81","","","","","5188",""," ","key"," ","16.66697419354835","500","250","eb","34","50","41","1","","0","0"
"","psychophysics","54","694844","0.0-54.0","64ac1eb53eed64043858a5d1","64e50ca3d05d64a4d4a40b81","","","","","4341",""," ","key"," ","16.66825769230759","500","250","eb","39","40","47","1","","0","0"
"","psychophysics","55","698721","0.0-55.0","64ac1eb53eed64043858a5d1","64e50ca3d05d64a4d4a40b81","","","","","3874",""," ","key"," ","16.668199134198847","500","250","eb","27","51","27","1","","0","0"
"","psychophysics","56","700662","0.0-56.0","64ac1eb53eed64043858a5d1","64e50ca3d05d64a4d4a40b81","","","","","1938",""," ","key"," ","16.66691379310314","500","250","eb","34","36","39","1","","0","0"
"","psychophysics","57","704541","0.0-57.0","64ac1eb53eed64043858a5d1","64e50ca3d05d64a4d4a40b81","","","","","3877",""," ","key"," ","16.667341991341814","500","250","eb","49","47","54","1","","0","0"
"","psychophysics","58","708657","0.0-58.0","64ac1eb53eed64043858a5d1","64e50ca3d05d64a4d4a40b81","","","","","4111",""," ","key"," ","16.73597551020366","500","250","eb","30","54","34","1","","0","0"
"","psychophysics","59","712745","0.0-59.0","64ac1eb53eed64043858a5d1","64e50ca3d05d64a4d4a40b81","","","","","4082",""," ","key"," ","16.667689795918022","500","250","eb","34","47","39","1","","0","0"
"","psychophysics","60","717758","0.0-60.0","64ac1eb53eed64043858a5d1","64e50ca3d05d64a4d4a40b81","","","","","5011",""," ","key"," ","16.66765886287627","500","250","eb","31","48","35","1","","0","0"
"","psychophysics","61","804156","0.0-61.0","64ac1eb53eed64043858a5d1","64e50ca3d05d64a4d4a40b81","","","","","86391",""," ","key"," ","16.677826447876438","500","250","inst","","","","","","",""
"","psychophysics","62","807350","0.0-62.0","64ac1eb53eed64043858a5d1","64e50ca3d05d64a4d4a40b81","","","","","3191",""," ","key"," ","16.667921052631726","500","250","instBr0","0","0","300","","","0","0"
"","psychophysics","63","814430","0.0-63.0","64ac1eb53eed64043858a5d1","64e50ca3d05d64a4d4a40b81","","","","","7075",""," ","key"," ","16.66778066037728","500","250","instBr1","-4","-40","300","","","0","0"
"","psychophysics","64","823530","0.0-64.0","64ac1eb53eed64043858a5d1","64e50ca3d05d64a4d4a40b81","","","","","9099",""," ","key"," ","16.791567467652516","500","250","instBr3","16","40","300","2","","0","0"
"","psychophysics","65","825159","0.0-65.0","64ac1eb53eed64043858a5d1","64e50ca3d05d64a4d4a40b81","","","","","1628",""," ","key"," ","16.667412371133434","500","250","inst","","","","","","",""
"","psychophysics","66","831007","0.0-66.0","64ac1eb53eed64043858a5d1","64e50ca3d05d64a4d4a40b81","","","","","5847",""," ","key"," ","16.66794857142859","500","250","br","22","-17","298","2","0","-19","-19"
"","psychophysics","67","835334","0.0-67.0","64ac1eb53eed64043858a5d1","64e50ca3d05d64a4d4a40b81","","","","","4325",""," ","key"," ","16.6671511627907","500","250","br","24","-23","278","2","0","-3","18"
"","psychophysics","68","838301","0.0-68.0","64ac1eb53eed64043858a5d1","64e50ca3d05d64a4d4a40b81","","","","","2962",""," ","key"," ","16.6676836158195","500","250","br","24","11","257","2","0","12","-6"
"","psychophysics","69","843820","0.0-69.0","64ac1eb53eed64043858a5d1","64e50ca3d05d64a4d4a40b81","","","","","5513",""," ","key"," ","16.667651515151725","500","250","br","26","3","269","2","0","18","9"
"","psychophysics","70","848357","0.0-70.0","64ac1eb53eed64043858a5d1","64e50ca3d05d64a4d4a40b81","","","","","4530",""," ","key"," ","16.66818382352957","500","250","br","26","-21","234","2","0","-28","19"
"","psychophysics","71","850658","0.0-71.0","64ac1eb53eed64043858a5d1","64e50ca3d05d64a4d4a40b81","","","","","2299",""," ","key"," ","16.668153284671615","500","250","br","24","10","269","2","0","-4","27"
"","psychophysics","72","852195","0.0-72.0","64ac1eb53eed64043858a5d1","64e50ca3d05d64a4d4a40b81","","","","","1536",""," ","key"," ","16.66776923076915","500","250","br","20","16","216","2","0","23","-12"
"","psychophysics","73","857474","0.0-73.0","64ac1eb53eed64043858a5d1","64e50ca3d05d64a4d4a40b81","","","","","5277",""," ","key"," ","16.66826898734162","500","250","br","20","-28","252","2","0","3","19"
"","psychophysics","74","861890","0.0-74.0","64ac1eb53eed64043858a5d1","64e50ca3d05d64a4d4a40b81","","","","","4414",""," ","key"," ","16.667992395437377","500","250","br","18","-28","280","2","0","16","7"
"","psychophysics","75","867978","0.0-75.0","64ac1eb53eed64043858a5d1","64e50ca3d05d64a4d4a40b81","","","","","6083",""," ","key"," ","16.667589041096004","500","250","br","21","-20","215","2","0","-21","20"
"","psychophysics","76","871644","0.0-76.0","64ac1eb53eed64043858a5d1","64e50ca3d05d64a4d4a40b81","","","","","3664",""," ","key"," ","16.66761643835609","500","250","br","21","5","282","2","0","19","-4"
"","psychophysics","77","876148","0.0-77.0","64ac1eb53eed64043858a5d1","64e50ca3d05d64a4d4a40b81","","","","","4501",""," ","key"," ","16.668066914498436","500","250","br","22","25","276","2","0","28","25"
"","psychophysics","78","882334","0.0-78.0","64ac1eb53eed64043858a5d1","64e50ca3d05d64a4d4a40b81","","","","","6183",""," ","key"," ","16.757926630434827","500","250","br","23","-18","255","2","0","16","19"
"","psychophysics","79","885663","0.0-79.0","64ac1eb53eed64043858a5d1","64e50ca3d05d64a4d4a40b81","","","","","3327",""," ","key"," ","16.66768844221103","500","250","br","24","8","294","2","0","20","-2"
"","psychophysics","80","890676","0.0-80.0","64ac1eb53eed64043858a5d1","64e50ca3d05d64a4d4a40b81","","","","","5011",""," ","key"," ","16.66816722408029","500","250","br","18","-25","208","2","0","-24","-28"
"","psychophysics","81","901633","0.0-81.0","64ac1eb53eed64043858a5d1","64e50ca3d05d64a4d4a40b81","","","","","10953",""," ","key"," ","16.667706240487004","500","250","inst","","","","","","",""
"","psychophysics","82","907819","0.0-82.0","64ac1eb53eed64043858a5d1","64e50ca3d05d64a4d4a40b81","","","","","6184",""," ","key"," ","16.668410810810904","500","250","instZol0","0","0","","","","0","0"
"","psychophysics","83","931584","0.0-83.0","64ac1eb53eed64043858a5d1","64e50ca3d05d64a4d4a40b81","","","","","23763",""," ","key"," ","16.66844491228069","500","250","instZol1","0.2999999999999998","-1.3","","","","0","0"
"","psychophysics","84","958094","0.0-84.0","64ac1eb53eed64043858a5d1","64e50ca3d05d64a4d4a40b81","","","","","26508",""," ","key"," ","16.67858312342567","500","250","instZol2","0.10000000000000064","2","","1","","0","0"
"","psychophysics","85","960848","0.0-85.0","64ac1eb53eed64043858a5d1","64e50ca3d05d64a4d4a40b81","","","","","2752",""," ","key"," ","16.668420731707577","500","250","inst","","","","","","",""
"","psychophysics","86","968852","0.0-86.0","64ac1eb53eed64043858a5d1","64e50ca3d05d64a4d4a40b81","","","","","null","","null","key","null","16.668147916666687","500","250","zol","1.4300000000000002","0.17","","1","0","-21","-26"
"","psychophysics","87","971694","0.0-87.0","64ac1eb53eed64043858a5d1","64e50ca3d05d64a4d4a40b81","","","","","2839",""," ","key"," ","16.66620710059193","500","250","zol","1.5900000000000003","-0.39","","1","0","-8","7"
"","psychophysics","88","975893","0.0-88.0","64ac1eb53eed64043858a5d1","64e50ca3d05d64a4d4a40b81","","","","","4196",""," ","key"," ","16.667872509960386","500","250","zol","1.4000000000000001","0.3","","1","0","-20","0"
"","psychophysics","89","981147","0.0-89.0","64ac1eb53eed64043858a5d1","64e50ca3d05d64a4d4a40b81","","","","","5250",""," ","key"," ","16.668194267515815","500","250","zol","1.7200000000000006","-0.02","","1","0","-12","7"
"","psychophysics","90","985821","0.0-90.0","64ac1eb53eed64043858a5d1","64e50ca3d05d64a4d4a40b81","","","","","4669",""," ","key"," ","16.668846428571435","500","250","zol","1.7800000000000005","0.72","","1","0","-29","-16"
"","psychophysics","91","988695","0.0-91.0","64ac1eb53eed64043858a5d1","64e50ca3d05d64a4d4a40b81","","","","","2871",""," ","key"," ","16.667918128655185","500","250","zol","2.0000000000000004","-0.6","","1","0","15","0"
"","psychophysics","92","993271","0.0-92.0","64ac1eb53eed64043858a5d1","64e50ca3d05d64a4d4a40b81","","","","","4573",""," ","key"," ","16.668065693430826","500","250","zol","2.550000000000001","-0.75","","1","0","5","22"
"","psychophysics","93","998815","0.0-93.0","64ac1eb53eed64043858a5d1","64e50ca3d05d64a4d4a40b81","","","","","5541",""," ","key"," ","16.718721212121434","500","250","zol","1.2100000000000002","0.59","","1","0","-13","11"
"","psychophysics","94","1003682","0.0-94.0","64ac1eb53eed64043858a5d1","64e50ca3d05d64a4d4a40b81","","","","","4861",""," ","key"," ","16.66847766323025","500","250","zol","1.7100000000000006","0.59","","1","0","-29","-12"
"","psychophysics","95","1008885","0.0-95.0","64ac1eb53eed64043858a5d1","64e50ca3d05d64a4d4a40b81","","","","","5198",""," ","key"," ","16.66792926045024","500","250","zol","2.2800000000000007","0.62","","1","0","-5","10"
"","psychophysics","96","1013943","0.0-96.0","64ac1eb53eed64043858a5d1","64e50ca3d05d64a4d4a40b81","","","","","5053",""," ","key"," ","16.667508250825097","500","250","zol","2.340000000000001","0.36","","1","0","20","-25"
"","psychophysics","97","1021946","0.0-97.0","64ac1eb53eed64043858a5d1","64e50ca3d05d64a4d4a40b81","","","","","null","","null","key","null","16.668242171189956","500","250","zol","2.0700000000000007","0.03","","1","0","10","7"
"","psychophysics","98","1027209","0.0-98.0","64ac1eb53eed64043858a5d1","64e50ca3d05d64a4d4a40b81","","","","","5260",""," ","key"," ","16.668600000000175","500","250","zol","1.5700000000000003","0.33","","1","0","10","10"
"","psychophysics","99","1031483","0.0-99.0","64ac1eb53eed64043858a5d1","64e50ca3d05d64a4d4a40b81","","","","","4271",""," ","key"," ","16.667972549020003","500","250","zol","1.15","-0.25","","1","0","-6","6"
"","psychophysics","100","1037376","0.0-100.0","64ac1eb53eed64043858a5d1","64e50ca3d05d64a4d4a40b81","","","","","5890",""," ","key"," ","16.668481586402397","500","250","zol","1.3300000000000003","0.27","","1","0","23","-15"
"","psychophysics","101","1038514","0.0-101.0","64ac1eb53eed64043858a5d1","64e50ca3d05d64a4d4a40b81","","","","","1136",""," ","key"," ","16.66849253731328","500","250","inst","","","","","","",""
"","psychophysics","102","1060036","0.0-102.0","64ac1eb53eed64043858a5d1","64e50ca3d05d64a4d4a40b81","","","","","21520",""," ","key"," ","16.707111888111946","500","250","instPog0","340","370","340","2","","0","0"
"","psychophysics","103","1065860","0.0-103.0","64ac1eb53eed64043858a5d1","64e50ca3d05d64a4d4a40b81","","","","","5823",""," ","key"," ","16.668684813753703","500","250","instPog1","330","370","340","2","","0","0"
"","psychophysics","104","1071072","0.0-104.0","64ac1eb53eed64043858a5d1","64e50ca3d05d64a4d4a40b81","","","","","5210",""," ","key"," ","16.667401929260187","500","250","instPog2","326","340","340","2","","0","0"
"","psychophysics","105","1072035","0.0-105.0","64ac1eb53eed64043858a5d1","64e50ca3d05d64a4d4a40b81","","","","","961",""," ","key"," ","16.66684210526332","500","250","inst","","","","","","",""
"","psychophysics","106","1074378","0.0-106.0","64ac1eb53eed64043858a5d1","64e50ca3d05d64a4d4a40b81","","","","","2341",""," ","key"," ","16.668335714285995","500","250","pog","355","379","371","2","0","0","0"
"","psychophysics","107","1079192","0.0-107.0","64ac1eb53eed64043858a5d1","64e50ca3d05d64a4d4a40b81","","","","","4813",""," ","key"," ","16.668087108013665","500","250","pog","338","320","361","2","0","0","0"
"","psychophysics","108","1084364","0.0-108.0","64ac1eb53eed64043858a5d1","64e50ca3d05d64a4d4a40b81","","","","","5169",""," ","key"," ","16.6669225806453","500","250","pog","332","286","365","2","0","0","0"
"","psychophysics","109","1090636","0.0-109.0","64ac1eb53eed64043858a5d1","64e50ca3d05d64a4d4a40b81","","","","","6270",""," ","key"," ","16.667402666666856","500","250","pog","311","373","336","2","0","0","0"
"","psychophysics","110","1096469","0.0-110.0","64ac1eb53eed64043858a5d1","64e50ca3d05d64a4d4a40b81","","","","","5832",""," ","key"," ","16.667638968481526","500","250","pog","310","376","313","2","0","0","0"
"","psychophysics","111","1100360","0.0-111.0","64ac1eb53eed64043858a5d1","64e50ca3d05d64a4d4a40b81","","","","","3889",""," ","key"," ","16.6685862068964","500","250","pog","320","302","343","2","0","0","0"
"","psychophysics","112","1104357","0.0-112.0","64ac1eb53eed64043858a5d1","64e50ca3d05d64a4d4a40b81","","","","","3994",""," ","key"," ","16.667866108786104","500","250","pog","346","332","380","2","0","0","0"
"","psychophysics","113","1108653","0.0-113.0","64ac1eb53eed64043858a5d1","64e50ca3d05d64a4d4a40b81","","","","","4294",""," ","key"," ","16.66753307392944","500","250","pog","267","349","301","2","0","0","0"
"","psychophysics","114","1115686","0.0-114.0","64ac1eb53eed64043858a5d1","64e50ca3d05d64a4d4a40b81","","","","","7031",""," ","key"," ","16.70742857142884","500","250","pog","343","311","380","2","0","0","0"
"","psychophysics","115","1120376","0.0-115.0","64ac1eb53eed64043858a5d1","64e50ca3d05d64a4d4a40b81","","","","","4688",""," ","key"," ","16.66930357142867","500","250","pog","284","346","322","2","0","0","0"
"","psychophysics","116","1124499","0.0-116.0","64ac1eb53eed64043858a5d1","64e50ca3d05d64a4d4a40b81","","","","","4121",""," ","key"," ","16.667530364372016","500","250","pog","270","356","304","2","0","0","0"
"","psychophysics","117","1129242","0.0-117.0","64ac1eb53eed64043858a5d1","64e50ca3d05d64a4d4a40b81","","","","","4741",""," ","key"," ","16.66767844522961","500","250","pog","353","393","367","2","0","0","0"
"","psychophysics","118","1132700","0.0-118.0","64ac1eb53eed64043858a5d1","64e50ca3d05d64a4d4a40b81","","","","","3457",""," ","key"," ","16.669144927536404","500","250","pog","323","373","348","2","0","0","0"
"","psychophysics","119","1138051","0.0-119.0","64ac1eb53eed64043858a5d1","64e50ca3d05d64a4d4a40b81","","","","","5349",""," ","key"," ","16.668181249999908","500","250","pog","310","396","326","2","0","0","0"
"","psychophysics","120","1141837","0.0-120.0","64ac1eb53eed64043858a5d1","64e50ca3d05d64a4d4a40b81","","","","","3785",""," ","key"," ","16.667597345133164","500","250","pog","316","376","327","2","0","0","0"
"","psychophysics","121","1142619","0.0-121.0","64ac1eb53eed64043858a5d1","64e50ca3d05d64a4d4a40b81","","","","","780",""," ","key"," ","16.66195652173812","500","250","inst","","","","","","",""
"","psychophysics","122","1151311","0.0-122.0","64ac1eb53eed64043858a5d1","64e50ca3d05d64a4d4a40b81","","","","","8690",""," ","key"," ","16.66747115384653","500","250","instBr3","-24","40","300","1","","0","0"
"","psychophysics","123","1152208","0.0-123.0","64ac1eb53eed64043858a5d1","64e50ca3d05d64a4d4a40b81","","","","","895",""," ","key"," ","16.671320754718387","500","250","inst","","","","","","",""
"","psychophysics","124","1155988","0.0-124.0","64ac1eb53eed64043858a5d1","64e50ca3d05d64a4d4a40b81","","","","","3778",""," ","key"," ","16.669123893805608","500","250","br","-28","-8","296","1","1","1","12"
"","psychophysics","125","1160102","0.0-125.0","64ac1eb53eed64043858a5d1","64e50ca3d05d64a4d4a40b81","","","","","4112",""," ","key"," ","16.667999999999918","500","250","br","-20","18","235","1","1","7","-17"
"","psychophysics","126","1162535","0.0-126.0","64ac1eb53eed64043858a5d1","64e50ca3d05d64a4d4a40b81","","","","","2431",""," ","key"," ","16.665613793103216","500","250","br","-23","-5","238","1","1","28","19"
"","psychophysics","127","1165791","0.0-127.0","64ac1eb53eed64043858a5d1","64e50ca3d05d64a4d4a40b81","","","","","3253",""," ","key"," ","16.66964948453614","500","250","br","-22","7","254","1","1","21","-3"
"","psychophysics","128","1168438","0.0-128.0","64ac1eb53eed64043858a5d1","64e50ca3d05d64a4d4a40b81","","","","","2646",""," ","key"," ","16.664943037974602","500","250","br","-19","-24","227","1","1","-15","-7"
"","psychophysics","129","1170541","0.0-129.0","64ac1eb53eed64043858a5d1","64e50ca3d05d64a4d4a40b81","","","","","2101",""," ","key"," ","16.667264000000433","500","250","br","-18","-24","250","1","1","-13","-19"
"","psychophysics","130","1175514","0.0-130.0","64ac1eb53eed64043858a5d1","64e50ca3d05d64a4d4a40b81","","","","","4971",""," ","key"," ","16.95304109589101","500","250","br","-18","8","223","1","1","-8","-20"
"","psychophysics","131","1179705","0.0-131.0","64ac1eb53eed64043858a5d1","64e50ca3d05d64a4d4a40b81","","","","","4185",""," ","key"," ","16.66790438246954","500","250","br","-13","6","216","1","1","13","28"
"","psychophysics","132","1184056","0.0-132.0","64ac1eb53eed64043858a5d1","64e50ca3d05d64a4d4a40b81","","","","","4349",""," ","key"," ","16.667634615385367","500","250","br","-28","-5","273","1","1","-17","27"
"","psychophysics","133","1191263","0.0-133.0","64ac1eb53eed64043858a5d1","64e50ca3d05d64a4d4a40b81","","","","","7204",""," ","key"," ","16.66813689095115","500","250","br","-23","30","210","1","1","-26","4"
"","psychophysics","134","1192703","0.0-134.0","64ac1eb53eed64043858a5d1","64e50ca3d05d64a4d4a40b81","","","","","1438",""," ","key"," ","16.66783529411837","500","250","br","-27","-24","263","1","1","-5","-26"
"","psychophysics","135","1200705","0.0-135.0","64ac1eb53eed64043858a5d1","64e50ca3d05d64a4d4a40b81","","","","","null","","null","key","null","16.66797291666638","500","250","br","-27","26","222","1","1","-8","-8"
"","psychophysics","136","1204715","0.0-136.0","64ac1eb53eed64043858a5d1","64e50ca3d05d64a4d4a40b81","","","","","4007",""," ","key"," ","16.668087866108586","500","250","br","-23","-26","245","1","1","-10","-29"
"","psychophysics","137","1209708","0.0-137.0","64ac1eb53eed64043858a5d1","64e50ca3d05d64a4d4a40b81","","","","","4991",""," ","key"," ","16.668464882943287","500","250","br","-20","-19","265","1","1","2","24"
"","psychophysics","138","1211808","0.0-138.0","64ac1eb53eed64043858a5d1","64e50ca3d05d64a4d4a40b81","","","","","2098",""," ","key"," ","16.67024799999967","500","250","br","-29","-23","272","1","1","11","19"
"","psychophysics","139","1212530","0.0-139.0","64ac1eb53eed64043858a5d1","64e50ca3d05d64a4d4a40b81","","","","","720",""," ","key"," ","16.661547619045624","500","250","inst","","","","","","",""
"","psychophysics","140","1223112","0.0-140.0","64ac1eb53eed64043858a5d1","64e50ca3d05d64a4d4a40b81","","","","","10580",""," ","key"," ","16.66819085173488","500","250","instPz1","38","25","50","2","","",""
"","psychophysics","141","1226421","0.0-141.0","64ac1eb53eed64043858a5d1","64e50ca3d05d64a4d4a40b81","","","","","3307",""," ","key"," ","16.668370558375607","500","250","instPz2","28","20","35","2","","",""
"","psychophysics","142","1233985","0.0-142.0","64ac1eb53eed64043858a5d1","64e50ca3d05d64a4d4a40b81","","","","","7555",""," ","key"," ","16.85420758928584","500","250","instPz3","37","30","100","2","","",""
"","psychophysics","143","1237905","0.0-143.0","64ac1eb53eed64043858a5d1","64e50ca3d05d64a4d4a40b81","","","","","3917",""," ","key"," ","16.66826495726525","500","250","instPz4","36","30","100","2","","",""
"","psychophysics","144","1239389","0.0-144.0","64ac1eb53eed64043858a5d1","64e50ca3d05d64a4d4a40b81","","","","","1480",""," ","key"," ","16.668227272727314","500","250","inst","","","","","","",""
"","psychophysics","145","1243434","0.0-145.0","64ac1eb53eed64043858a5d1","64e50ca3d05d64a4d4a40b81","","","","","4039",""," ","key"," ","16.667247933884006","500","250","pz","21","37","54","2","1","",""
"","psychophysics","146","1247143","0.0-146.0","64ac1eb53eed64043858a5d1","64e50ca3d05d64a4d4a40b81","","","","","3708",""," ","key"," ","16.66831531531601","500","250","pz","28","53","49","2","1","",""
"","psychophysics","147","1249876","0.0-147.0","64ac1eb53eed64043858a5d1","64e50ca3d05d64a4d4a40b81","","","","","2731",""," ","key"," ","16.665160493827482","500","250","pz","22","39","43","2","1","",""
"","psychophysics","148","1254135","0.0-148.0","64ac1eb53eed64043858a5d1","64e50ca3d05d64a4d4a40b81","","","","","4256",""," ","key"," ","16.666788235293957","500","250","pz","22","54","33","2","1","",""
"","psychophysics","149","1257830","0.0-149.0","64ac1eb53eed64043858a5d1","64e50ca3d05d64a4d4a40b81","","","","","3692",""," ","key"," ","16.668230769230785","500","250","pz","26","35","60","2","1","",""
"","psychophysics","150","1260622","0.0-150.0","64ac1eb53eed64043858a5d1","64e50ca3d05d64a4d4a40b81","","","","","2791",""," ","key"," ","16.668765060240347","500","250","pz","20","30","38","2","1","",""
"","psychophysics","151","1267188","0.0-151.0","64ac1eb53eed64043858a5d1","64e50ca3d05d64a4d4a40b81","","","","","6560",""," ","key"," ","16.66786768447854","500","250","pz","17","57","31","2","1","",""
"","psychophysics","152","1271913","0.0-152.0","64ac1eb53eed64043858a5d1","64e50ca3d05d64a4d4a40b81","","","","","4723",""," ","key"," ","16.66866077738567","500","250","pz","23","51","50","2","1","",""
"","psychophysics","153","1275714","0.0-153.0","64ac1eb53eed64043858a5d1","64e50ca3d05d64a4d4a40b81","","","","","3799",""," ","key"," ","16.667766519823207","500","250","pz","10","26","22","2","1","",""
"","psychophysics","154","1277880","0.0-154.0","64ac1eb53eed64043858a5d1","64e50ca3d05d64a4d4a40b81","","","","","2165",""," ","key"," ","16.66720930232428","500","250","pz","15","24","26","2","1","",""
"","psychophysics","155","1282226","0.0-155.0","64ac1eb53eed64043858a5d1","64e50ca3d05d64a4d4a40b81","","","","","4343",""," ","key"," ","16.66684169884192","500","250","pz","20","30","55","2","1","",""
"","psychophysics","156","1285158","0.0-156.0","64ac1eb53eed64043858a5d1","64e50ca3d05d64a4d4a40b81","","","","","2927",""," ","key"," ","16.66917142857132","500","250","pz","21","27","50","2","1","",""
"","psychophysics","157","1290752","0.0-157.0","64ac1eb53eed64043858a5d1","64e50ca3d05d64a4d4a40b81","","","","","5589",""," ","key"," ","16.769603603603404","500","250","pz","16","45","25","2","1","",""
"","psychophysics","158","1294506","0.0-158.0","64ac1eb53eed64043858a5d1","64e50ca3d05d64a4d4a40b81","","","","","3752",""," ","key"," ","16.668236607143108","500","250","pz","26","53","46","2","1","",""
"","psychophysics","159","1297855","0.0-159.0","64ac1eb53eed64043858a5d1","64e50ca3d05d64a4d4a40b81","","","","","3347",""," ","key"," ","16.668129999999657","500","250","pz","13","26","20","2","1","",""
"","psychophysics","160","1300958","0.0-160.0","64ac1eb53eed64043858a5d1","64e50ca3d05d64a4d4a40b81","","","","","3102",""," ","key"," ","16.667962162162656","500","250","inst","","","","","","",""
"","psychophysics","161","1306069","0.0-161.0","64ac1eb53eed64043858a5d1","64e50ca3d05d64a4d4a40b81","","","","","5109",""," ","key"," ","16.668202614378995","500","250","instEB1","38","30","40","2","","0","0"
"","psychophysics","162","1310617","0.0-162.0","64ac1eb53eed64043858a5d1","64e50ca3d05d64a4d4a40b81","","","","","4545",""," ","key"," ","16.668860294117408","500","250","instEB2","34","40","30","2","","0","0"
"","psychophysics","163","1315267","0.0-163.0","64ac1eb53eed64043858a5d1","64e50ca3d05d64a4d4a40b81","","","","","4649",""," ","key"," ","16.667888489209297","500","250","instEB3","34","45","27","2","","0","0"
"","psychophysics","164","1318541","0.0-164.0","64ac1eb53eed64043858a5d1","64e50ca3d05d64a4d4a40b81","","","","","3271",""," ","key"," ","16.667435897436615","500","250","instEB4","43","30","40","2","","0","0"
"","psychophysics","165","1319208","0.0-165.0","64ac1eb53eed64043858a5d1","64e50ca3d05d64a4d4a40b81","","","","","665",""," ","key"," ","16.665743589741535","500","250","inst","","","","","","",""
"","psychophysics","166","1322333","0.0-166.0","64ac1eb53eed64043858a5d1","64e50ca3d05d64a4d4a40b81","","","","","3123",""," ","key"," ","16.668149732619792","500","250","eb","44","27","40","2","","0","0"
"","psychophysics","167","1328170","0.0-167.0","64ac1eb53eed64043858a5d1","64e50ca3d05d64a4d4a40b81","","","","","5835",""," ","key"," ","16.66749856733573","500","250","eb","41","24","35","2","","0","0"
"","psychophysics","168","1330843","0.0-168.0","64ac1eb53eed64043858a5d1","64e50ca3d05d64a4d4a40b81","","","","","2671",""," ","key"," ","16.667968553460184","500","250","eb","50","49","50","2","","0","0"
"","psychophysics","169","1335780","0.0-169.0","64ac1eb53eed64043858a5d1","64e50ca3d05d64a4d4a40b81","","","","","4934",""," ","key"," ","16.66796610169507","500","250","eb","28","38","27","2","","0","0"
"","psychophysics","170","1340681","0.0-170.0","64ac1eb53eed64043858a5d1","64e50ca3d05d64a4d4a40b81","","","","","4896",""," ","key"," ","16.667484641638538","500","250","eb","36","50","31","2","","0","0"
"","psychophysics","171","1342892","0.0-171.0","64ac1eb53eed64043858a5d1","64e50ca3d05d64a4d4a40b81","","","","","2207",""," ","key"," ","16.66891666666682","500","250","eb","47","47","43","2","","0","0"
"","psychophysics","172","1346115","0.0-172.0","64ac1eb53eed64043858a5d1","64e50ca3d05d64a4d4a40b81","","","","","3220",""," ","key"," ","16.668250000000018","500","250","eb","51","44","49","2","","0","0"
"","psychophysics","173","1348884","0.0-173.0","64ac1eb53eed64043858a5d1","64e50ca3d05d64a4d4a40b81","","","","","2764",""," ","key"," ","16.8727177914112","500","250","eb","43","37","46","2","","0","0"
"","psychophysics","174","1350836","0.0-174.0","64ac1eb53eed64043858a5d1","64e50ca3d05d64a4d4a40b81","","","","","1948",""," ","key"," ","16.66411965812007","500","250","eb","52","50","49","2","","0","0"
"","psychophysics","175","1353293","0.0-175.0","64ac1eb53eed64043858a5d1","64e50ca3d05d64a4d4a40b81","","","","","2454",""," ","key"," ","16.669136986300693","500","250","eb","36","34","33","2","","0","0"
"","psychophysics","176","1355870","0.0-176.0","64ac1eb53eed64043858a5d1","64e50ca3d05d64a4d4a40b81","","","","","2575",""," ","key"," ","16.668811688311518","500","250","eb","30","37","29","2","","0","0"
"","psychophysics","177","1360215","0.0-177.0","64ac1eb53eed64043858a5d1","64e50ca3d05d64a4d4a40b81","","","","","4344",""," ","key"," ","16.66947490347434","500","250","eb","37","46","34","2","","0","0"
"","psychophysics","178","1362480","0.0-178.0","64ac1eb53eed64043858a5d1","64e50ca3d05d64a4d4a40b81","","","","","2260",""," ","key"," ","16.667718518518463","500","250","eb","38","47","32","2","","0","0"
"","psychophysics","179","1366455","0.0-179.0","64ac1eb53eed64043858a5d1","64e50ca3d05d64a4d4a40b81","","","","","3972",""," ","key"," ","16.66849579831914","500","250","eb","52","38","52","2","","0","0"
"","psychophysics","180","1367983","0.0-180.0","64ac1eb53eed64043858a5d1","64e50ca3d05d64a4d4a40b81","","","","","1526",""," ","key"," ","16.668911111111647","500","250","eb","34","32","29","2","","0","0"
"","psychophysics","181","1368688","0.0-181.0","64ac1eb53eed64043858a5d1","64e50ca3d05d64a4d4a40b81","","","","","699",""," ","key"," ","16.674619047619803","500","250","inst","","","","","","",""
"","psychophysics","182","1378753","0.0-182.0","64ac1eb53eed64043858a5d1","64e50ca3d05d64a4d4a40b81","","","","","10063",""," ","key"," ","16.668445182724412","500","250","instZol1","0.4","-1.3","","","","0","0"
"","psychophysics","183","1378881","0.0-183.0","64ac1eb53eed64043858a5d1","64e50ca3d05d64a4d4a40b81","","","","","124",""," ","key"," ","16.66571428573557","500","250","instZol2","-2","2","","2","","0","0"
"","psychophysics","184","1380541","0.0-184.0","64ac1eb53eed64043858a5d1","64e50ca3d05d64a4d4a40b81","","","","","1659",""," ","key"," ","16.67059595959562","500","250","inst","","","","","","",""
"","psychophysics","185","1388544","0.0-185.0","64ac1eb53eed64043858a5d1","64e50ca3d05d64a4d4a40b81","","","","","null","","null","key","null","16.667910229645102","500","250","zol","-1.7500000000000004","-0.15","","2","1","27","-6"
"","psychophysics","186","1392983","0.0-186.0","64ac1eb53eed64043858a5d1","64e50ca3d05d64a4d4a40b81","","","","","4433",""," ","key"," ","16.667954716981686","500","250","zol","-1.3","-0.1","","2","1","-9","-9"
"","psychophysics","187","1397428","0.0-187.0","64ac1eb53eed64043858a5d1","64e50ca3d05d64a4d4a40b81","","","","","4440",""," ","key"," ","16.66765789473622","500","250","zol","-2.7300000000000013","0.23","","2","1","-13","10"
"","psychophysics","188","1403143","0.0-188.0","64ac1eb53eed64043858a5d1","64e50ca3d05d64a4d4a40b81","","","","","5711",""," ","key"," ","16.667538011695765","500","250","zol","-3.1900000000000017","-0.51","","2","1","7","19"
"","psychophysics","189","1408843","0.0-189.0","64ac1eb53eed64043858a5d1","64e50ca3d05d64a4d4a40b81","","","","","5697",""," ","key"," ","16.76559587020652","500","250","zol","-1.7800000000000002","0.28","","2","1","19","9"
"","psychophysics","190","1415941","0.0-190.0","64ac1eb53eed64043858a5d1","64e50ca3d05d64a4d4a40b81","","","","","7095",""," ","key"," ","16.66810823529411","500","250","zol","-2.330000000000001","0.53","","2","1","-18","9"
"","psychophysics","191","1418976","0.0-191.0","64ac1eb53eed64043858a5d1","64e50ca3d05d64a4d4a40b81","","","","","3032",""," ","key"," ","16.669751381215985","500","250","zol","-2.4400000000000013","0.74","","2","1","13","22"
"","psychophysics","192","1424464","0.0-192.0","64ac1eb53eed64043858a5d1","64e50ca3d05d64a4d4a40b81","","","","","5484",""," ","key"," ","16.667905487804447","500","250","zol","-2.0700000000000007","0.07","","2","1","-15","-26"
"","psychophysics","193","1428607","0.0-193.0","64ac1eb53eed64043858a5d1","64e50ca3d05d64a4d4a40b81","","","","","4140",""," ","key"," ","16.668327935221924","500","250","zol","-1.9200000000000008","-0.38","","2","1","-4","10"
"","psychophysics","194","1433623","0.0-194.0","64ac1eb53eed64043858a5d1","64e50ca3d05d64a4d4a40b81","","","","","5011",""," ","key"," ","16.668513333333348","500","250","zol","-2.270000000000001","-0.13","","2","1","-7","-3"
"","psychophysics","195","1437698","0.0-195.0","64ac1eb53eed64043858a5d1","64e50ca3d05d64a4d4a40b81","","","","","4070",""," ","key"," ","16.668086065573917","500","250","zol","-1.6400000000000006","-0.36","","2","1","17","8"
"","psychophysics","196","1439878","0.0-196.0","64ac1eb53eed64043858a5d1","64e50ca3d05d64a4d4a40b81","","","","","2176",""," ","key"," ","16.666353846155108","500","250","zol","-1.37","0.27","","2","1","-7","-5"
"","psychophysics","197","1443578","0.0-197.0","64ac1eb53eed64043858a5d1","64e50ca3d05d64a4d4a40b81","","","","","3698",""," ","key"," ","16.666769230769887","500","250","zol","-1.7000000000000004","-0.6","","2","1","1","9"
"","psychophysics","198","1447898","0.0-198.0","64ac1eb53eed64043858a5d1","64e50ca3d05d64a4d4a40b81","","","","","4317",""," ","key"," ","16.667500000000324","500","250","zol","-1.0499999999999998","-0.65","","2","1","-1","12"
"","psychophysics","199","1452149","0.0-199.0","64ac1eb53eed64043858a5d1","64e50ca3d05d64a4d4a40b81","","","","","4248",""," ","key"," ","16.670610236220327","500","250","zol","-2.0400000000000005","-0.56","","2","1","11","3"
"","psychophysics","200","1453345","0.0-200.0","64ac1eb53eed64043858a5d1","64e50ca3d05d64a4d4a40b81","","","","","1194",""," ","key"," ","16.66919718309909","500","250","inst","","","","","","",""
"","psychophysics","201","1459008","0.0-201.0","64ac1eb53eed64043858a5d1","64e50ca3d05d64a4d4a40b81","","","","","5661",""," ","key"," ","16.66794082840227","500","250","instPog0","160","190","160","1","","0","0"
"","psychophysics","202","1462961","0.0-202.0","64ac1eb53eed64043858a5d1","64e50ca3d05d64a4d4a40b81","","","","","3948",""," ","key"," ","16.73911063829734","500","250","instPog1","174","190","160","1","","0","0"
"","psychophysics","203","1466857","0.0-203.0","64ac1eb53eed64043858a5d1","64e50ca3d05d64a4d4a40b81","","","","","3894",""," ","key"," ","16.740422413792814","500","250","instPog2","176","160","160","1","","0","0"
"","psychophysics","204","1467758","0.0-204.0","64ac1eb53eed64043858a5d1","64e50ca3d05d64a4d4a40b81","","","","","900",""," ","key"," ","16.668415094339203","500","250","inst","","","","","","",""
"","psychophysics","205","1470557","0.0-205.0","64ac1eb53eed64043858a5d1","64e50ca3d05d64a4d4a40b81","","","","","2795",""," ","key"," ","16.667317365269696","500","250","pog","161","153","148","1","1","0","0"
"","psychophysics","206","1473419","0.0-206.0","64ac1eb53eed64043858a5d1","64e50ca3d05d64a4d4a40b81","","","","","2860",""," ","key"," ","16.667280701754276","500","250","pog","147","149","133","1","1","0","0"
"","psychophysics","207","1476220","0.0-207.0","64ac1eb53eed64043858a5d1","64e50ca3d05d64a4d4a40b81","","","","","2800",""," ","key"," ","16.6663652694614","500","250","pog","192","198","175","1","1","0","0"
"","psychophysics","208","1478274","0.0-208.0","64ac1eb53eed64043858a5d1","64e50ca3d05d64a4d4a40b81","","","","","2053",""," ","key"," ","16.66766393442684","500","250","pog","159","159","137","1","1","0","0"
"","psychophysics","209","1484105","0.0-209.0","64ac1eb53eed64043858a5d1","64e50ca3d05d64a4d4a40b81","","","","","5825",""," ","key"," ","16.668664756446496","500","250","pog","165","197","129","1","1","0","0"
"","psychophysics","210","1486470","0.0-210.0","64ac1eb53eed64043858a5d1","64e50ca3d05d64a4d4a40b81","","","","","2363",""," ","key"," ","16.666780141842757","500","250","pog","166","178","136","1","1","0","0"
"","psychophysics","211","1488972","0.0-211.0","64ac1eb53eed64043858a5d1","64e50ca3d05d64a4d4a40b81","","","","","2500",""," ","key"," ","16.66525503355641","500","250","pog","220","220","196","1","1","0","0"
"","psychophysics","212","1492482","0.0-212.0","64ac1eb53eed64043858a5d1","64e50ca3d05d64a4d4a40b81","","","","","3507",""," ","key"," ","16.66785238095271","500","250","pog","171","187","156","1","1","0","0"
"","psychophysics","213","1497549","0.0-213.0","64ac1eb53eed64043858a5d1","64e50ca3d05d64a4d4a40b81","","","","","5066",""," ","key"," ","16.668871287128923","500","250","pog","201","149","170","1","1","0","0"
"","psychophysics","214","1504101","0.0-214.0","64ac1eb53eed64043858a5d1","64e50ca3d05d64a4d4a40b81","","","","","6549",""," ","key"," ","16.66885714285724","500","250","pog","213","137","186","1","1","0","0"
"","psychophysics","215","1505423","0.0-215.0","64ac1eb53eed64043858a5d1","64e50ca3d05d64a4d4a40b81","","","","","1320",""," ","key"," ","16.672961538460534","500","250","pog","158","158","135","1","1","0","0"
"","psychophysics","216","1509367","0.0-216.0","64ac1eb53eed64043858a5d1","64e50ca3d05d64a4d4a40b81","","","","","3942",""," ","key"," ","16.66669067796576","500","250","pog","155","209","129","1","1","0","0"
"","psychophysics","217","1514541","0.0-217.0","64ac1eb53eed64043858a5d1","64e50ca3d05d64a4d4a40b81","","","","","5172",""," ","key"," ","16.668000000000035","500","250","pog","216","122","183","1","1","0","0"
"","psychophysics","218","1519905","0.0-218.0","64ac1eb53eed64043858a5d1","64e50ca3d05d64a4d4a40b81","","","","","5362",""," ","key"," ","16.6684922118384","500","250","pog","192","180","167","1","1","0","0"
"","psychophysics","219","1523012","0.0-219.0","64ac1eb53eed64043858a5d1","64e50ca3d05d64a4d4a40b81","","","","","3105",""," ","key"," ","16.84991256830593","500","250","pog","163","151","146","1","1","0","0"
