"success","trial_type","trial_index","time_elapsed","internal_node_id","pid","sid","timeout","failed_images","failed_audio","failed_video","rt","stimulus","response","response_type","key_press","avg_frame_time","center_x","center_y","task","resp","version","block","start","jitterX","jitterY","parA"
"true","fullscreen","0","4952","0.0-0.0","5e8533ea660027000945d9bf","64de7de63dd242e9adef43c4","","","","","","","","","","","","","","","","","","","",""
"true","preload","1","5250","0.0-1.0","5e8533ea660027000945d9bf","64de7de63dd242e9adef43c4","false","[]","[]","[]","","","","","","","","","","","","","","","",""
"","html-button-response","2","3505522","0.0-2.0","5e8533ea660027000945d9bf","64de7de63dd242e9adef43c4","","","","","3500272","Please Make Sure Your Audio Is On.","0","","","","","","","","","","","","",""
"","psychophysics","3","3510795","0.0-3.0","5e8533ea660027000945d9bf","64de7de63dd242e9adef43c4","","","","","5249",""," ","key"," ","15.626112759643917","1280","250","","","","","","","",""
"","psychophysics","4","3513017","0.0-4.0","5e8533ea660027000945d9bf","64de7de63dd242e9adef43c4","","","","","2209",""," ","key"," ","15.624113475177305","500","250","inst","","","","","","",""
"","psychophysics","5","3516354","0.0-5.0","5e8533ea660027000945d9bf","64de7de63dd242e9adef43c4","","","","","3329",""," ","key"," ","15.624413145539906","500","250","sample0","","","","","","",""
"","psychophysics","6","3519314","0.0-6.0","5e8533ea660027000945d9bf","64de7de63dd242e9adef43c4","","","","","2955",""," ","key"," ","15.622340425531915","500","250","sample1","","","","","","",""
"","psychophysics","7","3528249","0.0-7.0","5e8533ea660027000945d9bf","64de7de63dd242e9adef43c4","","","","","8930",""," ","key"," ","15.62521891418564","500","250","sample2","100","","","","","",""
"","psychophysics","8","3533721","0.0-8.0","5e8533ea660027000945d9bf","64de7de63dd242e9adef43c4","","","","","5467",""," ","key"," ","15.624641833810887","500","250","sample3","98","","","","","",""
"","psychophysics","9","3540194","0.0-9.0","5e8533ea660027000945d9bf","64de7de63dd242e9adef43c4","","","","","6467",""," ","key"," ","15.6256038647343","500","250","sample4","100","","","","","",""
"","psychophysics","10","3548906","0.0-10.0","5e8533ea660027000945d9bf","64de7de63dd242e9adef43c4","","","","","8705",""," ","key"," ","15.62589928057554","500","250","sample5","","","","","","",""
"","psychophysics","11","3557649","0.0-11.0","5e8533ea660027000945d9bf","64de7de63dd242e9adef43c4","","","","","8736",""," ","key"," ","15.62432915921288","500","250","sample6","498","","","","","",""
"","psychophysics","12","3560137","0.0-12.0","5e8533ea660027000945d9bf","64de7de63dd242e9adef43c4","","","","","2485",""," ","key"," ","15.620253164556962","500","250","inst","","","","","","",""
"","psychophysics","13","3566474","0.0-13.0","5e8533ea660027000945d9bf","64de7de63dd242e9adef43c4","","","","","6334",""," ","key"," ","15.624691358024691","500","250","inst","","","","","","",""
"","psychophysics","14","3568993","0.0-14.0","5e8533ea660027000945d9bf","64de7de63dd242e9adef43c4","","","","","2515",""," ","key"," ","15.625","500","250","inst","","","","","","",""
"","psychophysics","15","3569985","0.0-15.0","5e8533ea660027000945d9bf","64de7de63dd242e9adef43c4","","","","","990",""," ","key"," ","15.629032258064516","500","250","inst","","","","","","",""
"","psychophysics","16","3570962","0.0-16.0","5e8533ea660027000945d9bf","64de7de63dd242e9adef43c4","","","","","971",""," ","key"," ","15.612903225806452","500","250","inst","","","","","","",""
"","psychophysics","17","3574905","0.0-17.0","5e8533ea660027000945d9bf","64de7de63dd242e9adef43c4","","","","","3941",""," ","key"," ","15.625498007968128","500","250","instEB0","41","2","","40","0","0","40"
"","psychophysics","18","3578353","0.0-18.0","5e8533ea660027000945d9bf","64de7de63dd242e9adef43c4","","","","","3441",""," ","key"," ","15.622727272727273","500","250","instEB1","40","2","","30","0","0","40"
"","psychophysics","19","3585210","0.0-19.0","5e8533ea660027000945d9bf","64de7de63dd242e9adef43c4","","","","","6854",""," ","key"," ","15.623287671232877","500","250","instEB2","33","2","","40","0","0","30"
"","psychophysics","20","3591210","0.0-20.0","5e8533ea660027000945d9bf","64de7de63dd242e9adef43c4","","","","","5996",""," ","key"," ","15.62402088772846","500","250","instEB3","34","2","","45","0","0","27"
"","psychophysics","21","3599443","0.0-21.0","5e8533ea660027000945d9bf","64de7de63dd242e9adef43c4","","","","","8230",""," ","key"," ","15.625475285171103","500","250","instEB4","45","2","","30","0","0","40"
"","psychophysics","22","3602665","0.0-22.0","5e8533ea660027000945d9bf","64de7de63dd242e9adef43c4","","","","","3218",""," ","key"," ","15.629268292682926","500","250","inst","","","","","","",""
"","psychophysics","23","3609497","0.0-23.0","5e8533ea660027000945d9bf","64de7de63dd242e9adef43c4","","","","","6827",""," ","key"," ","15.626146788990825","500","250","eb","44","2","","33","0","0","39"
"","psychophysics","24","3617312","0.0-24.0","5e8533ea660027000945d9bf","64de7de63dd242e9adef43c4","","","","","7812",""," ","key"," ","15.625250501002004","500","250","eb","57","2","","42","0","0","52"
"","psychophysics","25","3622904","0.0-25.0","5e8533ea660027000945d9bf","64de7de63dd242e9adef43c4","","","","","5589",""," ","key"," ","15.624649859943977","500","250","eb","26","2","","41","0","0","24"
"","psychophysics","26","3628231","0.0-26.0","5e8533ea660027000945d9bf","64de7de63dd242e9adef43c4","","","","","5322",""," ","key"," ","15.623529411764705","500","250","eb","48","2","","44","0","0","40"
"","psychophysics","27","3633743","0.0-27.0","5e8533ea660027000945d9bf","64de7de63dd242e9adef43c4","","","","","5508",""," ","key"," ","15.625","500","250","eb","28","2","","50","0","0","26"
"","psychophysics","28","3637775","0.0-28.0","5e8533ea660027000945d9bf","64de7de63dd242e9adef43c4","","","","","4029",""," ","key"," ","15.626459143968871","500","250","eb","57","2","","54","0","0","52"
"","psychophysics","29","3643592","0.0-29.0","5e8533ea660027000945d9bf","64de7de63dd242e9adef43c4","","","","","5813",""," ","key"," ","15.622641509433961","500","250","eb","50","2","","36","0","0","42"
"","psychophysics","30","3651597","0.0-30.0","5e8533ea660027000945d9bf","64de7de63dd242e9adef43c4","","","","","null","","null","key","null","15.62426614481409","500","250","eb","49","2","","27","0","0","41"
"","psychophysics","31","3651843","0.0-31.0","5e8533ea660027000945d9bf","64de7de63dd242e9adef43c4","","","","","240",""," ","key"," ","15.6","500","250","eb","48","2","","48","0","0","51"
"","psychophysics","32","3656474","0.0-32.0","5e8533ea660027000945d9bf","64de7de63dd242e9adef43c4","","","","","4621",""," ","key"," ","15.625","500","250","eb","41","2","","50","0","0","36"
"","psychophysics","33","3661147","0.0-33.0","5e8533ea660027000945d9bf","64de7de63dd242e9adef43c4","","","","","4668",""," ","key"," ","15.624161073825503","500","250","eb","55","2","","37","0","0","52"
"","psychophysics","34","3665095","0.0-34.0","5e8533ea660027000945d9bf","64de7de63dd242e9adef43c4","","","","","3942",""," ","key"," ","15.621513944223107","500","250","eb","61","2","","50","0","0","54"
"","psychophysics","35","3671135","0.0-35.0","5e8533ea660027000945d9bf","64de7de63dd242e9adef43c4","","","","","6034",""," ","key"," ","15.624352331606218","500","250","eb","50","2","","27","0","0","42"
"","psychophysics","36","3674569","0.0-36.0","5e8533ea660027000945d9bf","64de7de63dd242e9adef43c4","","","","","3430",""," ","key"," ","15.625570776255708","500","250","eb","52","2","","53","0","0","48"
"","psychophysics","37","3676303","0.0-37.0","5e8533ea660027000945d9bf","64de7de63dd242e9adef43c4","","","","","1730",""," ","key"," ","15.627272727272727","500","250","eb","40","2","","38","0","0","33"
"","psychophysics","38","3684833","0.0-38.0","5e8533ea660027000945d9bf","64de7de63dd242e9adef43c4","","","","","8525",""," ","key"," ","15.623853211009175","500","250","inst","","","","","","",""
"","psychophysics","39","3687975","0.0-39.0","5e8533ea660027000945d9bf","64de7de63dd242e9adef43c4","","","","","3138",""," ","key"," ","15.625","500","250","instPzPre","50","0","","50","","","50"
"","psychophysics","40","3690183","0.0-40.0","5e8533ea660027000945d9bf","64de7de63dd242e9adef43c4","","","","","2204",""," ","key"," ","15.621428571428572","500","250","instPz0","50","2","","50","","","50"
"","psychophysics","41","3702287","0.0-41.0","5e8533ea660027000945d9bf","64de7de63dd242e9adef43c4","","","","","12101",""," ","key"," ","15.62532299741602","500","250","instPz1","46","2","","25","","","50"
"","psychophysics","42","3708471","0.0-42.0","5e8533ea660027000945d9bf","64de7de63dd242e9adef43c4","","","","","6180",""," ","key"," ","15.624365482233502","500","250","instPz2","32","2","","20","","","35"
"","psychophysics","43","3715358","0.0-43.0","5e8533ea660027000945d9bf","64de7de63dd242e9adef43c4","","","","","6883",""," ","key"," ","15.625","500","250","instPz3","95","2","","30","","","100"
"","psychophysics","44","3720415","0.0-44.0","5e8533ea660027000945d9bf","64de7de63dd242e9adef43c4","","","","","5052",""," ","key"," ","15.625386996904025","500","250","instPz4","97","2","","30","","","100"
"","psychophysics","45","3721774","0.0-45.0","5e8533ea660027000945d9bf","64de7de63dd242e9adef43c4","","","","","1356",""," ","key"," ","15.627906976744185","500","250","inst","","","","","","",""
"","psychophysics","46","3724734","0.0-46.0","5e8533ea660027000945d9bf","64de7de63dd242e9adef43c4","","","","","2955",""," ","key"," ","15.622340425531915","500","250","pz","30","2","0","20","","","31"
"","psychophysics","47","3728966","0.0-47.0","5e8533ea660027000945d9bf","64de7de63dd242e9adef43c4","","","","","4224",""," ","key"," ","15.622222222222222","500","250","pz","52","2","0","36","","","54"
"","psychophysics","48","3731727","0.0-48.0","5e8533ea660027000945d9bf","64de7de63dd242e9adef43c4","","","","","2757",""," ","key"," ","15.625","500","250","pz","38","2","0","40","","","37"
"","psychophysics","49","3735198","0.0-49.0","5e8533ea660027000945d9bf","64de7de63dd242e9adef43c4","","","","","3468",""," ","key"," ","15.624434389140271","500","250","pz","25","2","0","32","","","27"
"","psychophysics","50","3737274","0.0-50.0","5e8533ea660027000945d9bf","64de7de63dd242e9adef43c4","","","","","2072",""," ","key"," ","15.628787878787879","500","250","pz","44","2","0","43","","","47"
"","psychophysics","51","3739774","0.0-51.0","5e8533ea660027000945d9bf","64de7de63dd242e9adef43c4","","","","","2497",""," ","key"," ","15.622641509433961","500","250","pz","55","2","0","54","","","54"
"","psychophysics","52","3742086","0.0-52.0","5e8533ea660027000945d9bf","64de7de63dd242e9adef43c4","","","","","2308",""," ","key"," ","15.619047619047619","500","250","pz","52","2","0","49","","","53"
"","psychophysics","53","3746342","0.0-53.0","5e8533ea660027000945d9bf","64de7de63dd242e9adef43c4","","","","","4252",""," ","key"," ","15.623616236162361","500","250","pz","46","2","0","36","","","47"
"","psychophysics","54","3751150","0.0-54.0","5e8533ea660027000945d9bf","64de7de63dd242e9adef43c4","","","","","4805",""," ","key"," ","15.625407166123779","500","250","pz","26","2","0","59","","","29"
"","psychophysics","55","3755619","0.0-55.0","5e8533ea660027000945d9bf","64de7de63dd242e9adef43c4","","","","","4465",""," ","key"," ","15.624561403508771","500","250","pz","50","2","0","33","","","59"
"","psychophysics","56","3758009","0.0-56.0","5e8533ea660027000945d9bf","64de7de63dd242e9adef43c4","","","","","2387",""," ","key"," ","15.625","500","250","pz","47","2","0","41","","","52"
"","psychophysics","57","3761606","0.0-57.0","5e8533ea660027000945d9bf","64de7de63dd242e9adef43c4","","","","","3593",""," ","key"," ","15.624454148471616","500","250","pz","35","2","0","43","","","39"
"","psychophysics","58","3765670","0.0-58.0","5e8533ea660027000945d9bf","64de7de63dd242e9adef43c4","","","","","4059",""," ","key"," ","15.625482625482626","500","250","pz","51","2","0","58","","","58"
"","psychophysics","59","3769310","0.0-59.0","5e8533ea660027000945d9bf","64de7de63dd242e9adef43c4","","","","","3631",""," ","key"," ","15.625","500","250","pz","42","2","0","55","","","48"
"","psychophysics","60","3771634","0.0-60.0","5e8533ea660027000945d9bf","64de7de63dd242e9adef43c4","","","","","2320",""," ","key"," ","15.621621621621621","500","250","pz","30","2","0","32","","","31"
"","psychophysics","61","3772502","0.0-61.0","5e8533ea660027000945d9bf","64de7de63dd242e9adef43c4","","","","","864",""," ","key"," ","15.62962962962963","500","250","inst","","","","","","",""
"","psychophysics","62","3774142","0.0-62.0","5e8533ea660027000945d9bf","64de7de63dd242e9adef43c4","","","","","1635",""," ","key"," ","15.625","500","250","instZol0","0","","","0","0","0",""
"","psychophysics","63","3775928","0.0-63.0","5e8533ea660027000945d9bf","64de7de63dd242e9adef43c4","","","","","1782",""," ","key"," ","15.62280701754386","500","250","instZol1","1.3","","","-1.3","0","0",""
"","psychophysics","64","3776870","0.0-64.0","5e8533ea660027000945d9bf","64de7de63dd242e9adef43c4","","","","","937",""," ","key"," ","15.627118644067796","500","250","instZol2","-2","1","","2","0","0",""
"","psychophysics","65","3777606","0.0-65.0","5e8533ea660027000945d9bf","64de7de63dd242e9adef43c4","","","","","733",""," ","key"," ","15.630434782608695","500","250","inst","","","","","","",""
"","psychophysics","66","3785574","0.0-66.0","5e8533ea660027000945d9bf","64de7de63dd242e9adef43c4","","","","","7964",""," ","key"," ","15.62475442043222","500","250","zol","0.9999999999999999","1","0","-0.3","-2","-16",""
"","psychophysics","67","3789518","0.0-67.0","5e8533ea660027000945d9bf","64de7de63dd242e9adef43c4","","","","","3939",""," ","key"," ","15.625498007968128","500","250","zol","0.8400000000000001","1","0","-0.64","-20","-28",""
"","psychophysics","68","3793702","0.0-68.0","5e8533ea660027000945d9bf","64de7de63dd242e9adef43c4","","","","","4179",""," ","key"," ","15.625468164794007","500","250","zol","0.47999999999999987","1","0","0.52","-25","29",""
"","psychophysics","69","3798494","0.0-69.0","5e8533ea660027000945d9bf","64de7de63dd242e9adef43c4","","","","","4786",""," ","key"," ","15.627450980392156","500","250","zol","1.19","1","0","0.11","6","-18",""
"","psychophysics","70","3801390","0.0-70.0","5e8533ea660027000945d9bf","64de7de63dd242e9adef43c4","","","","","2892",""," ","key"," ","15.625","500","250","zol","1.17","1","0","-0.47","14","-1",""
"","psychophysics","71","3804430","0.0-71.0","5e8533ea660027000945d9bf","64de7de63dd242e9adef43c4","","","","","3031",""," ","key"," ","15.623711340206185","500","250","zol","0.9099999999999999","1","0","0.59","4","-17",""
"","psychophysics","72","3808774","0.0-72.0","5e8533ea660027000945d9bf","64de7de63dd242e9adef43c4","","","","","4340",""," ","key"," ","15.624548736462094","500","250","zol","0.8699999999999999","1","0","0.63","-30","-21",""
"","psychophysics","73","3812742","0.0-73.0","5e8533ea660027000945d9bf","64de7de63dd242e9adef43c4","","","","","3964",""," ","key"," ","15.624505928853756","500","250","zol","1.5000000000000002","1","0","-0.2","10","25",""
"","psychophysics","74","3816189","0.0-74.0","5e8533ea660027000945d9bf","64de7de63dd242e9adef43c4","","","","","3444",""," ","key"," ","15.625570776255708","500","250","zol","0.6599999999999999","1","0","0.64","-7","21",""
"","psychophysics","75","3820197","0.0-75.0","5e8533ea660027000945d9bf","64de7de63dd242e9adef43c4","","","","","4003",""," ","key"," ","15.625","500","250","zol","0.6500000000000001","1","0","-0.55","-12","5",""
"","psychophysics","76","3822742","0.0-76.0","5e8533ea660027000945d9bf","64de7de63dd242e9adef43c4","","","","","2540",""," ","key"," ","15.62962962962963","500","250","zol","0.7899999999999999","1","0","0.31","6","-5",""
"","psychophysics","77","3825045","0.0-77.0","5e8533ea660027000945d9bf","64de7de63dd242e9adef43c4","","","","","2299",""," ","key"," ","15.63013698630137","500","250","zol","0.6599999999999999","1","0","0.14","29","1",""
"","psychophysics","78","3828366","0.0-78.0","5e8533ea660027000945d9bf","64de7de63dd242e9adef43c4","","","","","3315",""," ","key"," ","15.627358490566039","500","250","zol","0.6599999999999999","1","0","0.64","-21","-9",""
"","psychophysics","79","3830197","0.0-79.0","5e8533ea660027000945d9bf","64de7de63dd242e9adef43c4","","","","","1826",""," ","key"," ","15.629310344827585","500","250","zol","0.8999999999999999","1","0","-0.3","-19","12",""
"","psychophysics","80","3832664","0.0-80.0","5e8533ea660027000945d9bf","64de7de63dd242e9adef43c4","","","","","2463",""," ","key"," ","15.630573248407643","500","250","zol","0.8999999999999999","1","0","0.1","-7","-1",""
"","psychophysics","81","3833382","0.0-81.0","5e8533ea660027000945d9bf","64de7de63dd242e9adef43c4","","","","","714",""," ","key"," ","15.622222222222222","500","250","inst","","","","","","",""
"","psychophysics","82","3836045","0.0-82.0","5e8533ea660027000945d9bf","64de7de63dd242e9adef43c4","","","","","2659",""," ","key"," ","15.627218934911243","500","250","instPog0","190","1","","190","0","0","160"
"","psychophysics","83","3839765","0.0-83.0","5e8533ea660027000945d9bf","64de7de63dd242e9adef43c4","","","","","3717",""," ","key"," ","15.624472573839663","500","250","instPog1","190","1","","190","0","0","160"
"","psychophysics","84","3846990","0.0-84.0","5e8533ea660027000945d9bf","64de7de63dd242e9adef43c4","","","","","7219",""," ","key"," ","15.625541125541126","500","250","instPog2","164","1","","160","0","0","160"
"","psychophysics","85","3847573","0.0-85.0","5e8533ea660027000945d9bf","64de7de63dd242e9adef43c4","","","","","579",""," ","key"," ","15.63888888888889","500","250","inst","","","","","","",""
"","psychophysics","86","3849973","0.0-86.0","5e8533ea660027000945d9bf","64de7de63dd242e9adef43c4","","","","","2396",""," ","key"," ","15.627450980392156","500","250","pog","155","1","0","143","0","0","152"
"","psychophysics","87","3854117","0.0-87.0","5e8533ea660027000945d9bf","64de7de63dd242e9adef43c4","","","","","4140",""," ","key"," ","15.625","500","250","pog","157","1","0","179","0","0","139"
"","psychophysics","88","3858717","0.0-88.0","5e8533ea660027000945d9bf","64de7de63dd242e9adef43c4","","","","","4596",""," ","key"," ","15.62457337883959","500","250","pog","211","1","0","149","0","0","200"
"","psychophysics","89","3861565","0.0-89.0","5e8533ea660027000945d9bf","64de7de63dd242e9adef43c4","","","","","2843",""," ","key"," ","15.624309392265193","500","250","pog","177","1","0","185","0","0","154"
"","psychophysics","90","3863620","0.0-90.0","5e8533ea660027000945d9bf","64de7de63dd242e9adef43c4","","","","","2050",""," ","key"," ","15.625954198473282","500","250","pog","164","1","0","152","0","0","145"
"","psychophysics","91","3868980","0.0-91.0","5e8533ea660027000945d9bf","64de7de63dd242e9adef43c4","","","","","5357",""," ","key"," ","15.625730994152047","500","250","pog","151","1","0","101","0","0","131"
"","psychophysics","92","3873101","0.0-92.0","5e8533ea660027000945d9bf","64de7de63dd242e9adef43c4","","","","","4118",""," ","key"," ","15.623574144486692","500","250","pog","189","1","0","165","0","0","181"
"","psychophysics","93","3875941","0.0-93.0","5e8533ea660027000945d9bf","64de7de63dd242e9adef43c4","","","","","2837",""," ","key"," ","15.624309392265193","500","250","pog","149","1","0","133","0","0","143"
"","psychophysics","94","3880188","0.0-94.0","5e8533ea660027000945d9bf","64de7de63dd242e9adef43c4","","","","","4242",""," ","key"," ","15.625925925925927","500","250","pog","214","1","0","142","0","0","196"
"","psychophysics","95","3883893","0.0-95.0","5e8533ea660027000945d9bf","64de7de63dd242e9adef43c4","","","","","3699",""," ","key"," ","15.622881355932204","500","250","pog","197","1","0","207","0","0","188"
"","psychophysics","96","3887036","0.0-96.0","5e8533ea660027000945d9bf","64de7de63dd242e9adef43c4","","","","","3138",""," ","key"," ","15.626865671641792","500","250","pog","199","1","0","193","0","0","185"
"","psychophysics","97","3891252","0.0-97.0","5e8533ea660027000945d9bf","64de7de63dd242e9adef43c4","","","","","4211",""," ","key"," ","15.626865671641792","500","250","pog","158","1","0","184","0","0","141"
"","psychophysics","98","3893500","0.0-98.0","5e8533ea660027000945d9bf","64de7de63dd242e9adef43c4","","","","","2242",""," ","key"," ","15.62937062937063","500","250","pog","128","1","0","126","0","0","121"
"","psychophysics","99","3898108","0.0-99.0","5e8533ea660027000945d9bf","64de7de63dd242e9adef43c4","","","","","4604",""," ","key"," ","15.625850340136054","500","250","pog","157","1","0","187","0","0","148"
"","psychophysics","100","3904764","0.0-100.0","5e8533ea660027000945d9bf","64de7de63dd242e9adef43c4","","","","","6654",""," ","key"," ","15.623529411764705","500","250","pog","137","1","0","195","0","0","121"
"","psychophysics","101","3905444","0.0-101.0","5e8533ea660027000945d9bf","64de7de63dd242e9adef43c4","","","","","676",""," ","key"," ","15.627906976744185","500","250","inst","","","","","","",""
"","psychophysics","102","3907260","0.0-102.0","5e8533ea660027000945d9bf","64de7de63dd242e9adef43c4","","","","","1812",""," ","key"," ","15.626086956521739","500","250","instBr0","0","","","0","0","0","300"
"","psychophysics","103","3908076","0.0-103.0","5e8533ea660027000945d9bf","64de7de63dd242e9adef43c4","","","","","813",""," ","key"," ","15.627450980392156","500","250","instBr1","-40","","","-40","0","0","300"
"","psychophysics","104","3908708","0.0-104.0","5e8533ea660027000945d9bf","64de7de63dd242e9adef43c4","","","","","629",""," ","key"," ","15.625","500","250","instBr3","40","2","","40","0","0","300"
"","psychophysics","105","3909884","0.0-105.0","5e8533ea660027000945d9bf","64de7de63dd242e9adef43c4","","","","","1171",""," ","key"," ","15.621621621621621","500","250","inst","","","","","","",""
"","psychophysics","106","3912884","0.0-106.0","5e8533ea660027000945d9bf","64de7de63dd242e9adef43c4","","","","","2996",""," ","key"," ","15.62303664921466","500","250","br","22","2","0","23","-16","20","279"
"","psychophysics","107","3917973","0.0-107.0","5e8533ea660027000945d9bf","64de7de63dd242e9adef43c4","","","","","5086",""," ","key"," ","15.624615384615385","500","250","br","24","2","0","-14","-17","1","266"
"","psychophysics","108","3922435","0.0-108.0","5e8533ea660027000945d9bf","64de7de63dd242e9adef43c4","","","","","4459",""," ","key"," ","15.623239436619718","500","250","br","17","2","0","28","6","12","218"
"","psychophysics","109","3924452","0.0-109.0","5e8533ea660027000945d9bf","64de7de63dd242e9adef43c4","","","","","2013",""," ","key"," ","15.625","500","250","br","20","2","0","17","-1","27","208"
"","psychophysics","110","3928012","0.0-110.0","5e8533ea660027000945d9bf","64de7de63dd242e9adef43c4","","","","","3555",""," ","key"," ","15.625550660792952","500","250","br","19","2","0","0","6","-16","235"
"","psychophysics","111","3930940","0.0-111.0","5e8533ea660027000945d9bf","64de7de63dd242e9adef43c4","","","","","2924",""," ","key"," ","15.623655913978494","500","250","br","16","2","0","19","-24","-3","218"
"","psychophysics","112","3936108","0.0-112.0","5e8533ea660027000945d9bf","64de7de63dd242e9adef43c4","","","","","5163",""," ","key"," ","15.624242424242425","500","250","br","24","2","0","0","6","1","284"
"","psychophysics","113","3941060","0.0-113.0","5e8533ea660027000945d9bf","64de7de63dd242e9adef43c4","","","","","4949",""," ","key"," ","15.623417721518987","500","250","br","18","2","0","-1","28","24","219"
"","psychophysics","114","3944148","0.0-114.0","5e8533ea660027000945d9bf","64de7de63dd242e9adef43c4","","","","","3085",""," ","key"," ","15.624365482233502","500","250","br","16","2","0","-1","-7","29","203"
"","psychophysics","115","3948356","0.0-115.0","5e8533ea660027000945d9bf","64de7de63dd242e9adef43c4","","","","","4204",""," ","key"," ","15.623134328358208","500","250","br","14","2","0","2","-1","-2","203"
"","psychophysics","116","3953428","0.0-116.0","5e8533ea660027000945d9bf","64de7de63dd242e9adef43c4","","","","","5069",""," ","key"," ","15.623456790123457","500","250","br","22","2","0","1","2","26","244"
"","psychophysics","117","3957308","0.0-117.0","5e8533ea660027000945d9bf","64de7de63dd242e9adef43c4","","","","","3873",""," ","key"," ","15.623481781376519","500","250","br","20","2","0","-14","-11","17","213"
"","psychophysics","118","3959413","0.0-118.0","5e8533ea660027000945d9bf","64de7de63dd242e9adef43c4","","","","","2102",""," ","key"," ","15.626865671641792","500","250","br","19","2","0","24","26","-12","205"
"","psychophysics","119","3963508","0.0-119.0","5e8533ea660027000945d9bf","64de7de63dd242e9adef43c4","","","","","4090",""," ","key"," ","15.624521072796934","500","250","br","20","2","0","7","25","-16","214"
"","psychophysics","120","3968636","0.0-120.0","5e8533ea660027000945d9bf","64de7de63dd242e9adef43c4","","","","","5123",""," ","key"," ","15.623853211009175","500","250","br","17","2","0","29","11","6","265"
"","psychophysics","121","3969244","0.0-121.0","5e8533ea660027000945d9bf","64de7de63dd242e9adef43c4","","","","","604",""," ","key"," ","15.631578947368421","500","250","inst","","","","","","",""
"","psychophysics","122","3970236","0.0-122.0","5e8533ea660027000945d9bf","64de7de63dd242e9adef43c4","","","","","989",""," ","key"," ","15.629032258064516","500","250","instPog0","370","2","","370","0","0","340"
"","psychophysics","123","3971900","0.0-123.0","5e8533ea660027000945d9bf","64de7de63dd242e9adef43c4","","","","","1661",""," ","key"," ","15.622641509433961","500","250","instPog1","370","2","","370","0","0","340"
"","psychophysics","124","3975572","0.0-124.0","5e8533ea660027000945d9bf","64de7de63dd242e9adef43c4","","","","","3668",""," ","key"," ","15.623931623931623","500","250","instPog2","324","2","","340","0","0","340"
"","psychophysics","125","3976365","0.0-125.0","5e8533ea660027000945d9bf","64de7de63dd242e9adef43c4","","","","","790",""," ","key"," ","15.64","500","250","inst","","","","","","",""
"","psychophysics","126","3979284","0.0-126.0","5e8533ea660027000945d9bf","64de7de63dd242e9adef43c4","","","","","2915",""," ","key"," ","15.627027027027028","500","250","pog","304","2","1","338","0","0","312"
"","psychophysics","127","3981228","0.0-127.0","5e8533ea660027000945d9bf","64de7de63dd242e9adef43c4","","","","","1941",""," ","key"," ","15.620967741935484","500","250","pog","296","2","1","288","0","0","318"
"","psychophysics","128","3982891","0.0-128.0","5e8533ea660027000945d9bf","64de7de63dd242e9adef43c4","","","","","1660",""," ","key"," ","15.619047619047619","500","250","pog","354","2","1","348","0","0","379"
"","psychophysics","129","3984387","0.0-129.0","5e8533ea660027000945d9bf","64de7de63dd242e9adef43c4","","","","","1491",""," ","key"," ","15.621052631578948","500","250","pog","282","2","1","284","0","0","306"
"","psychophysics","130","3988227","0.0-130.0","5e8533ea660027000945d9bf","64de7de63dd242e9adef43c4","","","","","3837",""," ","key"," ","15.624489795918368","500","250","pog","352","2","1","366","0","0","364"
"","psychophysics","131","3992515","0.0-131.0","5e8533ea660027000945d9bf","64de7de63dd242e9adef43c4","","","","","4283",""," ","key"," ","15.622710622710622","500","250","pog","325","2","1","355","0","0","340"
"","psychophysics","132","3996475","0.0-132.0","5e8533ea660027000945d9bf","64de7de63dd242e9adef43c4","","","","","3956",""," ","key"," ","15.624505928853756","500","250","pog","320","2","1","378","0","0","334"
"","psychophysics","133","4001251","0.0-133.0","5e8533ea660027000945d9bf","64de7de63dd242e9adef43c4","","","","","4772",""," ","key"," ","15.625","500","250","pog","311","2","1","357","0","0","326"
"","psychophysics","134","4002661","0.0-134.0","5e8533ea660027000945d9bf","64de7de63dd242e9adef43c4","","","","","1405",""," ","key"," ","15.633333333333333","500","250","pog","342","2","1","344","0","0","356"
"","psychophysics","135","4005595","0.0-135.0","5e8533ea660027000945d9bf","64de7de63dd242e9adef43c4","","","","","2930",""," ","key"," ","15.623655913978494","500","250","pog","294","2","1","304","0","0","305"
"","psychophysics","136","4010147","0.0-136.0","5e8533ea660027000945d9bf","64de7de63dd242e9adef43c4","","","","","4547",""," ","key"," ","15.625429553264604","500","250","pog","354","2","1","336","0","0","372"
"","psychophysics","137","4013979","0.0-137.0","5e8533ea660027000945d9bf","64de7de63dd242e9adef43c4","","","","","3827",""," ","key"," ","15.62295081967213","500","250","pog","334","2","1","356","0","0","351"
"","psychophysics","138","4017355","0.0-138.0","5e8533ea660027000945d9bf","64de7de63dd242e9adef43c4","","","","","3371",""," ","key"," ","15.623255813953488","500","250","pog","343","2","1","397","0","0","364"
"","psychophysics","139","4019763","0.0-139.0","5e8533ea660027000945d9bf","64de7de63dd242e9adef43c4","","","","","2405",""," ","key"," ","15.620915032679738","500","250","pog","316","2","1","318","0","0","332"
"","psychophysics","140","4021915","0.0-140.0","5e8533ea660027000945d9bf","64de7de63dd242e9adef43c4","","","","","2149",""," ","key"," ","15.627737226277372","500","250","pog","345","2","1","349","0","0","351"
"","psychophysics","141","4022475","0.0-141.0","5e8533ea660027000945d9bf","64de7de63dd242e9adef43c4","","","","","557",""," ","key"," ","15.628571428571428","500","250","inst","","","","","","",""
"","psychophysics","142","4023619","0.0-142.0","5e8533ea660027000945d9bf","64de7de63dd242e9adef43c4","","","","","1139",""," ","key"," ","15.625","500","250","instEB1","40","1","","40","0","0","30"
"","psychophysics","143","4024547","0.0-143.0","5e8533ea660027000945d9bf","64de7de63dd242e9adef43c4","","","","","924",""," ","key"," ","15.637931034482758","500","250","instEB2","30","1","","30","0","0","40"
"","psychophysics","144","4028835","0.0-144.0","5e8533ea660027000945d9bf","64de7de63dd242e9adef43c4","","","","","4285",""," ","key"," ","15.624087591240876","500","250","instEB3","38","1","","27","0","0","45"
"","psychophysics","145","4032306","0.0-145.0","5e8533ea660027000945d9bf","64de7de63dd242e9adef43c4","","","","","3468",""," ","key"," ","15.624434389140271","500","250","instEB4","25","1","","40","0","0","30"
"","psychophysics","146","4032891","0.0-146.0","5e8533ea660027000945d9bf","64de7de63dd242e9adef43c4","","","","","582",""," ","key"," ","15.61111111111111","500","250","inst","","","","","","",""
"","psychophysics","147","4035026","0.0-147.0","5e8533ea660027000945d9bf","64de7de63dd242e9adef43c4","","","","","2131",""," ","key"," ","15.625","500","250","eb","38","1","","39","0","0","45"
"","psychophysics","148","4039106","0.0-148.0","5e8533ea660027000945d9bf","64de7de63dd242e9adef43c4","","","","","4077",""," ","key"," ","15.623076923076923","500","250","eb","44","1","","25","0","0","49"
"","psychophysics","149","4041626","0.0-149.0","5e8533ea660027000945d9bf","64de7de63dd242e9adef43c4","","","","","2516",""," ","key"," ","15.625","500","250","eb","36","1","","39","0","0","40"
"","psychophysics","150","4044971","0.0-150.0","5e8533ea660027000945d9bf","64de7de63dd242e9adef43c4","","","","","3338",""," ","key"," ","15.624413145539906","500","250","eb","32","1","","41","0","0","35"
"","psychophysics","151","4047011","0.0-151.0","5e8533ea660027000945d9bf","64de7de63dd242e9adef43c4","","","","","2033",""," ","key"," ","15.623076923076923","500","250","eb","48","1","","50","0","0","52"
"","psychophysics","152","4050371","0.0-152.0","5e8533ea660027000945d9bf","64de7de63dd242e9adef43c4","","","","","3355",""," ","key"," ","15.626168224299066","500","250","eb","41","1","","31","0","0","45"
"","psychophysics","153","4055058","0.0-153.0","5e8533ea660027000945d9bf","64de7de63dd242e9adef43c4","","","","","4684",""," ","key"," ","15.62541806020067","500","250","eb","22","1","","51","0","0","24"
"","psychophysics","154","4058339","0.0-154.0","5e8533ea660027000945d9bf","64de7de63dd242e9adef43c4","","","","","3277",""," ","key"," ","15.62200956937799","500","250","eb","35","1","","31","0","0","38"
"","psychophysics","155","4061354","0.0-155.0","5e8533ea660027000945d9bf","64de7de63dd242e9adef43c4","","","","","3012",""," ","key"," ","15.625","500","250","eb","50","1","","52","0","0","54"
"","psychophysics","156","4065740","0.0-156.0","5e8533ea660027000945d9bf","64de7de63dd242e9adef43c4","","","","","4382",""," ","key"," ","15.625","500","250","eb","30","1","","44","0","0","32"
"","psychophysics","157","4070642","0.0-157.0","5e8533ea660027000945d9bf","64de7de63dd242e9adef43c4","","","","","4898",""," ","key"," ","15.625","500","250","eb","45","1","","41","0","0","48"
"","psychophysics","158","4073068","0.0-158.0","5e8533ea660027000945d9bf","64de7de63dd242e9adef43c4","","","","","2418",""," ","key"," ","15.625806451612902","500","250","eb","46","1","","40","0","0","49"
"","psychophysics","159","4075674","0.0-159.0","5e8533ea660027000945d9bf","64de7de63dd242e9adef43c4","","","","","2602",""," ","key"," ","15.63030303030303","500","250","eb","42","1","","49","0","0","46"
"","psychophysics","160","4080202","0.0-160.0","5e8533ea660027000945d9bf","64de7de63dd242e9adef43c4","","","","","4522",""," ","key"," ","15.626297577854672","500","250","eb","39","1","","32","0","0","43"
"","psychophysics","161","4086714","0.0-161.0","5e8533ea660027000945d9bf","64de7de63dd242e9adef43c4","","","","","6509",""," ","key"," ","15.625","500","250","eb","24","1","","54","0","0","26"
"","psychophysics","162","4087338","0.0-162.0","5e8533ea660027000945d9bf","64de7de63dd242e9adef43c4","","","","","621",""," ","key"," ","15.615384615384615","500","250","inst","","","","","","",""
"","psychophysics","163","4088068","0.0-163.0","5e8533ea660027000945d9bf","64de7de63dd242e9adef43c4","","","","","726",""," ","key"," ","15.630434782608695","500","250","instBr3","40","1","","40","0","0","300"
"","psychophysics","164","4088891","0.0-164.0","5e8533ea660027000945d9bf","64de7de63dd242e9adef43c4","","","","","818",""," ","key"," ","15.627450980392156","500","250","inst","","","","","","",""
"","psychophysics","165","4092914","0.0-165.0","5e8533ea660027000945d9bf","64de7de63dd242e9adef43c4","","","","","4017",""," ","key"," ","15.626459143968871","500","250","br","-12","1","1","-16","11","2","219"
"","psychophysics","166","4099307","0.0-166.0","5e8533ea660027000945d9bf","64de7de63dd242e9adef43c4","","","","","6390",""," ","key"," ","15.625","500","250","br","-10","1","1","26","22","-1","220"
"","psychophysics","167","4103985","0.0-167.0","5e8533ea660027000945d9bf","64de7de63dd242e9adef43c4","","","","","4675",""," ","key"," ","15.624161073825503","500","250","br","-9","1","1","24","-2","-5","222"
"","psychophysics","168","4108082","0.0-168.0","5e8533ea660027000945d9bf","64de7de63dd242e9adef43c4","","","","","4091",""," ","key"," ","15.622137404580153","500","250","br","-10","1","1","8","-6","11","242"
"","psychophysics","169","4111401","0.0-169.0","5e8533ea660027000945d9bf","64de7de63dd242e9adef43c4","","","","","3314",""," ","key"," ","15.625592417061611","500","250","br","-6","1","1","19","-15","12","252"
"","psychophysics","170","4115657","0.0-170.0","5e8533ea660027000945d9bf","64de7de63dd242e9adef43c4","","","","","4253",""," ","key"," ","15.623616236162361","500","250","br","-8","1","1","16","-28","30","213"
"","psychophysics","171","4120377","0.0-171.0","5e8533ea660027000945d9bf","64de7de63dd242e9adef43c4","","","","","4713",""," ","key"," ","15.624584717607974","500","250","br","-15","1","1","-3","-23","-17","265"
"","psychophysics","172","4123649","0.0-172.0","5e8533ea660027000945d9bf","64de7de63dd242e9adef43c4","","","","","3267",""," ","key"," ","15.626794258373206","500","250","br","-14","1","1","0","18","-2","299"
"","psychophysics","173","4128571","0.0-173.0","5e8533ea660027000945d9bf","64de7de63dd242e9adef43c4","","","","","4918",""," ","key"," ","15.624203821656051","500","250","br","-7","1","1","-27","29","-23","275"
"","psychophysics","174","4131761","0.0-174.0","5e8533ea660027000945d9bf","64de7de63dd242e9adef43c4","","","","","3187",""," ","key"," ","15.625615763546797","500","250","br","-6","1","1","-9","-18","-8","226"
"","psychophysics","175","4137905","0.0-175.0","5e8533ea660027000945d9bf","64de7de63dd242e9adef43c4","","","","","6141",""," ","key"," ","15.625","500","250","br","-5","1","1","17","3","25","211"
"","psychophysics","176","4142713","0.0-176.0","5e8533ea660027000945d9bf","64de7de63dd242e9adef43c4","","","","","4802",""," ","key"," ","15.62214983713355","500","250","br","-6","1","1","29","-2","5","224"
"","psychophysics","177","4147169","0.0-177.0","5e8533ea660027000945d9bf","64de7de63dd242e9adef43c4","","","","","4452",""," ","key"," ","15.626760563380282","500","250","br","-12","1","1","13","20","24","271"
"","psychophysics","178","4151625","0.0-178.0","5e8533ea660027000945d9bf","64de7de63dd242e9adef43c4","","","","","4453",""," ","key"," ","15.626760563380282","500","250","br","-9","1","1","-28","-25","-5","228"
"","psychophysics","179","4155449","0.0-179.0","5e8533ea660027000945d9bf","64de7de63dd242e9adef43c4","","","","","3818",""," ","key"," ","15.62704918032787","500","250","br","-9","1","1","3","25","12","288"
"","psychophysics","180","4156115","0.0-180.0","5e8533ea660027000945d9bf","64de7de63dd242e9adef43c4","","","","","663",""," ","key"," ","15.642857142857142","500","250","inst","","","","","","",""
"","psychophysics","181","4156929","0.0-181.0","5e8533ea660027000945d9bf","64de7de63dd242e9adef43c4","","","","","810",""," ","key"," ","15.627450980392156","500","250","instPz1","25","1","","25","","","50"
"","psychophysics","182","4162009","0.0-182.0","5e8533ea660027000945d9bf","64de7de63dd242e9adef43c4","","","","","5077",""," ","key"," ","15.623456790123457","500","250","instPz2","21","1","","35","","","20"
"","psychophysics","183","4169000","0.0-183.0","5e8533ea660027000945d9bf","64de7de63dd242e9adef43c4","","","","","6988",""," ","key"," ","15.625560538116591","500","250","instPz3","33","1","","100","","","30"
"","psychophysics","184","4176461","0.0-184.0","5e8533ea660027000945d9bf","64de7de63dd242e9adef43c4","","","","","7451",""," ","key"," ","15.624737945492662","500","250","instPz4","35","1","","100","","","30"
"","psychophysics","185","4177032","0.0-185.0","5e8533ea660027000945d9bf","64de7de63dd242e9adef43c4","","","","","568",""," ","key"," ","15.628571428571428","500","250","inst","","","","","","",""
"","psychophysics","186","4180353","0.0-186.0","5e8533ea660027000945d9bf","64de7de63dd242e9adef43c4","","","","","3316",""," ","key"," ","15.622641509433961","500","250","pz","51","1","1","43","","","43"
"","psychophysics","187","4184914","0.0-187.0","5e8533ea660027000945d9bf","64de7de63dd242e9adef43c4","","","","","4557",""," ","key"," ","15.625429553264604","500","250","pz","26","1","1","48","","","23"
"","psychophysics","188","4189680","0.0-188.0","5e8533ea660027000945d9bf","64de7de63dd242e9adef43c4","","","","","4763",""," ","key"," ","15.625","500","250","pz","27","1","1","58","","","23"
"","psychophysics","189","4194258","0.0-189.0","5e8533ea660027000945d9bf","64de7de63dd242e9adef43c4","","","","","4574",""," ","key"," ","15.623287671232877","500","250","pz","61","1","1","29","","","51"
"","psychophysics","190","4199936","0.0-190.0","5e8533ea660027000945d9bf","64de7de63dd242e9adef43c4","","","","","5673",""," ","key"," ","15.624309392265193","500","250","pz","56","1","1","36","","","50"
"","psychophysics","191","4202650","0.0-191.0","5e8533ea660027000945d9bf","64de7de63dd242e9adef43c4","","","","","2711",""," ","key"," ","15.624277456647398","500","250","pz","48","1","1","42","","","39"
"","psychophysics","192","4206656","0.0-192.0","5e8533ea660027000945d9bf","64de7de63dd242e9adef43c4","","","","","4000",""," ","key"," ","15.623529411764705","500","250","pz","43","1","1","22","","","34"
"","psychophysics","193","4210576","0.0-193.0","5e8533ea660027000945d9bf","64de7de63dd242e9adef43c4","","","","","3911",""," ","key"," ","15.624","500","250","pz","29","1","1","36","","","24"
"","psychophysics","194","4216264","0.0-194.0","5e8533ea660027000945d9bf","64de7de63dd242e9adef43c4","","","","","5684",""," ","key"," ","15.62534435261708","500","250","pz","30","1","1","57","","","25"
"","psychophysics","195","4221184","0.0-195.0","5e8533ea660027000945d9bf","64de7de63dd242e9adef43c4","","","","","4909",""," ","key"," ","15.624203821656051","500","250","pz","28","1","1","46","","","23"
"","psychophysics","196","4226312","0.0-196.0","5e8533ea660027000945d9bf","64de7de63dd242e9adef43c4","","","","","5124",""," ","key"," ","15.623853211009175","500","250","pz","61","1","1","47","","","53"
"","psychophysics","197","4231281","0.0-197.0","5e8533ea660027000945d9bf","64de7de63dd242e9adef43c4","","","","","4960",""," ","key"," ","15.624605678233438","500","250","pz","68","1","1","35","","","56"
"","psychophysics","198","4236322","0.0-198.0","5e8533ea660027000945d9bf","64de7de63dd242e9adef43c4","","","","","5031",""," ","key"," ","15.624223602484472","500","250","pz","69","1","1","38","","","59"
"","psychophysics","199","4241792","0.0-199.0","5e8533ea660027000945d9bf","64de7de63dd242e9adef43c4","","","","","5465",""," ","key"," ","15.627507163323783","500","250","pz","38","1","1","20","","","34"
"","psychophysics","200","4245624","0.0-200.0","5e8533ea660027000945d9bf","64de7de63dd242e9adef43c4","","","","","3828",""," ","key"," ","15.62704918032787","500","250","pz","67","1","1","57","","","56"
"","psychophysics","201","4246249","0.0-201.0","5e8533ea660027000945d9bf","64de7de63dd242e9adef43c4","","","","","623",""," ","key"," ","15.64102564102564","500","250","inst","","","","","","",""
"","psychophysics","202","4247016","0.0-202.0","5e8533ea660027000945d9bf","64de7de63dd242e9adef43c4","","","","","765",""," ","key"," ","15.625","500","250","instZol1","1.3","","","-1.3","0","0",""
"","psychophysics","203","4247569","0.0-203.0","5e8533ea660027000945d9bf","64de7de63dd242e9adef43c4","","","","","547",""," ","key"," ","15.628571428571428","500","250","instZol2","-2","2","","2","0","0",""
"","psychophysics","204","4248152","0.0-204.0","5e8533ea660027000945d9bf","64de7de63dd242e9adef43c4","","","","","578",""," ","key"," ","15.63888888888889","500","250","inst","","","","","","",""
"","psychophysics","205","4254480","0.0-205.0","5e8533ea660027000945d9bf","64de7de63dd242e9adef43c4","","","","","6324",""," ","key"," ","15.623762376237623","500","250","zol","-0.2899999999999999","2","1","-0.21","1","-29",""
"","psychophysics","206","4259976","0.0-206.0","5e8533ea660027000945d9bf","64de7de63dd242e9adef43c4","","","","","5493",""," ","key"," ","15.623931623931623","500","250","zol","-0.33000000000000007","2","1","-0.27","2","-11",""
"","psychophysics","207","4264384","0.0-207.0","5e8533ea660027000945d9bf","64de7de63dd242e9adef43c4","","","","","4403",""," ","key"," ","15.622775800711743","500","250","zol","-0.3400000000000001","2","1","0.34","4","0",""
"","psychophysics","208","4269072","0.0-208.0","5e8533ea660027000945d9bf","64de7de63dd242e9adef43c4","","","","","4684",""," ","key"," ","15.62541806020067","500","250","zol","-0.5500000000000002","2","1","0.75","-12","-30",""
"","psychophysics","209","4273216","0.0-209.0","5e8533ea660027000945d9bf","64de7de63dd242e9adef43c4","","","","","4139",""," ","key"," ","15.625","500","250","zol","-0.73","2","1","0.23","-19","-8",""
"","psychophysics","210","4277736","0.0-210.0","5e8533ea660027000945d9bf","64de7de63dd242e9adef43c4","","","","","4515",""," ","key"," ","15.625","500","250","zol","-0.37","2","1","-0.73","-18","-30",""
"","psychophysics","211","4281673","0.0-211.0","5e8533ea660027000945d9bf","64de7de63dd242e9adef43c4","","","","","3930",""," ","key"," ","15.625498007968128","500","250","zol","-0.8699999999999999","2","1","0.37","-8","8",""
"","psychophysics","212","4287727","0.0-212.0","5e8533ea660027000945d9bf","64de7de63dd242e9adef43c4","","","","","6043",""," ","key"," ","15.62532299741602","500","250","zol","-0.38","2","1","0.08","9","-18",""
"","psychophysics","213","4294047","0.0-213.0","5e8533ea660027000945d9bf","64de7de63dd242e9adef43c4","","","","","6316",""," ","key"," ","15.62531017369727","500","250","zol","-0.5","2","1","-0.7","-11","-14",""
"","psychophysics","214","4297431","0.0-214.0","5e8533ea660027000945d9bf","64de7de63dd242e9adef43c4","","","","","3378",""," ","key"," ","15.625","500","250","zol","-0.27","2","1","-0.03","-21","-8",""
"","psychophysics","215","4303559","0.0-215.0","5e8533ea660027000945d9bf","64de7de63dd242e9adef43c4","","","","","6123",""," ","key"," ","15.624040920716112","500","250","zol","-0.2199999999999999","2","1","-0.68","26","-1",""
"","psychophysics","216","4310622","0.0-216.0","5e8533ea660027000945d9bf","64de7de63dd242e9adef43c4","","","","","7059",""," ","key"," ","15.625277161862527","500","250","zol","-0.13000000000000006","2","1","-0.37","-28","-26",""
"","psychophysics","217","4313865","0.0-217.0","5e8533ea660027000945d9bf","64de7de63dd242e9adef43c4","","","","","3240",""," ","key"," ","15.628019323671497","500","250","zol","-0.57","2","1","-0.13","24","16",""
"","psychophysics","218","4317663","0.0-218.0","5e8533ea660027000945d9bf","64de7de63dd242e9adef43c4","","","","","3794",""," ","key"," ","15.62809917355372","500","250","zol","-0.5599999999999999","2","1","0.06","8","29",""
"","psychophysics","219","4324014","0.0-219.0","5e8533ea660027000945d9bf","64de7de63dd242e9adef43c4","","","","","6347",""," ","key"," ","15.624691358024691","500","250","zol","-0.2600000000000001","2","1","0.56","7","7",""
