"success","trial_type","trial_index","time_elapsed","internal_node_id","pid","sid","timeout","failed_images","failed_audio","failed_video","rt","stimulus","response","response_type","key_press","avg_frame_time","center_x","center_y","task","resp","version","block","jitterX","jitterY","start","parA"
"true","fullscreen","0","3232","0.0-0.0","62ed28c7c3eda61e8bed0c7e","64e5072a2721ad6de6f6c865","","","","","","","","","","","","","","","","","","","",""
"true","preload","1","3331","0.0-1.0","62ed28c7c3eda61e8bed0c7e","64e5072a2721ad6de6f6c865","false","[]","[]","[]","","","","","","","","","","","","","","","",""
"","html-button-response","2","4669","0.0-2.0","62ed28c7c3eda61e8bed0c7e","64e5072a2721ad6de6f6c865","","","","","1337","Please Make Sure Your Audio Is On.","0","","","","","","","","","","","","",""
"","psychophysics","3","8197","0.0-3.0","62ed28c7c3eda61e8bed0c7e","64e5072a2721ad6de6f6c865","","","","","3524",""," ","key"," ","16.667141509433964","960","250","","","","","","","",""
"","psychophysics","4","10294","0.0-4.0","62ed28c7c3eda61e8bed0c7e","64e5072a2721ad6de6f6c865","","","","","2094",""," ","key"," ","16.666872","500","250","inst","","","","","","",""
"","psychophysics","5","12493","0.0-5.0","62ed28c7c3eda61e8bed0c7e","64e5072a2721ad6de6f6c865","","","","","2198",""," ","key"," ","16.666938931297715","500","250","sample0","","","","","","",""
"","psychophysics","6","13798","0.0-6.0","62ed28c7c3eda61e8bed0c7e","64e5072a2721ad6de6f6c865","","","","","1303",""," ","key"," ","16.666857142857143","500","250","sample1","","","","","","",""
"","psychophysics","7","24926","0.0-7.0","62ed28c7c3eda61e8bed0c7e","64e5072a2721ad6de6f6c865","","","","","11125",""," ","key"," ","16.66694152923538","500","250","sample2","100","","","","","",""
"","psychophysics","8","29886","0.0-8.0","62ed28c7c3eda61e8bed0c7e","64e5072a2721ad6de6f6c865","","","","","4958",""," ","key"," ","16.666898648648655","500","250","sample3","100","","","","","",""
"","psychophysics","9","35743","0.0-9.0","62ed28c7c3eda61e8bed0c7e","64e5072a2721ad6de6f6c865","","","","","5855",""," ","key"," ","16.666883190883194","500","250","sample4","100","","","","","",""
"","psychophysics","10","38238","0.0-10.0","62ed28c7c3eda61e8bed0c7e","64e5072a2721ad6de6f6c865","","","","","2493",""," ","key"," ","16.66693243243242","500","250","sample5","","","","","","",""
"","psychophysics","11","49518","0.0-11.0","62ed28c7c3eda61e8bed0c7e","64e5072a2721ad6de6f6c865","","","","","11278",""," ","key"," ","16.666880177514784","500","250","sample6","500","","","","","",""
"","psychophysics","12","58150","0.0-12.0","62ed28c7c3eda61e8bed0c7e","64e5072a2721ad6de6f6c865","","","","","8630",""," ","key"," ","16.666874274661502","500","250","inst","","","","","","",""
"","psychophysics","13","63245","0.0-13.0","62ed28c7c3eda61e8bed0c7e","64e5072a2721ad6de6f6c865","","","","","5094",""," ","key"," ","16.66708524590165","500","250","inst","","","","","","",""
"","psychophysics","14","64790","0.0-14.0","62ed28c7c3eda61e8bed0c7e","64e5072a2721ad6de6f6c865","","","","","1543",""," ","key"," ","16.666835164835174","500","250","inst","","","","","","",""
"","psychophysics","15","66301","0.0-15.0","62ed28c7c3eda61e8bed0c7e","64e5072a2721ad6de6f6c865","","","","","1509",""," ","key"," ","16.666855555555472","500","250","inst","","","","","","",""
"","psychophysics","16","67693","0.0-16.0","62ed28c7c3eda61e8bed0c7e","64e5072a2721ad6de6f6c865","","","","","1390",""," ","key"," ","16.666879518072232","500","250","inst","","","","","","",""
"","psychophysics","17","74445","0.0-17.0","62ed28c7c3eda61e8bed0c7e","64e5072a2721ad6de6f6c865","","","","","6750",""," ","key"," ","16.66688861386141","500","250","instZol0","-0.09999999999999998","","","0","0","0",""
"","psychophysics","18","78261","0.0-18.0","62ed28c7c3eda61e8bed0c7e","64e5072a2721ad6de6f6c865","","","","","3814",""," ","key"," ","16.66686842105264","500","250","instZol1","0.5","","","0","0","-1.3",""
"","psychophysics","19","84973","0.0-19.0","62ed28c7c3eda61e8bed0c7e","64e5072a2721ad6de6f6c865","","","","","6710",""," ","key"," ","16.666880299251893","500","250","instZol2","-1.2999999999999994","2","","0","0","2",""
"","psychophysics","20","86989","0.0-20.0","62ed28c7c3eda61e8bed0c7e","64e5072a2721ad6de6f6c865","","","","","2013",""," ","key"," ","16.666866666666586","500","250","inst","","","","","","",""
"","psychophysics","21","92885","0.0-21.0","62ed28c7c3eda61e8bed0c7e","64e5072a2721ad6de6f6c865","","","","","5892",""," ","key"," ","16.66689235127479","500","250","zol","-1.23","2","0","9","-7","-0.67",""
"","psychophysics","22","96837","0.0-22.0","62ed28c7c3eda61e8bed0c7e","64e5072a2721ad6de6f6c865","","","","","3950",""," ","key"," ","16.666881355932226","500","250","zol","0.27999999999999997","2","0","-21","22","0.22",""
"","psychophysics","23","99005","0.0-23.0","62ed28c7c3eda61e8bed0c7e","64e5072a2721ad6de6f6c865","","","","","2166",""," ","key"," ","16.666860465116233","500","250","zol","-0.049999999999999906","2","0","22","-3","-0.55",""
"","psychophysics","24","102429","0.0-24.0","62ed28c7c3eda61e8bed0c7e","64e5072a2721ad6de6f6c865","","","","","3419",""," ","key"," ","16.666707317073186","500","250","zol","-0.36","2","0","-29","-22","-0.34",""
"","psychophysics","25","104573","0.0-25.0","62ed28c7c3eda61e8bed0c7e","64e5072a2721ad6de6f6c865","","","","","2142",""," ","key"," ","16.667031496063018","500","250","zol","-0.9799999999999999","2","0","20","-30","0.48",""
"","psychophysics","26","109110","0.0-26.0","62ed28c7c3eda61e8bed0c7e","64e5072a2721ad6de6f6c865","","","","","4534",""," ","key"," ","16.66685661764704","500","250","zol","-1.29","2","0","-21","-9","-0.31",""
"","psychophysics","27","116028","0.0-27.0","62ed28c7c3eda61e8bed0c7e","64e5072a2721ad6de6f6c865","","","","","6916",""," ","key"," ","16.666888888888863","500","250","zol","-1.7300000000000004","2","0","22","15","-0.67",""
"","psychophysics","28","120605","0.0-28.0","62ed28c7c3eda61e8bed0c7e","64e5072a2721ad6de6f6c865","","","","","4574",""," ","key"," ","16.666857142857182","500","250","zol","-1.2200000000000002","2","0","14","1","0.42",""
"","psychophysics","29","123997","0.0-29.0","62ed28c7c3eda61e8bed0c7e","64e5072a2721ad6de6f6c865","","","","","3390",""," ","key"," ","16.666847290640444","500","250","zol","-1.2100000000000002","2","0","0","9","0.11",""
"","psychophysics","30","129701","0.0-30.0","62ed28c7c3eda61e8bed0c7e","64e5072a2721ad6de6f6c865","","","","","5701",""," ","key"," ","16.666882697947234","500","250","zol","-1.4700000000000002","2","0","11","-21","-0.33",""
"","psychophysics","31","134229","0.0-31.0","62ed28c7c3eda61e8bed0c7e","64e5072a2721ad6de6f6c865","","","","","4526",""," ","key"," ","16.6668929889299","500","250","zol","-1.4400000000000004","2","0","-9","30","-0.16",""
"","psychophysics","32","141477","0.0-32.0","62ed28c7c3eda61e8bed0c7e","64e5072a2721ad6de6f6c865","","","","","7246",""," ","key"," ","16.66690783410137","500","250","zol","-1.3400000000000003","2","0","13","-3","0.54",""
"","psychophysics","33","145452","0.0-33.0","62ed28c7c3eda61e8bed0c7e","64e5072a2721ad6de6f6c865","","","","","3973",""," ","key"," ","16.666632911392398","500","250","zol","-1.11","2","0","7","-14","-0.59",""
"","psychophysics","34","152341","0.0-34.0","62ed28c7c3eda61e8bed0c7e","64e5072a2721ad6de6f6c865","","","","","6885",""," ","key"," ","16.667038834951402","500","250","zol","-1.15","2","0","5","16","-0.75",""
"","psychophysics","35","156165","0.0-35.0","62ed28c7c3eda61e8bed0c7e","64e5072a2721ad6de6f6c865","","","","","3821",""," ","key"," ","16.666873362445447","500","250","zol","-1.8100000000000007","2","0","-5","-23","0.61",""
"","psychophysics","36","157660","0.0-36.0","62ed28c7c3eda61e8bed0c7e","64e5072a2721ad6de6f6c865","","","","","1494",""," ","key"," ","16.66691011235967","500","250","inst","","","","","","",""
"","psychophysics","37","164445","0.0-37.0","62ed28c7c3eda61e8bed0c7e","64e5072a2721ad6de6f6c865","","","","","6783",""," ","key"," ","16.66687684729066","500","250","instPog0","340","2","","0","0","370","340"
"","psychophysics","38","166910","0.0-38.0","62ed28c7c3eda61e8bed0c7e","64e5072a2721ad6de6f6c865","","","","","2463",""," ","key"," ","16.666904761904785","500","250","instPog1","340","2","","0","0","370","340"
"","psychophysics","39","172893","0.0-39.0","62ed28c7c3eda61e8bed0c7e","64e5072a2721ad6de6f6c865","","","","","5981",""," ","key"," ","16.667039106145218","500","250","instPog2","330","2","","0","0","340","340"
"","psychophysics","40","173861","0.0-40.0","62ed28c7c3eda61e8bed0c7e","64e5072a2721ad6de6f6c865","","","","","966",""," ","key"," ","16.66698245614054","500","250","inst","","","","","","",""
"","psychophysics","41","177325","0.0-41.0","62ed28c7c3eda61e8bed0c7e","64e5072a2721ad6de6f6c865","","","","","3462",""," ","key"," ","16.66681067961171","500","250","pog","350","2","0","0","0","318","379"
"","psychophysics","42","181541","0.0-42.0","62ed28c7c3eda61e8bed0c7e","64e5072a2721ad6de6f6c865","","","","","4214",""," ","key"," ","16.666916666666644","500","250","pog","308","2","0","0","0","398","352"
"","psychophysics","43","184845","0.0-43.0","62ed28c7c3eda61e8bed0c7e","64e5072a2721ad6de6f6c865","","","","","3301",""," ","key"," ","16.666848484848447","500","250","pog","284","2","0","0","0","378","318"
"","psychophysics","44","186828","0.0-44.0","62ed28c7c3eda61e8bed0c7e","64e5072a2721ad6de6f6c865","","","","","1982",""," ","key"," ","16.666932203389862","500","250","pog","342","2","0","0","0","328","380"
"","psychophysics","45","188693","0.0-45.0","62ed28c7c3eda61e8bed0c7e","64e5072a2721ad6de6f6c865","","","","","1864",""," ","key"," ","16.66686486486484","500","250","pog","291","2","0","0","0","283","335"
"","psychophysics","46","192060","0.0-46.0","62ed28c7c3eda61e8bed0c7e","64e5072a2721ad6de6f6c865","","","","","3364",""," ","key"," ","16.66691044776119","500","250","pog","298","2","0","0","0","340","337"
"","psychophysics","47","194764","0.0-47.0","62ed28c7c3eda61e8bed0c7e","64e5072a2721ad6de6f6c865","","","","","2702",""," ","key"," ","16.666813664596205","500","250","pog","295","2","0","0","0","321","326"
"","psychophysics","48","196444","0.0-48.0","62ed28c7c3eda61e8bed0c7e","64e5072a2721ad6de6f6c865","","","","","1678",""," ","key"," ","16.667060000000056","500","250","pog","316","2","0","0","0","308","373"
"","psychophysics","49","201116","0.0-49.0","62ed28c7c3eda61e8bed0c7e","64e5072a2721ad6de6f6c865","","","","","4670",""," ","key"," ","16.66688888888891","500","250","pog","259","2","0","0","0","359","300"
"","psychophysics","50","204372","0.0-50.0","62ed28c7c3eda61e8bed0c7e","64e5072a2721ad6de6f6c865","","","","","3254",""," ","key"," ","16.66688144329897","500","250","pog","275","2","0","0","0","367","302"
"","psychophysics","51","206932","0.0-51.0","62ed28c7c3eda61e8bed0c7e","64e5072a2721ad6de6f6c865","","","","","2558",""," ","key"," ","16.666882352941148","500","250","pog","331","2","0","0","0","371","353"
"","psychophysics","52","210596","0.0-52.0","62ed28c7c3eda61e8bed0c7e","64e5072a2721ad6de6f6c865","","","","","3662",""," ","key"," ","16.666908675799153","500","250","pog","272","2","0","0","0","368","313"
"","psychophysics","53","214132","0.0-53.0","62ed28c7c3eda61e8bed0c7e","64e5072a2721ad6de6f6c865","","","","","3534",""," ","key"," ","16.666947867298553","500","250","pog","328","2","0","0","0","342","359"
"","psychophysics","54","216220","0.0-54.0","62ed28c7c3eda61e8bed0c7e","64e5072a2721ad6de6f6c865","","","","","2086",""," ","key"," ","16.666830645161333","500","250","pog","301","2","0","0","0","293","329"
"","psychophysics","55","217724","0.0-55.0","62ed28c7c3eda61e8bed0c7e","64e5072a2721ad6de6f6c865","","","","","1502",""," ","key"," ","16.667011235955073","500","250","pog","316","2","0","0","0","308","344"
"","psychophysics","56","218732","0.0-56.0","62ed28c7c3eda61e8bed0c7e","64e5072a2721ad6de6f6c865","","","","","1005",""," ","key"," ","16.6670166666668","500","250","inst","","","","","","",""
"","psychophysics","57","220932","0.0-57.0","62ed28c7c3eda61e8bed0c7e","64e5072a2721ad6de6f6c865","","","","","2198",""," ","key"," ","16.666893129771086","500","250","instEB0","40","2","","0","0","40","40"
"","psychophysics","58","226356","0.0-58.0","62ed28c7c3eda61e8bed0c7e","64e5072a2721ad6de6f6c865","","","","","5417",""," ","key"," ","16.666913580246963","500","250","instEB1","39","2","","0","0","30","40"
"","psychophysics","59","230652","0.0-59.0","62ed28c7c3eda61e8bed0c7e","64e5072a2721ad6de6f6c865","","","","","4294",""," ","key"," ","16.666898832684755","500","250","instEB2","31","2","","0","0","40","30"
"","psychophysics","60","235028","0.0-60.0","62ed28c7c3eda61e8bed0c7e","64e5072a2721ad6de6f6c865","","","","","4374",""," ","key"," ","16.666809160305334","500","250","instEB3","42","2","","0","0","45","27"
"","psychophysics","61","237588","0.0-61.0","62ed28c7c3eda61e8bed0c7e","64e5072a2721ad6de6f6c865","","","","","2558",""," ","key"," ","16.66675000000013","500","250","instEB4","47","2","","0","0","30","40"
"","psychophysics","62","238420","0.0-62.0","62ed28c7c3eda61e8bed0c7e","64e5072a2721ad6de6f6c865","","","","","830",""," ","key"," ","16.66571428571419","500","250","inst","","","","","","",""
"","psychophysics","63","241261","0.0-63.0","62ed28c7c3eda61e8bed0c7e","64e5072a2721ad6de6f6c865","","","","","2839",""," ","key"," ","16.666988235293985","500","250","eb","41","2","","0","0","53","38"
"","psychophysics","64","243004","0.0-64.0","62ed28c7c3eda61e8bed0c7e","64e5072a2721ad6de6f6c865","","","","","1740",""," ","key"," ","16.66699029126225","500","250","eb","38","2","","0","0","38","32"
"","psychophysics","65","244924","0.0-65.0","62ed28c7c3eda61e8bed0c7e","64e5072a2721ad6de6f6c865","","","","","1917",""," ","key"," ","16.66685964912278","500","250","eb","34","2","","0","0","49","26"
"","psychophysics","66","247404","0.0-66.0","62ed28c7c3eda61e8bed0c7e","64e5072a2721ad6de6f6c865","","","","","2477",""," ","key"," ","16.66695270270272","500","250","eb","50","2","","0","0","42","39"
"","psychophysics","67","249148","0.0-67.0","62ed28c7c3eda61e8bed0c7e","64e5072a2721ad6de6f6c865","","","","","1742",""," ","key"," ","16.666942307692246","500","250","eb","40","2","","0","0","27","31"
"","psychophysics","68","251092","0.0-68.0","62ed28c7c3eda61e8bed0c7e","64e5072a2721ad6de6f6c865","","","","","1942",""," ","key"," ","16.66686956521741","500","250","eb","45","2","","0","0","28","36"
"","psychophysics","69","253244","0.0-69.0","62ed28c7c3eda61e8bed0c7e","64e5072a2721ad6de6f6c865","","","","","2149",""," ","key"," ","16.66697674418611","500","250","eb","56","2","","0","0","34","49"
"","psychophysics","70","256404","0.0-70.0","62ed28c7c3eda61e8bed0c7e","64e5072a2721ad6de6f6c865","","","","","3158",""," ","key"," ","16.666611702127682","500","250","eb","38","2","","0","0","47","32"
"","psychophysics","71","259188","0.0-71.0","62ed28c7c3eda61e8bed0c7e","64e5072a2721ad6de6f6c865","","","","","2782",""," ","key"," ","16.66686144578309","500","250","eb","51","2","","0","0","41","39"
"","psychophysics","72","262652","0.0-72.0","62ed28c7c3eda61e8bed0c7e","64e5072a2721ad6de6f6c865","","","","","3462",""," ","key"," ","16.666951690821296","500","250","eb","51","2","","0","0","31","43"
"","psychophysics","73","266012","0.0-73.0","62ed28c7c3eda61e8bed0c7e","64e5072a2721ad6de6f6c865","","","","","3357",""," ","key"," ","16.666915422885513","500","250","eb","43","2","","0","0","44","36"
"","psychophysics","74","269892","0.0-74.0","62ed28c7c3eda61e8bed0c7e","64e5072a2721ad6de6f6c865","","","","","3878",""," ","key"," ","16.666904761904732","500","250","eb","27","2","","0","0","35","25"
"","psychophysics","75","273428","0.0-75.0","62ed28c7c3eda61e8bed0c7e","64e5072a2721ad6de6f6c865","","","","","3533",""," ","key"," ","16.66686320754717","500","250","eb","65","2","","0","0","26","54"
"","psychophysics","76","275661","0.0-76.0","62ed28c7c3eda61e8bed0c7e","64e5072a2721ad6de6f6c865","","","","","2231",""," ","key"," ","16.66681203007509","500","250","eb","61","2","","0","0","43","49"
"","psychophysics","77","277532","0.0-77.0","62ed28c7c3eda61e8bed0c7e","64e5072a2721ad6de6f6c865","","","","","1869",""," ","key"," ","16.666846846847015","500","250","eb","62","2","","0","0","49","52"
"","psychophysics","78","278292","0.0-78.0","62ed28c7c3eda61e8bed0c7e","64e5072a2721ad6de6f6c865","","","","","758",""," ","key"," ","16.66684090909125","500","250","inst","","","","","","",""
"","psychophysics","79","280644","0.0-79.0","62ed28c7c3eda61e8bed0c7e","64e5072a2721ad6de6f6c865","","","","","2349",""," ","key"," ","16.666702127659608","500","250","instPzPre","50","0","","","","50","50"
"","psychophysics","80","281804","0.0-80.0","62ed28c7c3eda61e8bed0c7e","64e5072a2721ad6de6f6c865","","","","","1158",""," ","key"," ","16.666955882352983","500","250","instPz0","50","2","","","","50","50"
"","psychophysics","81","286900","0.0-81.0","62ed28c7c3eda61e8bed0c7e","64e5072a2721ad6de6f6c865","","","","","5094",""," ","key"," ","16.66692459016378","500","250","instPz1","25","2","","","","25","50"
"","psychophysics","82","291772","0.0-82.0","62ed28c7c3eda61e8bed0c7e","64e5072a2721ad6de6f6c865","","","","","4871",""," ","key"," ","16.66687628865975","500","250","instPz2","29","2","","","","20","35"
"","psychophysics","83","297116","0.0-83.0","62ed28c7c3eda61e8bed0c7e","64e5072a2721ad6de6f6c865","","","","","5341",""," ","key"," ","16.666759375000037","500","250","instPz3","69","2","","","","30","100"
"","psychophysics","84","299620","0.0-84.0","62ed28c7c3eda61e8bed0c7e","64e5072a2721ad6de6f6c865","","","","","2502",""," ","key"," ","16.666979865771843","500","250","instPz4","51","2","","","","30","100"
"","psychophysics","85","300428","0.0-85.0","62ed28c7c3eda61e8bed0c7e","64e5072a2721ad6de6f6c865","","","","","806",""," ","key"," ","16.666916666666413","500","250","inst","","","","","","",""
"","psychophysics","86","305587","0.0-86.0","62ed28c7c3eda61e8bed0c7e","64e5072a2721ad6de6f6c865","","","","","5158",""," ","key"," ","16.66683766233766","500","250","pz","26","2","0","","","47","39"
"","psychophysics","87","307787","0.0-87.0","62ed28c7c3eda61e8bed0c7e","64e5072a2721ad6de6f6c865","","","","","2198",""," ","key"," ","16.666893129771086","500","250","pz","31","2","0","","","54","60"
"","psychophysics","88","309355","0.0-88.0","62ed28c7c3eda61e8bed0c7e","64e5072a2721ad6de6f6c865","","","","","1566",""," ","key"," ","16.666870967741627","500","250","pz","18","2","0","","","35","54"
"","psychophysics","89","313820","0.0-89.0","62ed28c7c3eda61e8bed0c7e","64e5072a2721ad6de6f6c865","","","","","4462",""," ","key"," ","16.666617977528176","500","250","pz","10","2","0","","","39","21"
"","psychophysics","90","317483","0.0-90.0","62ed28c7c3eda61e8bed0c7e","64e5072a2721ad6de6f6c865","","","","","3662",""," ","key"," ","16.66718264840188","500","250","pz","16","2","0","","","60","28"
"","psychophysics","91","319644","0.0-91.0","62ed28c7c3eda61e8bed0c7e","64e5072a2721ad6de6f6c865","","","","","2159",""," ","key"," ","16.666759689922387","500","250","pz","27","2","0","","","23","54"
"","psychophysics","92","322195","0.0-92.0","62ed28c7c3eda61e8bed0c7e","64e5072a2721ad6de6f6c865","","","","","2549",""," ","key"," ","16.666730263157852","500","250","pz","17","2","0","","","49","28"
"","psychophysics","93","325091","0.0-93.0","62ed28c7c3eda61e8bed0c7e","64e5072a2721ad6de6f6c865","","","","","2894",""," ","key"," ","16.667040697674587","500","250","pz","26","2","0","","","29","54"
"","psychophysics","94","326445","0.0-94.0","62ed28c7c3eda61e8bed0c7e","64e5072a2721ad6de6f6c865","","","","","1351",""," ","key"," ","16.666827160494265","500","250","pz","27","2","0","","","27","49"
"","psychophysics","95","330907","0.0-95.0","62ed28c7c3eda61e8bed0c7e","64e5072a2721ad6de6f6c865","","","","","4460",""," ","key"," ","16.66690225563891","500","250","pz","23","2","0","","","55","38"
"","psychophysics","96","334979","0.0-96.0","62ed28c7c3eda61e8bed0c7e","64e5072a2721ad6de6f6c865","","","","","4070",""," ","key"," ","16.66686885245908","500","250","pz","17","2","0","","","52","27"
"","psychophysics","97","337251","0.0-97.0","62ed28c7c3eda61e8bed0c7e","64e5072a2721ad6de6f6c865","","","","","2269",""," ","key"," ","16.666881481481767","500","250","pz","23","2","0","","","50","52"
"","psychophysics","98","340939","0.0-98.0","62ed28c7c3eda61e8bed0c7e","64e5072a2721ad6de6f6c865","","","","","3686",""," ","key"," ","16.66689999999997","500","250","pz","15","2","0","","","51","32"
"","psychophysics","99","344771","0.0-99.0","62ed28c7c3eda61e8bed0c7e","64e5072a2721ad6de6f6c865","","","","","3830",""," ","key"," ","16.666882096069934","500","250","pz","18","2","0","","","40","38"
"","psychophysics","100","349059","0.0-100.0","62ed28c7c3eda61e8bed0c7e","64e5072a2721ad6de6f6c865","","","","","4286",""," ","key"," ","16.66689062499995","500","250","pz","18","2","0","","","58","46"
"","psychophysics","101","350884","0.0-101.0","62ed28c7c3eda61e8bed0c7e","64e5072a2721ad6de6f6c865","","","","","1822",""," ","key"," ","16.6669633027525","500","250","inst","","","","","","",""
"","psychophysics","102","353867","0.0-102.0","62ed28c7c3eda61e8bed0c7e","64e5072a2721ad6de6f6c865","","","","","2982",""," ","key"," ","16.66684269662907","500","250","instBr0","0","","","0","0","0","300"
"","psychophysics","103","355755","0.0-103.0","62ed28c7c3eda61e8bed0c7e","64e5072a2721ad6de6f6c865","","","","","1886",""," ","key"," ","16.66690178571402","500","250","instBr1","-40","","","0","0","-40","300"
"","psychophysics","104","361451","0.0-104.0","62ed28c7c3eda61e8bed0c7e","64e5072a2721ad6de6f6c865","","","","","5694",""," ","key"," ","16.666882697947063","500","250","instBr3","10","2","","0","0","40","300"
"","psychophysics","105","362131","0.0-105.0","62ed28c7c3eda61e8bed0c7e","64e5072a2721ad6de6f6c865","","","","","678",""," ","key"," ","16.66689999999944","500","250","inst","","","","","","",""
"","psychophysics","106","364429","0.0-106.0","62ed28c7c3eda61e8bed0c7e","64e5072a2721ad6de6f6c865","","","","","2295",""," ","key"," ","16.666839416058526","500","250","br","16","2","0","-4","-21","-16","247"
"","psychophysics","107","366971","0.0-107.0","62ed28c7c3eda61e8bed0c7e","64e5072a2721ad6de6f6c865","","","","","2541",""," ","key"," ","16.667377483443932","500","250","br","17","2","0","3","-25","-19","273"
"","psychophysics","108","369139","0.0-108.0","62ed28c7c3eda61e8bed0c7e","64e5072a2721ad6de6f6c865","","","","","2166",""," ","key"," ","16.666891472868066","500","250","br","24","2","0","23","-26","16","297"
"","psychophysics","109","372123","0.0-109.0","62ed28c7c3eda61e8bed0c7e","64e5072a2721ad6de6f6c865","","","","","2982",""," ","key"," ","16.666876404494207","500","250","br","15","2","0","5","-28","30","226"
"","psychophysics","110","374795","0.0-110.0","62ed28c7c3eda61e8bed0c7e","64e5072a2721ad6de6f6c865","","","","","2670",""," ","key"," ","16.666881250000007","500","250","br","13","2","0","-29","21","7","296"
"","psychophysics","111","378803","0.0-111.0","62ed28c7c3eda61e8bed0c7e","64e5072a2721ad6de6f6c865","","","","","4006",""," ","key"," ","16.666974895397516","500","250","br","18","2","0","-25","29","-25","241"
"","psychophysics","112","380299","0.0-112.0","62ed28c7c3eda61e8bed0c7e","64e5072a2721ad6de6f6c865","","","","","1494",""," ","key"," ","16.6669438202248","500","250","br","19","2","0","-29","-27","20","218"
"","psychophysics","113","382843","0.0-113.0","62ed28c7c3eda61e8bed0c7e","64e5072a2721ad6de6f6c865","","","","","2542",""," ","key"," ","16.66686092715268","500","250","br","21","2","0","6","11","-2","284"
"","psychophysics","114","385259","0.0-114.0","62ed28c7c3eda61e8bed0c7e","64e5072a2721ad6de6f6c865","","","","","2413",""," ","key"," ","16.66690972222245","500","250","br","9","2","0","23","18","29","253"
"","psychophysics","115","387619","0.0-115.0","62ed28c7c3eda61e8bed0c7e","64e5072a2721ad6de6f6c865","","","","","2357",""," ","key"," ","16.666787234042502","500","250","br","8","2","0","-2","5","-25","299"
"","psychophysics","116","389723","0.0-116.0","62ed28c7c3eda61e8bed0c7e","64e5072a2721ad6de6f6c865","","","","","2102",""," ","key"," ","16.666919999999926","500","250","br","15","2","0","11","10","-11","224"
"","psychophysics","117","393035","0.0-117.0","62ed28c7c3eda61e8bed0c7e","64e5072a2721ad6de6f6c865","","","","","3310",""," ","key"," ","16.666883838383864","500","250","br","16","2","0","-23","-25","-26","256"
"","psychophysics","118","395603","0.0-118.0","62ed28c7c3eda61e8bed0c7e","64e5072a2721ad6de6f6c865","","","","","2566",""," ","key"," ","16.66693464052267","500","250","br","6","2","0","-18","-4","29","284"
"","psychophysics","119","398667","0.0-119.0","62ed28c7c3eda61e8bed0c7e","64e5072a2721ad6de6f6c865","","","","","3062",""," ","key"," ","16.666846994535497","500","250","br","4","2","0","-24","10","-25","286"
"","psychophysics","120","401195","0.0-120.0","62ed28c7c3eda61e8bed0c7e","64e5072a2721ad6de6f6c865","","","","","2526",""," ","key"," ","16.666920529801434","500","250","br","19","2","0","10","3","6","300"
"","psychophysics","121","401907","0.0-121.0","62ed28c7c3eda61e8bed0c7e","64e5072a2721ad6de6f6c865","","","","","710",""," ","key"," ","16.66685365853553","500","250","inst","","","","","","",""
"","psychophysics","122","409139","0.0-122.0","62ed28c7c3eda61e8bed0c7e","64e5072a2721ad6de6f6c865","","","","","7230",""," ","key"," ","16.66687759815236","500","250","instZol1","0.5999999999999998","","","0","0","-1.3",""
"","psychophysics","123","414291","0.0-123.0","62ed28c7c3eda61e8bed0c7e","64e5072a2721ad6de6f6c865","","","","","5150",""," ","key"," ","16.66686038961033","500","250","instZol2","1.1000000000000008","1","","0","0","2",""
"","psychophysics","124","415515","0.0-124.0","62ed28c7c3eda61e8bed0c7e","64e5072a2721ad6de6f6c865","","","","","1223",""," ","key"," ","16.667452054795145","500","250","inst","","","","","","",""
"","psychophysics","125","421523","0.0-125.0","62ed28c7c3eda61e8bed0c7e","64e5072a2721ad6de6f6c865","","","","","6006",""," ","key"," ","16.66689136490248","500","250","zol","1.6400000000000006","1","1","-5","-3","0.06",""
"","psychophysics","126","426483","0.0-126.0","62ed28c7c3eda61e8bed0c7e","64e5072a2721ad6de6f6c865","","","","","4957",""," ","key"," ","16.66690235690238","500","250","zol","2.140000000000001","1","1","-15","29","0.36",""
"","psychophysics","127","432059","0.0-127.0","62ed28c7c3eda61e8bed0c7e","64e5072a2721ad6de6f6c865","","","","","5573",""," ","key"," ","16.666774774774666","500","250","zol","2.2800000000000007","1","1","15","21","-0.18",""
"","psychophysics","128","435002","0.0-128.0","62ed28c7c3eda61e8bed0c7e","64e5072a2721ad6de6f6c865","","","","","2941",""," ","key"," ","16.66710795454558","500","250","zol","1.7700000000000005","1","1","-6","20","-0.27",""
"","psychophysics","129","442107","0.0-129.0","62ed28c7c3eda61e8bed0c7e","64e5072a2721ad6de6f6c865","","","","","7102",""," ","key"," ","16.666877647058847","500","250","zol","2.240000000000001","1","1","25","-24","0.26",""
"","psychophysics","130","449323","0.0-130.0","62ed28c7c3eda61e8bed0c7e","64e5072a2721ad6de6f6c865","","","","","7214",""," ","key"," ","16.666891203703724","500","250","zol","-0.2500000000000002","1","1","-25","16","0.55",""
"","psychophysics","131","451603","0.0-131.0","62ed28c7c3eda61e8bed0c7e","64e5072a2721ad6de6f6c865","","","","","2277",""," ","key"," ","16.66689705882377","500","250","zol","1.19","1","1","23","-6","0.51",""
"","psychophysics","132","455259","0.0-132.0","62ed28c7c3eda61e8bed0c7e","64e5072a2721ad6de6f6c865","","","","","3653",""," ","key"," ","16.66687614678906","500","250","zol","1.9800000000000006","1","1","-10","-22","-0.18",""
"","psychophysics","133","457979","0.0-133.0","62ed28c7c3eda61e8bed0c7e","64e5072a2721ad6de6f6c865","","","","","2717",""," ","key"," ","16.667042944785294","500","250","zol","2.020000000000001","1","1","17","6","-0.32",""
"","psychophysics","134","460979","0.0-134.0","62ed28c7c3eda61e8bed0c7e","64e5072a2721ad6de6f6c865","","","","","2998",""," ","key"," ","16.666837988826824","500","250","zol","1.9300000000000006","1","1","29","-9","-0.43",""
"","psychophysics","135","463754","0.0-135.0","62ed28c7c3eda61e8bed0c7e","64e5072a2721ad6de6f6c865","","","","","2773",""," ","key"," ","16.666812121212327","500","250","zol","1.6200000000000006","1","1","-29","16","0.18",""
"","psychophysics","136","466186","0.0-136.0","62ed28c7c3eda61e8bed0c7e","64e5072a2721ad6de6f6c865","","","","","2430",""," ","key"," ","16.66702068965513","500","250","zol","1.6500000000000006","1","1","10","28","-0.45",""
"","psychophysics","137","468891","0.0-137.0","62ed28c7c3eda61e8bed0c7e","64e5072a2721ad6de6f6c865","","","","","2702",""," ","key"," ","16.666888198757803","500","250","zol","1.35","1","1","-27","7","-0.15",""
"","psychophysics","138","474114","0.0-138.0","62ed28c7c3eda61e8bed0c7e","64e5072a2721ad6de6f6c865","","","","","5222",""," ","key"," ","16.666910543131046","500","250","zol","1.9500000000000006","1","1","3","24","-0.45",""
"","psychophysics","139","478123","0.0-139.0","62ed28c7c3eda61e8bed0c7e","64e5072a2721ad6de6f6c865","","","","","4006",""," ","key"," ","16.666866108786586","500","250","zol","1.6300000000000003","1","1","28","-22","0.67",""
"","psychophysics","140","479354","0.0-140.0","62ed28c7c3eda61e8bed0c7e","64e5072a2721ad6de6f6c865","","","","","1230",""," ","key"," ","16.666958904109915","500","250","inst","","","","","","",""
"","psychophysics","141","480979","0.0-141.0","62ed28c7c3eda61e8bed0c7e","64e5072a2721ad6de6f6c865","","","","","1622",""," ","key"," ","16.66676288659771","500","250","instBr3","40","1","","0","0","40","300"
"","psychophysics","142","482203","0.0-142.0","62ed28c7c3eda61e8bed0c7e","64e5072a2721ad6de6f6c865","","","","","1222",""," ","key"," ","16.667055555555432","500","250","inst","","","","","","",""
"","psychophysics","143","485834","0.0-143.0","62ed28c7c3eda61e8bed0c7e","64e5072a2721ad6de6f6c865","","","","","3630",""," ","key"," ","16.667382488479195","500","250","br","-29","1","1","-21","-2","22","287"
"","psychophysics","144","488426","0.0-144.0","62ed28c7c3eda61e8bed0c7e","64e5072a2721ad6de6f6c865","","","","","2590",""," ","key"," ","16.667012987012807","500","250","br","-25","1","1","-25","-7","22","258"
"","psychophysics","145","491379","0.0-145.0","62ed28c7c3eda61e8bed0c7e","64e5072a2721ad6de6f6c865","","","","","2949",""," ","key"," ","16.666858757062062","500","250","br","-26","1","1","-29","-10","29","275"
"","psychophysics","146","494650","0.0-146.0","62ed28c7c3eda61e8bed0c7e","64e5072a2721ad6de6f6c865","","","","","3269",""," ","key"," ","16.666820512820358","500","250","br","-17","1","1","17","-21","-10","213"
"","psychophysics","147","498131","0.0-147.0","62ed28c7c3eda61e8bed0c7e","64e5072a2721ad6de6f6c865","","","","","3479",""," ","key"," ","16.666894230769124","500","250","br","-22","1","1","-3","18","13","245"
"","psychophysics","148","501698","0.0-148.0","62ed28c7c3eda61e8bed0c7e","64e5072a2721ad6de6f6c865","","","","","3566",""," ","key"," ","16.666929577464707","500","250","br","-24","1","1","7","-12","9","254"
"","psychophysics","149","505779","0.0-149.0","62ed28c7c3eda61e8bed0c7e","64e5072a2721ad6de6f6c865","","","","","4079",""," ","key"," ","16.66684426229493","500","250","br","-21","1","1","25","24","27","271"
"","psychophysics","150","509498","0.0-150.0","62ed28c7c3eda61e8bed0c7e","64e5072a2721ad6de6f6c865","","","","","3717",""," ","key"," ","16.66686486486484","500","250","br","-22","1","1","-16","-2","22","210"
"","psychophysics","151","511970","0.0-151.0","62ed28c7c3eda61e8bed0c7e","64e5072a2721ad6de6f6c865","","","","","2470",""," ","key"," ","16.66678911564653","500","250","br","-21","1","1","21","-6","7","230"
"","psychophysics","152","514626","0.0-152.0","62ed28c7c3eda61e8bed0c7e","64e5072a2721ad6de6f6c865","","","","","2654",""," ","key"," ","16.66687341772139","500","250","br","-21","1","1","-22","6","9","258"
"","psychophysics","153","518914","0.0-153.0","62ed28c7c3eda61e8bed0c7e","64e5072a2721ad6de6f6c865","","","","","4285",""," ","key"," ","16.666875486381276","500","250","br","-21","1","1","-11","-9","22","213"
"","psychophysics","154","523138","0.0-154.0","62ed28c7c3eda61e8bed0c7e","64e5072a2721ad6de6f6c865","","","","","4222",""," ","key"," ","16.66689682539713","500","250","br","-26","1","1","-25","16","23","297"
"","psychophysics","155","526314","0.0-155.0","62ed28c7c3eda61e8bed0c7e","64e5072a2721ad6de6f6c865","","","","","3174",""," ","key"," ","16.66691578947326","500","250","br","-22","1","1","26","-23","10","216"
"","psychophysics","156","530634","0.0-156.0","62ed28c7c3eda61e8bed0c7e","64e5072a2721ad6de6f6c865","","","","","4318",""," ","key"," ","16.66661627907008","500","250","br","-29","1","1","-26","7","25","266"
"","psychophysics","157","533170","0.0-157.0","62ed28c7c3eda61e8bed0c7e","64e5072a2721ad6de6f6c865","","","","","2534",""," ","key"," ","16.667039735099326","500","250","br","-34","1","1","5","-8","-9","286"
"","psychophysics","158","533994","0.0-158.0","62ed28c7c3eda61e8bed0c7e","64e5072a2721ad6de6f6c865","","","","","822",""," ","key"," ","16.66695833333506","500","250","inst","","","","","","",""
"","psychophysics","159","535730","0.0-159.0","62ed28c7c3eda61e8bed0c7e","64e5072a2721ad6de6f6c865","","","","","1733",""," ","key"," ","16.666855769230796","500","250","instPz1","25","1","","","","25","50"
"","psychophysics","160","536362","0.0-160.0","62ed28c7c3eda61e8bed0c7e","64e5072a2721ad6de6f6c865","","","","","630",""," ","key"," ","16.666702702704413","500","250","instPz2","35","1","","","","35","20"
"","psychophysics","161","537354","0.0-161.0","62ed28c7c3eda61e8bed0c7e","64e5072a2721ad6de6f6c865","","","","","989",""," ","key"," ","16.666948275861394","500","250","instPz3","100","1","","","","100","30"
"","psychophysics","162","538114","0.0-162.0","62ed28c7c3eda61e8bed0c7e","64e5072a2721ad6de6f6c865","","","","","758",""," ","key"," ","16.667155555555492","500","250","instPz4","100","1","","","","100","30"
"","psychophysics","163","539915","0.0-163.0","62ed28c7c3eda61e8bed0c7e","64e5072a2721ad6de6f6c865","","","","","1799",""," ","key"," ","16.66693457944001","500","250","inst","","","","","","",""
"","psychophysics","164","545650","0.0-164.0","62ed28c7c3eda61e8bed0c7e","64e5072a2721ad6de6f6c865","","","","","5733",""," ","key"," ","16.66679008746365","500","250","pz","89","1","1","","","58","54"
"","psychophysics","165","549529","0.0-165.0","62ed28c7c3eda61e8bed0c7e","64e5072a2721ad6de6f6c865","","","","","3877",""," ","key"," ","16.666810344827887","500","250","pz","88","1","1","","","38","47"
"","psychophysics","166","552314","0.0-166.0","62ed28c7c3eda61e8bed0c7e","64e5072a2721ad6de6f6c865","","","","","2782",""," ","key"," ","16.666891566265225","500","250","pz","92","1","1","","","40","43"
"","psychophysics","167","554818","0.0-167.0","62ed28c7c3eda61e8bed0c7e","64e5072a2721ad6de6f6c865","","","","","2502",""," ","key"," ","16.666785234899493","500","250","pz","77","1","1","","","30","47"
"","psychophysics","168","557410","0.0-168.0","62ed28c7c3eda61e8bed0c7e","64e5072a2721ad6de6f6c865","","","","","2590",""," ","key"," ","16.666974025974262","500","250","pz","40","1","1","","","26","20"
"","psychophysics","169","561506","0.0-169.0","62ed28c7c3eda61e8bed0c7e","64e5072a2721ad6de6f6c865","","","","","4093",""," ","key"," ","16.66693469387745","500","250","pz","124","1","1","","","47","59"
"","psychophysics","170","565010","0.0-170.0","62ed28c7c3eda61e8bed0c7e","64e5072a2721ad6de6f6c865","","","","","3502",""," ","key"," ","16.66683732057391","500","250","pz","125","1","1","","","58","59"
"","psychophysics","171","568554","0.0-171.0","62ed28c7c3eda61e8bed0c7e","64e5072a2721ad6de6f6c865","","","","","3541",""," ","key"," ","16.666683962263875","500","250","pz","94","1","1","","","30","58"
"","psychophysics","172","572026","0.0-172.0","62ed28c7c3eda61e8bed0c7e","64e5072a2721ad6de6f6c865","","","","","3470",""," ","key"," ","16.66709178743956","500","250","pz","103","1","1","","","29","60"
"","psychophysics","173","574329","0.0-173.0","62ed28c7c3eda61e8bed0c7e","64e5072a2721ad6de6f6c865","","","","","2302",""," ","key"," ","16.666963768116556","500","250","pz","76","1","1","","","39","39"
"","psychophysics","174","577410","0.0-174.0","62ed28c7c3eda61e8bed0c7e","64e5072a2721ad6de6f6c865","","","","","3078",""," ","key"," ","16.666819672131417","500","250","pz","89","1","1","","","55","53"
"","psychophysics","175","581650","0.0-175.0","62ed28c7c3eda61e8bed0c7e","64e5072a2721ad6de6f6c865","","","","","4237",""," ","key"," ","16.666921259842695","500","250","pz","95","1","1","","","23","58"
"","psychophysics","176","584042","0.0-176.0","62ed28c7c3eda61e8bed0c7e","64e5072a2721ad6de6f6c865","","","","","2390",""," ","key"," ","16.66684507042281","500","250","pz","90","1","1","","","51","47"
"","psychophysics","177","586306","0.0-177.0","62ed28c7c3eda61e8bed0c7e","64e5072a2721ad6de6f6c865","","","","","2262",""," ","key"," ","16.66692592592617","500","250","pz","67","1","1","","","51","32"
"","psychophysics","178","592314","0.0-178.0","62ed28c7c3eda61e8bed0c7e","64e5072a2721ad6de6f6c865","","","","","6006",""," ","key"," ","16.666908333333172","500","250","pz","113","1","1","","","29","56"
"","psychophysics","179","593066","0.0-179.0","62ed28c7c3eda61e8bed0c7e","64e5072a2721ad6de6f6c865","","","","","750",""," ","key"," ","16.666749999998668","500","250","inst","","","","","","",""
"","psychophysics","180","597010","0.0-180.0","62ed28c7c3eda61e8bed0c7e","64e5072a2721ad6de6f6c865","","","","","3942",""," ","key"," ","16.666991489361774","500","250","instEB1","41","1","","0","0","40","30"
"","psychophysics","181","598458","0.0-181.0","62ed28c7c3eda61e8bed0c7e","64e5072a2721ad6de6f6c865","","","","","1445",""," ","key"," ","16.666883720929714","500","250","instEB2","29","1","","0","0","30","40"
"","psychophysics","182","598994","0.0-182.0","62ed28c7c3eda61e8bed0c7e","64e5072a2721ad6de6f6c865","","","","","534",""," ","key"," ","16.66703225806686","500","250","instEB3","27","1","","0","0","27","45"
"","psychophysics","183","599458","0.0-183.0","62ed28c7c3eda61e8bed0c7e","64e5072a2721ad6de6f6c865","","","","","461",""," ","key"," ","16.66681481481323","500","250","instEB4","40","1","","0","0","40","30"
"","psychophysics","184","600042","0.0-184.0","62ed28c7c3eda61e8bed0c7e","64e5072a2721ad6de6f6c865","","","","","582",""," ","key"," ","16.6671176470597","500","250","inst","","","","","","",""
"","psychophysics","185","602563","0.0-185.0","62ed28c7c3eda61e8bed0c7e","64e5072a2721ad6de6f6c865","","","","","2519",""," ","key"," ","16.666999999999643","500","250","eb","47","1","","0","0","39","53"
"","psychophysics","186","604810","0.0-186.0","62ed28c7c3eda61e8bed0c7e","64e5072a2721ad6de6f6c865","","","","","2245",""," ","key"," ","16.666849624060088","500","250","eb","42","1","","0","0","25","47"
"","psychophysics","187","608346","0.0-187.0","62ed28c7c3eda61e8bed0c7e","64e5072a2721ad6de6f6c865","","","","","3533",""," ","key"," ","16.666896226415016","500","250","eb","30","1","","0","0","34","38"
"","psychophysics","188","610026","0.0-188.0","62ed28c7c3eda61e8bed0c7e","64e5072a2721ad6de6f6c865","","","","","1677",""," ","key"," ","16.66670707070664","500","250","eb","26","1","","0","0","34","35"
"","psychophysics","189","611490","0.0-189.0","62ed28c7c3eda61e8bed0c7e","64e5072a2721ad6de6f6c865","","","","","1462",""," ","key"," ","16.666827586207848","500","250","eb","38","1","","0","0","39","48"
"","psychophysics","190","613314","0.0-190.0","62ed28c7c3eda61e8bed0c7e","64e5072a2721ad6de6f6c865","","","","","1822",""," ","key"," ","16.66691743119282","500","250","eb","42","1","","0","0","39","46"
"","psychophysics","191","616658","0.0-191.0","62ed28c7c3eda61e8bed0c7e","64e5072a2721ad6de6f6c865","","","","","3342",""," ","key"," ","16.66681909547702","500","250","eb","24","1","","0","0","27","26"
"","psychophysics","192","618737","0.0-192.0","62ed28c7c3eda61e8bed0c7e","64e5072a2721ad6de6f6c865","","","","","2077",""," ","key"," ","16.666935483870592","500","250","eb","40","1","","0","0","35","42"
"","psychophysics","193","620905","0.0-193.0","62ed28c7c3eda61e8bed0c7e","64e5072a2721ad6de6f6c865","","","","","2166",""," ","key"," ","16.666604651163453","500","250","eb","37","1","","0","0","42","37"
"","psychophysics","194","624002","0.0-194.0","62ed28c7c3eda61e8bed0c7e","64e5072a2721ad6de6f6c865","","","","","3094",""," ","key"," ","16.666837837837786","500","250","eb","33","1","","0","0","49","34"
"","psychophysics","195","626250","0.0-195.0","62ed28c7c3eda61e8bed0c7e","64e5072a2721ad6de6f6c865","","","","","2246",""," ","key"," ","16.666970149254247","500","250","eb","36","1","","0","0","26","40"
"","psychophysics","196","627842","0.0-196.0","62ed28c7c3eda61e8bed0c7e","64e5072a2721ad6de6f6c865","","","","","1590",""," ","key"," ","16.666542553191785","500","250","eb","33","1","","0","0","28","33"
"","psychophysics","197","630001","0.0-197.0","62ed28c7c3eda61e8bed0c7e","64e5072a2721ad6de6f6c865","","","","","2158",""," ","key"," ","16.666883720929714","500","250","eb","46","1","","0","0","36","48"
"","psychophysics","198","632210","0.0-198.0","62ed28c7c3eda61e8bed0c7e","64e5072a2721ad6de6f6c865","","","","","2206",""," ","key"," ","16.666908396946493","500","250","eb","46","1","","0","0","49","48"
"","psychophysics","199","634010","0.0-199.0","62ed28c7c3eda61e8bed0c7e","64e5072a2721ad6de6f6c865","","","","","1797",""," ","key"," ","16.666990654205765","500","250","eb","46","1","","0","0","54","49"
"","psychophysics","200","635201","0.0-200.0","62ed28c7c3eda61e8bed0c7e","64e5072a2721ad6de6f6c865","","","","","1190",""," ","key"," ","16.66671830985833","500","250","inst","","","","","","",""
"","psychophysics","201","636865","0.0-201.0","62ed28c7c3eda61e8bed0c7e","64e5072a2721ad6de6f6c865","","","","","1662",""," ","key"," ","16.66705050504992","500","250","instPog0","190","1","","0","0","190","160"
"","psychophysics","202","638386","0.0-202.0","62ed28c7c3eda61e8bed0c7e","64e5072a2721ad6de6f6c865","","","","","1519",""," ","key"," ","16.666799999999867","500","250","instPog1","202","1","","0","0","190","160"
"","psychophysics","203","638890","0.0-203.0","62ed28c7c3eda61e8bed0c7e","64e5072a2721ad6de6f6c865","","","","","502",""," ","key"," ","16.66724137930954","500","250","instPog2","160","1","","0","0","160","160"
"","psychophysics","204","639417","0.0-204.0","62ed28c7c3eda61e8bed0c7e","64e5072a2721ad6de6f6c865","","","","","526",""," ","key"," ","16.66667741935535","500","250","inst","","","","","","",""
"","psychophysics","205","640947","0.0-205.0","62ed28c7c3eda61e8bed0c7e","64e5072a2721ad6de6f6c865","","","","","1528",""," ","key"," ","16.667373626373944","500","250","pog","224","1","1","0","0","212","191"
"","psychophysics","206","646369","0.0-206.0","62ed28c7c3eda61e8bed0c7e","64e5072a2721ad6de6f6c865","","","","","5421",""," ","key"," ","16.666790123456547","500","250","pog","160","1","1","0","0","220","120"
"","psychophysics","207","648970","0.0-207.0","62ed28c7c3eda61e8bed0c7e","64e5072a2721ad6de6f6c865","","","","","2598",""," ","key"," ","16.66683870967733","500","250","pog","190","1","1","0","0","134","150"
"","psychophysics","208","654514","0.0-208.0","62ed28c7c3eda61e8bed0c7e","64e5072a2721ad6de6f6c865","","","","","5543",""," ","key"," ","16.666849397590273","500","250","pog","185","1","1","0","0","157","154"
"","psychophysics","209","659154","0.0-209.0","62ed28c7c3eda61e8bed0c7e","64e5072a2721ad6de6f6c865","","","","","4637",""," ","key"," ","16.666906137184142","500","250","pog","234","1","1","0","0","174","190"
"","psychophysics","210","661873","0.0-210.0","62ed28c7c3eda61e8bed0c7e","64e5072a2721ad6de6f6c865","","","","","2718",""," ","key"," ","16.666783950617106","500","250","pog","189","1","1","0","0","153","155"
"","psychophysics","211","664786","0.0-211.0","62ed28c7c3eda61e8bed0c7e","64e5072a2721ad6de6f6c865","","","","","2910",""," ","key"," ","16.666931034483273","500","250","pog","216","1","1","0","0","120","184"
"","psychophysics","212","666457","0.0-212.0","62ed28c7c3eda61e8bed0c7e","64e5072a2721ad6de6f6c865","","","","","1670",""," ","key"," ","16.66734343434383","500","250","pog","201","1","1","0","0","173","168"
"","psychophysics","213","670721","0.0-213.0","62ed28c7c3eda61e8bed0c7e","64e5072a2721ad6de6f6c865","","","","","4262",""," ","key"," ","16.66693725490203","500","250","pog","227","1","1","0","0","109","198"
"","psychophysics","214","675681","0.0-214.0","62ed28c7c3eda61e8bed0c7e","64e5072a2721ad6de6f6c865","","","","","4958",""," ","key"," ","16.666855218855158","500","250","pog","223","1","1","0","0","107","196"
"","psychophysics","215","677353","0.0-215.0","62ed28c7c3eda61e8bed0c7e","64e5072a2721ad6de6f6c865","","","","","1670",""," ","key"," ","16.666868686868874","500","250","pog","170","1","1","0","0","172","140"
"","psychophysics","216","680881","0.0-216.0","62ed28c7c3eda61e8bed0c7e","64e5072a2721ad6de6f6c865","","","","","3526",""," ","key"," ","16.66690047393372","500","250","pog","179","1","1","0","0","145","150"
"","psychophysics","217","682785","0.0-217.0","62ed28c7c3eda61e8bed0c7e","64e5072a2721ad6de6f6c865","","","","","1902",""," ","key"," ","16.666840707964628","500","250","pog","196","1","1","0","0","200","161"
"","psychophysics","218","685705","0.0-218.0","62ed28c7c3eda61e8bed0c7e","64e5072a2721ad6de6f6c865","","","","","2918",""," ","key"," ","16.666643678160497","500","250","pog","227","1","1","0","0","151","189"
"","psychophysics","219","688937","0.0-219.0","62ed28c7c3eda61e8bed0c7e","64e5072a2721ad6de6f6c865","","","","","3230",""," ","key"," ","16.666704663212432","500","250","pog","228","1","1","0","0","112","195"
