"success","trial_type","trial_index","time_elapsed","internal_node_id","pid","sid","timeout","failed_images","failed_audio","failed_video","rt","stimulus","response","response_type","key_press","avg_frame_time","center_x","center_y","task","resp","version","block","start","jitterX","jitterY","parA"
"true","fullscreen","0","2300","0.0-0.0","5bd213b594403600013e37d9","64e510e3e25a06a869e65747","","","","","","","","","","","","","","","","","","","",""
"true","preload","1","2390","0.0-1.0","5bd213b594403600013e37d9","64e510e3e25a06a869e65747","false","[]","[]","[]","","","","","","","","","","","","","","","",""
"","html-button-response","2","22291","0.0-2.0","5bd213b594403600013e37d9","64e510e3e25a06a869e65747","","","","","19901","Please Make Sure Your Audio Is On.","0","","","","","","","","","","","","",""
"","psychophysics","3","28790","0.0-3.0","5bd213b594403600013e37d9","64e510e3e25a06a869e65747","","","","","6497",""," ","key"," ","16.680550128534705","960","250","","","","","","","",""
"","psychophysics","4","31239","0.0-4.0","5bd213b594403600013e37d9","64e510e3e25a06a869e65747","","","","","2447",""," ","key"," ","16.680472602739716","500","250","inst","","","","","","",""
"","psychophysics","5","35030","0.0-5.0","5bd213b594403600013e37d9","64e510e3e25a06a869e65747","","","","","3790",""," ","key"," ","16.680473451327433","500","250","sample0","","","","","","",""
"","psychophysics","6","37567","0.0-6.0","5bd213b594403600013e37d9","64e510e3e25a06a869e65747","","","","","2536",""," ","key"," ","16.68065562913909","500","250","sample1","","","","","","",""
"","psychophysics","7","45608","0.0-7.0","5bd213b594403600013e37d9","64e510e3e25a06a869e65747","","","","","8039",""," ","key"," ","16.6805343035343","500","250","sample2","102","","","","","",""
"","psychophysics","8","49657","0.0-8.0","5bd213b594403600013e37d9","64e510e3e25a06a869e65747","","","","","4048",""," ","key"," ","16.68067768595042","500","250","sample3","100","","","","","",""
"","psychophysics","9","53353","0.0-9.0","5bd213b594403600013e37d9","64e510e3e25a06a869e65747","","","","","3696",""," ","key"," ","16.68082727272727","500","250","sample4","104","","","","","",""
"","psychophysics","10","58274","0.0-10.0","5bd213b594403600013e37d9","64e510e3e25a06a869e65747","","","","","4919",""," ","key"," ","16.680268707483005","500","250","sample5","","","","","","",""
"","psychophysics","11","63842","0.0-11.0","5bd213b594403600013e37d9","64e510e3e25a06a869e65747","","","","","5568",""," ","key"," ","16.681042042042055","500","250","sample6","500","","","","","",""
"","psychophysics","12","65458","0.0-12.0","5bd213b594403600013e37d9","64e510e3e25a06a869e65747","","","","","1615",""," ","key"," ","16.682854166666704","500","250","inst","","","","","","",""
"","psychophysics","13","67955","0.0-13.0","5bd213b594403600013e37d9","64e510e3e25a06a869e65747","","","","","2496",""," ","key"," ","16.680644295302095","500","250","inst","","","","","","",""
"","psychophysics","14","69667","0.0-14.0","5bd213b594403600013e37d9","64e510e3e25a06a869e65747","","","","","1711",""," ","key"," ","16.680732673267336","500","250","inst","","","","","","",""
"","psychophysics","15","70355","0.0-15.0","5bd213b594403600013e37d9","64e510e3e25a06a869e65747","","","","","687",""," ","key"," ","16.6750975609757","500","250","inst","","","","","","",""
"","psychophysics","16","71043","0.0-16.0","5bd213b594403600013e37d9","64e510e3e25a06a869e65747","","","","","687",""," ","key"," ","16.68070000000007","500","250","inst","","","","","","",""
"","psychophysics","17","74084","0.0-17.0","5bd213b594403600013e37d9","64e510e3e25a06a869e65747","","","","","3040",""," ","key"," ","16.68077348066299","500","250","instEB0","40","1","","40","0","0","40"
"","psychophysics","18","79157","0.0-18.0","5bd213b594403600013e37d9","64e510e3e25a06a869e65747","","","","","5072",""," ","key"," ","16.680600660066037","500","250","instEB1","31","1","","40","0","0","30"
"","psychophysics","19","85830","0.0-19.0","5bd213b594403600013e37d9","64e510e3e25a06a869e65747","","","","","6672",""," ","key"," ","16.680879699248127","500","250","instEB2","35","1","","30","0","0","40"
"","psychophysics","20","92767","0.0-20.0","5bd213b594403600013e37d9","64e510e3e25a06a869e65747","","","","","6936",""," ","key"," ","16.68061927710842","500","250","instEB3","38","1","","27","0","0","45"
"","psychophysics","21","100352","0.0-21.0","5bd213b594403600013e37d9","64e510e3e25a06a869e65747","","","","","7584",""," ","key"," ","16.680689427312767","500","250","instEB4","24","1","","40","0","0","30"
"","psychophysics","22","101480","0.0-22.0","5bd213b594403600013e37d9","64e510e3e25a06a869e65747","","","","","1127",""," ","key"," ","16.68031818181815","500","250","inst","","","","","","",""
"","psychophysics","23","104744","0.0-23.0","5bd213b594403600013e37d9","64e510e3e25a06a869e65747","","","","","3262",""," ","key"," ","16.680887179487186","500","250","eb","24","1","","24","0","0","31"
"","psychophysics","24","109345","0.0-24.0","5bd213b594403600013e37d9","64e510e3e25a06a869e65747","","","","","4599",""," ","key"," ","16.68057090909093","500","250","eb","31","1","","26","0","0","42"
"","psychophysics","25","114281","0.0-25.0","5bd213b594403600013e37d9","64e510e3e25a06a869e65747","","","","","4935",""," ","key"," ","16.680593220339013","500","250","eb","41","1","","50","0","0","46"
"","psychophysics","26","119491","0.0-26.0","5bd213b594403600013e37d9","64e510e3e25a06a869e65747","","","","","5208",""," ","key"," ","16.681369774919624","500","250","eb","33","1","","44","0","0","40"
"","psychophysics","27","124459","0.0-27.0","5bd213b594403600013e37d9","64e510e3e25a06a869e65747","","","","","4966",""," ","key"," ","16.68049494949496","500","250","eb","37","1","","54","0","0","42"
"","psychophysics","28","129275","0.0-28.0","5bd213b594403600013e37d9","64e510e3e25a06a869e65747","","","","","4815",""," ","key"," ","16.680444444444422","500","250","eb","37","1","","25","0","0","46"
"","psychophysics","29","135261","0.0-29.0","5bd213b594403600013e37d9","64e510e3e25a06a869e65747","","","","","5984",""," ","key"," ","16.68077094972067","500","250","eb","26","1","","52","0","0","28"
"","psychophysics","30","138621","0.0-30.0","5bd213b594403600013e37d9","64e510e3e25a06a869e65747","","","","","3358",""," ","key"," ","16.680464999999966","500","250","eb","26","1","","27","0","0","28"
"","psychophysics","31","144021","0.0-31.0","5bd213b594403600013e37d9","64e510e3e25a06a869e65747","","","","","5400",""," ","key"," ","16.68091331269349","500","250","eb","32","1","","28","0","0","39"
"","psychophysics","32","147430","0.0-32.0","5bd213b594403600013e37d9","64e510e3e25a06a869e65747","","","","","3408",""," ","key"," ","16.680492610837508","500","250","eb","24","1","","43","0","0","24"
"","psychophysics","33","152079","0.0-33.0","5bd213b594403600013e37d9","64e510e3e25a06a869e65747","","","","","4647",""," ","key"," ","16.68066906474829","500","250","eb","30","1","","45","0","0","38"
"","psychophysics","34","157376","0.0-34.0","5bd213b594403600013e37d9","64e510e3e25a06a869e65747","","","","","5295",""," ","key"," ","16.6811139240506","500","250","eb","35","1","","28","0","0","45"
"","psychophysics","35","161992","0.0-35.0","5bd213b594403600013e37d9","64e510e3e25a06a869e65747","","","","","4615",""," ","key"," ","16.680684782608612","500","250","eb","29","1","","52","0","0","35"
"","psychophysics","36","167585","0.0-36.0","5bd213b594403600013e37d9","64e510e3e25a06a869e65747","","","","","5592",""," ","key"," ","16.679826865671725","500","250","eb","42","1","","53","0","0","53"
"","psychophysics","37","171490","0.0-37.0","5bd213b594403600013e37d9","64e510e3e25a06a869e65747","","","","","3903",""," ","key"," ","16.680356223175906","500","250","eb","44","1","","35","0","0","54"
"","psychophysics","38","173242","0.0-38.0","5bd213b594403600013e37d9","64e510e3e25a06a869e65747","","","","","1751",""," ","key"," ","16.680375000000193","500","250","inst","","","","","","",""
"","psychophysics","39","176355","0.0-39.0","5bd213b594403600013e37d9","64e510e3e25a06a869e65747","","","","","3111",""," ","key"," ","16.680578378378414","500","250","instBr0","0","","","0","0","0","300"
"","psychophysics","40","180828","0.0-40.0","5bd213b594403600013e37d9","64e510e3e25a06a869e65747","","","","","4472",""," ","key"," ","16.680415730337085","500","250","instBr1","16","","","-40","0","0","300"
"","psychophysics","41","183796","0.0-41.0","5bd213b594403600013e37d9","64e510e3e25a06a869e65747","","","","","2967",""," ","key"," ","16.68122598870051","500","250","instBr3","27","2","","40","0","0","300"
"","psychophysics","42","184476","0.0-42.0","5bd213b594403600013e37d9","64e510e3e25a06a869e65747","","","","","679",""," ","key"," ","16.679725000000325","500","250","inst","","","","","","",""
"","psychophysics","43","187413","0.0-43.0","5bd213b594403600013e37d9","64e510e3e25a06a869e65747","","","","","2935",""," ","key"," ","16.680680000000034","500","250","br","33","2","0","5","-25","22","265"
"","psychophysics","44","190293","0.0-44.0","5bd213b594403600013e37d9","64e510e3e25a06a869e65747","","","","","2879",""," ","key"," ","16.68086046511632","500","250","br","26","2","0","-23","13","3","245"
"","psychophysics","45","191621","0.0-45.0","5bd213b594403600013e37d9","64e510e3e25a06a869e65747","","","","","1327",""," ","key"," ","16.68053846153877","500","250","br","24","2","0","25","5","-18","207"
"","psychophysics","46","194350","0.0-46.0","5bd213b594403600013e37d9","64e510e3e25a06a869e65747","","","","","2727",""," ","key"," ","16.680423312883345","500","250","br","16","2","0","-14","-15","1","217"
"","psychophysics","47","195645","0.0-47.0","5bd213b594403600013e37d9","64e510e3e25a06a869e65747","","","","","1295",""," ","key"," ","16.68009090909089","500","250","br","20","2","0","20","4","11","266"
"","psychophysics","48","198182","0.0-48.0","5bd213b594403600013e37d9","64e510e3e25a06a869e65747","","","","","2536",""," ","key"," ","16.680417218542964","500","250","br","25","2","0","25","9","1","293"
"","psychophysics","49","200648","0.0-49.0","5bd213b594403600013e37d9","64e510e3e25a06a869e65747","","","","","2464",""," ","key"," ","16.680945578231405","500","250","br","16","2","0","-3","13","10","238"
"","psychophysics","50","204088","0.0-50.0","5bd213b594403600013e37d9","64e510e3e25a06a869e65747","","","","","3438",""," ","key"," ","16.680775609755997","500","250","br","21","2","0","9","28","19","251"
"","psychophysics","51","206375","0.0-51.0","5bd213b594403600013e37d9","64e510e3e25a06a869e65747","","","","","2287",""," ","key"," ","16.68122058823535","500","250","br","23","2","0","12","27","-19","252"
"","psychophysics","52","208696","0.0-52.0","5bd213b594403600013e37d9","64e510e3e25a06a869e65747","","","","","2319",""," ","key"," ","16.67940579710146","500","250","br","21","2","0","3","-10","-14","213"
"","psychophysics","53","216697","0.0-53.0","5bd213b594403600013e37d9","64e510e3e25a06a869e65747","","","","","null","","null","key","null","16.680478079331927","500","250","br","28","2","0","-26","-7","-13","279"
"","psychophysics","54","216753","0.0-54.0","5bd213b594403600013e37d9","64e510e3e25a06a869e65747","","","","","54",""," ","key"," ","16.697000000000116","500","250","br","27","2","0","27","-6","27","234"
"","psychophysics","55","221562","0.0-55.0","5bd213b594403600013e37d9","64e510e3e25a06a869e65747","","","","","4807",""," ","key"," ","16.681076655052305","500","250","br","30","2","0","-28","2","-10","275"
"","psychophysics","56","224442","0.0-56.0","5bd213b594403600013e37d9","64e510e3e25a06a869e65747","","","","","2879",""," ","key"," ","16.680500000000013","500","250","br","27","2","0","-7","-22","21","232"
"","psychophysics","57","228107","0.0-57.0","5bd213b594403600013e37d9","64e510e3e25a06a869e65747","","","","","3663",""," ","key"," ","16.680735159817377","500","250","br","29","2","0","-22","-4","2","249"
"","psychophysics","58","228851","0.0-58.0","5bd213b594403600013e37d9","64e510e3e25a06a869e65747","","","","","743",""," ","key"," ","16.683581395348842","500","250","inst","","","","","","",""
"","psychophysics","59","230163","0.0-59.0","5bd213b594403600013e37d9","64e510e3e25a06a869e65747","","","","","1311",""," ","key"," ","16.680384615384703","500","250","instPzPre","50","0","","50","","","50"
"","psychophysics","60","232811","0.0-60.0","5bd213b594403600013e37d9","64e510e3e25a06a869e65747","","","","","2647",""," ","key"," ","16.68052531645561","500","250","instPz0","50","1","","50","","","50"
"","psychophysics","61","236179","0.0-61.0","5bd213b594403600013e37d9","64e510e3e25a06a869e65747","","","","","3367",""," ","key"," ","16.680860696517428","500","250","instPz1","55","1","","25","","","50"
"","psychophysics","62","240452","0.0-62.0","5bd213b594403600013e37d9","64e510e3e25a06a869e65747","","","","","4271",""," ","key"," ","16.680698039215606","500","250","instPz2","22","1","","35","","","20"
"","psychophysics","63","244020","0.0-63.0","5bd213b594403600013e37d9","64e510e3e25a06a869e65747","","","","","3567",""," ","key"," ","16.679450704225342","500","250","instPz3","44","1","","100","","","30"
"","psychophysics","64","251229","0.0-64.0","5bd213b594403600013e37d9","64e510e3e25a06a869e65747","","","","","7208",""," ","key"," ","16.68070997679814","500","250","instPz4","53","1","","100","","","30"
"","psychophysics","65","251941","0.0-65.0","5bd213b594403600013e37d9","64e510e3e25a06a869e65747","","","","","711",""," ","key"," ","16.679119047618727","500","250","inst","","","","","","",""
"","psychophysics","66","258350","0.0-66.0","5bd213b594403600013e37d9","64e510e3e25a06a869e65747","","","","","6407",""," ","key"," ","16.680496083550928","500","250","pz","75","1","0","24","","","53"
"","psychophysics","67","260367","0.0-67.0","5bd213b594403600013e37d9","64e510e3e25a06a869e65747","","","","","2015",""," ","key"," ","16.68145000000004","500","250","pz","54","1","0","49","","","46"
"","psychophysics","68","263455","0.0-68.0","5bd213b594403600013e37d9","64e510e3e25a06a869e65747","","","","","3087",""," ","key"," ","16.680608695652115","500","250","pz","27","1","0","27","","","20"
"","psychophysics","69","268424","0.0-69.0","5bd213b594403600013e37d9","64e510e3e25a06a869e65747","","","","","4968",""," ","key"," ","16.680717171717205","500","250","pz","56","1","0","60","","","42"
"","psychophysics","70","271928","0.0-70.0","5bd213b594403600013e37d9","64e510e3e25a06a869e65747","","","","","3503",""," ","key"," ","16.680167464114966","500","250","pz","54","1","0","50","","","38"
"","psychophysics","71","274641","0.0-71.0","5bd213b594403600013e37d9","64e510e3e25a06a869e65747","","","","","2711",""," ","key"," ","16.680428571428564","500","250","pz","57","1","0","20","","","48"
"","psychophysics","72","276697","0.0-72.0","5bd213b594403600013e37d9","64e510e3e25a06a869e65747","","","","","2054",""," ","key"," ","16.679008130081154","500","250","pz","56","1","0","55","","","40"
"","psychophysics","73","280642","0.0-73.0","5bd213b594403600013e37d9","64e510e3e25a06a869e65747","","","","","3943",""," ","key"," ","16.68102978723411","500","250","pz","54","1","0","35","","","40"
"","psychophysics","74","284010","0.0-74.0","5bd213b594403600013e37d9","64e510e3e25a06a869e65747","","","","","3367",""," ","key"," ","16.68082089552254","500","250","pz","29","1","0","36","","","23"
"","psychophysics","75","288147","0.0-75.0","5bd213b594403600013e37d9","64e510e3e25a06a869e65747","","","","","4135",""," ","key"," ","16.68091497975727","500","250","pz","32","1","0","25","","","22"
"","psychophysics","76","296148","0.0-76.0","5bd213b594403600013e37d9","64e510e3e25a06a869e65747","","","","","null","","null","key","null","16.680557411273412","500","250","pz","88","1","0","29","","","58"
"","psychophysics","77","296203","0.0-77.0","5bd213b594403600013e37d9","64e510e3e25a06a869e65747","","","","","54",""," ","key"," ","16.589000000007218","500","250","pz","36","1","0","36","","","27"
"","psychophysics","78","299068","0.0-78.0","5bd213b594403600013e37d9","64e510e3e25a06a869e65747","","","","","2863",""," ","key"," ","16.679783625730753","500","250","pz","64","1","0","49","","","46"
"","psychophysics","79","302780","0.0-79.0","5bd213b594403600013e37d9","64e510e3e25a06a869e65747","","","","","3711",""," ","key"," ","16.679733031674033","500","250","pz","57","1","0","42","","","44"
"","psychophysics","80","305957","0.0-80.0","5bd213b594403600013e37d9","64e510e3e25a06a869e65747","","","","","3174",""," ","key"," ","16.681210526315752","500","250","pz","36","1","0","33","","","30"
"","psychophysics","81","418221","0.0-81.0","5bd213b594403600013e37d9","64e510e3e25a06a869e65747","","","","","112264",""," ","key"," ","16.680634715410903","500","250","inst","","","","","","",""
"","psychophysics","82","420333","0.0-82.0","5bd213b594403600013e37d9","64e510e3e25a06a869e65747","","","","","2110",""," ","key"," ","16.68014285714266","500","250","instZol0","0","","","0","0","0",""
"","psychophysics","83","427046","0.0-83.0","5bd213b594403600013e37d9","64e510e3e25a06a869e65747","","","","","6712",""," ","key"," ","16.680758104738146","500","250","instZol1","2.7755575615628914e-17","","","-1.3","0","0",""
"","psychophysics","84","432535","0.0-84.0","5bd213b594403600013e37d9","64e510e3e25a06a869e65747","","","","","5487",""," ","key"," ","16.680597560975713","500","250","instZol2","-1.6999999999999997","2","","2","0","0",""
"","psychophysics","85","433279","0.0-85.0","5bd213b594403600013e37d9","64e510e3e25a06a869e65747","","","","","743",""," ","key"," ","16.681500000000764","500","250","inst","","","","","","",""
"","psychophysics","86","439544","0.0-86.0","5bd213b594403600013e37d9","64e510e3e25a06a869e65747","","","","","6263",""," ","key"," ","16.680256684491894","500","250","zol","-1.11","2","0","-0.49","27","25",""
"","psychophysics","87","441882","0.0-87.0","5bd213b594403600013e37d9","64e510e3e25a06a869e65747","","","","","2336",""," ","key"," ","16.679657142857156","500","250","zol","-1.15","2","0","-0.55","7","-8",""
"","psychophysics","88","444337","0.0-88.0","5bd213b594403600013e37d9","64e510e3e25a06a869e65747","","","","","2452",""," ","key"," ","16.680931506849497","500","250","zol","-1.4800000000000004","2","0","-0.42","25","8",""
"","psychophysics","89","446121","0.0-89.0","5bd213b594403600013e37d9","64e510e3e25a06a869e65747","","","","","1782",""," ","key"," ","16.68062264150951","500","250","zol","-1.8600000000000008","2","0","0.46","14","16",""
"","psychophysics","90","449010","0.0-90.0","5bd213b594403600013e37d9","64e510e3e25a06a869e65747","","","","","2887",""," ","key"," ","16.68058720930225","500","250","zol","-1.3500000000000003","2","0","0.45","-12","19",""
"","psychophysics","91","451858","0.0-91.0","5bd213b594403600013e37d9","64e510e3e25a06a869e65747","","","","","2847",""," ","key"," ","16.68027647058822","500","250","zol","-1.5100000000000005","2","0","0.71","-29","-12",""
"","psychophysics","92","454163","0.0-92.0","5bd213b594403600013e37d9","64e510e3e25a06a869e65747","","","","","2304",""," ","key"," ","16.680335766423397","500","250","zol","-1.0999999999999999","2","0","0.6","4","0",""
"","psychophysics","93","457259","0.0-93.0","5bd213b594403600013e37d9","64e510e3e25a06a869e65747","","","","","3094",""," ","key"," ","16.680331521739035","500","250","zol","-1.5200000000000005","2","0","0.22","-29","6",""
"","psychophysics","94","460572","0.0-94.0","5bd213b594403600013e37d9","64e510e3e25a06a869e65747","","","","","3311",""," ","key"," ","16.679742424242313","500","250","zol","-1.5100000000000005","2","0","0.51","-26","22",""
"","psychophysics","95","464892","0.0-95.0","5bd213b594403600013e37d9","64e510e3e25a06a869e65747","","","","","4319",""," ","key"," ","16.68049224806194","500","250","zol","-1.6100000000000005","2","0","0.01","6","-9",""
"","psychophysics","96","467196","0.0-96.0","5bd213b594403600013e37d9","64e510e3e25a06a869e65747","","","","","2303",""," ","key"," ","16.680313868612988","500","250","zol","-0.9799999999999999","2","0","-0.12","29","27",""
"","psychophysics","97","471013","0.0-97.0","5bd213b594403600013e37d9","64e510e3e25a06a869e65747","","","","","3815",""," ","key"," ","16.68054824561394","500","250","zol","-0.8999999999999999","2","0","-0.7","4","16",""
"","psychophysics","98","473333","0.0-98.0","5bd213b594403600013e37d9","64e510e3e25a06a869e65747","","","","","2318",""," ","key"," ","16.680521739130516","500","250","zol","-1.37","2","0","0.37","0","-27",""
"","psychophysics","99","476805","0.0-99.0","5bd213b594403600013e37d9","64e510e3e25a06a869e65747","","","","","3471",""," ","key"," ","16.68059903381624","500","250","zol","-1.0799999999999998","2","0","-0.12","-26","6",""
"","psychophysics","100","480302","0.0-100.0","5bd213b594403600013e37d9","64e510e3e25a06a869e65747","","","","","3495",""," ","key"," ","16.680502392344664","500","250","zol","-1.14","2","0","0.24","21","2",""
"","psychophysics","101","487783","0.0-101.0","5bd213b594403600013e37d9","64e510e3e25a06a869e65747","","","","","7480",""," ","key"," ","16.68038255033556","500","250","inst","","","","","","",""
"","psychophysics","102","493960","0.0-102.0","5bd213b594403600013e37d9","64e510e3e25a06a869e65747","","","","","6176",""," ","key"," ","16.68054324324334","500","250","instPog0","160","1","","190","0","0","160"
"","psychophysics","103","497112","0.0-103.0","5bd213b594403600013e37d9","64e510e3e25a06a869e65747","","","","","3151",""," ","key"," ","16.680367021276826","500","250","instPog1","156","1","","190","0","0","160"
"","psychophysics","104","503321","0.0-104.0","5bd213b594403600013e37d9","64e510e3e25a06a869e65747","","","","","6208",""," ","key"," ","16.680838274932654","500","250","instPog2","178","1","","160","0","0","160"
"","psychophysics","105","503873","0.0-105.0","5bd213b594403600013e37d9","64e510e3e25a06a869e65747","","","","","551",""," ","key"," ","16.680124999998952","500","250","inst","","","","","","",""
"","psychophysics","106","506986","0.0-106.0","5bd213b594403600013e37d9","64e510e3e25a06a869e65747","","","","","3111",""," ","key"," ","16.681454054053834","500","250","pog","210","1","0","166","0","0","188"
"","psychophysics","107","510266","0.0-107.0","5bd213b594403600013e37d9","64e510e3e25a06a869e65747","","","","","3279",""," ","key"," ","16.680586734693676","500","250","pog","219","1","0","193","0","0","197"
"","psychophysics","108","514387","0.0-108.0","5bd213b594403600013e37d9","64e510e3e25a06a869e65747","","","","","4119",""," ","key"," ","16.680544715447112","500","250","pog","156","1","0","218","0","0","126"
"","psychophysics","109","519187","0.0-109.0","5bd213b594403600013e37d9","64e510e3e25a06a869e65747","","","","","4800",""," ","key"," ","16.680668989547087","500","250","pog","190","1","0","216","0","0","166"
"","psychophysics","110","523861","0.0-110.0","5bd213b594403600013e37d9","64e510e3e25a06a869e65747","","","","","4672",""," ","key"," ","16.68126523297482","500","250","pog","189","1","0","155","0","0","174"
"","psychophysics","111","528037","0.0-111.0","5bd213b594403600013e37d9","64e510e3e25a06a869e65747","","","","","4175",""," ","key"," ","16.680428000000305","500","250","pog","163","1","0","139","0","0","145"
"","psychophysics","112","536040","0.0-112.0","5bd213b594403600013e37d9","64e510e3e25a06a869e65747","","","","","null","","null","key","null","16.68065481171549","500","250","pog","187","1","0","163","0","0","166"
"","psychophysics","113","541928","0.0-113.0","5bd213b594403600013e37d9","64e510e3e25a06a869e65747","","","","","5887",""," ","key"," ","16.680863636363608","500","250","pog","161","1","0","179","0","0","147"
"","psychophysics","114","546440","0.0-114.0","5bd213b594403600013e37d9","64e510e3e25a06a869e65747","","","","","4511",""," ","key"," ","16.680162962962857","500","250","pog","211","1","0","215","0","0","191"
"","psychophysics","115","550681","0.0-115.0","5bd213b594403600013e37d9","64e510e3e25a06a869e65747","","","","","4239",""," ","key"," ","16.680434782608327","500","250","pog","151","1","0","181","0","0","127"
"","psychophysics","116","557890","0.0-116.0","5bd213b594403600013e37d9","64e510e3e25a06a869e65747","","","","","7208",""," ","key"," ","16.680607888631236","500","250","pog","144","1","0","184","0","0","122"
"","psychophysics","117","562794","0.0-117.0","5bd213b594403600013e37d9","64e510e3e25a06a869e65747","","","","","4903",""," ","key"," ","16.680566552900885","500","250","pog","223","1","0","217","0","0","199"
"","psychophysics","118","570187","0.0-118.0","5bd213b594403600013e37d9","64e510e3e25a06a869e65747","","","","","7392",""," ","key"," ","16.680493212669532","500","250","pog","132","1","0","132","0","0","124"
"","psychophysics","119","572411","0.0-119.0","5bd213b594403600013e37d9","64e510e3e25a06a869e65747","","","","","2223",""," ","key"," ","16.681834586466227","500","250","pog","127","1","0","113","0","0","124"
"","psychophysics","120","577476","0.0-120.0","5bd213b594403600013e37d9","64e510e3e25a06a869e65747","","","","","5063",""," ","key"," ","16.681122516556364","500","250","pog","207","1","0","143","0","0","190"
"","psychophysics","121","578021","0.0-121.0","5bd213b594403600013e37d9","64e510e3e25a06a869e65747","","","","","544",""," ","key"," ","16.68128125000294","500","250","inst","","","","","","",""
"","psychophysics","122","580773","0.0-122.0","5bd213b594403600013e37d9","64e510e3e25a06a869e65747","","","","","2751",""," ","key"," ","16.68032926829282","500","250","instZol1","0.6","","","-1.3","0","0",""
"","psychophysics","123","584101","0.0-123.0","5bd213b594403600013e37d9","64e510e3e25a06a869e65747","","","","","3327",""," ","key"," ","16.680567839195785","500","250","instZol2","6.38378239159465e-16","1","","2","0","0",""
"","psychophysics","124","584901","0.0-124.0","5bd213b594403600013e37d9","64e510e3e25a06a869e65747","","","","","799",""," ","key"," ","16.679673913043782","500","250","inst","","","","","","",""
"","psychophysics","125","586510","0.0-125.0","5bd213b594403600013e37d9","64e510e3e25a06a869e65747","","","","","1607",""," ","key"," ","16.680072916666784","500","250","zol","1.0599999999999998","1","1","-0.06","9","-2",""
"","psychophysics","126","588518","0.0-126.0","5bd213b594403600013e37d9","64e510e3e25a06a869e65747","","","","","2006",""," ","key"," ","16.68083193277287","500","250","zol","1.3600000000000003","1","1","-0.66","12","-12",""
"","psychophysics","127","590030","0.0-127.0","5bd213b594403600013e37d9","64e510e3e25a06a869e65747","","","","","1511",""," ","key"," ","16.683077777778575","500","250","zol","1.01","1","1","-0.41","21","-1",""
"","psychophysics","128","591591","0.0-128.0","5bd213b594403600013e37d9","64e510e3e25a06a869e65747","","","","","1559",""," ","key"," ","16.68025806451577","500","250","zol","1.15","1","1","-0.25","-24","-8",""
"","psychophysics","129","593655","0.0-129.0","5bd213b594403600013e37d9","64e510e3e25a06a869e65747","","","","","2062",""," ","key"," ","16.680262295081715","500","250","zol","1.4500000000000004","1","1","-0.65","7","-4",""
"","psychophysics","130","596151","0.0-130.0","5bd213b594403600013e37d9","64e510e3e25a06a869e65747","","","","","2495",""," ","key"," ","16.680288590604107","500","250","zol","0.8099999999999999","1","1","0.59","6","-18",""
"","psychophysics","131","598103","0.0-131.0","5bd213b594403600013e37d9","64e510e3e25a06a869e65747","","","","","1950",""," ","key"," ","16.681586206896664","500","250","zol","1.35","1","1","-0.25","18","-24",""
"","psychophysics","132","600024","0.0-132.0","5bd213b594403600013e37d9","64e510e3e25a06a869e65747","","","","","1920",""," ","key"," ","16.681017543859127","500","250","zol","1.8000000000000005","1","1","-0.6","-28","-4",""
"","psychophysics","133","601624","0.0-133.0","5bd213b594403600013e37d9","64e510e3e25a06a869e65747","","","","","1597",""," ","key"," ","16.679147368421972","500","250","zol","1.36","1","1","-0.26","-21","-16",""
"","psychophysics","134","603712","0.0-134.0","5bd213b594403600013e37d9","64e510e3e25a06a869e65747","","","","","2087",""," ","key"," ","16.680685483870253","500","250","zol","2.0000000000000004","1","1","-0.7","14","-2",""
"","psychophysics","135","606680","0.0-135.0","5bd213b594403600013e37d9","64e510e3e25a06a869e65747","","","","","2967",""," ","key"," ","16.68011299435031","500","250","zol","1.3","1","1","0.1","-11","23",""
"","psychophysics","136","608849","0.0-136.0","5bd213b594403600013e37d9","64e510e3e25a06a869e65747","","","","","2167",""," ","key"," ","16.68002325581394","500","250","zol","1.3300000000000003","1","1","-0.43","-6","3",""
"","psychophysics","137","612506","0.0-137.0","5bd213b594403600013e37d9","64e510e3e25a06a869e65747","","","","","3655",""," ","key"," ","16.680477064220373","500","250","zol","1.0999999999999999","1","1","0.6","4","29",""
"","psychophysics","138","614914","0.0-138.0","5bd213b594403600013e37d9","64e510e3e25a06a869e65747","","","","","2407",""," ","key"," ","16.680326388889323","500","250","zol","1.0699999999999998","1","1","0.13","-3","-20",""
"","psychophysics","139","616930","0.0-139.0","5bd213b594403600013e37d9","64e510e3e25a06a869e65747","","","","","2015",""," ","key"," ","16.678624999999496","500","250","zol","1.0699999999999998","1","1","0.03","20","-21",""
"","psychophysics","140","617642","0.0-140.0","5bd213b594403600013e37d9","64e510e3e25a06a869e65747","","","","","712",""," ","key"," ","16.681048780486623","500","250","inst","","","","","","",""
"","psychophysics","141","620683","0.0-141.0","5bd213b594403600013e37d9","64e510e3e25a06a869e65747","","","","","3040",""," ","key"," ","16.68055494505513","500","250","instEB1","40","2","","30","0","0","40"
"","psychophysics","142","623251","0.0-142.0","5bd213b594403600013e37d9","64e510e3e25a06a869e65747","","","","","2567",""," ","key"," ","16.68049019607837","500","250","instEB2","37","2","","40","0","0","30"
"","psychophysics","143","625739","0.0-143.0","5bd213b594403600013e37d9","64e510e3e25a06a869e65747","","","","","2487",""," ","key"," ","16.680472972972723","500","250","instEB3","32","2","","45","0","0","27"
"","psychophysics","144","628515","0.0-144.0","5bd213b594403600013e37d9","64e510e3e25a06a869e65747","","","","","2775",""," ","key"," ","16.68069696969663","500","250","instEB4","46","2","","30","0","0","40"
"","psychophysics","145","629068","0.0-145.0","5bd213b594403600013e37d9","64e510e3e25a06a869e65747","","","","","551",""," ","key"," ","16.6795624999977","500","250","inst","","","","","","",""
"","psychophysics","146","631316","0.0-146.0","5bd213b594403600013e37d9","64e510e3e25a06a869e65747","","","","","2247",""," ","key"," ","16.680499999999387","500","250","eb","33","2","","32","0","0","27"
"","psychophysics","147","634253","0.0-147.0","5bd213b594403600013e37d9","64e510e3e25a06a869e65747","","","","","2935",""," ","key"," ","16.680531428572056","500","250","eb","33","2","","45","0","0","24"
"","psychophysics","148","637077","0.0-148.0","5bd213b594403600013e37d9","64e510e3e25a06a869e65747","","","","","2823",""," ","key"," ","16.68064880952408","500","250","eb","46","2","","26","0","0","45"
"","psychophysics","149","640109","0.0-149.0","5bd213b594403600013e37d9","64e510e3e25a06a869e65747","","","","","3031",""," ","key"," ","16.68064088397788","500","250","eb","33","2","","38","0","0","29"
"","psychophysics","150","642318","0.0-150.0","5bd213b594403600013e37d9","64e510e3e25a06a869e65747","","","","","2208",""," ","key"," ","16.68072727272749","500","250","eb","49","2","","28","0","0","41"
"","psychophysics","151","644822","0.0-151.0","5bd213b594403600013e37d9","64e510e3e25a06a869e65747","","","","","2503",""," ","key"," ","16.679342281878863","500","250","eb","38","2","","48","0","0","32"
"","psychophysics","152","647694","0.0-152.0","5bd213b594403600013e37d9","64e510e3e25a06a869e65747","","","","","2871",""," ","key"," ","16.67954970760222","500","250","eb","27","2","","27","0","0","26"
"","psychophysics","153","651295","0.0-153.0","5bd213b594403600013e37d9","64e510e3e25a06a869e65747","","","","","3599",""," ","key"," ","16.681097674418545","500","250","eb","54","2","","30","0","0","54"
"","psychophysics","154","655135","0.0-154.0","5bd213b594403600013e37d9","64e510e3e25a06a869e65747","","","","","3839",""," ","key"," ","16.68083842794765","500","250","eb","35","2","","28","0","0","31"
"","psychophysics","155","656679","0.0-155.0","5bd213b594403600013e37d9","64e510e3e25a06a869e65747","","","","","1543",""," ","key"," ","16.68026086956556","500","250","eb","36","2","","36","0","0","33"
"","psychophysics","156","661272","0.0-156.0","5bd213b594403600013e37d9","64e510e3e25a06a869e65747","","","","","4592",""," ","key"," ","16.68063868613137","500","250","eb","50","2","","24","0","0","45"
"","psychophysics","157","663656","0.0-157.0","5bd213b594403600013e37d9","64e510e3e25a06a869e65747","","","","","2383",""," ","key"," ","16.680274647886826","500","250","eb","50","2","","47","0","0","44"
"","psychophysics","158","668321","0.0-158.0","5bd213b594403600013e37d9","64e510e3e25a06a869e65747","","","","","4663",""," ","key"," ","16.680600719424234","500","250","eb","31","2","","38","0","0","29"
"","psychophysics","159","671793","0.0-159.0","5bd213b594403600013e37d9","64e510e3e25a06a869e65747","","","","","3471",""," ","key"," ","16.680240384615338","500","250","eb","43","2","","34","0","0","34"
"","psychophysics","160","676322","0.0-160.0","5bd213b594403600013e37d9","64e510e3e25a06a869e65747","","","","","4527",""," ","key"," ","16.68049629629607","500","250","eb","34","2","","36","0","0","29"
"","psychophysics","161","677058","0.0-161.0","5bd213b594403600013e37d9","64e510e3e25a06a869e65747","","","","","735",""," ","key"," ","16.679953488372373","500","250","inst","","","","","","",""
"","psychophysics","162","680426","0.0-162.0","5bd213b594403600013e37d9","64e510e3e25a06a869e65747","","","","","3368",""," ","key"," ","16.680965174129696","500","250","instPog0","340","2","","370","0","0","340"
"","psychophysics","163","682395","0.0-163.0","5bd213b594403600013e37d9","64e510e3e25a06a869e65747","","","","","1968",""," ","key"," ","16.681000000000214","500","250","instPog1","328","2","","370","0","0","340"
"","psychophysics","164","684139","0.0-164.0","5bd213b594403600013e37d9","64e510e3e25a06a869e65747","","","","","1743",""," ","key"," ","16.67869230769261","500","250","instPog2","322","2","","340","0","0","340"
"","psychophysics","165","684835","0.0-165.0","5bd213b594403600013e37d9","64e510e3e25a06a869e65747","","","","","692",""," ","key"," ","16.677951219511538","500","250","inst","","","","","","",""
"","psychophysics","166","686539","0.0-166.0","5bd213b594403600013e37d9","64e510e3e25a06a869e65747","","","","","1703",""," ","key"," ","16.680663366336375","500","250","pog","280","2","1","296","0","0","305"
"","psychophysics","167","689396","0.0-167.0","5bd213b594403600013e37d9","64e510e3e25a06a869e65747","","","","","2855",""," ","key"," ","16.680258823529925","500","250","pog","343","2","1","313","0","0","376"
"","psychophysics","168","691525","0.0-168.0","5bd213b594403600013e37d9","64e510e3e25a06a869e65747","","","","","2128",""," ","key"," ","16.681173228347074","500","250","pog","338","2","1","342","0","0","372"
"","psychophysics","169","695869","0.0-169.0","5bd213b594403600013e37d9","64e510e3e25a06a869e65747","","","","","4341",""," ","key"," ","16.68058687258686","500","250","pog","329","2","1","373","0","0","364"
"","psychophysics","170","700173","0.0-170.0","5bd213b594403600013e37d9","64e510e3e25a06a869e65747","","","","","4304",""," ","key"," ","16.681105058365738","500","250","pog","312","2","1","280","0","0","348"
"","psychophysics","171","704326","0.0-171.0","5bd213b594403600013e37d9","64e510e3e25a06a869e65747","","","","","4152",""," ","key"," ","16.680435483871054","500","250","pog","275","2","1","397","0","0","306"
"","psychophysics","172","708224","0.0-172.0","5bd213b594403600013e37d9","64e510e3e25a06a869e65747","","","","","3896",""," ","key"," ","16.680145922746977","500","250","pog","284","2","1","354","0","0","322"
"","psychophysics","173","710623","0.0-173.0","5bd213b594403600013e37d9","64e510e3e25a06a869e65747","","","","","2398",""," ","key"," ","16.67988811188843","500","250","pog","321","2","1","335","0","0","345"
"","psychophysics","174","713135","0.0-174.0","5bd213b594403600013e37d9","64e510e3e25a06a869e65747","","","","","2511",""," ","key"," ","16.67928859060427","500","250","pog","269","2","1","331","0","0","307"
"","psychophysics","175","716520","0.0-175.0","5bd213b594403600013e37d9","64e510e3e25a06a869e65747","","","","","3384",""," ","key"," ","16.679608910891464","500","250","pog","347","2","1","285","0","0","378"
"","psychophysics","176","720857","0.0-176.0","5bd213b594403600013e37d9","64e510e3e25a06a869e65747","","","","","4335",""," ","key"," ","16.679926640926734","500","250","pog","284","2","1","390","0","0","330"
"","psychophysics","177","723137","0.0-177.0","5bd213b594403600013e37d9","64e510e3e25a06a869e65747","","","","","2279",""," ","key"," ","16.680632352941114","500","250","pog","329","2","1","301","0","0","377"
"","psychophysics","178","726289","0.0-178.0","5bd213b594403600013e37d9","64e510e3e25a06a869e65747","","","","","3151",""," ","key"," ","16.680601063829677","500","250","pog","312","2","1","332","0","0","358"
"","psychophysics","179","728178","0.0-179.0","5bd213b594403600013e37d9","64e510e3e25a06a869e65747","","","","","1888",""," ","key"," ","16.679633928572002","500","250","pog","298","2","1","310","0","0","336"
"","psychophysics","180","730642","0.0-180.0","5bd213b594403600013e37d9","64e510e3e25a06a869e65747","","","","","2463",""," ","key"," ","16.680761904762203","500","250","pog","313","2","1","387","0","0","332"
"","psychophysics","181","731282","0.0-181.0","5bd213b594403600013e37d9","64e510e3e25a06a869e65747","","","","","639",""," ","key"," ","16.680459459456994","500","250","inst","","","","","","",""
"","psychophysics","182","734618","0.0-182.0","5bd213b594403600013e37d9","64e510e3e25a06a869e65747","","","","","3335",""," ","key"," ","16.680597989949813","500","250","instBr3","-5","1","","40","0","0","300"
"","psychophysics","183","735115","0.0-183.0","5bd213b594403600013e37d9","64e510e3e25a06a869e65747","","","","","495",""," ","key"," ","16.680448275862325","500","250","inst","","","","","","",""
"","psychophysics","184","739355","0.0-184.0","5bd213b594403600013e37d9","64e510e3e25a06a869e65747","","","","","4239",""," ","key"," ","16.680573122529864","500","250","br","-3","1","1","-25","7","16","275"
"","psychophysics","185","741660","0.0-185.0","5bd213b594403600013e37d9","64e510e3e25a06a869e65747","","","","","2303",""," ","key"," ","16.680905109489792","500","250","br","-10","1","1","-18","27","-2","203"
"","psychophysics","186","745468","0.0-186.0","5bd213b594403600013e37d9","64e510e3e25a06a869e65747","","","","","3807",""," ","key"," ","16.68042290748901","500","250","br","-5","1","1","14","-18","2","224"
"","psychophysics","187","747589","0.0-187.0","5bd213b594403600013e37d9","64e510e3e25a06a869e65747","","","","","2119",""," ","key"," ","16.680590551180625","500","250","br","-12","1","1","7","-18","-26","205"
"","psychophysics","188","750349","0.0-188.0","5bd213b594403600013e37d9","64e510e3e25a06a869e65747","","","","","2759",""," ","key"," ","16.681493902439108","500","250","br","-14","1","1","-14","24","-29","224"
"","psychophysics","189","753109","0.0-189.0","5bd213b594403600013e37d9","64e510e3e25a06a869e65747","","","","","2760",""," ","key"," ","16.68054545454568","500","250","br","-10","1","1","30","3","2","270"
"","psychophysics","190","755061","0.0-190.0","5bd213b594403600013e37d9","64e510e3e25a06a869e65747","","","","","1951",""," ","key"," ","16.680672413792966","500","250","br","-12","1","1","-4","9","-28","247"
"","psychophysics","191","756982","0.0-191.0","5bd213b594403600013e37d9","64e510e3e25a06a869e65747","","","","","1919",""," ","key"," ","16.67986842105267","500","250","br","-6","1","1","-27","-18","-8","274"
"","psychophysics","192","758558","0.0-192.0","5bd213b594403600013e37d9","64e510e3e25a06a869e65747","","","","","1575",""," ","key"," ","16.67998924731247","500","250","br","-13","1","1","-21","4","10","202"
"","psychophysics","193","760518","0.0-193.0","5bd213b594403600013e37d9","64e510e3e25a06a869e65747","","","","","1959",""," ","key"," ","16.68016239316163","500","250","br","-23","1","1","10","26","5","266"
"","psychophysics","194","763463","0.0-194.0","5bd213b594403600013e37d9","64e510e3e25a06a869e65747","","","","","2944",""," ","key"," ","16.680599999999895","500","250","br","-6","1","1","29","-12","-5","287"
"","psychophysics","195","767183","0.0-195.0","5bd213b594403600013e37d9","64e510e3e25a06a869e65747","","","","","3719",""," ","key"," ","16.680927927927787","500","250","br","-11","1","1","22","26","23","244"
"","psychophysics","196","770176","0.0-196.0","5bd213b594403600013e37d9","64e510e3e25a06a869e65747","","","","","2991",""," ","key"," ","16.680675977653713","500","250","br","-8","1","1","13","21","-9","267"
"","psychophysics","197","773624","0.0-197.0","5bd213b594403600013e37d9","64e510e3e25a06a869e65747","","","","","3447",""," ","key"," ","16.68015609756112","500","250","br","-9","1","1","27","10","4","259"
"","psychophysics","198","777761","0.0-198.0","5bd213b594403600013e37d9","64e510e3e25a06a869e65747","","","","","4135",""," ","key"," ","16.680931174089313","500","250","br","-11","1","1","-9","-24","24","300"
"","psychophysics","199","778481","0.0-199.0","5bd213b594403600013e37d9","64e510e3e25a06a869e65747","","","","","719",""," ","key"," ","16.6814418604657","500","250","inst","","","","","","",""
"","psychophysics","200","782850","0.0-200.0","5bd213b594403600013e37d9","64e510e3e25a06a869e65747","","","","","4367",""," ","key"," ","16.68094230769247","500","250","instPz1","47","2","","25","","","50"
"","psychophysics","201","784626","0.0-201.0","5bd213b594403600013e37d9","64e510e3e25a06a869e65747","","","","","1774",""," ","key"," ","16.679849056603896","500","250","instPz2","30","2","","20","","","35"
"","psychophysics","202","789514","0.0-202.0","5bd213b594403600013e37d9","64e510e3e25a06a869e65747","","","","","4887",""," ","key"," ","16.6805273972604","500","250","instPz3","60","2","","30","","","100"
"","psychophysics","203","792435","0.0-203.0","5bd213b594403600013e37d9","64e510e3e25a06a869e65747","","","","","2919",""," ","key"," ","16.679632183908346","500","250","instPz4","61","2","","30","","","100"
"","psychophysics","204","792939","0.0-204.0","5bd213b594403600013e37d9","64e510e3e25a06a869e65747","","","","","503",""," ","key"," ","16.673413793102775","500","250","inst","","","","","","",""
"","psychophysics","205","795787","0.0-205.0","5bd213b594403600013e37d9","64e510e3e25a06a869e65747","","","","","2847",""," ","key"," ","16.68024117647095","500","250","pz","15","2","1","49","","","21"
"","psychophysics","206","797644","0.0-206.0","5bd213b594403600013e37d9","64e510e3e25a06a869e65747","","","","","1855",""," ","key"," ","16.68084545454476","500","250","pz","21","2","1","29","","","26"
"","psychophysics","207","802285","0.0-207.0","5bd213b594403600013e37d9","64e510e3e25a06a869e65747","","","","","4640",""," ","key"," ","16.680647482014287","500","250","pz","17","2","1","38","","","23"
"","psychophysics","208","806701","0.0-208.0","5bd213b594403600013e37d9","64e510e3e25a06a869e65747","","","","","4415",""," ","key"," ","16.680615969581666","500","250","pz","28","2","1","49","","","40"
"","psychophysics","209","809949","0.0-209.0","5bd213b594403600013e37d9","64e510e3e25a06a869e65747","","","","","3247",""," ","key"," ","16.68063402061828","500","250","pz","42","2","1","26","","","60"
"","psychophysics","210","812582","0.0-210.0","5bd213b594403600013e37d9","64e510e3e25a06a869e65747","","","","","2631",""," ","key"," ","16.680630573248017","500","250","pz","26","2","1","35","","","34"
"","psychophysics","211","815518","0.0-211.0","5bd213b594403600013e37d9","64e510e3e25a06a869e65747","","","","","2935",""," ","key"," ","16.680554285714003","500","250","pz","38","2","1","27","","","49"
"","psychophysics","212","819279","0.0-212.0","5bd213b594403600013e37d9","64e510e3e25a06a869e65747","","","","","3759",""," ","key"," ","16.68066964285702","500","250","pz","17","2","1","44","","","22"
"","psychophysics","213","823383","0.0-213.0","5bd213b594403600013e37d9","64e510e3e25a06a869e65747","","","","","4103",""," ","key"," ","16.68079999999989","500","250","pz","26","2","1","51","","","33"
"","psychophysics","214","827800","0.0-214.0","5bd213b594403600013e37d9","64e510e3e25a06a869e65747","","","","","4415",""," ","key"," ","16.680238636363576","500","250","pz","33","2","1","31","","","40"
"","psychophysics","215","830681","0.0-215.0","5bd213b594403600013e37d9","64e510e3e25a06a869e65747","","","","","2879",""," ","key"," ","16.680529069767314","500","250","pz","33","2","1","59","","","43"
"","psychophysics","216","832905","0.0-216.0","5bd213b594403600013e37d9","64e510e3e25a06a869e65747","","","","","2223",""," ","key"," ","16.6803939393942","500","250","pz","20","2","1","23","","","28"
"","psychophysics","217","836522","0.0-217.0","5bd213b594403600013e37d9","64e510e3e25a06a869e65747","","","","","3616",""," ","key"," ","16.680638888889074","500","250","pz","34","2","1","43","","","45"
"","psychophysics","218","841066","0.0-218.0","5bd213b594403600013e37d9","64e510e3e25a06a869e65747","","","","","4543",""," ","key"," ","16.68056617647038","500","250","pz","30","2","1","43","","","38"
"","psychophysics","219","845074","0.0-219.0","5bd213b594403600013e37d9","64e510e3e25a06a869e65747","","","","","4007",""," ","key"," ","16.680393305439093","500","250","pz","23","2","1","41","","","28"
