"success","trial_type","trial_index","time_elapsed","internal_node_id","pid","sid","timeout","failed_images","failed_audio","failed_video","rt","stimulus","response","response_type","key_press","avg_frame_time","center_x","center_y","task","resp","version","block","start","jitterX","jitterY","parA"
"true","fullscreen","0","3091","0.0-0.0","5d9ae3ff9d2a700014869bcb","64e50d1d077cfbb62cfd572e","","","","","","","","","","","","","","","","","","","",""
"true","preload","1","3197","0.0-1.0","5d9ae3ff9d2a700014869bcb","64e50d1d077cfbb62cfd572e","false","[]","[]","[]","","","","","","","","","","","","","","","",""
"","html-button-response","2","5016","0.0-2.0","5d9ae3ff9d2a700014869bcb","64e50d1d077cfbb62cfd572e","","","","","1818","Please Make Sure Your Audio Is On.","0","","","","","","","","","","","","",""
"","psychophysics","3","10941","0.0-3.0","5d9ae3ff9d2a700014869bcb","64e50d1d077cfbb62cfd572e","","","","","5912",""," ","key"," ","16.652143258426964","768","250","","","","","","","",""
"","psychophysics","4","14150","0.0-4.0","5d9ae3ff9d2a700014869bcb","64e50d1d077cfbb62cfd572e","","","","","3208",""," ","key"," ","16.652395833333333","500","250","inst","","","","","","",""
"","psychophysics","5","23539","0.0-5.0","5d9ae3ff9d2a700014869bcb","64e50d1d077cfbb62cfd572e","","","","","9387",""," ","key"," ","16.652138790035586","500","250","sample0","","","","","","",""
"","psychophysics","6","26264","0.0-6.0","5d9ae3ff9d2a700014869bcb","64e50d1d077cfbb62cfd572e","","","","","2720",""," ","key"," ","16.652006134969337","500","250","sample1","","","","","","",""
"","psychophysics","7","95582","0.0-7.0","5d9ae3ff9d2a700014869bcb","64e50d1d077cfbb62cfd572e","","","","","69314",""," ","key"," ","17.590424873096445","500","250","sample2","100","","","","","",""
"","psychophysics","8","101476","0.0-8.0","5d9ae3ff9d2a700014869bcb","64e50d1d077cfbb62cfd572e","","","","","5892",""," ","key"," ","16.652223796033997","500","250","sample3","100","","","","","",""
"","psychophysics","9","125489","0.0-9.0","5d9ae3ff9d2a700014869bcb","64e50d1d077cfbb62cfd572e","","","","","24011",""," ","key"," ","16.65211172796669","500","250","sample4","100","","","","","",""
"","psychophysics","10","130100","0.0-10.0","5d9ae3ff9d2a700014869bcb","64e50d1d077cfbb62cfd572e","","","","","4607",""," ","key"," ","16.652144927536277","500","250","sample5","","","","","","",""
"","psychophysics","11","139417","0.0-11.0","5d9ae3ff9d2a700014869bcb","64e50d1d077cfbb62cfd572e","","","","","9315",""," ","key"," ","16.6520107526882","500","250","sample6","502","","","","","",""
"","psychophysics","12","144220","0.0-12.0","5d9ae3ff9d2a700014869bcb","64e50d1d077cfbb62cfd572e","","","","","4802",""," ","key"," ","16.652392361111097","500","250","inst","","","","","","",""
"","psychophysics","13","149006","0.0-13.0","5d9ae3ff9d2a700014869bcb","64e50d1d077cfbb62cfd572e","","","","","4784",""," ","key"," ","16.652223776223853","500","250","inst","","","","","","",""
"","psychophysics","14","151770","0.0-14.0","5d9ae3ff9d2a700014869bcb","64e50d1d077cfbb62cfd572e","","","","","2762",""," ","key"," ","16.652230303030404","500","250","inst","","","","","","",""
"","psychophysics","15","154907","0.0-15.0","5d9ae3ff9d2a700014869bcb","64e50d1d077cfbb62cfd572e","","","","","3136",""," ","key"," ","16.651930481283383","500","250","inst","","","","","","",""
"","psychophysics","16","156274","0.0-16.0","5d9ae3ff9d2a700014869bcb","64e50d1d077cfbb62cfd572e","","","","","1366",""," ","key"," ","16.652197530864303","500","250","inst","","","","","","",""
"","psychophysics","17","160032","0.0-17.0","5d9ae3ff9d2a700014869bcb","64e50d1d077cfbb62cfd572e","","","","","3754",""," ","key"," ","16.65191111111121","500","250","instEB0","40","2","","40","0","0","40"
"","psychophysics","18","165491","0.0-18.0","5d9ae3ff9d2a700014869bcb","64e50d1d077cfbb62cfd572e","","","","","5457",""," ","key"," ","16.652327217125343","500","250","instEB1","42","2","","30","0","0","40"
"","psychophysics","19","172700","0.0-19.0","5d9ae3ff9d2a700014869bcb","64e50d1d077cfbb62cfd572e","","","","","7208",""," ","key"," ","16.652194444444426","500","250","instEB2","30","2","","40","0","0","30"
"","psychophysics","20","179033","0.0-20.0","5d9ae3ff9d2a700014869bcb","64e50d1d077cfbb62cfd572e","","","","","6332",""," ","key"," ","16.652250659630628","500","250","instEB3","34","2","","45","0","0","27"
"","psychophysics","21","183468","0.0-21.0","5d9ae3ff9d2a700014869bcb","64e50d1d077cfbb62cfd572e","","","","","4434",""," ","key"," ","16.652345864661672","500","250","instEB4","44","2","","30","0","0","40"
"","psychophysics","22","185323","0.0-22.0","5d9ae3ff9d2a700014869bcb","64e50d1d077cfbb62cfd572e","","","","","1852",""," ","key"," ","16.65198181818176","500","250","inst","","","","","","",""
"","psychophysics","23","192802","0.0-23.0","5d9ae3ff9d2a700014869bcb","64e50d1d077cfbb62cfd572e","","","","","7476",""," ","key"," ","16.652252232142864","500","250","eb","32","2","","46","0","0","25"
"","psychophysics","24","198574","0.0-24.0","5d9ae3ff9d2a700014869bcb","64e50d1d077cfbb62cfd572e","","","","","5709",""," ","key"," ","16.7490174418605","500","250","eb","46","2","","53","0","0","38"
"","psychophysics","25","206577","0.0-25.0","5d9ae3ff9d2a700014869bcb","64e50d1d077cfbb62cfd572e","","","","","null","","null","key","null","16.65229436325677","500","250","eb","40","2","","51","0","0","29"
"","psychophysics","26","211023","0.0-26.0","5d9ae3ff9d2a700014869bcb","64e50d1d077cfbb62cfd572e","","","","","4437",""," ","key"," ","16.652417293233103","500","250","eb","57","2","","50","0","0","50"
"","psychophysics","27","216891","0.0-27.0","5d9ae3ff9d2a700014869bcb","64e50d1d077cfbb62cfd572e","","","","","5859",""," ","key"," ","16.65214772727276","500","250","eb","54","2","","29","0","0","54"
"","psychophysics","28","220032","0.0-28.0","5d9ae3ff9d2a700014869bcb","64e50d1d077cfbb62cfd572e","","","","","3137",""," ","key"," ","16.65243850267392","500","250","eb","53","2","","49","0","0","46"
"","psychophysics","29","224449","0.0-29.0","5d9ae3ff9d2a700014869bcb","64e50d1d077cfbb62cfd572e","","","","","4415",""," ","key"," ","16.65201132075481","500","250","eb","58","2","","32","0","0","48"
"","psychophysics","30","227848","0.0-30.0","5d9ae3ff9d2a700014869bcb","64e50d1d077cfbb62cfd572e","","","","","3395",""," ","key"," ","16.652009852216786","500","250","eb","51","2","","54","0","0","40"
"","psychophysics","31","230271","0.0-31.0","5d9ae3ff9d2a700014869bcb","64e50d1d077cfbb62cfd572e","","","","","2420",""," ","key"," ","16.652423611111065","500","250","eb","52","2","","50","0","0","45"
"","psychophysics","32","232942","0.0-32.0","5d9ae3ff9d2a700014869bcb","64e50d1d077cfbb62cfd572e","","","","","2668",""," ","key"," ","16.65240625000006","500","250","eb","49","2","","46","0","0","45"
"","psychophysics","33","235821","0.0-33.0","5d9ae3ff9d2a700014869bcb","64e50d1d077cfbb62cfd572e","","","","","2877",""," ","key"," ","16.651703488372053","500","250","eb","53","2","","50","0","0","53"
"","psychophysics","34","238148","0.0-34.0","5d9ae3ff9d2a700014869bcb","64e50d1d077cfbb62cfd572e","","","","","2324",""," ","key"," ","16.652282608695753","500","250","eb","51","2","","48","0","0","44"
"","psychophysics","35","242540","0.0-35.0","5d9ae3ff9d2a700014869bcb","64e50d1d077cfbb62cfd572e","","","","","4391",""," ","key"," ","16.652547528517093","500","250","eb","51","2","","41","0","0","48"
"","psychophysics","36","246746","0.0-36.0","5d9ae3ff9d2a700014869bcb","64e50d1d077cfbb62cfd572e","","","","","4203",""," ","key"," ","16.652337301587284","500","250","eb","47","2","","40","0","0","42"
"","psychophysics","37","249689","0.0-37.0","5d9ae3ff9d2a700014869bcb","64e50d1d077cfbb62cfd572e","","","","","2940",""," ","key"," ","16.652040000000103","500","250","eb","52","2","","48","0","0","50"
"","psychophysics","38","252287","0.0-38.0","5d9ae3ff9d2a700014869bcb","64e50d1d077cfbb62cfd572e","","","","","2597",""," ","key"," ","16.653135483870997","500","250","inst","","","","","","",""
"","psychophysics","39","257045","0.0-39.0","5d9ae3ff9d2a700014869bcb","64e50d1d077cfbb62cfd572e","","","","","4757",""," ","key"," ","16.652207017543812","500","250","instBr0","0","","","0","0","0","300"
"","psychophysics","40","262714","0.0-40.0","5d9ae3ff9d2a700014869bcb","64e50d1d077cfbb62cfd572e","","","","","5668",""," ","key"," ","16.651471976401144","500","250","instBr1","-1","","","-40","0","0","300"
"","psychophysics","41","271812","0.0-41.0","5d9ae3ff9d2a700014869bcb","64e50d1d077cfbb62cfd572e","","","","","9094",""," ","key"," ","16.65279853479856","500","250","instBr3","-13","1","","40","0","0","300"
"","psychophysics","42","273067","0.0-42.0","5d9ae3ff9d2a700014869bcb","64e50d1d077cfbb62cfd572e","","","","","1254",""," ","key"," ","16.653054054054067","500","250","inst","","","","","","",""
"","psychophysics","43","275890","0.0-43.0","5d9ae3ff9d2a700014869bcb","64e50d1d077cfbb62cfd572e","","","","","2821",""," ","key"," ","16.655550295857992","500","250","br","-17","1","0","-18","-17","-30","227"
"","psychophysics","44","279987","0.0-44.0","5d9ae3ff9d2a700014869bcb","64e50d1d077cfbb62cfd572e","","","","","4095",""," ","key"," ","16.653661224489785","500","250","br","-15","1","0","-22","-16","-4","202"
"","psychophysics","45","283774","0.0-45.0","5d9ae3ff9d2a700014869bcb","64e50d1d077cfbb62cfd572e","","","","","3786",""," ","key"," ","16.653119469026468","500","250","br","-18","1","0","-27","-4","13","232"
"","psychophysics","46","287206","0.0-46.0","5d9ae3ff9d2a700014869bcb","64e50d1d077cfbb62cfd572e","","","","","3430",""," ","key"," ","16.650458536585568","500","250","br","-16","1","0","-29","25","6","231"
"","psychophysics","47","291638","0.0-47.0","5d9ae3ff9d2a700014869bcb","64e50d1d077cfbb62cfd572e","","","","","4430",""," ","key"," ","16.652392452830263","500","250","br","-16","1","0","-22","-7","16","290"
"","psychophysics","48","293917","0.0-48.0","5d9ae3ff9d2a700014869bcb","64e50d1d077cfbb62cfd572e","","","","","2275",""," ","key"," ","16.653272058823752","500","250","br","-19","1","0","-24","0","27","283"
"","psychophysics","49","297220","0.0-49.0","5d9ae3ff9d2a700014869bcb","64e50d1d077cfbb62cfd572e","","","","","3301",""," ","key"," ","16.65245959595977","500","250","br","-12","1","0","-16","10","-24","282"
"","psychophysics","50","300920","0.0-50.0","5d9ae3ff9d2a700014869bcb","64e50d1d077cfbb62cfd572e","","","","","3697",""," ","key"," ","16.65252941176485","500","250","br","-17","1","0","5","-11","2","252"
"","psychophysics","51","303955","0.0-51.0","5d9ae3ff9d2a700014869bcb","64e50d1d077cfbb62cfd572e","","","","","3034",""," ","key"," ","16.65281767955787","500","250","br","-4","1","0","18","12","-14","234"
"","psychophysics","52","307791","0.0-52.0","5d9ae3ff9d2a700014869bcb","64e50d1d077cfbb62cfd572e","","","","","3835",""," ","key"," ","16.652091703056634","500","250","br","-7","1","0","26","4","9","216"
"","psychophysics","53","314362","0.0-53.0","5d9ae3ff9d2a700014869bcb","64e50d1d077cfbb62cfd572e","","","","","6567",""," ","key"," ","16.65224365482233","500","250","br","-15","1","0","7","-10","9","250"
"","psychophysics","54","318978","0.0-54.0","5d9ae3ff9d2a700014869bcb","64e50d1d077cfbb62cfd572e","","","","","4604",""," ","key"," ","16.652746376811578","500","250","br","-11","1","0","-12","0","27","295"
"","psychophysics","55","322867","0.0-55.0","5d9ae3ff9d2a700014869bcb","64e50d1d077cfbb62cfd572e","","","","","3887",""," ","key"," ","16.653231759656816","500","250","br","-9","1","0","0","-24","-26","296"
"","psychophysics","56","326990","0.0-56.0","5d9ae3ff9d2a700014869bcb","64e50d1d077cfbb62cfd572e","","","","","4121",""," ","key"," ","16.651341463414557","500","250","br","-12","1","0","12","-14","24","221"
"","psychophysics","57","332504","0.0-57.0","5d9ae3ff9d2a700014869bcb","64e50d1d077cfbb62cfd572e","","","","","5508",""," ","key"," ","16.652214501510667","500","250","br","-10","1","0","26","5","-10","233"
"","psychophysics","58","333673","0.0-58.0","5d9ae3ff9d2a700014869bcb","64e50d1d077cfbb62cfd572e","","","","","1166",""," ","key"," ","16.652724637681168","500","250","inst","","","","","","",""
"","psychophysics","59","336571","0.0-59.0","5d9ae3ff9d2a700014869bcb","64e50d1d077cfbb62cfd572e","","","","","2896",""," ","key"," ","16.653352601155895","500","250","instPzPre","50","0","","50","","","50"
"","psychophysics","60","341973","0.0-60.0","5d9ae3ff9d2a700014869bcb","64e50d1d077cfbb62cfd572e","","","","","5401",""," ","key"," ","16.651455108359084","500","250","instPz0","50","2","","50","","","50"
"","psychophysics","61","349010","0.0-61.0","5d9ae3ff9d2a700014869bcb","64e50d1d077cfbb62cfd572e","","","","","7035",""," ","key"," ","16.65227488151661","500","250","instPz1","50","2","","25","","","50"
"","psychophysics","62","353571","0.0-62.0","5d9ae3ff9d2a700014869bcb","64e50d1d077cfbb62cfd572e","","","","","4560",""," ","key"," ","16.652208791208842","500","250","instPz2","33","2","","20","","","35"
"","psychophysics","63","364047","0.0-63.0","5d9ae3ff9d2a700014869bcb","64e50d1d077cfbb62cfd572e","","","","","10473",""," ","key"," ","16.65197770700634","500","250","instPz3","74","2","","30","","","100"
"","psychophysics","64","368737","0.0-64.0","5d9ae3ff9d2a700014869bcb","64e50d1d077cfbb62cfd572e","","","","","4689",""," ","key"," ","16.65234642857145","500","250","instPz4","77","2","","30","","","100"
"","psychophysics","65","370136","0.0-65.0","5d9ae3ff9d2a700014869bcb","64e50d1d077cfbb62cfd572e","","","","","1396",""," ","key"," ","16.657060240963418","500","250","inst","","","","","","",""
"","psychophysics","66","375556","0.0-66.0","5d9ae3ff9d2a700014869bcb","64e50d1d077cfbb62cfd572e","","","","","5416",""," ","key"," ","16.65193538461543","500","250","pz","23","2","0","28","","","29"
"","psychophysics","67","381101","0.0-67.0","5d9ae3ff9d2a700014869bcb","64e50d1d077cfbb62cfd572e","","","","","5543",""," ","key"," ","16.6526385542168","500","250","pz","28","2","0","36","","","43"
"","psychophysics","68","384234","0.0-68.0","5d9ae3ff9d2a700014869bcb","64e50d1d077cfbb62cfd572e","","","","","3132",""," ","key"," ","16.651085561497467","500","250","pz","45","2","0","47","","","52"
"","psychophysics","69","389594","0.0-69.0","5d9ae3ff9d2a700014869bcb","64e50d1d077cfbb62cfd572e","","","","","5358",""," ","key"," ","16.653495327102796","500","250","pz","16","2","0","42","","","21"
"","psychophysics","70","392832","0.0-70.0","5d9ae3ff9d2a700014869bcb","64e50d1d077cfbb62cfd572e","","","","","3236",""," ","key"," ","16.654041450777104","500","250","pz","14","2","0","20","","","20"
"","psychophysics","71","396526","0.0-71.0","5d9ae3ff9d2a700014869bcb","64e50d1d077cfbb62cfd572e","","","","","3693",""," ","key"," ","16.652058823529327","500","250","pz","29","2","0","28","","","41"
"","psychophysics","72","401559","0.0-72.0","5d9ae3ff9d2a700014869bcb","64e50d1d077cfbb62cfd572e","","","","","5031",""," ","key"," ","16.653411960132974","500","250","pz","21","2","0","34","","","28"
"","psychophysics","73","406612","0.0-73.0","5d9ae3ff9d2a700014869bcb","64e50d1d077cfbb62cfd572e","","","","","5048",""," ","key"," ","16.653405940593927","500","250","pz","27","2","0","20","","","41"
"","psychophysics","74","409432","0.0-74.0","5d9ae3ff9d2a700014869bcb","64e50d1d077cfbb62cfd572e","","","","","2819",""," ","key"," ","16.655351190476114","500","250","pz","36","2","0","36","","","45"
"","psychophysics","75","414593","0.0-75.0","5d9ae3ff9d2a700014869bcb","64e50d1d077cfbb62cfd572e","","","","","5159",""," ","key"," ","16.65150809061486","500","250","pz","49","2","0","57","","","60"
"","psychophysics","76","418496","0.0-76.0","5d9ae3ff9d2a700014869bcb","64e50d1d077cfbb62cfd572e","","","","","3901",""," ","key"," ","16.652407725321883","500","250","pz","43","2","0","26","","","56"
"","psychophysics","77","424467","0.0-77.0","5d9ae3ff9d2a700014869bcb","64e50d1d077cfbb62cfd572e","","","","","5968",""," ","key"," ","16.652321229050326","500","250","pz","23","2","0","54","","","31"
"","psychophysics","78","426242","0.0-78.0","5d9ae3ff9d2a700014869bcb","64e50d1d077cfbb62cfd572e","","","","","1773",""," ","key"," ","16.653339622641653","500","250","pz","23","2","0","23","","","32"
"","psychophysics","79","431463","0.0-79.0","5d9ae3ff9d2a700014869bcb","64e50d1d077cfbb62cfd572e","","","","","5218",""," ","key"," ","16.65149038461543","500","250","pz","23","2","0","30","","","25"
"","psychophysics","80","436774","0.0-80.0","5d9ae3ff9d2a700014869bcb","64e50d1d077cfbb62cfd572e","","","","","5309",""," ","key"," ","16.652716981132116","500","250","pz","43","2","0","59","","","53"
"","psychophysics","81","438902","0.0-81.0","5d9ae3ff9d2a700014869bcb","64e50d1d077cfbb62cfd572e","","","","","2127",""," ","key"," ","16.65140157480317","500","250","inst","","","","","","",""
"","psychophysics","82","443512","0.0-82.0","5d9ae3ff9d2a700014869bcb","64e50d1d077cfbb62cfd572e","","","","","4609",""," ","key"," ","16.6521485507247","500","250","instZol0","0","","","0","0","0",""
"","psychophysics","83","455079","0.0-83.0","5d9ae3ff9d2a700014869bcb","64e50d1d077cfbb62cfd572e","","","","","11566",""," ","key"," ","16.65218903318904","500","250","instZol1","0.20000000000000004","","","-1.3","0","0",""
"","psychophysics","84","465756","0.0-84.0","5d9ae3ff9d2a700014869bcb","64e50d1d077cfbb62cfd572e","","","","","10670",""," ","key"," ","16.652137285491357","500","250","instZol2","1.6000000000000012","1","","2","0","0",""
"","psychophysics","85","466774","0.0-85.0","5d9ae3ff9d2a700014869bcb","64e50d1d077cfbb62cfd572e","","","","","1016",""," ","key"," ","16.649583333333915","500","250","inst","","","","","","",""
"","psychophysics","86","472737","0.0-86.0","5d9ae3ff9d2a700014869bcb","64e50d1d077cfbb62cfd572e","","","","","5961",""," ","key"," ","16.651218487394917","500","250","zol","1.3500000000000003","1","0","-0.45","-1","-27",""
"","psychophysics","87","480739","0.0-87.0","5d9ae3ff9d2a700014869bcb","64e50d1d077cfbb62cfd572e","","","","","null","","null","key","null","16.652254697285997","500","250","zol","1.5400000000000005","1","0","-0.44","26","-8",""
"","psychophysics","88","485876","0.0-88.0","5d9ae3ff9d2a700014869bcb","64e50d1d077cfbb62cfd572e","","","","","5129",""," ","key"," ","16.65281168831166","500","250","zol","1.3100000000000003","1","0","-0.11","-21","20",""
"","psychophysics","89","489890","0.0-89.0","5d9ae3ff9d2a700014869bcb","64e50d1d077cfbb62cfd572e","","","","","4012",""," ","key"," ","16.65312083333338","500","250","zol","1.3900000000000001","1","0","-0.29","-19","-28",""
"","psychophysics","90","494834","0.0-90.0","5d9ae3ff9d2a700014869bcb","64e50d1d077cfbb62cfd572e","","","","","4943",""," ","key"," ","16.6533006756758","500","250","zol","0.9099999999999999","1","0","0.39","-16","13",""
"","psychophysics","91","500345","0.0-91.0","5d9ae3ff9d2a700014869bcb","64e50d1d077cfbb62cfd572e","","","","","5508",""," ","key"," ","16.652899999999985","500","250","zol","1.0599999999999998","1","0","0.64","14","-30",""
"","psychophysics","92","504678","0.0-92.0","5d9ae3ff9d2a700014869bcb","64e50d1d077cfbb62cfd572e","","","","","4331",""," ","key"," ","16.652247104246996","500","250","zol","0.59","1","0","0.71","-26","27",""
"","psychophysics","93","510003","0.0-93.0","5d9ae3ff9d2a700014869bcb","64e50d1d077cfbb62cfd572e","","","","","5323",""," ","key"," ","16.653241379310224","500","250","zol","0.16","1","0","-0.36","19","-26",""
"","psychophysics","94","514537","0.0-94.0","5d9ae3ff9d2a700014869bcb","64e50d1d077cfbb62cfd572e","","","","","4532",""," ","key"," ","16.652066420664283","500","250","zol","0.51","1","0","-0.61","-28","-25",""
"","psychophysics","95","519346","0.0-95.0","5d9ae3ff9d2a700014869bcb","64e50d1d077cfbb62cfd572e","","","","","4807",""," ","key"," ","16.651892361111095","500","250","zol","1.0599999999999998","1","0","-0.36","-27","5",""
"","psychophysics","96","522888","0.0-96.0","5d9ae3ff9d2a700014869bcb","64e50d1d077cfbb62cfd572e","","","","","3540",""," ","key"," ","16.650594339622536","500","250","zol","1.0799999999999998","1","0","0.22","10","15",""
"","psychophysics","97","527806","0.0-97.0","5d9ae3ff9d2a700014869bcb","64e50d1d077cfbb62cfd572e","","","","","4913",""," ","key"," ","16.65245238095237","500","250","zol","0.9499999999999998","1","0","0.15","-30","12",""
"","psychophysics","98","530892","0.0-98.0","5d9ae3ff9d2a700014869bcb","64e50d1d077cfbb62cfd572e","","","","","3085",""," ","key"," ","16.651195652174266","500","250","zol","0.61","1","0","0.69","17","-21",""
"","psychophysics","99","535826","0.0-99.0","5d9ae3ff9d2a700014869bcb","64e50d1d077cfbb62cfd572e","","","","","4931",""," ","key"," ","16.653122033898214","500","250","zol","1.17","1","0","-0.17","-27","3",""
"","psychophysics","100","540728","0.0-100.0","5d9ae3ff9d2a700014869bcb","64e50d1d077cfbb62cfd572e","","","","","4897",""," ","key"," ","16.65267346938795","500","250","zol","1.2100000000000002","1","0","0.19","22","-9",""
"","psychophysics","101","542079","0.0-101.0","5d9ae3ff9d2a700014869bcb","64e50d1d077cfbb62cfd572e","","","","","1350",""," ","key"," ","16.652375000000756","500","250","inst","","","","","","",""
"","psychophysics","102","549963","0.0-102.0","5d9ae3ff9d2a700014869bcb","64e50d1d077cfbb62cfd572e","","","","","7881",""," ","key"," ","16.653273305084685","500","250","instPog0","340","2","","370","0","0","340"
"","psychophysics","103","557433","0.0-103.0","5d9ae3ff9d2a700014869bcb","64e50d1d077cfbb62cfd572e","","","","","7466",""," ","key"," ","16.652279017857186","500","250","instPog1","336","2","","370","0","0","340"
"","psychophysics","104","563870","0.0-104.0","5d9ae3ff9d2a700014869bcb","64e50d1d077cfbb62cfd572e","","","","","6436",""," ","key"," ","16.652106217616552","500","250","instPog2","324","2","","340","0","0","340"
"","psychophysics","105","564631","0.0-105.0","5d9ae3ff9d2a700014869bcb","64e50d1d077cfbb62cfd572e","","","","","758",""," ","key"," ","16.641363636363","500","250","inst","","","","","","",""
"","psychophysics","106","570968","0.0-106.0","5d9ae3ff9d2a700014869bcb","64e50d1d077cfbb62cfd572e","","","","","6335",""," ","key"," ","16.652268421052845","500","250","pog","325","2","0","285","0","0","349"
"","psychophysics","107","573424","0.0-107.0","5d9ae3ff9d2a700014869bcb","64e50d1d077cfbb62cfd572e","","","","","2455",""," ","key"," ","16.652876712328418","500","250","pog","328","2","0","334","0","0","343"
"","psychophysics","108","577306","0.0-108.0","5d9ae3ff9d2a700014869bcb","64e50d1d077cfbb62cfd572e","","","","","3881",""," ","key"," ","16.653086206896816","500","250","pog","361","2","0","361","0","0","380"
"","psychophysics","109","581927","0.0-109.0","5d9ae3ff9d2a700014869bcb","64e50d1d077cfbb62cfd572e","","","","","4616",""," ","key"," ","16.65226353790623","500","250","pog","338","2","0","362","0","0","351"
"","psychophysics","110","587237","0.0-110.0","5d9ae3ff9d2a700014869bcb","64e50d1d077cfbb62cfd572e","","","","","5309",""," ","key"," ","16.65251572327044","500","250","pog","294","2","0","280","0","0","310"
"","psychophysics","111","594266","0.0-111.0","5d9ae3ff9d2a700014869bcb","64e50d1d077cfbb62cfd572e","","","","","7028",""," ","key"," ","16.6510617577196","500","250","pog","340","2","0","300","0","0","358"
"","psychophysics","112","600588","0.0-112.0","5d9ae3ff9d2a700014869bcb","64e50d1d077cfbb62cfd572e","","","","","6321",""," ","key"," ","16.65233509234825","500","250","pog","298","2","0","368","0","0","319"
"","psychophysics","113","607748","0.0-113.0","5d9ae3ff9d2a700014869bcb","64e50d1d077cfbb62cfd572e","","","","","7156",""," ","key"," ","16.652932400932418","500","250","pog","288","2","0","344","0","0","301"
"","psychophysics","114","612090","0.0-114.0","5d9ae3ff9d2a700014869bcb","64e50d1d077cfbb62cfd572e","","","","","4338",""," ","key"," ","16.65281081081073","500","250","pog","333","2","0","341","0","0","350"
"","psychophysics","115","618630","0.0-115.0","5d9ae3ff9d2a700014869bcb","64e50d1d077cfbb62cfd572e","","","","","6540",""," ","key"," ","16.652589285714143","500","250","pog","323","2","0","357","0","0","343"
"","psychophysics","116","624349","0.0-116.0","5d9ae3ff9d2a700014869bcb","64e50d1d077cfbb62cfd572e","","","","","5717",""," ","key"," ","16.653187134502964","500","250","pog","278","2","0","396","0","0","300"
"","psychophysics","117","629719","0.0-117.0","5d9ae3ff9d2a700014869bcb","64e50d1d077cfbb62cfd572e","","","","","5367",""," ","key"," ","16.652211180124187","500","250","pog","325","2","0","315","0","0","347"
"","psychophysics","118","634755","0.0-118.0","5d9ae3ff9d2a700014869bcb","64e50d1d077cfbb62cfd572e","","","","","5035",""," ","key"," ","16.65236212624557","500","250","pog","311","2","0","385","0","0","335"
"","psychophysics","119","640119","0.0-119.0","5d9ae3ff9d2a700014869bcb","64e50d1d077cfbb62cfd572e","","","","","5361",""," ","key"," ","16.651968944099405","500","250","pog","349","2","0","325","0","0","376"
"","psychophysics","120","643826","0.0-120.0","5d9ae3ff9d2a700014869bcb","64e50d1d077cfbb62cfd572e","","","","","3703",""," ","key"," ","16.653882352941316","500","250","pog","299","2","0","297","0","0","323"
"","psychophysics","121","645669","0.0-121.0","5d9ae3ff9d2a700014869bcb","64e50d1d077cfbb62cfd572e","","","","","1842",""," ","key"," ","16.652318181817165","500","250","inst","","","","","","",""
"","psychophysics","122","649621","0.0-122.0","5d9ae3ff9d2a700014869bcb","64e50d1d077cfbb62cfd572e","","","","","3950",""," ","key"," ","16.65274576271166","500","250","instPog0","160","1","","190","0","0","160"
"","psychophysics","123","657727","0.0-123.0","5d9ae3ff9d2a700014869bcb","64e50d1d077cfbb62cfd572e","","","","","8105",""," ","key"," ","16.65231687242813","500","250","instPog1","158","1","","190","0","0","160"
"","psychophysics","124","664793","0.0-124.0","5d9ae3ff9d2a700014869bcb","64e50d1d077cfbb62cfd572e","","","","","7065",""," ","key"," ","16.651080378250608","500","250","instPog2","164","1","","160","0","0","160"
"","psychophysics","125","665638","0.0-125.0","5d9ae3ff9d2a700014869bcb","64e50d1d077cfbb62cfd572e","","","","","845",""," ","key"," ","16.663240000000222","500","250","inst","","","","","","",""
"","psychophysics","126","670277","0.0-126.0","5d9ae3ff9d2a700014869bcb","64e50d1d077cfbb62cfd572e","","","","","4638",""," ","key"," ","16.712559566786847","500","250","pog","189","1","1","159","0","0","179"
"","psychophysics","127","673187","0.0-127.0","5d9ae3ff9d2a700014869bcb","64e50d1d077cfbb62cfd572e","","","","","2907",""," ","key"," ","16.65044508670521","500","250","pog","192","1","1","184","0","0","182"
"","psychophysics","128","679837","0.0-128.0","5d9ae3ff9d2a700014869bcb","64e50d1d077cfbb62cfd572e","","","","","6649",""," ","key"," ","16.651328320802016","500","250","pog","189","1","1","105","0","0","173"
"","psychophysics","129","684903","0.0-129.0","5d9ae3ff9d2a700014869bcb","64e50d1d077cfbb62cfd572e","","","","","5065",""," ","key"," ","16.65206930693085","500","250","pog","186","1","1","126","0","0","167"
"","psychophysics","130","690256","0.0-130.0","5d9ae3ff9d2a700014869bcb","64e50d1d077cfbb62cfd572e","","","","","5352",""," ","key"," ","16.652124999999796","500","250","pog","209","1","1","133","0","0","198"
"","psychophysics","131","697453","0.0-131.0","5d9ae3ff9d2a700014869bcb","64e50d1d077cfbb62cfd572e","","","","","7195",""," ","key"," ","16.651664351851785","500","250","pog","165","1","1","203","0","0","149"
"","psychophysics","132","702852","0.0-132.0","5d9ae3ff9d2a700014869bcb","64e50d1d077cfbb62cfd572e","","","","","5396",""," ","key"," ","16.651975232198108","500","250","pog","218","1","1","122","0","0","193"
"","psychophysics","133","705259","0.0-133.0","5d9ae3ff9d2a700014869bcb","64e50d1d077cfbb62cfd572e","","","","","2406",""," ","key"," ","16.655517482517084","500","250","pog","159","1","1","159","0","0","144"
"","psychophysics","134","708288","0.0-134.0","5d9ae3ff9d2a700014869bcb","64e50d1d077cfbb62cfd572e","","","","","3029",""," ","key"," ","16.650723756906494","500","250","pog","165","1","1","171","0","0","153"
"","psychophysics","135","713016","0.0-135.0","5d9ae3ff9d2a700014869bcb","64e50d1d077cfbb62cfd572e","","","","","4726",""," ","key"," ","16.652406360424212","500","250","pog","185","1","1","181","0","0","170"
"","psychophysics","136","717838","0.0-136.0","5d9ae3ff9d2a700014869bcb","64e50d1d077cfbb62cfd572e","","","","","4821",""," ","key"," ","16.65269550173036","500","250","pog","204","1","1","140","0","0","184"
"","psychophysics","137","725840","0.0-137.0","5d9ae3ff9d2a700014869bcb","64e50d1d077cfbb62cfd572e","","","","","null","","null","key","null","16.652156576200483","500","250","pog","212","1","1","112","0","0","190"
"","psychophysics","138","728447","0.0-138.0","5d9ae3ff9d2a700014869bcb","64e50d1d077cfbb62cfd572e","","","","","2606",""," ","key"," ","16.654474358974348","500","250","pog","151","1","1","153","0","0","121"
"","psychophysics","139","733640","0.0-139.0","5d9ae3ff9d2a700014869bcb","64e50d1d077cfbb62cfd572e","","","","","5192",""," ","key"," ","16.652073954983685","500","250","pog","152","1","1","192","0","0","129"
"","psychophysics","140","737400","0.0-140.0","5d9ae3ff9d2a700014869bcb","64e50d1d077cfbb62cfd572e","","","","","3758",""," ","key"," ","16.652125000000005","500","250","pog","199","1","1","195","0","0","186"
"","psychophysics","141","738849","0.0-141.0","5d9ae3ff9d2a700014869bcb","64e50d1d077cfbb62cfd572e","","","","","1439",""," ","key"," ","16.651732558139525","500","250","inst","","","","","","",""
"","psychophysics","142","746073","0.0-142.0","5d9ae3ff9d2a700014869bcb","64e50d1d077cfbb62cfd572e","","","","","7217",""," ","key"," ","16.652903002309593","500","250","instBr3","24","2","","40","0","0","300"
"","psychophysics","143","746981","0.0-143.0","5d9ae3ff9d2a700014869bcb","64e50d1d077cfbb62cfd572e","","","","","906",""," ","key"," ","16.652888888889855","500","250","inst","","","","","","",""
"","psychophysics","144","752096","0.0-144.0","5d9ae3ff9d2a700014869bcb","64e50d1d077cfbb62cfd572e","","","","","5114",""," ","key"," ","16.652032679738554","500","250","br","24","2","1","-2","13","-24","286"
"","psychophysics","145","755250","0.0-145.0","5d9ae3ff9d2a700014869bcb","64e50d1d077cfbb62cfd572e","","","","","3153",""," ","key"," ","16.651941489362024","500","250","br","23","2","1","23","9","11","274"
"","psychophysics","146","759186","0.0-146.0","5d9ae3ff9d2a700014869bcb","64e50d1d077cfbb62cfd572e","","","","","3933",""," ","key"," ","16.65253813559302","500","250","br","15","2","1","-12","15","17","200"
"","psychophysics","147","762361","0.0-147.0","5d9ae3ff9d2a700014869bcb","64e50d1d077cfbb62cfd572e","","","","","3174",""," ","key"," ","16.65439682539673","500","250","br","25","2","1","26","0","-5","223"
"","psychophysics","148","766921","0.0-148.0","5d9ae3ff9d2a700014869bcb","64e50d1d077cfbb62cfd572e","","","","","4555",""," ","key"," ","16.652501831501944","500","250","br","15","2","1","-22","18","18","231"
"","psychophysics","149","769947","0.0-149.0","5d9ae3ff9d2a700014869bcb","64e50d1d077cfbb62cfd572e","","","","","3025",""," ","key"," ","16.652497237568813","500","250","br","15","2","1","-6","21","-15","243"
"","psychophysics","150","771407","0.0-150.0","5d9ae3ff9d2a700014869bcb","64e50d1d077cfbb62cfd572e","","","","","1459",""," ","key"," ","16.648965517240953","500","250","br","21","2","1","21","-8","23","236"
"","psychophysics","151","773884","0.0-151.0","5d9ae3ff9d2a700014869bcb","64e50d1d077cfbb62cfd572e","","","","","2475",""," ","key"," ","16.65209523809529","500","250","br","18","2","1","12","15","8","275"
"","psychophysics","152","777294","0.0-152.0","5d9ae3ff9d2a700014869bcb","64e50d1d077cfbb62cfd572e","","","","","3405",""," ","key"," ","16.652372549019763","500","250","br","21","2","1","11","-24","-11","223"
"","psychophysics","153","779223","0.0-153.0","5d9ae3ff9d2a700014869bcb","64e50d1d077cfbb62cfd572e","","","","","1928",""," ","key"," ","16.651286956521115","500","250","br","17","2","1","6","-26","14","266"
"","psychophysics","154","783071","0.0-154.0","5d9ae3ff9d2a700014869bcb","64e50d1d077cfbb62cfd572e","","","","","3847",""," ","key"," ","16.650317391304238","500","250","br","22","2","1","11","2","-20","280"
"","psychophysics","155","787893","0.0-155.0","5d9ae3ff9d2a700014869bcb","64e50d1d077cfbb62cfd572e","","","","","4820",""," ","key"," ","16.65229411764718","500","250","br","14","2","1","-14","-21","-27","211"
"","psychophysics","156","793756","0.0-156.0","5d9ae3ff9d2a700014869bcb","64e50d1d077cfbb62cfd572e","","","","","5861",""," ","key"," ","16.65291452991439","500","250","br","13","2","1","-24","22","-30","234"
"","psychophysics","157","794879","0.0-157.0","5d9ae3ff9d2a700014869bcb","64e50d1d077cfbb62cfd572e","","","","","1121",""," ","key"," ","16.657803030303594","500","250","br","16","2","1","16","1","-23","258"
"","psychophysics","158","799601","0.0-158.0","5d9ae3ff9d2a700014869bcb","64e50d1d077cfbb62cfd572e","","","","","4721",""," ","key"," ","16.65240282685514","500","250","br","22","2","1","-12","-1","-2","249"
"","psychophysics","159","800536","0.0-159.0","5d9ae3ff9d2a700014869bcb","64e50d1d077cfbb62cfd572e","","","","","934",""," ","key"," ","16.64647272727452","500","250","inst","","","","","","",""
"","psychophysics","160","806711","0.0-160.0","5d9ae3ff9d2a700014869bcb","64e50d1d077cfbb62cfd572e","","","","","6174",""," ","key"," ","16.652383783783737","500","250","instPz1","52","1","","25","","","50"
"","psychophysics","161","810681","0.0-161.0","5d9ae3ff9d2a700014869bcb","64e50d1d077cfbb62cfd572e","","","","","3968",""," ","key"," ","16.65102109704648","500","250","instPz2","25","1","","35","","","20"
"","psychophysics","162","817956","0.0-162.0","5d9ae3ff9d2a700014869bcb","64e50d1d077cfbb62cfd572e","","","","","7272",""," ","key"," ","16.65298853211031","500","250","instPz3","46","1","","100","","","30"
"","psychophysics","163","821638","0.0-163.0","5d9ae3ff9d2a700014869bcb","64e50d1d077cfbb62cfd572e","","","","","3680",""," ","key"," ","16.65391363636379","500","250","instPz4","48","1","","100","","","30"
"","psychophysics","164","822600","0.0-164.0","5d9ae3ff9d2a700014869bcb","64e50d1d077cfbb62cfd572e","","","","","960",""," ","key"," ","16.656824561403738","500","250","inst","","","","","","",""
"","psychophysics","165","827043","0.0-165.0","5d9ae3ff9d2a700014869bcb","64e50d1d077cfbb62cfd572e","","","","","4441",""," ","key"," ","16.652165413533925","500","250","pz","63","1","1","25","","","49"
"","psychophysics","166","830821","0.0-166.0","5d9ae3ff9d2a700014869bcb","64e50d1d077cfbb62cfd572e","","","","","3776",""," ","key"," ","16.650464601769933","500","250","pz","36","1","1","43","","","22"
"","psychophysics","167","833010","0.0-167.0","5d9ae3ff9d2a700014869bcb","64e50d1d077cfbb62cfd572e","","","","","2185",""," ","key"," ","16.649646153846362","500","250","pz","55","1","1","54","","","40"
"","psychophysics","168","840024","0.0-168.0","5d9ae3ff9d2a700014869bcb","64e50d1d077cfbb62cfd572e","","","","","7011",""," ","key"," ","16.651878571428547","500","250","pz","73","1","1","51","","","54"
"","psychophysics","169","845380","0.0-169.0","5d9ae3ff9d2a700014869bcb","64e50d1d077cfbb62cfd572e","","","","","5353",""," ","key"," ","16.652280373831722","500","250","pz","27","1","1","54","","","21"
"","psychophysics","170","848928","0.0-170.0","5d9ae3ff9d2a700014869bcb","64e50d1d077cfbb62cfd572e","","","","","3547",""," ","key"," ","16.650165094339446","500","250","pz","40","1","1","49","","","28"
"","psychophysics","171","853027","0.0-171.0","5d9ae3ff9d2a700014869bcb","64e50d1d077cfbb62cfd572e","","","","","4098",""," ","key"," ","16.65244081632652","500","250","pz","64","1","1","28","","","54"
"","psychophysics","172","855781","0.0-172.0","5d9ae3ff9d2a700014869bcb","64e50d1d077cfbb62cfd572e","","","","","2752",""," ","key"," ","16.65289634146313","500","250","pz","41","1","1","26","","","30"
"","psychophysics","173","859506","0.0-173.0","5d9ae3ff9d2a700014869bcb","64e50d1d077cfbb62cfd572e","","","","","3720",""," ","key"," ","16.652376681614268","500","250","pz","67","1","1","44","","","54"
"","psychophysics","174","861878","0.0-174.0","5d9ae3ff9d2a700014869bcb","64e50d1d077cfbb62cfd572e","","","","","2371",""," ","key"," ","16.651901408451163","500","250","pz","63","1","1","47","","","56"
"","psychophysics","175","863881","0.0-175.0","5d9ae3ff9d2a700014869bcb","64e50d1d077cfbb62cfd572e","","","","","1999",""," ","key"," ","16.648462184874084","500","250","pz","53","1","1","39","","","53"
"","psychophysics","176","868012","0.0-176.0","5d9ae3ff9d2a700014869bcb","64e50d1d077cfbb62cfd572e","","","","","4129",""," ","key"," ","16.65211740890678","500","250","pz","40","1","1","26","","","25"
"","psychophysics","177","871561","0.0-177.0","5d9ae3ff9d2a700014869bcb","64e50d1d077cfbb62cfd572e","","","","","3548",""," ","key"," ","16.650207547170005","500","250","pz","47","1","1","54","","","33"
"","psychophysics","178","876687","0.0-178.0","5d9ae3ff9d2a700014869bcb","64e50d1d077cfbb62cfd572e","","","","","5125",""," ","key"," ","16.652263843648193","500","250","pz","60","1","1","30","","","49"
"","psychophysics","179","878969","0.0-179.0","5d9ae3ff9d2a700014869bcb","64e50d1d077cfbb62cfd572e","","","","","2281",""," ","key"," ","16.652345588235594","500","250","pz","65","1","1","52","","","49"
"","psychophysics","180","879984","0.0-180.0","5d9ae3ff9d2a700014869bcb","64e50d1d077cfbb62cfd572e","","","","","1015",""," ","key"," ","16.645449999999254","500","250","inst","","","","","","",""
"","psychophysics","181","886925","0.0-181.0","5d9ae3ff9d2a700014869bcb","64e50d1d077cfbb62cfd572e","","","","","6939",""," ","key"," ","16.652021634615195","500","250","instEB1","28","1","","40","0","0","30"
"","psychophysics","182","889933","0.0-182.0","5d9ae3ff9d2a700014869bcb","64e50d1d077cfbb62cfd572e","","","","","3007",""," ","key"," ","16.652916201117172","500","250","instEB2","38","1","","30","0","0","40"
"","psychophysics","183","896201","0.0-183.0","5d9ae3ff9d2a700014869bcb","64e50d1d077cfbb62cfd572e","","","","","6267",""," ","key"," ","16.653143617021108","500","250","instEB3","38","1","","27","0","0","45"
"","psychophysics","184","900237","0.0-184.0","5d9ae3ff9d2a700014869bcb","64e50d1d077cfbb62cfd572e","","","","","4034",""," ","key"," ","16.652655601659905","500","250","instEB4","26","1","","40","0","0","30"
"","psychophysics","185","901207","0.0-185.0","5d9ae3ff9d2a700014869bcb","64e50d1d077cfbb62cfd572e","","","","","968",""," ","key"," ","16.65407017543871","500","250","inst","","","","","","",""
"","psychophysics","186","905630","0.0-186.0","5d9ae3ff9d2a700014869bcb","64e50d1d077cfbb62cfd572e","","","","","4418",""," ","key"," ","16.653384905660367","500","250","eb","25","1","","31","0","0","31"
"","psychophysics","187","909738","0.0-187.0","5d9ae3ff9d2a700014869bcb","64e50d1d077cfbb62cfd572e","","","","","4106",""," ","key"," ","16.65373170731695","500","250","eb","42","1","","32","0","0","50"
"","psychophysics","188","914552","0.0-188.0","5d9ae3ff9d2a700014869bcb","64e50d1d077cfbb62cfd572e","","","","","4811",""," ","key"," ","16.65376388888924","500","250","eb","23","1","","25","0","0","26"
"","psychophysics","189","919091","0.0-189.0","5d9ae3ff9d2a700014869bcb","64e50d1d077cfbb62cfd572e","","","","","4536",""," ","key"," ","16.652033210332107","500","250","eb","38","1","","26","0","0","43"
"","psychophysics","190","921684","0.0-190.0","5d9ae3ff9d2a700014869bcb","64e50d1d077cfbb62cfd572e","","","","","2585",""," ","key"," ","16.6525870967739","500","250","eb","33","1","","35","0","0","39"
"","psychophysics","191","924973","0.0-191.0","5d9ae3ff9d2a700014869bcb","64e50d1d077cfbb62cfd572e","","","","","3287",""," ","key"," ","16.6538781725889","500","250","eb","22","1","","26","0","0","25"
"","psychophysics","192","927241","0.0-192.0","5d9ae3ff9d2a700014869bcb","64e50d1d077cfbb62cfd572e","","","","","2265",""," ","key"," ","16.6499111111112","500","250","eb","23","1","","26","0","0","25"
"","psychophysics","193","929742","0.0-193.0","5d9ae3ff9d2a700014869bcb","64e50d1d077cfbb62cfd572e","","","","","2498",""," ","key"," ","16.6540402684567","500","250","eb","30","1","","30","0","0","35"
"","psychophysics","194","932746","0.0-194.0","5d9ae3ff9d2a700014869bcb","64e50d1d077cfbb62cfd572e","","","","","3002",""," ","key"," ","16.652346368714536","500","250","eb","45","1","","45","0","0","52"
"","psychophysics","195","937427","0.0-195.0","5d9ae3ff9d2a700014869bcb","64e50d1d077cfbb62cfd572e","","","","","4674",""," ","key"," ","16.65213571428571","500","250","eb","35","1","","27","0","0","45"
"","psychophysics","196","940512","0.0-196.0","5d9ae3ff9d2a700014869bcb","64e50d1d077cfbb62cfd572e","","","","","3079",""," ","key"," ","16.65408648648677","500","250","eb","32","1","","25","0","0","40"
"","psychophysics","197","943740","0.0-197.0","5d9ae3ff9d2a700014869bcb","64e50d1d077cfbb62cfd572e","","","","","3225",""," ","key"," ","16.652668393782214","500","250","eb","42","1","","48","0","0","48"
"","psychophysics","198","946448","0.0-198.0","5d9ae3ff9d2a700014869bcb","64e50d1d077cfbb62cfd572e","","","","","2706",""," ","key"," ","16.653422360248452","500","250","eb","39","1","","35","0","0","47"
"","psychophysics","199","950894","0.0-199.0","5d9ae3ff9d2a700014869bcb","64e50d1d077cfbb62cfd572e","","","","","4443",""," ","key"," ","16.653868421052646","500","250","eb","29","1","","44","0","0","32"
"","psychophysics","200","953177","0.0-200.0","5d9ae3ff9d2a700014869bcb","64e50d1d077cfbb62cfd572e","","","","","2281",""," ","key"," ","16.654985294117495","500","250","eb","30","1","","29","0","0","34"
"","psychophysics","201","954246","0.0-201.0","5d9ae3ff9d2a700014869bcb","64e50d1d077cfbb62cfd572e","","","","","1068",""," ","key"," ","16.651328125000873","500","250","inst","","","","","","",""
"","psychophysics","202","962189","0.0-202.0","5d9ae3ff9d2a700014869bcb","64e50d1d077cfbb62cfd572e","","","","","7940",""," ","key"," ","16.651804621848658","500","250","instZol1","0.10000000000000003","","","-1.3","0","0",""
"","psychophysics","203","969357","0.0-203.0","5d9ae3ff9d2a700014869bcb","64e50d1d077cfbb62cfd572e","","","","","7164",""," ","key"," ","16.65195571095574","500","250","instZol2","-0.6999999999999993","2","","2","0","0",""
"","psychophysics","204","970326","0.0-204.0","5d9ae3ff9d2a700014869bcb","64e50d1d077cfbb62cfd572e","","","","","968",""," ","key"," ","16.65284210526417","500","250","inst","","","","","","",""
"","psychophysics","205","974865","0.0-205.0","5d9ae3ff9d2a700014869bcb","64e50d1d077cfbb62cfd572e","","","","","4537",""," ","key"," ","16.65398897058827","500","250","zol","-0.9799999999999999","2","1","-0.02","23","-13",""
"","psychophysics","206","979812","0.0-206.0","5d9ae3ff9d2a700014869bcb","64e50d1d077cfbb62cfd572e","","","","","4943",""," ","key"," ","16.65222297297284","500","250","zol","-0.53","2","1","0.13","8","-15",""
"","psychophysics","207","984504","0.0-207.0","5d9ae3ff9d2a700014869bcb","64e50d1d077cfbb62cfd572e","","","","","4689",""," ","key"," ","16.652096085409465","500","250","zol","-1.1300000000000001","2","1","-0.07","-28","-25",""
"","psychophysics","208","987455","0.0-208.0","5d9ae3ff9d2a700014869bcb","64e50d1d077cfbb62cfd572e","","","","","2947",""," ","key"," ","16.65060795454536","500","250","zol","-1.0599999999999998","2","1","0.36","-19","13",""
"","psychophysics","209","995457","0.0-209.0","5d9ae3ff9d2a700014869bcb","64e50d1d077cfbb62cfd572e","","","","","null","","null","key","null","16.65144676409199","500","250","zol","0.55","2","1","0.25","-21","19",""
"","psychophysics","210","998684","0.0-210.0","5d9ae3ff9d2a700014869bcb","64e50d1d077cfbb62cfd572e","","","","","3222",""," ","key"," ","16.654041450777104","500","250","zol","-1.03","2","1","-0.57","-19","24",""
"","psychophysics","211","1003606","0.0-211.0","5d9ae3ff9d2a700014869bcb","64e50d1d077cfbb62cfd572e","","","","","4920",""," ","key"," ","16.65322372881356","500","250","zol","-1.29","2","1","-0.31","-28","15",""
"","psychophysics","212","1007961","0.0-212.0","5d9ae3ff9d2a700014869bcb","64e50d1d077cfbb62cfd572e","","","","","4353",""," ","key"," ","16.652734615384656","500","250","zol","-1.25","2","1","-0.65","-18","7",""
"","psychophysics","213","1012323","0.0-213.0","5d9ae3ff9d2a700014869bcb","64e50d1d077cfbb62cfd572e","","","","","4358",""," ","key"," ","16.65373946360127","500","250","zol","-1.2100000000000002","2","1","0.11","-9","-4",""
"","psychophysics","214","1016191","0.0-214.0","5d9ae3ff9d2a700014869bcb","64e50d1d077cfbb62cfd572e","","","","","3866",""," ","key"," ","16.65237662337672","500","250","zol","-1.2500000000000002","2","1","0.55","3","17",""
"","psychophysics","215","1019262","0.0-215.0","5d9ae3ff9d2a700014869bcb","64e50d1d077cfbb62cfd572e","","","","","3067",""," ","key"," ","16.654239130434807","500","250","zol","-1.35","2","1","0.25","19","12",""
"","psychophysics","216","1025327","0.0-216.0","5d9ae3ff9d2a700014869bcb","64e50d1d077cfbb62cfd572e","","","","","6063",""," ","key"," ","16.652479338842912","500","250","zol","-0.4","2","1","0.5","-25","26",""
"","psychophysics","217","1029948","0.0-217.0","5d9ae3ff9d2a700014869bcb","64e50d1d077cfbb62cfd572e","","","","","4617",""," ","key"," ","16.652967509025178","500","250","zol","-0.7","2","1","0.4","0","-10",""
"","psychophysics","218","1034798","0.0-218.0","5d9ae3ff9d2a700014869bcb","64e50d1d077cfbb62cfd572e","","","","","4845",""," ","key"," ","16.653424137931093","500","250","zol","-0.3699999999999999","2","1","-0.63","7","-1",""
"","psychophysics","219","1040696","0.0-219.0","5d9ae3ff9d2a700014869bcb","64e50d1d077cfbb62cfd572e","","","","","5895",""," ","key"," ","16.652254957507203","500","250","zol","-0.7699999999999998","2","1","-0.63","10","-17",""
