"success","trial_type","trial_index","time_elapsed","internal_node_id","pid","sid","timeout","failed_images","failed_audio","failed_video","rt","stimulus","response","response_type","key_press","avg_frame_time","center_x","center_y","task","resp","version","block","start","jitterX","jitterY","parA"
"true","fullscreen","0","3232","0.0-0.0","5ee3fbb98976fc0f59fe2939","64e5091f97c88e2785f05c9b","","","","","","","","","","","","","","","","","","","",""
"true","preload","1","3322","0.0-1.0","5ee3fbb98976fc0f59fe2939","64e5091f97c88e2785f05c9b","false","[]","[]","[]","","","","","","","","","","","","","","","",""
"","html-button-response","2","4566","0.0-2.0","5ee3fbb98976fc0f59fe2939","64e5091f97c88e2785f05c9b","","","","","1243","Please Make Sure Your Audio Is On.","0","","","","","","","","","","","","",""
"","psychophysics","3","8270","0.0-3.0","5ee3fbb98976fc0f59fe2939","64e5091f97c88e2785f05c9b","","","","","3700",""," ","key"," ","8.31868764044944","768","250","","","","","","","",""
"","psychophysics","4","10874","0.0-4.0","5ee3fbb98976fc0f59fe2939","64e5091f97c88e2785f05c9b","","","","","2603",""," ","key"," ","8.318708333333333","500","250","inst","","","","","","",""
"","psychophysics","5","13686","0.0-5.0","5ee3fbb98976fc0f59fe2939","64e5091f97c88e2785f05c9b","","","","","2811",""," ","key"," ","8.31872997032641","500","250","sample0","","","","","","",""
"","psychophysics","6","16078","0.0-6.0","5ee3fbb98976fc0f59fe2939","64e5091f97c88e2785f05c9b","","","","","2391",""," ","key"," ","8.318620209059231","500","250","sample1","","","","","","",""
"","psychophysics","7","32916","0.0-7.0","5ee3fbb98976fc0f59fe2939","64e5091f97c88e2785f05c9b","","","","","16837",""," ","key"," ","8.318769649036085","500","250","sample2","102","","","","","",""
"","psychophysics","8","36639","0.0-8.0","5ee3fbb98976fc0f59fe2939","64e5091f97c88e2785f05c9b","","","","","3721",""," ","key"," ","8.318728699551565","500","250","sample3","92","","","","","",""
"","psychophysics","9","42063","0.0-9.0","5ee3fbb98976fc0f59fe2939","64e5091f97c88e2785f05c9b","","","","","5423",""," ","key"," ","8.318781874039942","500","250","sample4","102","","","","","",""
"","psychophysics","10","47505","0.0-10.0","5ee3fbb98976fc0f59fe2939","64e5091f97c88e2785f05c9b","","","","","5441",""," ","key"," ","8.318744257274119","500","250","sample5","","","","","","",""
"","psychophysics","11","58747","0.0-11.0","5ee3fbb98976fc0f59fe2939","64e5091f97c88e2785f05c9b","","","","","11240",""," ","key"," ","8.318758697261291","500","250","sample6","500","","","","","",""
"","psychophysics","12","62888","0.0-12.0","5ee3fbb98976fc0f59fe2939","64e5091f97c88e2785f05c9b","","","","","4140",""," ","key"," ","8.31873641851106","500","250","inst","","","","","","",""
"","psychophysics","13","68307","0.0-13.0","5ee3fbb98976fc0f59fe2939","64e5091f97c88e2785f05c9b","","","","","5418",""," ","key"," ","8.318800000000001","500","250","inst","","","","","","",""
"","psychophysics","14","71145","0.0-14.0","5ee3fbb98976fc0f59fe2939","64e5091f97c88e2785f05c9b","","","","","2837",""," ","key"," ","8.318685294117612","500","250","inst","","","","","","",""
"","psychophysics","15","72784","0.0-15.0","5ee3fbb98976fc0f59fe2939","64e5091f97c88e2785f05c9b","","","","","1637",""," ","key"," ","8.318647959183682","500","250","inst","","","","","","",""
"","psychophysics","16","73996","0.0-16.0","5ee3fbb98976fc0f59fe2939","64e5091f97c88e2785f05c9b","","","","","1211",""," ","key"," ","8.318606896551652","500","250","inst","","","","","","",""
"","psychophysics","17","82076","0.0-17.0","5ee3fbb98976fc0f59fe2939","64e5091f97c88e2785f05c9b","","","","","8079",""," ","key"," ","8.318763917525775","500","250","instPog0","340","2","","370","0","0","340"
"","psychophysics","18","85988","0.0-18.0","5ee3fbb98976fc0f59fe2939","64e5091f97c88e2785f05c9b","","","","","3911",""," ","key"," ","8.318639658848605","500","250","instPog1","332","2","","370","0","0","340"
"","psychophysics","19","92736","0.0-19.0","5ee3fbb98976fc0f59fe2939","64e5091f97c88e2785f05c9b","","","","","6746",""," ","key"," ","8.318763255240436","500","250","instPog2","322","2","","340","0","0","340"
"","psychophysics","20","95075","0.0-20.0","5ee3fbb98976fc0f59fe2939","64e5091f97c88e2785f05c9b","","","","","2337",""," ","key"," ","8.318767857142873","500","250","inst","","","","","","",""
"","psychophysics","21","101541","0.0-21.0","5ee3fbb98976fc0f59fe2939","64e5091f97c88e2785f05c9b","","","","","6464",""," ","key"," ","8.318715206185553","500","250","pog","338","2","0","286","0","0","370"
"","psychophysics","22","105235","0.0-22.0","5ee3fbb98976fc0f59fe2939","64e5091f97c88e2785f05c9b","","","","","3693",""," ","key"," ","8.318690744920977","500","250","pog","304","2","0","298","0","0","339"
"","psychophysics","23","109601","0.0-23.0","5ee3fbb98976fc0f59fe2939","64e5091f97c88e2785f05c9b","","","","","4365",""," ","key"," ","8.318740458015276","500","250","pog","302","2","0","302","0","0","332"
"","psychophysics","24","115533","0.0-24.0","5ee3fbb98976fc0f59fe2939","64e5091f97c88e2785f05c9b","","","","","5931",""," ","key"," ","8.31871629213482","500","250","pog","276","2","0","380","0","0","308"
"","psychophysics","25","119739","0.0-25.0","5ee3fbb98976fc0f59fe2939","64e5091f97c88e2785f05c9b","","","","","4205",""," ","key"," ","8.318710891089095","500","250","pog","350","2","0","364","0","0","372"
"","psychophysics","26","126355","0.0-26.0","5ee3fbb98976fc0f59fe2939","64e5091f97c88e2785f05c9b","","","","","6615",""," ","key"," ","8.31877581863979","500","250","pog","334","2","0","288","0","0","367"
"","psychophysics","27","130349","0.0-27.0","5ee3fbb98976fc0f59fe2939","64e5091f97c88e2785f05c9b","","","","","3993",""," ","key"," ","8.318693110647201","500","250","pog","326","2","0","290","0","0","360"
"","psychophysics","28","137366","0.0-28.0","5ee3fbb98976fc0f59fe2939","64e5091f97c88e2785f05c9b","","","","","7015",""," ","key"," ","8.318737841043903","500","250","pog","287","2","0","355","0","0","313"
"","psychophysics","29","140762","0.0-29.0","5ee3fbb98976fc0f59fe2939","64e5091f97c88e2785f05c9b","","","","","3395",""," ","key"," ","8.318781326781341","500","250","pog","350","2","0","386","0","0","380"
"","psychophysics","30","143350","0.0-30.0","5ee3fbb98976fc0f59fe2939","64e5091f97c88e2785f05c9b","","","","","2587",""," ","key"," ","8.318699999999971","500","250","pog","330","2","0","330","0","0","358"
"","psychophysics","31","146768","0.0-31.0","5ee3fbb98976fc0f59fe2939","64e5091f97c88e2785f05c9b","","","","","3417",""," ","key"," ","8.318665853658516","500","250","pog","337","2","0","291","0","0","371"
"","psychophysics","32","150924","0.0-32.0","5ee3fbb98976fc0f59fe2939","64e5091f97c88e2785f05c9b","","","","","4153",""," ","key"," ","8.318646586345356","500","250","pog","287","2","0","333","0","0","324"
"","psychophysics","33","154564","0.0-33.0","5ee3fbb98976fc0f59fe2939","64e5091f97c88e2785f05c9b","","","","","3639",""," ","key"," ","8.318750572082367","500","250","pog","324","2","0","396","0","0","353"
"","psychophysics","34","158456","0.0-34.0","5ee3fbb98976fc0f59fe2939","64e5091f97c88e2785f05c9b","","","","","3891",""," ","key"," ","8.318715203426116","500","250","pog","345","2","0","307","0","0","371"
"","psychophysics","35","163336","0.0-35.0","5ee3fbb98976fc0f59fe2939","64e5091f97c88e2785f05c9b","","","","","4879",""," ","key"," ","8.318757264957261","500","250","pog","338","2","0","292","0","0","365"
"","psychophysics","36","164730","0.0-36.0","5ee3fbb98976fc0f59fe2939","64e5091f97c88e2785f05c9b","","","","","1392",""," ","key"," ","8.318850299401326","500","250","inst","","","","","","",""
"","psychophysics","37","169188","0.0-37.0","5ee3fbb98976fc0f59fe2939","64e5091f97c88e2785f05c9b","","","","","4457",""," ","key"," ","8.318887850467254","500","250","instBr0","0","","","0","0","0","300"
"","psychophysics","38","173956","0.0-38.0","5ee3fbb98976fc0f59fe2939","64e5091f97c88e2785f05c9b","","","","","4766",""," ","key"," ","8.31874125874122","500","250","instBr1","-40","","","-40","0","0","300"
"","psychophysics","39","185162","0.0-39.0","5ee3fbb98976fc0f59fe2939","64e5091f97c88e2785f05c9b","","","","","11205",""," ","key"," ","8.318754829123325","500","250","instBr3","-7","1","","40","0","0","300"
"","psychophysics","40","186730","0.0-40.0","5ee3fbb98976fc0f59fe2939","64e5091f97c88e2785f05c9b","","","","","1567",""," ","key"," ","8.318558510638274","500","250","inst","","","","","","",""
"","psychophysics","41","191368","0.0-41.0","5ee3fbb98976fc0f59fe2939","64e5091f97c88e2785f05c9b","","","","","4636",""," ","key"," ","8.318762589928038","500","250","br","-20","1","0","8","-2","20","290"
"","psychophysics","42","195533","0.0-42.0","5ee3fbb98976fc0f59fe2939","64e5091f97c88e2785f05c9b","","","","","4163",""," ","key"," ","8.318754000000016","500","250","br","-16","1","0","22","8","18","256"
"","psychophysics","43","198147","0.0-43.0","5ee3fbb98976fc0f59fe2939","64e5091f97c88e2785f05c9b","","","","","2612",""," ","key"," ","8.318664536741208","500","250","br","-17","1","0","-20","-4","-4","296"
"","psychophysics","44","201615","0.0-44.0","5ee3fbb98976fc0f59fe2939","64e5091f97c88e2785f05c9b","","","","","3467",""," ","key"," ","8.318656249999968","500","250","br","-16","1","0","3","-7","-3","256"
"","psychophysics","45","205271","0.0-45.0","5ee3fbb98976fc0f59fe2939","64e5091f97c88e2785f05c9b","","","","","3655",""," ","key"," ","8.318714611872167","500","250","br","-16","1","0","6","28","-28","287"
"","psychophysics","46","208005","0.0-46.0","5ee3fbb98976fc0f59fe2939","64e5091f97c88e2785f05c9b","","","","","2732",""," ","key"," ","8.31879268292678","500","250","br","-9","1","0","-5","-18","-24","270"
"","psychophysics","47","212165","0.0-47.0","5ee3fbb98976fc0f59fe2939","64e5091f97c88e2785f05c9b","","","","","4159",""," ","key"," ","8.31875951903805","500","250","br","-17","1","0","15","16","-10","231"
"","psychophysics","48","214841","0.0-48.0","5ee3fbb98976fc0f59fe2939","64e5091f97c88e2785f05c9b","","","","","2675",""," ","key"," ","8.318732087227488","500","250","br","-16","1","0","-15","-29","0","221"
"","psychophysics","49","220413","0.0-49.0","5ee3fbb98976fc0f59fe2939","64e5091f97c88e2785f05c9b","","","","","5571",""," ","key"," ","8.318724962630812","500","250","br","-21","1","0","-1","0","5","270"
"","psychophysics","50","223411","0.0-50.0","5ee3fbb98976fc0f59fe2939","64e5091f97c88e2785f05c9b","","","","","2996",""," ","key"," ","8.318710306406649","500","250","br","-12","1","0","26","4","-4","239"
"","psychophysics","51","226805","0.0-51.0","5ee3fbb98976fc0f59fe2939","64e5091f97c88e2785f05c9b","","","","","3393",""," ","key"," ","8.318675675675678","500","250","br","-17","1","0","-6","8","-15","274"
"","psychophysics","52","231599","0.0-52.0","5ee3fbb98976fc0f59fe2939","64e5091f97c88e2785f05c9b","","","","","4793",""," ","key"," ","8.318706086956512","500","250","br","-16","1","0","22","21","22","247"
"","psychophysics","53","236627","0.0-53.0","5ee3fbb98976fc0f59fe2939","64e5091f97c88e2785f05c9b","","","","","5026",""," ","key"," ","8.318786423841045","500","250","br","-18","1","0","24","26","-10","261"
"","psychophysics","54","239720","0.0-54.0","5ee3fbb98976fc0f59fe2939","64e5091f97c88e2785f05c9b","","","","","3091",""," ","key"," ","8.318711590296491","500","250","br","-14","1","0","9","-22","28","228"
"","psychophysics","55","242224","0.0-55.0","5ee3fbb98976fc0f59fe2939","64e5091f97c88e2785f05c9b","","","","","2502",""," ","key"," ","8.318746666666605","500","250","br","-20","1","0","-4","17","-16","274"
"","psychophysics","56","369759","0.0-56.0","5ee3fbb98976fc0f59fe2939","64e5091f97c88e2785f05c9b","","","","","127535",""," ","key"," ","41.66185527605358","500","250","inst","","","","","","",""
"","psychophysics","57","371941","0.0-57.0","5ee3fbb98976fc0f59fe2939","64e5091f97c88e2785f05c9b","","","","","2180",""," ","key"," ","8.31864367816102","500","250","instEB0","40","2","","40","0","0","40"
"","psychophysics","58","379039","0.0-58.0","5ee3fbb98976fc0f59fe2939","64e5091f97c88e2785f05c9b","","","","","7097",""," ","key"," ","8.318731220657288","500","250","instEB1","36","2","","30","0","0","40"
"","psychophysics","59","383859","0.0-59.0","5ee3fbb98976fc0f59fe2939","64e5091f97c88e2785f05c9b","","","","","4819",""," ","key"," ","8.318673575129512","500","250","instEB2","38","2","","40","0","0","30"
"","psychophysics","60","393101","0.0-60.0","5ee3fbb98976fc0f59fe2939","64e5091f97c88e2785f05c9b","","","","","9241",""," ","key"," ","8.318766666666672","500","250","instEB3","35","2","","45","0","0","27"
"","psychophysics","61","399163","0.0-61.0","5ee3fbb98976fc0f59fe2939","64e5091f97c88e2785f05c9b","","","","","6061",""," ","key"," ","8.318768913342497","500","250","instEB4","48","2","","30","0","0","40"
"","psychophysics","62","401427","0.0-62.0","5ee3fbb98976fc0f59fe2939","64e5091f97c88e2785f05c9b","","","","","2263",""," ","key"," ","8.318819188191753","500","250","inst","","","","","","",""
"","psychophysics","63","409430","0.0-63.0","5ee3fbb98976fc0f59fe2939","64e5091f97c88e2785f05c9b","","","","","null","","null","key","null","8.336115745568323","500","250","eb","51","2","","29","0","0","47"
"","psychophysics","64","412868","0.0-64.0","5ee3fbb98976fc0f59fe2939","64e5091f97c88e2785f05c9b","","","","","3437",""," ","key"," ","8.318680387409179","500","250","eb","51","2","","32","0","0","49"
"","psychophysics","65","416260","0.0-65.0","5ee3fbb98976fc0f59fe2939","64e5091f97c88e2785f05c9b","","","","","3391",""," ","key"," ","8.318714285714396","500","250","eb","34","2","","44","0","0","27"
"","psychophysics","66","424262","0.0-66.0","5ee3fbb98976fc0f59fe2939","64e5091f97c88e2785f05c9b","","","","","null","","null","key","null","8.336078206465066","500","250","eb","37","2","","25","0","0","31"
"","psychophysics","67","428555","0.0-67.0","5ee3fbb98976fc0f59fe2939","64e5091f97c88e2785f05c9b","","","","","4291",""," ","key"," ","8.318706796116544","500","250","eb","40","2","","26","0","0","35"
"","psychophysics","68","434189","0.0-68.0","5ee3fbb98976fc0f59fe2939","64e5091f97c88e2785f05c9b","","","","","5633",""," ","key"," ","8.318633677991174","500","250","eb","53","2","","26","0","0","51"
"","psychophysics","69","437173","0.0-69.0","5ee3fbb98976fc0f59fe2939","64e5091f97c88e2785f05c9b","","","","","2982",""," ","key"," ","8.318666666666573","500","250","eb","47","2","","35","0","0","45"
"","psychophysics","70","439987","0.0-70.0","5ee3fbb98976fc0f59fe2939","64e5091f97c88e2785f05c9b","","","","","2813",""," ","key"," ","8.318683431952566","500","250","eb","47","2","","48","0","0","42"
"","psychophysics","71","445381","0.0-71.0","5ee3fbb98976fc0f59fe2939","64e5091f97c88e2785f05c9b","","","","","5393",""," ","key"," ","8.318752704791356","500","250","eb","32","2","","45","0","0","26"
"","psychophysics","72","450637","0.0-72.0","5ee3fbb98976fc0f59fe2939","64e5091f97c88e2785f05c9b","","","","","5255",""," ","key"," ","8.31875911251979","500","250","eb","38","2","","30","0","0","34"
"","psychophysics","73","458275","0.0-73.0","5ee3fbb98976fc0f59fe2939","64e5091f97c88e2785f05c9b","","","","","7637",""," ","key"," ","8.31875027262813","500","250","eb","57","2","","42","0","0","53"
"","psychophysics","74","465476","0.0-74.0","5ee3fbb98976fc0f59fe2939","64e5091f97c88e2785f05c9b","","","","","7199",""," ","key"," ","8.318733796296295","500","250","eb","43","2","","30","0","0","38"
"","psychophysics","75","472850","0.0-75.0","5ee3fbb98976fc0f59fe2939","64e5091f97c88e2785f05c9b","","","","","7372",""," ","key"," ","8.318791196388288","500","250","eb","56","2","","26","0","0","52"
"","psychophysics","76","475250","0.0-76.0","5ee3fbb98976fc0f59fe2939","64e5091f97c88e2785f05c9b","","","","","2399",""," ","key"," ","8.318696864111347","500","250","eb","38","2","","34","0","0","35"
"","psychophysics","77","483251","0.0-77.0","5ee3fbb98976fc0f59fe2939","64e5091f97c88e2785f05c9b","","","","","null","","null","key","null","8.318795005202876","500","250","eb","58","2","","24","0","0","54"
"","psychophysics","78","483288","0.0-78.0","5ee3fbb98976fc0f59fe2939","64e5091f97c88e2785f05c9b","","","","","36",""," ","key"," ","8.32325000000128","500","250","inst","","","","","","",""
"","psychophysics","79","493177","0.0-79.0","5ee3fbb98976fc0f59fe2939","64e5091f97c88e2785f05c9b","","","","","9888",""," ","key"," ","8.31875231676495","500","250","instZol0","0","","","0","0","0",""
"","psychophysics","80","499094","0.0-80.0","5ee3fbb98976fc0f59fe2939","64e5091f97c88e2785f05c9b","","","","","5916",""," ","key"," ","8.31874261603374","500","250","instZol1","0.3999999999999998","","","-1.3","0","0",""
"","psychophysics","81","506226","0.0-81.0","5ee3fbb98976fc0f59fe2939","64e5091f97c88e2785f05c9b","","","","","7131",""," ","key"," ","8.318732476635539","500","250","instZol2","-0.9999999999999992","2","","2","0","0",""
"","psychophysics","82","507308","0.0-82.0","5ee3fbb98976fc0f59fe2939","64e5091f97c88e2785f05c9b","","","","","1081",""," ","key"," ","8.31860465116261","500","250","inst","","","","","","",""
"","psychophysics","83","511954","0.0-83.0","5ee3fbb98976fc0f59fe2939","64e5091f97c88e2785f05c9b","","","","","4644",""," ","key"," ","8.31873655913975","500","250","zol","-1.32","2","0","0.42","-3","-2",""
"","psychophysics","84","515935","0.0-84.0","5ee3fbb98976fc0f59fe2939","64e5091f97c88e2785f05c9b","","","","","3979",""," ","key"," ","8.318693920335415","500","250","zol","-0.7799999999999999","2","0","-0.02","-27","4",""
"","psychophysics","85","518931","0.0-85.0","5ee3fbb98976fc0f59fe2939","64e5091f97c88e2785f05c9b","","","","","2994",""," ","key"," ","8.318710306406729","500","250","zol","-0.9899999999999999","2","0","-0.31","-11","-18",""
"","psychophysics","86","522383","0.0-86.0","5ee3fbb98976fc0f59fe2939","64e5091f97c88e2785f05c9b","","","","","3450",""," ","key"," ","8.318780193236659","500","250","zol","-1.2200000000000002","2","0","-0.08","11","3",""
"","psychophysics","87","525539","0.0-87.0","5ee3fbb98976fc0f59fe2939","64e5091f97c88e2785f05c9b","","","","","3154",""," ","key"," ","8.31869393139835","500","250","zol","-1.3300000000000003","2","0","0.43","8","11",""
"","psychophysics","88","530329","0.0-88.0","5ee3fbb98976fc0f59fe2939","64e5091f97c88e2785f05c9b","","","","","4789",""," ","key"," ","8.318718260869627","500","250","zol","-1.6500000000000004","2","0","0.05","13","18",""
"","psychophysics","89","533864","0.0-89.0","5ee3fbb98976fc0f59fe2939","64e5091f97c88e2785f05c9b","","","","","3533",""," ","key"," ","8.318761229314445","500","250","zol","-1.4100000000000004","2","0","0.21","-23","-2",""
"","psychophysics","90","537671","0.0-90.0","5ee3fbb98976fc0f59fe2939","64e5091f97c88e2785f05c9b","","","","","3805",""," ","key"," ","8.318783369803082","500","250","zol","-1.6000000000000003","2","0","0.5","-15","-26",""
"","psychophysics","91","540905","0.0-91.0","5ee3fbb98976fc0f59fe2939","64e5091f97c88e2785f05c9b","","","","","3233",""," ","key"," ","8.318721649484509","500","250","zol","-1.4500000000000004","2","0","0.65","21","14",""
"","psychophysics","92","544446","0.0-92.0","5ee3fbb98976fc0f59fe2939","64e5091f97c88e2785f05c9b","","","","","3539",""," ","key"," ","8.318745283018973","500","250","zol","-0.8499999999999999","2","0","-0.25","14","-3",""
"","psychophysics","93","547353","0.0-93.0","5ee3fbb98976fc0f59fe2939","64e5091f97c88e2785f05c9b","","","","","2905",""," ","key"," ","8.318787965615998","500","250","zol","-1.1600000000000001","2","0","0.46","17","15",""
"","psychophysics","94","551638","0.0-94.0","5ee3fbb98976fc0f59fe2939","64e5091f97c88e2785f05c9b","","","","","4283",""," ","key"," ","8.31886186770409","500","250","zol","-1.6300000000000006","2","0","-0.07","10","20",""
"","psychophysics","95","554532","0.0-95.0","5ee3fbb98976fc0f59fe2939","64e5091f97c88e2785f05c9b","","","","","2893",""," ","key"," ","8.31868299711811","500","250","zol","-1.0999999999999999","2","0","-0.2","-20","-1",""
"","psychophysics","96","556796","0.0-96.0","5ee3fbb98976fc0f59fe2939","64e5091f97c88e2785f05c9b","","","","","2262",""," ","key"," ","8.31866789667917","500","250","zol","-1.0499999999999998","2","0","0.15","-20","-11",""
"","psychophysics","97","559604","0.0-97.0","5ee3fbb98976fc0f59fe2939","64e5091f97c88e2785f05c9b","","","","","2807",""," ","key"," ","8.318724035608405","500","250","zol","-1.7200000000000006","2","0","0.62","13","30",""
"","psychophysics","98","560422","0.0-98.0","5ee3fbb98976fc0f59fe2939","64e5091f97c88e2785f05c9b","","","","","817",""," ","key"," ","8.318618556700608","500","250","inst","","","","","","",""
"","psychophysics","99","563618","0.0-99.0","5ee3fbb98976fc0f59fe2939","64e5091f97c88e2785f05c9b","","","","","3195",""," ","key"," ","8.318715404699661","500","250","instPzPre","50","0","","50","","","50"
"","psychophysics","100","567432","0.0-100.0","5ee3fbb98976fc0f59fe2939","64e5091f97c88e2785f05c9b","","","","","3813",""," ","key"," ","8.31872707423571","500","250","instPz0","50","2","","50","","","50"
"","psychophysics","101","574096","0.0-101.0","5ee3fbb98976fc0f59fe2939","64e5091f97c88e2785f05c9b","","","","","6663",""," ","key"," ","8.318692500000033","500","250","instPz1","41","2","","25","","","50"
"","psychophysics","102","576712","0.0-102.0","5ee3fbb98976fc0f59fe2939","64e5091f97c88e2785f05c9b","","","","","2615",""," ","key"," ","8.318734824281043","500","250","instPz2","27","2","","20","","","35"
"","psychophysics","103","582288","0.0-103.0","5ee3fbb98976fc0f59fe2939","64e5091f97c88e2785f05c9b","","","","","5574",""," ","key"," ","8.318749253731395","500","250","instPz3","64","2","","30","","","100"
"","psychophysics","104","584985","0.0-104.0","5ee3fbb98976fc0f59fe2939","64e5091f97c88e2785f05c9b","","","","","2695",""," ","key"," ","8.318705882353063","500","250","instPz4","77","2","","30","","","100"
"","psychophysics","105","585936","0.0-105.0","5ee3fbb98976fc0f59fe2939","64e5091f97c88e2785f05c9b","","","","","951",""," ","key"," ","8.318415929203795","500","250","inst","","","","","","",""
"","psychophysics","106","590801","0.0-106.0","5ee3fbb98976fc0f59fe2939","64e5091f97c88e2785f05c9b","","","","","4863",""," ","key"," ","8.31870890410947","500","250","pz","44","2","0","41","","","55"
"","psychophysics","107","596993","0.0-107.0","5ee3fbb98976fc0f59fe2939","64e5091f97c88e2785f05c9b","","","","","6191",""," ","key"," ","8.318730820996015","500","250","pz","21","2","0","53","","","25"
"","psychophysics","108","600129","0.0-108.0","5ee3fbb98976fc0f59fe2939","64e5091f97c88e2785f05c9b","","","","","3135",""," ","key"," ","8.31871542553207","500","250","pz","21","2","0","38","","","29"
"","psychophysics","109","602701","0.0-109.0","5ee3fbb98976fc0f59fe2939","64e5091f97c88e2785f05c9b","","","","","2570",""," ","key"," ","8.31868831168818","500","250","pz","21","2","0","48","","","31"
"","psychophysics","110","605577","0.0-110.0","5ee3fbb98976fc0f59fe2939","64e5091f97c88e2785f05c9b","","","","","2874",""," ","key"," ","8.31882898550737","500","250","pz","34","2","0","47","","","48"
"","psychophysics","111","607673","0.0-111.0","5ee3fbb98976fc0f59fe2939","64e5091f97c88e2785f05c9b","","","","","2095",""," ","key"," ","8.318697211155445","500","250","pz","22","2","0","29","","","29"
"","psychophysics","112","609393","0.0-112.0","5ee3fbb98976fc0f59fe2939","64e5091f97c88e2785f05c9b","","","","","1719",""," ","key"," ","8.318679611650138","500","250","pz","40","2","0","60","","","38"
"","psychophysics","113","612423","0.0-113.0","5ee3fbb98976fc0f59fe2939","64e5091f97c88e2785f05c9b","","","","","3029",""," ","key"," ","8.318707988981014","500","250","pz","14","2","0","36","","","20"
"","psychophysics","114","615631","0.0-114.0","5ee3fbb98976fc0f59fe2939","64e5091f97c88e2785f05c9b","","","","","3207",""," ","key"," ","8.31871428571448","500","250","pz","18","2","0","40","","","24"
"","psychophysics","115","617653","0.0-115.0","5ee3fbb98976fc0f59fe2939","64e5091f97c88e2785f05c9b","","","","","2021",""," ","key"," ","8.318557851239731","500","250","pz","21","2","0","22","","","22"
"","psychophysics","116","619535","0.0-116.0","5ee3fbb98976fc0f59fe2939","64e5091f97c88e2785f05c9b","","","","","1881",""," ","key"," ","8.318702222222152","500","250","pz","24","2","0","33","","","28"
"","psychophysics","117","622125","0.0-117.0","5ee3fbb98976fc0f59fe2939","64e5091f97c88e2785f05c9b","","","","","2589",""," ","key"," ","8.31866451612929","500","250","pz","20","2","0","34","","","32"
"","psychophysics","118","625435","0.0-118.0","5ee3fbb98976fc0f59fe2939","64e5091f97c88e2785f05c9b","","","","","3308",""," ","key"," ","8.318785894206744","500","250","pz","46","2","0","47","","","52"
"","psychophysics","119","628251","0.0-119.0","5ee3fbb98976fc0f59fe2939","64e5091f97c88e2785f05c9b","","","","","2814",""," ","key"," ","8.318742603550255","500","250","pz","21","2","0","46","","","32"
"","psychophysics","120","630244","0.0-120.0","5ee3fbb98976fc0f59fe2939","64e5091f97c88e2785f05c9b","","","","","1991",""," ","key"," ","8.318571428571703","500","250","pz","26","2","0","36","","","43"
"","psychophysics","121","630990","0.0-121.0","5ee3fbb98976fc0f59fe2939","64e5091f97c88e2785f05c9b","","","","","745",""," ","key"," ","8.318561797752306","500","250","inst","","","","","","",""
"","psychophysics","122","633190","0.0-122.0","5ee3fbb98976fc0f59fe2939","64e5091f97c88e2785f05c9b","","","","","2199",""," ","key"," ","8.318642585551608","500","250","instPz1","25","1","","25","","","50"
"","psychophysics","123","637170","0.0-123.0","5ee3fbb98976fc0f59fe2939","64e5091f97c88e2785f05c9b","","","","","3978",""," ","key"," ","8.318734309623636","500","250","instPz2","31","1","","35","","","20"
"","psychophysics","124","641850","0.0-124.0","5ee3fbb98976fc0f59fe2939","64e5091f97c88e2785f05c9b","","","","","4680",""," ","key"," ","8.318705882352932","500","250","instPz3","42","1","","100","","","30"
"","psychophysics","125","644608","0.0-125.0","5ee3fbb98976fc0f59fe2939","64e5091f97c88e2785f05c9b","","","","","2756",""," ","key"," ","8.318731117824774","500","250","instPz4","45","1","","100","","","30"
"","psychophysics","126","645404","0.0-126.0","5ee3fbb98976fc0f59fe2939","64e5091f97c88e2785f05c9b","","","","","795",""," ","key"," ","8.318547368420925","500","250","inst","","","","","","",""
"","psychophysics","127","649521","0.0-127.0","5ee3fbb98976fc0f59fe2939","64e5091f97c88e2785f05c9b","","","","","4115",""," ","key"," ","8.318726720647776","500","250","pz","49","1","1","34","","","39"
"","psychophysics","128","652360","0.0-128.0","5ee3fbb98976fc0f59fe2939","64e5091f97c88e2785f05c9b","","","","","2839",""," ","key"," ","8.318688235294266","500","250","pz","55","1","1","36","","","52"
"","psychophysics","129","655070","0.0-129.0","5ee3fbb98976fc0f59fe2939","64e5091f97c88e2785f05c9b","","","","","2709",""," ","key"," ","8.318692307692523","500","250","pz","29","1","1","47","","","21"
"","psychophysics","130","657112","0.0-130.0","5ee3fbb98976fc0f59fe2939","64e5091f97c88e2785f05c9b","","","","","2041",""," ","key"," ","8.318659836065681","500","250","pz","28","1","1","30","","","21"
"","psychophysics","131","660487","0.0-131.0","5ee3fbb98976fc0f59fe2939","64e5091f97c88e2785f05c9b","","","","","3373",""," ","key"," ","8.318733333333189","500","250","pz","73","1","1","48","","","59"
"","psychophysics","132","662803","0.0-132.0","5ee3fbb98976fc0f59fe2939","64e5091f97c88e2785f05c9b","","","","","2315",""," ","key"," ","8.318617328519796","500","250","pz","39","1","1","27","","","33"
"","psychophysics","133","664179","0.0-133.0","5ee3fbb98976fc0f59fe2939","64e5091f97c88e2785f05c9b","","","","","1375",""," ","key"," ","8.318969696969726","500","250","pz","40","1","1","30","","","34"
"","psychophysics","134","666161","0.0-134.0","5ee3fbb98976fc0f59fe2939","64e5091f97c88e2785f05c9b","","","","","1981",""," ","key"," ","8.318556962025406","500","250","pz","57","1","1","50","","","52"
"","psychophysics","135","668455","0.0-135.0","5ee3fbb98976fc0f59fe2939","64e5091f97c88e2785f05c9b","","","","","2293",""," ","key"," ","8.318829090909356","500","250","pz","53","1","1","39","","","53"
"","psychophysics","136","673335","0.0-136.0","5ee3fbb98976fc0f59fe2939","64e5091f97c88e2785f05c9b","","","","","4879",""," ","key"," ","8.31875384615388","500","250","pz","30","1","1","47","","","25"
"","psychophysics","137","676137","0.0-137.0","5ee3fbb98976fc0f59fe2939","64e5091f97c88e2785f05c9b","","","","","2801",""," ","key"," ","8.318758928571437","500","250","pz","39","1","1","23","","","33"
"","psychophysics","138","679165","0.0-138.0","5ee3fbb98976fc0f59fe2939","64e5091f97c88e2785f05c9b","","","","","3027",""," ","key"," ","8.318713498622508","500","250","pz","31","1","1","46","","","21"
"","psychophysics","139","681705","0.0-139.0","5ee3fbb98976fc0f59fe2939","64e5091f97c88e2785f05c9b","","","","","2538",""," ","key"," ","8.318664473684054","500","250","pz","44","1","1","31","","","39"
"","psychophysics","140","685347","0.0-140.0","5ee3fbb98976fc0f59fe2939","64e5091f97c88e2785f05c9b","","","","","3640",""," ","key"," ","8.318741418764388","500","250","pz","70","1","1","35","","","59"
"","psychophysics","141","686949","0.0-141.0","5ee3fbb98976fc0f59fe2939","64e5091f97c88e2785f05c9b","","","","","1601",""," ","key"," ","8.31864062500002","500","250","pz","26","1","1","26","","","20"
"","psychophysics","142","687611","0.0-142.0","5ee3fbb98976fc0f59fe2939","64e5091f97c88e2785f05c9b","","","","","661",""," ","key"," ","8.318435897435753","500","250","inst","","","","","","",""
"","psychophysics","143","689363","0.0-143.0","5ee3fbb98976fc0f59fe2939","64e5091f97c88e2785f05c9b","","","","","1750",""," ","key"," ","8.318733333333373","500","250","instZol1","0.9999999999999999","","","-1.3","0","0",""
"","psychophysics","144","694467","0.0-144.0","5ee3fbb98976fc0f59fe2939","64e5091f97c88e2785f05c9b","","","","","5103",""," ","key"," ","8.318779771615027","500","250","instZol2","0.20000000000000065","1","","2","0","0",""
"","psychophysics","145","695059","0.0-145.0","5ee3fbb98976fc0f59fe2939","64e5091f97c88e2785f05c9b","","","","","591",""," ","key"," ","8.31827142857115","500","250","inst","","","","","","",""
"","psychophysics","146","698238","0.0-146.0","5ee3fbb98976fc0f59fe2939","64e5091f97c88e2785f05c9b","","","","","3176",""," ","key"," ","8.318598425196999","500","250","zol","1.03","1","1","0.27","6","26",""
"","psychophysics","147","701434","0.0-147.0","5ee3fbb98976fc0f59fe2939","64e5091f97c88e2785f05c9b","","","","","3195",""," ","key"," ","8.318673629242886","500","250","zol","0.6499999999999999","1","1","0.65","-7","6",""
"","psychophysics","148","705136","0.0-148.0","5ee3fbb98976fc0f59fe2939","64e5091f97c88e2785f05c9b","","","","","3701",""," ","key"," ","8.31874099099114","500","250","zol","0.51","1","1","-0.11","7","23",""
"","psychophysics","149","709710","0.0-149.0","5ee3fbb98976fc0f59fe2939","64e5091f97c88e2785f05c9b","","","","","4573",""," ","key"," ","8.318724954462626","500","250","zol","0.7799999999999999","1","1","-0.08","-11","-27",""
"","psychophysics","150","713078","0.0-150.0","5ee3fbb98976fc0f59fe2939","64e5091f97c88e2785f05c9b","","","","","3367",""," ","key"," ","8.31866336633661","500","250","zol","1.0999999999999999","1","1","-0.2","30","6",""
"","psychophysics","151","716178","0.0-151.0","5ee3fbb98976fc0f59fe2939","64e5091f97c88e2785f05c9b","","","","","3099",""," ","key"," ","8.318711590296727","500","250","zol","1.0499999999999998","1","1","-0.25","3","24",""
"","psychophysics","152","718952","0.0-152.0","5ee3fbb98976fc0f59fe2939","64e5091f97c88e2785f05c9b","","","","","2772",""," ","key"," ","8.318777777777926","500","250","zol","1.3900000000000001","1","1","-0.59","-8","13",""
"","psychophysics","153","722138","0.0-153.0","5ee3fbb98976fc0f59fe2939","64e5091f97c88e2785f05c9b","","","","","3185",""," ","key"," ","8.318662303665054","500","250","zol","1.0999999999999999","1","1","-0.1","-22","3",""
"","psychophysics","154","724170","0.0-154.0","5ee3fbb98976fc0f59fe2939","64e5091f97c88e2785f05c9b","","","","","2030",""," ","key"," ","8.318609053498026","500","250","zol","1.1700000000000002","1","1","-0.67","-29","7",""
"","psychophysics","155","726538","0.0-155.0","5ee3fbb98976fc0f59fe2939","64e5091f97c88e2785f05c9b","","","","","2367",""," ","key"," ","8.31869014084518","500","250","zol","1.2","1","1","-0.5","20","-1",""
"","psychophysics","156","729840","0.0-156.0","5ee3fbb98976fc0f59fe2939","64e5091f97c88e2785f05c9b","","","","","3301",""," ","key"," ","8.31871969696967","500","250","zol","1.1300000000000001","1","1","0.47","20","13",""
"","psychophysics","157","732040","0.0-157.0","5ee3fbb98976fc0f59fe2939","64e5091f97c88e2785f05c9b","","","","","2199",""," ","key"," ","8.318661596958469","500","250","zol","0.8199999999999998","1","1","0.68","-12","-8",""
"","psychophysics","158","736361","0.0-158.0","5ee3fbb98976fc0f59fe2939","64e5091f97c88e2785f05c9b","","","","","4318",""," ","key"," ","8.318730250481643","500","250","zol","1.2","1","1","0.7","11","30",""
"","psychophysics","159","739826","0.0-159.0","5ee3fbb98976fc0f59fe2939","64e5091f97c88e2785f05c9b","","","","","3464",""," ","key"," ","8.318710843373527","500","250","zol","1.5400000000000003","1","1","0.66","7","1",""
"","psychophysics","160","745199","0.0-160.0","5ee3fbb98976fc0f59fe2939","64e5091f97c88e2785f05c9b","","","","","5370",""," ","key"," ","8.318756589147284","500","250","zol","1.4900000000000002","1","1","0.61","-9","17",""
"","psychophysics","161","745825","0.0-161.0","5ee3fbb98976fc0f59fe2939","64e5091f97c88e2785f05c9b","","","","","625",""," ","key"," ","8.318635135133928","500","250","inst","","","","","","",""
"","psychophysics","162","749647","0.0-162.0","5ee3fbb98976fc0f59fe2939","64e5091f97c88e2785f05c9b","","","","","3821",""," ","key"," ","8.318736383442367","500","250","instEB1","31","1","","40","0","0","30"
"","psychophysics","163","751553","0.0-163.0","5ee3fbb98976fc0f59fe2939","64e5091f97c88e2785f05c9b","","","","","1905",""," ","key"," ","8.318644736841906","500","250","instEB2","26","1","","30","0","0","40"
"","psychophysics","164","756141","0.0-164.0","5ee3fbb98976fc0f59fe2939","64e5091f97c88e2785f05c9b","","","","","4587",""," ","key"," ","8.318739999999842","500","250","instEB3","43","1","","27","0","0","45"
"","psychophysics","165","759209","0.0-165.0","5ee3fbb98976fc0f59fe2939","64e5091f97c88e2785f05c9b","","","","","3066",""," ","key"," ","8.318793478260847","500","250","instEB4","29","1","","40","0","0","30"
"","psychophysics","166","759877","0.0-166.0","5ee3fbb98976fc0f59fe2939","64e5091f97c88e2785f05c9b","","","","","667",""," ","key"," ","8.318531645569491","500","250","inst","","","","","","",""
"","psychophysics","167","761415","0.0-167.0","5ee3fbb98976fc0f59fe2939","64e5091f97c88e2785f05c9b","","","","","1536",""," ","key"," ","8.31875543478236","500","250","eb","48","1","","32","0","0","54"
"","psychophysics","168","763835","0.0-168.0","5ee3fbb98976fc0f59fe2939","64e5091f97c88e2785f05c9b","","","","","2418",""," ","key"," ","8.318810344827844","500","250","eb","32","1","","42","0","0","32"
"","psychophysics","169","766013","0.0-169.0","5ee3fbb98976fc0f59fe2939","64e5091f97c88e2785f05c9b","","","","","2177",""," ","key"," ","8.318712643678193","500","250","eb","31","1","","35","0","0","29"
"","psychophysics","170","768778","0.0-170.0","5ee3fbb98976fc0f59fe2939","64e5091f97c88e2785f05c9b","","","","","2763",""," ","key"," ","8.318694864048375","500","250","eb","40","1","","44","0","0","43"
"","psychophysics","171","770012","0.0-171.0","5ee3fbb98976fc0f59fe2939","64e5091f97c88e2785f05c9b","","","","","1232",""," ","key"," ","8.318824324324236","500","250","eb","40","1","","40","0","0","45"
"","psychophysics","172","771833","0.0-172.0","5ee3fbb98976fc0f59fe2939","64e5091f97c88e2785f05c9b","","","","","1821",""," ","key"," ","8.318697247706","500","250","eb","37","1","","32","0","0","42"
"","psychophysics","173","774714","0.0-173.0","5ee3fbb98976fc0f59fe2939","64e5091f97c88e2785f05c9b","","","","","2879",""," ","key"," ","8.31869855072464","500","250","eb","42","1","","25","0","0","50"
"","psychophysics","174","778296","0.0-174.0","5ee3fbb98976fc0f59fe2939","64e5091f97c88e2785f05c9b","","","","","3581",""," ","key"," ","8.318732558139654","500","250","eb","25","1","","32","0","0","25"
"","psychophysics","175","780612","0.0-175.0","5ee3fbb98976fc0f59fe2939","64e5091f97c88e2785f05c9b","","","","","2315",""," ","key"," ","8.318653429602861","500","250","eb","33","1","","36","0","0","35"
"","psychophysics","176","784522","0.0-176.0","5ee3fbb98976fc0f59fe2939","64e5091f97c88e2785f05c9b","","","","","3909",""," ","key"," ","8.318737739872095","500","250","eb","33","1","","54","0","0","35"
"","psychophysics","177","786560","0.0-177.0","5ee3fbb98976fc0f59fe2939","64e5091f97c88e2785f05c9b","","","","","2037",""," ","key"," ","8.318618852459085","500","250","eb","30","1","","39","0","0","29"
"","psychophysics","178","788330","0.0-178.0","5ee3fbb98976fc0f59fe2939","64e5091f97c88e2785f05c9b","","","","","1769",""," ","key"," ","8.318566037735678","500","250","eb","25","1","","31","0","0","34"
"","psychophysics","179","790046","0.0-179.0","5ee3fbb98976fc0f59fe2939","64e5091f97c88e2785f05c9b","","","","","1715",""," ","key"," ","8.318478048780774","500","250","eb","35","1","","27","0","0","40"
"","psychophysics","180","793360","0.0-180.0","5ee3fbb98976fc0f59fe2939","64e5091f97c88e2785f05c9b","","","","","3313",""," ","key"," ","8.318740554156266","500","250","eb","50","1","","54","0","0","52"
"","psychophysics","181","795270","0.0-181.0","5ee3fbb98976fc0f59fe2939","64e5091f97c88e2785f05c9b","","","","","1908",""," ","key"," ","8.31866812227064","500","250","eb","48","1","","42","0","0","53"
"","psychophysics","182","795886","0.0-182.0","5ee3fbb98976fc0f59fe2939","64e5091f97c88e2785f05c9b","","","","","615",""," ","key"," ","8.318479452055739","500","250","inst","","","","","","",""
"","psychophysics","183","799548","0.0-183.0","5ee3fbb98976fc0f59fe2939","64e5091f97c88e2785f05c9b","","","","","3661",""," ","key"," ","8.31872209567197","500","250","instBr3","18","2","","40","0","0","300"
"","psychophysics","184","800174","0.0-184.0","5ee3fbb98976fc0f59fe2939","64e5091f97c88e2785f05c9b","","","","","625",""," ","key"," ","8.318800000000435","500","250","inst","","","","","","",""
"","psychophysics","185","802524","0.0-185.0","5ee3fbb98976fc0f59fe2939","64e5091f97c88e2785f05c9b","","","","","2349",""," ","key"," ","8.318647686832874","500","250","br","23","2","1","-17","6","-17","289"
"","psychophysics","186","803658","0.0-186.0","5ee3fbb98976fc0f59fe2939","64e5091f97c88e2785f05c9b","","","","","1133",""," ","key"," ","8.318740740740948","500","250","br","17","2","1","20","-15","0","268"
"","psychophysics","187","805065","0.0-187.0","5ee3fbb98976fc0f59fe2939","64e5091f97c88e2785f05c9b","","","","","1404",""," ","key"," ","8.318970238095583","500","250","br","19","2","1","28","2","16","299"
"","psychophysics","188","807390","0.0-188.0","5ee3fbb98976fc0f59fe2939","64e5091f97c88e2785f05c9b","","","","","2324",""," ","key"," ","8.318727598566058","500","250","br","21","2","1","-19","-13","-13","234"
"","psychophysics","189","808610","0.0-189.0","5ee3fbb98976fc0f59fe2939","64e5091f97c88e2785f05c9b","","","","","1219",""," ","key"," ","8.318486301369537","500","250","br","13","2","1","18","-30","-3","296"
"","psychophysics","190","809873","0.0-190.0","5ee3fbb98976fc0f59fe2939","64e5091f97c88e2785f05c9b","","","","","1261",""," ","key"," ","8.318726666666722","500","250","br","20","2","1","14","-13","-11","266"
"","psychophysics","191","812375","0.0-191.0","5ee3fbb98976fc0f59fe2939","64e5091f97c88e2785f05c9b","","","","","2500",""," ","key"," ","8.318813333333237","500","250","br","14","2","1","26","-15","25","271"
"","psychophysics","192","814737","0.0-192.0","5ee3fbb98976fc0f59fe2939","64e5091f97c88e2785f05c9b","","","","","2361",""," ","key"," ","8.318791519434606","500","250","br","21","2","1","-1","17","26","263"
"","psychophysics","193","818353","0.0-193.0","5ee3fbb98976fc0f59fe2939","64e5091f97c88e2785f05c9b","","","","","3615",""," ","key"," ","8.3187695852535","500","250","br","25","2","1","-4","26","23","277"
"","psychophysics","194","820597","0.0-194.0","5ee3fbb98976fc0f59fe2939","64e5091f97c88e2785f05c9b","","","","","2243",""," ","key"," ","8.318613382899393","500","250","br","19","2","1","-2","-23","25","220"
"","psychophysics","195","824225","0.0-195.0","5ee3fbb98976fc0f59fe2939","64e5091f97c88e2785f05c9b","","","","","3627",""," ","key"," ","8.318721839080661","500","250","br","30","2","1","4","-15","2","297"
"","psychophysics","196","828379","0.0-196.0","5ee3fbb98976fc0f59fe2939","64e5091f97c88e2785f05c9b","","","","","4153",""," ","key"," ","8.318680722891525","500","250","br","23","2","1","-29","0","-28","205"
"","psychophysics","197","830973","0.0-197.0","5ee3fbb98976fc0f59fe2939","64e5091f97c88e2785f05c9b","","","","","2593",""," ","key"," ","8.318707395498071","500","250","br","18","2","1","30","-16","16","224"
"","psychophysics","198","833167","0.0-198.0","5ee3fbb98976fc0f59fe2939","64e5091f97c88e2785f05c9b","","","","","2193",""," ","key"," ","8.318638783270057","500","250","br","24","2","1","13","-20","18","253"
"","psychophysics","199","834947","0.0-199.0","5ee3fbb98976fc0f59fe2939","64e5091f97c88e2785f05c9b","","","","","1779",""," ","key"," ","8.318591549295709","500","250","br","28","2","1","0","9","-28","296"
"","psychophysics","200","835541","0.0-200.0","5ee3fbb98976fc0f59fe2939","64e5091f97c88e2785f05c9b","","","","","593",""," ","key"," ","8.31884285714311","500","250","inst","","","","","","",""
"","psychophysics","201","838749","0.0-201.0","5ee3fbb98976fc0f59fe2939","64e5091f97c88e2785f05c9b","","","","","3207",""," ","key"," ","8.318724675324757","500","250","instPog0","160","1","","190","0","0","160"
"","psychophysics","202","840577","0.0-202.0","5ee3fbb98976fc0f59fe2939","64e5091f97c88e2785f05c9b","","","","","1827",""," ","key"," ","8.318683486238523","500","250","instPog1","170","1","","190","0","0","160"
"","psychophysics","203","842050","0.0-203.0","5ee3fbb98976fc0f59fe2939","64e5091f97c88e2785f05c9b","","","","","1471",""," ","key"," ","8.318727272727385","500","250","instPog2","154","1","","160","0","0","160"
"","psychophysics","204","842545","0.0-204.0","5ee3fbb98976fc0f59fe2939","64e5091f97c88e2785f05c9b","","","","","495",""," ","key"," ","8.318779661016286","500","250","inst","","","","","","",""
"","psychophysics","205","843841","0.0-205.0","5ee3fbb98976fc0f59fe2939","64e5091f97c88e2785f05c9b","","","","","1295",""," ","key"," ","8.318567741935652","500","250","pog","168","1","1","188","0","0","155"
"","psychophysics","206","845589","0.0-206.0","5ee3fbb98976fc0f59fe2939","64e5091f97c88e2785f05c9b","","","","","1747",""," ","key"," ","8.318784688994885","500","250","pog","178","1","1","188","0","0","177"
"","psychophysics","207","848260","0.0-207.0","5ee3fbb98976fc0f59fe2939","64e5091f97c88e2785f05c9b","","","","","2669",""," ","key"," ","8.318740625000283","500","250","pog","213","1","1","189","0","0","200"
"","psychophysics","208","850488","0.0-208.0","5ee3fbb98976fc0f59fe2939","64e5091f97c88e2785f05c9b","","","","","2227",""," ","key"," ","8.318681647940034","500","250","pog","189","1","1","165","0","0","179"
"","psychophysics","209","852948","0.0-209.0","5ee3fbb98976fc0f59fe2939","64e5091f97c88e2785f05c9b","","","","","2459",""," ","key"," ","8.318778911564692","500","250","pog","213","1","1","153","0","0","198"
"","psychophysics","210","854658","0.0-210.0","5ee3fbb98976fc0f59fe2939","64e5091f97c88e2785f05c9b","","","","","1708",""," ","key"," ","8.318712195122002","500","250","pog","188","1","1","218","0","0","171"
"","psychophysics","211","856674","0.0-211.0","5ee3fbb98976fc0f59fe2939","64e5091f97c88e2785f05c9b","","","","","2015",""," ","key"," ","8.318717842323597","500","250","pog","160","1","1","112","0","0","131"
"","psychophysics","212","858358","0.0-212.0","5ee3fbb98976fc0f59fe2939","64e5091f97c88e2785f05c9b","","","","","1683",""," ","key"," ","8.318772277227685","500","250","pog","159","1","1","111","0","0","134"
"","psychophysics","213","861742","0.0-213.0","5ee3fbb98976fc0f59fe2939","64e5091f97c88e2785f05c9b","","","","","3383",""," ","key"," ","8.318733990147683","500","250","pog","165","1","1","101","0","0","141"
"","psychophysics","214","865008","0.0-214.0","5ee3fbb98976fc0f59fe2939","64e5091f97c88e2785f05c9b","","","","","3265",""," ","key"," ","8.318657289002486","500","250","pog","166","1","1","128","0","0","148"
"","psychophysics","215","867654","0.0-215.0","5ee3fbb98976fc0f59fe2939","64e5091f97c88e2785f05c9b","","","","","2645",""," ","key"," ","8.318772870662757","500","250","pog","197","1","1","163","0","0","178"
"","psychophysics","216","869356","0.0-216.0","5ee3fbb98976fc0f59fe2939","64e5091f97c88e2785f05c9b","","","","","1701",""," ","key"," ","8.318720588235152","500","250","pog","180","1","1","168","0","0","168"
"","psychophysics","217","871598","0.0-217.0","5ee3fbb98976fc0f59fe2939","64e5091f97c88e2785f05c9b","","","","","2241",""," ","key"," ","8.318679104477459","500","250","pog","218","1","1","180","0","0","192"
"","psychophysics","218","874038","0.0-218.0","5ee3fbb98976fc0f59fe2939","64e5091f97c88e2785f05c9b","","","","","2438",""," ","key"," ","8.318737201365236","500","250","pog","160","1","1","154","0","0","132"
"","psychophysics","219","876736","0.0-219.0","5ee3fbb98976fc0f59fe2939","64e5091f97c88e2785f05c9b","","","","","2697",""," ","key"," ","8.31867801857573","500","250","pog","158","1","1","196","0","0","131"
