"success","trial_type","trial_index","time_elapsed","internal_node_id","pid","sid","timeout","failed_images","failed_audio","failed_video","rt","stimulus","response","response_type","key_press","avg_frame_time","center_x","center_y","task","resp","version","block","start","jitterX","jitterY","parA"
"true","fullscreen","0","11639","0.0-0.0","5b0481d17ac6e4000107e12a","64de7bb3553dbc538b05b940","","","","","","","","","","","","","","","","","","","",""
"true","preload","1","11912","0.0-1.0","5b0481d17ac6e4000107e12a","64de7bb3553dbc538b05b940","false","[]","[]","[]","","","","","","","","","","","","","","","",""
"","html-button-response","2","16488","0.0-2.0","5b0481d17ac6e4000107e12a","64de7bb3553dbc538b05b940","","","","","4575","Please Make Sure Your Audio Is On.","0","","","","","","","","","","","","",""
"","psychophysics","3","21949","0.0-3.0","5b0481d17ac6e4000107e12a","64de7bb3553dbc538b05b940","","","","","5456",""," ","key"," ","17.03040625","768","250","","","","","","","",""
"","psychophysics","4","26476","0.0-4.0","5b0481d17ac6e4000107e12a","64de7bb3553dbc538b05b940","","","","","4527",""," ","key"," ","16.66618081180812","500","250","inst","","","","","","",""
"","psychophysics","5","31787","0.0-5.0","5b0481d17ac6e4000107e12a","64de7bb3553dbc538b05b940","","","","","5309",""," ","key"," ","16.66614779874215","500","250","sample0","","","","","","",""
"","psychophysics","6","35510","0.0-6.0","5b0481d17ac6e4000107e12a","64de7bb3553dbc538b05b940","","","","","3722",""," ","key"," ","16.6649144144144","500","250","sample1","","","","","","",""
"","psychophysics","7","49335","0.0-7.0","5b0481d17ac6e4000107e12a","64de7bb3553dbc538b05b940","","","","","13824",""," ","key"," ","16.66560796139927","500","250","sample2","100","","","","","",""
"","psychophysics","8","59757","0.0-8.0","5b0481d17ac6e4000107e12a","64de7bb3553dbc538b05b940","","","","","10420",""," ","key"," ","16.66566826923077","500","250","sample3","100","","","","","",""
"","psychophysics","9","73298","0.0-9.0","5b0481d17ac6e4000107e12a","64de7bb3553dbc538b05b940","","","","","13539",""," ","key"," ","16.665923551171392","500","250","sample4","100","","","","","",""
"","psychophysics","10","85122","0.0-10.0","5b0481d17ac6e4000107e12a","64de7bb3553dbc538b05b940","","","","","11820",""," ","key"," ","16.666101551480963","500","250","sample5","","","","","","",""
"","psychophysics","11","98111","0.0-11.0","5b0481d17ac6e4000107e12a","64de7bb3553dbc538b05b940","","","","","12987",""," ","key"," ","16.665733933161963","500","250","sample6","496","","","","","",""
"","psychophysics","12","154366","0.0-12.0","5b0481d17ac6e4000107e12a","64de7bb3553dbc538b05b940","","","","","56253",""," ","key"," ","16.665772148148147","500","250","inst","","","","","","",""
"","psychophysics","13","163492","0.0-13.0","5b0481d17ac6e4000107e12a","64de7bb3553dbc538b05b940","","","","","9124",""," ","key"," ","16.66599084249083","500","250","inst","","","","","","",""
"","psychophysics","14","168395","0.0-14.0","5b0481d17ac6e4000107e12a","64de7bb3553dbc538b05b940","","","","","4903",""," ","key"," ","16.666911564625803","500","250","inst","","","","","","",""
"","psychophysics","15","171270","0.0-15.0","5b0481d17ac6e4000107e12a","64de7bb3553dbc538b05b940","","","","","2873",""," ","key"," ","16.665707602339243","500","250","inst","","","","","","",""
"","psychophysics","16","173278","0.0-16.0","5b0481d17ac6e4000107e12a","64de7bb3553dbc538b05b940","","","","","2008",""," ","key"," ","16.66866666666659","500","250","inst","","","","","","",""
"","psychophysics","17","180565","0.0-17.0","5b0481d17ac6e4000107e12a","64de7bb3553dbc538b05b940","","","","","7287",""," ","key"," ","16.665823394495412","500","250","instEB0","41","2","","40","0","0","40"
"","psychophysics","18","192522","0.0-18.0","5b0481d17ac6e4000107e12a","64de7bb3553dbc538b05b940","","","","","11956",""," ","key"," ","16.665719273743015","500","250","instEB1","40","2","","30","0","0","40"
"","psychophysics","19","200621","0.0-19.0","5b0481d17ac6e4000107e12a","64de7bb3553dbc538b05b940","","","","","8098",""," ","key"," ","16.665975257732004","500","250","instEB2","32","2","","40","0","0","30"
"","psychophysics","20","212334","0.0-20.0","5b0481d17ac6e4000107e12a","64de7bb3553dbc538b05b940","","","","","11711",""," ","key"," ","16.666061253561228","500","250","instEB3","39","2","","45","0","0","27"
"","psychophysics","21","224345","0.0-21.0","5b0481d17ac6e4000107e12a","64de7bb3553dbc538b05b940","","","","","12010",""," ","key"," ","16.66582083333334","500","250","instEB4","51","2","","30","0","0","40"
"","psychophysics","22","227613","0.0-22.0","5b0481d17ac6e4000107e12a","64de7bb3553dbc538b05b940","","","","","3267",""," ","key"," ","16.665738461538403","500","250","inst","","","","","","",""
"","psychophysics","23","235616","0.0-23.0","5b0481d17ac6e4000107e12a","64de7bb3553dbc538b05b940","","","","","null","","null","key","null","16.666457202505175","500","250","eb","33","2","","39","0","0","25"
"","psychophysics","24","235734","0.0-24.0","5b0481d17ac6e4000107e12a","64de7bb3553dbc538b05b940","","","","","116",""," ","key"," ","16.714833333331626","500","250","eb","45","2","","45","0","0","48"
"","psychophysics","25","241886","0.0-25.0","5b0481d17ac6e4000107e12a","64de7bb3553dbc538b05b940","","","","","6151",""," ","key"," ","16.665728260869518","500","250","eb","37","2","","51","0","0","24"
"","psychophysics","26","248137","0.0-26.0","5b0481d17ac6e4000107e12a","64de7bb3553dbc538b05b940","","","","","6249",""," ","key"," ","16.666307486631","500","250","eb","36","2","","36","0","0","27"
"","psychophysics","27","254189","0.0-27.0","5b0481d17ac6e4000107e12a","64de7bb3553dbc538b05b940","","","","","6049",""," ","key"," ","16.666597796143268","500","250","eb","54","2","","42","0","0","43"
"","psychophysics","28","257565","0.0-28.0","5b0481d17ac6e4000107e12a","64de7bb3553dbc538b05b940","","","","","3374",""," ","key"," ","16.66568656716425","500","250","eb","59","2","","54","0","0","54"
"","psychophysics","29","263010","0.0-29.0","5b0481d17ac6e4000107e12a","64de7bb3553dbc538b05b940","","","","","5443",""," ","key"," ","16.666800613496957","500","250","eb","56","2","","44","0","0","43"
"","psychophysics","30","268158","0.0-30.0","5b0481d17ac6e4000107e12a","64de7bb3553dbc538b05b940","","","","","5146",""," ","key"," ","16.665870129870093","500","250","eb","61","2","","33","0","0","50"
"","psychophysics","31","272889","0.0-31.0","5b0481d17ac6e4000107e12a","64de7bb3553dbc538b05b940","","","","","4729",""," ","key"," ","16.666204946996544","500","250","eb","53","2","","49","0","0","39"
"","psychophysics","32","277100","0.0-32.0","5b0481d17ac6e4000107e12a","64de7bb3553dbc538b05b940","","","","","4209",""," ","key"," ","16.66576095617518","500","250","eb","38","2","","43","0","0","27"
"","psychophysics","33","281896","0.0-33.0","5b0481d17ac6e4000107e12a","64de7bb3553dbc538b05b940","","","","","4794",""," ","key"," ","16.667020905923337","500","250","eb","42","2","","27","0","0","33"
"","psychophysics","34","286814","0.0-34.0","5b0481d17ac6e4000107e12a","64de7bb3553dbc538b05b940","","","","","4917",""," ","key"," ","16.665510204081546","500","250","eb","42","2","","51","0","0","31"
"","psychophysics","35","292104","0.0-35.0","5b0481d17ac6e4000107e12a","64de7bb3553dbc538b05b940","","","","","5289",""," ","key"," ","16.666703470031642","500","250","eb","59","2","","43","0","0","50"
"","psychophysics","36","296425","0.0-36.0","5b0481d17ac6e4000107e12a","64de7bb3553dbc538b05b940","","","","","4319",""," ","key"," ","16.665689922480702","500","250","eb","53","2","","53","0","0","46"
"","psychophysics","37","300496","0.0-37.0","5b0481d17ac6e4000107e12a","64de7bb3553dbc538b05b940","","","","","4069",""," ","key"," ","16.66576954732513","500","250","eb","45","2","","32","0","0","33"
"","psychophysics","38","302481","0.0-38.0","5b0481d17ac6e4000107e12a","64de7bb3553dbc538b05b940","","","","","1984",""," ","key"," ","16.66885593220329","500","250","inst","","","","","","",""
"","psychophysics","39","317640","0.0-39.0","5b0481d17ac6e4000107e12a","64de7bb3553dbc538b05b940","","","","","15157",""," ","key"," ","16.666055005500507","500","250","instPog0","160","1","","190","0","0","160"
"","psychophysics","40","327002","0.0-40.0","5b0481d17ac6e4000107e12a","64de7bb3553dbc538b05b940","","","","","9361",""," ","key"," ","16.666368983957295","500","250","instPog1","164","1","","190","0","0","160"
"","psychophysics","41","335034","0.0-41.0","5b0481d17ac6e4000107e12a","64de7bb3553dbc538b05b940","","","","","8031",""," ","key"," ","16.665390852390882","500","250","instPog2","172","1","","160","0","0","160"
"","psychophysics","42","337388","0.0-42.0","5b0481d17ac6e4000107e12a","64de7bb3553dbc538b05b940","","","","","2353",""," ","key"," ","16.668014285714264","500","250","inst","","","","","","",""
"","psychophysics","43","341105","0.0-43.0","5b0481d17ac6e4000107e12a","64de7bb3553dbc538b05b940","","","","","3716",""," ","key"," ","16.665603603603454","500","250","pog","178","1","0","178","0","0","160"
"","psychophysics","44","344403","0.0-44.0","5b0481d17ac6e4000107e12a","64de7bb3553dbc538b05b940","","","","","3297",""," ","key"," ","16.66567005076136","500","250","pog","177","1","0","215","0","0","143"
"","psychophysics","45","348205","0.0-45.0","5b0481d17ac6e4000107e12a","64de7bb3553dbc538b05b940","","","","","3800",""," ","key"," ","16.666145374449453","500","250","pog","169","1","0","117","0","0","167"
"","psychophysics","46","350893","0.0-46.0","5b0481d17ac6e4000107e12a","64de7bb3553dbc538b05b940","","","","","2686",""," ","key"," ","16.665031250000176","500","250","pog","174","1","0","184","0","0","145"
"","psychophysics","47","355639","0.0-47.0","5b0481d17ac6e4000107e12a","64de7bb3553dbc538b05b940","","","","","4745",""," ","key"," ","16.665133802816854","500","250","pog","182","1","0","212","0","0","160"
"","psychophysics","48","357888","0.0-48.0","5b0481d17ac6e4000107e12a","64de7bb3553dbc538b05b940","","","","","2248",""," ","key"," ","16.665395522388064","500","250","pog","169","1","0","191","0","0","144"
"","psychophysics","49","362462","0.0-49.0","5b0481d17ac6e4000107e12a","64de7bb3553dbc538b05b940","","","","","4572",""," ","key"," ","16.665934065934024","500","250","pog","172","1","0","218","0","0","142"
"","psychophysics","50","366810","0.0-50.0","5b0481d17ac6e4000107e12a","64de7bb3553dbc538b05b940","","","","","4347",""," ","key"," ","16.665965384615433","500","250","pog","139","1","0","103","0","0","126"
"","psychophysics","51","372939","0.0-51.0","5b0481d17ac6e4000107e12a","64de7bb3553dbc538b05b940","","","","","6127",""," ","key"," ","16.66573297002731","500","250","pog","190","1","0","118","0","0","173"
"","psychophysics","52","374783","0.0-52.0","5b0481d17ac6e4000107e12a","64de7bb3553dbc538b05b940","","","","","1843",""," ","key"," ","16.663809090909357","500","250","pog","138","1","0","136","0","0","120"
"","psychophysics","53","376888","0.0-53.0","5b0481d17ac6e4000107e12a","64de7bb3553dbc538b05b940","","","","","2103",""," ","key"," ","16.663168000000063","500","250","pog","199","1","0","211","0","0","176"
"","psychophysics","54","379232","0.0-54.0","5b0481d17ac6e4000107e12a","64de7bb3553dbc538b05b940","","","","","2343",""," ","key"," ","16.665864285714424","500","250","pog","136","1","0","138","0","0","123"
"","psychophysics","55","382582","0.0-55.0","5b0481d17ac6e4000107e12a","64de7bb3553dbc538b05b940","","","","","3349",""," ","key"," ","16.66510500000004","500","250","pog","189","1","0","193","0","0","165"
"","psychophysics","56","388914","0.0-56.0","5b0481d17ac6e4000107e12a","64de7bb3553dbc538b05b940","","","","","6330",""," ","key"," ","16.66580738786268","500","250","pog","211","1","0","173","0","0","193"
"","psychophysics","57","390470","0.0-57.0","5b0481d17ac6e4000107e12a","64de7bb3553dbc538b05b940","","","","","1555",""," ","key"," ","16.665391304347988","500","250","pog","172","1","0","174","0","0","152"
"","psychophysics","58","392313","0.0-58.0","5b0481d17ac6e4000107e12a","64de7bb3553dbc538b05b940","","","","","1841",""," ","key"," ","16.662944954128427","500","250","inst","","","","","","",""
"","psychophysics","59","396325","0.0-59.0","5b0481d17ac6e4000107e12a","64de7bb3553dbc538b05b940","","","","","4009",""," ","key"," ","16.66682083333338","500","250","instBr0","0","","","0","0","0","300"
"","psychophysics","60","404319","0.0-60.0","5b0481d17ac6e4000107e12a","64de7bb3553dbc538b05b940","","","","","7992",""," ","key"," ","16.666319415448886","500","250","instBr1","-3","","","-40","0","0","300"
"","psychophysics","61","411435","0.0-61.0","5b0481d17ac6e4000107e12a","64de7bb3553dbc538b05b940","","","","","7114",""," ","key"," ","16.665748826291072","500","250","instBr3","22","2","","40","0","0","300"
"","psychophysics","62","413046","0.0-62.0","5b0481d17ac6e4000107e12a","64de7bb3553dbc538b05b940","","","","","1610",""," ","key"," ","16.66368749999977","500","250","inst","","","","","","",""
"","psychophysics","63","416207","0.0-63.0","5b0481d17ac6e4000107e12a","64de7bb3553dbc538b05b940","","","","","3160",""," ","key"," ","16.666143617021202","500","250","br","6","2","0","-30","9","18","249"
"","psychophysics","64","419112","0.0-64.0","5b0481d17ac6e4000107e12a","64de7bb3553dbc538b05b940","","","","","2903",""," ","key"," ","16.665844827586312","500","250","br","12","2","0","30","-26","29","270"
"","psychophysics","65","420941","0.0-65.0","5b0481d17ac6e4000107e12a","64de7bb3553dbc538b05b940","","","","","1827",""," ","key"," ","16.662185185185216","500","250","br","14","2","0","23","-5","17","206"
"","psychophysics","66","424381","0.0-66.0","5b0481d17ac6e4000107e12a","64de7bb3553dbc538b05b940","","","","","3439",""," ","key"," ","16.66749029126226","500","250","br","10","2","0","-20","-12","-28","231"
"","psychophysics","67","426531","0.0-67.0","5b0481d17ac6e4000107e12a","64de7bb3553dbc538b05b940","","","","","2148",""," ","key"," ","16.665828124999734","500","250","br","9","2","0","5","10","-21","263"
"","psychophysics","68","429540","0.0-68.0","5b0481d17ac6e4000107e12a","64de7bb3553dbc538b05b940","","","","","3008",""," ","key"," ","16.665620111731887","500","250","br","4","2","0","-20","-14","12","272"
"","psychophysics","69","432201","0.0-69.0","5b0481d17ac6e4000107e12a","64de7bb3553dbc538b05b940","","","","","2659",""," ","key"," ","16.667874213836726","500","250","br","14","2","0","-14","-6","21","299"
"","psychophysics","70","435100","0.0-70.0","5b0481d17ac6e4000107e12a","64de7bb3553dbc538b05b940","","","","","2898",""," ","key"," ","16.665479768785943","500","250","br","10","2","0","-13","-25","-19","219"
"","psychophysics","71","438395","0.0-71.0","5b0481d17ac6e4000107e12a","64de7bb3553dbc538b05b940","","","","","3293",""," ","key"," ","16.666390862944063","500","250","br","8","2","0","-23","3","-24","206"
"","psychophysics","72","442233","0.0-72.0","5b0481d17ac6e4000107e12a","64de7bb3553dbc538b05b940","","","","","3837",""," ","key"," ","16.6652751091703","500","250","br","18","2","0","-24","-21","-25","296"
"","psychophysics","73","445441","0.0-73.0","5b0481d17ac6e4000107e12a","64de7bb3553dbc538b05b940","","","","","3206",""," ","key"," ","16.665523560209376","500","250","br","-1","2","0","-11","3","7","274"
"","psychophysics","74","448021","0.0-74.0","5b0481d17ac6e4000107e12a","64de7bb3553dbc538b05b940","","","","","2575",""," ","key"," ","16.666688311688205","500","250","br","8","2","0","-6","17","21","286"
"","psychophysics","75","449794","0.0-75.0","5b0481d17ac6e4000107e12a","64de7bb3553dbc538b05b940","","","","","1771",""," ","key"," ","16.669037735849106","500","250","br","12","2","0","13","-14","23","236"
"","psychophysics","76","451728","0.0-76.0","5b0481d17ac6e4000107e12a","64de7bb3553dbc538b05b940","","","","","1932",""," ","key"," ","16.665008695651878","500","250","br","17","2","0","26","-16","12","209"
"","psychophysics","77","454054","0.0-77.0","5b0481d17ac6e4000107e12a","64de7bb3553dbc538b05b940","","","","","2325",""," ","key"," ","16.666260869565345","500","250","br","9","2","0","3","-17","-14","294"
"","psychophysics","78","455041","0.0-78.0","5b0481d17ac6e4000107e12a","64de7bb3553dbc538b05b940","","","","","986",""," ","key"," ","16.672189655172808","500","250","inst","","","","","","",""
"","psychophysics","79","457521","0.0-79.0","5b0481d17ac6e4000107e12a","64de7bb3553dbc538b05b940","","","","","2477",""," ","key"," ","16.667439189189306","500","250","instPzPre","50","0","","50","","","50"
"","psychophysics","80","461531","0.0-80.0","5b0481d17ac6e4000107e12a","64de7bb3553dbc538b05b940","","","","","4009",""," ","key"," ","16.667216666666597","500","250","instPz0","50","1","","50","","","50"
"","psychophysics","81","469899","0.0-81.0","5b0481d17ac6e4000107e12a","64de7bb3553dbc538b05b940","","","","","8367",""," ","key"," ","16.665620758482966","500","250","instPz1","47","1","","25","","","50"
"","psychophysics","82","474442","0.0-82.0","5b0481d17ac6e4000107e12a","64de7bb3553dbc538b05b940","","","","","4542",""," ","key"," ","16.664937500000043","500","250","instPz2","19","1","","35","","","20"
"","psychophysics","83","481269","0.0-83.0","5b0481d17ac6e4000107e12a","64de7bb3553dbc538b05b940","","","","","6825",""," ","key"," ","16.665306372549036","500","250","instPz3","64","1","","100","","","30"
"","psychophysics","84","487355","0.0-84.0","5b0481d17ac6e4000107e12a","64de7bb3553dbc538b05b940","","","","","6084",""," ","key"," ","16.65778296703286","500","250","instPz4","57","1","","100","","","30"
"","psychophysics","85","488887","0.0-85.0","5b0481d17ac6e4000107e12a","64de7bb3553dbc538b05b940","","","","","1531",""," ","key"," ","16.66969230769274","500","250","inst","","","","","","",""
"","psychophysics","86","492062","0.0-86.0","5b0481d17ac6e4000107e12a","64de7bb3553dbc538b05b940","","","","","3173",""," ","key"," ","16.667652631578907","500","250","pz","50","1","0","21","","","30"
"","psychophysics","87","493031","0.0-87.0","5b0481d17ac6e4000107e12a","64de7bb3553dbc538b05b940","","","","","968",""," ","key"," ","16.66622807017605","500","250","pz","29","1","0","29","","","51"
"","psychophysics","88","497451","0.0-88.0","5b0481d17ac6e4000107e12a","64de7bb3553dbc538b05b940","","","","","4418",""," ","key"," ","16.666030303030283","500","250","pz","86","1","0","26","","","48"
"","psychophysics","89","500739","0.0-89.0","5b0481d17ac6e4000107e12a","64de7bb3553dbc538b05b940","","","","","3287",""," ","key"," ","16.667454081632634","500","250","pz","47","1","0","59","","","22"
"","psychophysics","90","503181","0.0-90.0","5b0481d17ac6e4000107e12a","64de7bb3553dbc538b05b940","","","","","2438",""," ","key"," ","16.66771917808195","500","250","pz","40","1","0","30","","","22"
"","psychophysics","91","508644","0.0-91.0","5b0481d17ac6e4000107e12a","64de7bb3553dbc538b05b940","","","","","5462",""," ","key"," ","16.665981651376185","500","250","pz","70","1","0","24","","","45"
"","psychophysics","92","511349","0.0-92.0","5b0481d17ac6e4000107e12a","64de7bb3553dbc538b05b940","","","","","2702",""," ","key"," ","16.667024844720515","500","250","pz","60","1","0","60","","","45"
"","psychophysics","93","513882","0.0-93.0","5b0481d17ac6e4000107e12a","64de7bb3553dbc538b05b940","","","","","2532",""," ","key"," ","16.667456953642144","500","250","pz","61","1","0","58","","","48"
"","psychophysics","94","518194","0.0-94.0","5b0481d17ac6e4000107e12a","64de7bb3553dbc538b05b940","","","","","4310",""," ","key"," ","16.66707364341078","500","250","pz","43","1","0","40","","","29"
"","psychophysics","95","522940","0.0-95.0","5b0481d17ac6e4000107e12a","64de7bb3553dbc538b05b940","","","","","4744",""," ","key"," ","16.66571478873248","500","250","pz","82","1","0","22","","","50"
"","psychophysics","96","526781","0.0-96.0","5b0481d17ac6e4000107e12a","64de7bb3553dbc538b05b940","","","","","3839",""," ","key"," ","16.664917030567953","500","250","pz","52","1","0","35","","","28"
"","psychophysics","97","530307","0.0-97.0","5b0481d17ac6e4000107e12a","64de7bb3553dbc538b05b940","","","","","3525",""," ","key"," ","16.667218009478376","500","250","pz","40","1","0","48","","","23"
"","psychophysics","98","534741","0.0-98.0","5b0481d17ac6e4000107e12a","64de7bb3553dbc538b05b940","","","","","4432",""," ","key"," ","16.66540000000002","500","250","pz","81","1","0","35","","","54"
"","psychophysics","99","538010","0.0-99.0","5b0481d17ac6e4000107e12a","64de7bb3553dbc538b05b940","","","","","3268",""," ","key"," ","16.667164102564445","500","250","pz","41","1","0","52","","","26"
"","psychophysics","100","540390","0.0-100.0","5b0481d17ac6e4000107e12a","64de7bb3553dbc538b05b940","","","","","2379",""," ","key"," ","16.66666901408462","500","250","pz","52","1","0","38","","","31"
"","psychophysics","101","541932","0.0-101.0","5b0481d17ac6e4000107e12a","64de7bb3553dbc538b05b940","","","","","1540",""," ","key"," ","16.66319780219807","500","250","inst","","","","","","",""
"","psychophysics","102","545281","0.0-102.0","5b0481d17ac6e4000107e12a","64de7bb3553dbc538b05b940","","","","","3348",""," ","key"," ","16.665914999999803","500","250","instZol0","0","","","0","0","0",""
"","psychophysics","103","571989","0.0-103.0","5b0481d17ac6e4000107e12a","64de7bb3553dbc538b05b940","","","","","26707",""," ","key"," ","16.665863295880143","500","250","instZol1","0.2999999999999998","","","-1.3","0","0",""
"","psychophysics","104","589802","0.0-104.0","5b0481d17ac6e4000107e12a","64de7bb3553dbc538b05b940","","","","","17810",""," ","key"," ","16.665436329588","500","250","instZol2","-2.1","2","","2","0","0",""
"","psychophysics","105","592363","0.0-105.0","5b0481d17ac6e4000107e12a","64de7bb3553dbc538b05b940","","","","","2560",""," ","key"," ","16.66348684210511","500","250","inst","","","","","","",""
"","psychophysics","106","599474","0.0-106.0","5b0481d17ac6e4000107e12a","64de7bb3553dbc538b05b940","","","","","7108",""," ","key"," ","16.904530952380792","500","250","zol","-1.02","2","0","-0.18","-21","-21",""
"","psychophysics","107","604647","0.0-107.0","5b0481d17ac6e4000107e12a","64de7bb3553dbc538b05b940","","","","","5172",""," ","key"," ","16.665634304207064","500","250","zol","-1.4000000000000001","2","0","-0.3","8","14",""
"","psychophysics","108","609056","0.0-108.0","5b0481d17ac6e4000107e12a","64de7bb3553dbc538b05b940","","","","","4406",""," ","key"," ","16.66648484848459","500","250","zol","-1.4600000000000002","2","0","0.36","-18","19",""
"","psychophysics","109","612285","0.0-109.0","5b0481d17ac6e4000107e12a","64de7bb3553dbc538b05b940","","","","","3227",""," ","key"," ","16.665704663211983","500","250","zol","-1.0499999999999998","2","0","-0.75","-17","-22",""
"","psychophysics","110","616805","0.0-110.0","5b0481d17ac6e4000107e12a","64de7bb3553dbc538b05b940","","","","","4518",""," ","key"," ","16.665170370370443","500","250","zol","-1.4900000000000002","2","0","0.49","7","8",""
"","psychophysics","111","620264","0.0-111.0","5b0481d17ac6e4000107e12a","64de7bb3553dbc538b05b940","","","","","3457",""," ","key"," ","16.66604368932075","500","250","zol","-0.9199999999999999","2","0","-0.48","5","23",""
"","psychophysics","112","625400","0.0-112.0","5b0481d17ac6e4000107e12a","64de7bb3553dbc538b05b940","","","","","5132",""," ","key"," ","16.66587662337652","500","250","zol","-1.4800000000000002","2","0","-0.62","15","4",""
"","psychophysics","113","631046","0.0-113.0","5b0481d17ac6e4000107e12a","64de7bb3553dbc538b05b940","","","","","5644",""," ","key"," ","16.665501483679797","500","250","zol","-1.6100000000000005","2","0","0.61","-22","-28",""
"","psychophysics","114","636342","0.0-114.0","5b0481d17ac6e4000107e12a","64de7bb3553dbc538b05b940","","","","","5294",""," ","key"," ","16.666151419558492","500","250","zol","-1.4200000000000004","2","0","0.42","-19","-23",""
"","psychophysics","115","641750","0.0-115.0","5b0481d17ac6e4000107e12a","64de7bb3553dbc538b05b940","","","","","5407",""," ","key"," ","16.66636419753087","500","250","zol","-0.7499999999999999","2","0","0.75","7","-7",""
"","psychophysics","116","648111","0.0-116.0","5b0481d17ac6e4000107e12a","64de7bb3553dbc538b05b940","","","","","6359",""," ","key"," ","16.665489473684055","500","250","zol","-1.17","2","0","0.67","7","-11",""
"","psychophysics","117","653501","0.0-117.0","5b0481d17ac6e4000107e12a","64de7bb3553dbc538b05b940","","","","","5388",""," ","key"," ","16.66513622291033","500","250","zol","-1.7700000000000005","2","0","0.27","-16","18",""
"","psychophysics","118","659635","0.0-118.0","5b0481d17ac6e4000107e12a","64de7bb3553dbc538b05b940","","","","","6132",""," ","key"," ","16.66543324250691","500","250","zol","-1.4400000000000004","2","0","0.64","-24","15",""
"","psychophysics","119","666424","0.0-119.0","5b0481d17ac6e4000107e12a","64de7bb3553dbc538b05b940","","","","","6787",""," ","key"," ","16.665687192118444","500","250","zol","-1.19","2","0","-0.11","15","-20",""
"","psychophysics","120","672320","0.0-120.0","5b0481d17ac6e4000107e12a","64de7bb3553dbc538b05b940","","","","","5893",""," ","key"," ","16.66654674220954","500","250","zol","-1.28","2","0","0.38","3","7",""
"","psychophysics","121","673886","0.0-121.0","5b0481d17ac6e4000107e12a","64de7bb3553dbc538b05b940","","","","","1565",""," ","key"," ","16.665741935483762","500","250","inst","","","","","","",""
"","psychophysics","122","680678","0.0-122.0","5b0481d17ac6e4000107e12a","64de7bb3553dbc538b05b940","","","","","6791",""," ","key"," ","16.665559113300645","500","250","instPog0","340","2","","370","0","0","340"
"","psychophysics","123","687806","0.0-123.0","5b0481d17ac6e4000107e12a","64de7bb3553dbc538b05b940","","","","","7126",""," ","key"," ","16.66644730679151","500","250","instPog1","340","2","","370","0","0","340"
"","psychophysics","124","692842","0.0-124.0","5b0481d17ac6e4000107e12a","64de7bb3553dbc538b05b940","","","","","5035",""," ","key"," ","16.664777408637867","500","250","instPog2","324","2","","340","0","0","340"
"","psychophysics","125","694814","0.0-125.0","5b0481d17ac6e4000107e12a","64de7bb3553dbc538b05b940","","","","","1971",""," ","key"," ","16.66506779661019","500","250","inst","","","","","","",""
"","psychophysics","126","698221","0.0-126.0","5b0481d17ac6e4000107e12a","64de7bb3553dbc538b05b940","","","","","3406",""," ","key"," ","16.6640788177338","500","250","pog","339","2","1","395","0","0","361"
"","psychophysics","127","701479","0.0-127.0","5b0481d17ac6e4000107e12a","64de7bb3553dbc538b05b940","","","","","3257",""," ","key"," ","16.665605128205453","500","250","pog","299","2","1","393","0","0","305"
"","psychophysics","128","704049","0.0-128.0","5b0481d17ac6e4000107e12a","64de7bb3553dbc538b05b940","","","","","2568",""," ","key"," ","16.66546405228829","500","250","pog","287","2","1","293","0","0","305"
"","psychophysics","129","707345","0.0-129.0","5b0481d17ac6e4000107e12a","64de7bb3553dbc538b05b940","","","","","3295",""," ","key"," ","16.665908629441667","500","250","pog","321","2","1","363","0","0","334"
"","psychophysics","130","711261","0.0-130.0","5b0481d17ac6e4000107e12a","64de7bb3553dbc538b05b940","","","","","3915",""," ","key"," ","16.664692307692558","500","250","pog","303","2","1","381","0","0","320"
"","psychophysics","131","713858","0.0-131.0","5b0481d17ac6e4000107e12a","64de7bb3553dbc538b05b940","","","","","2596",""," ","key"," ","16.663668831168557","500","250","pog","291","2","1","301","0","0","306"
"","psychophysics","132","717911","0.0-132.0","5b0481d17ac6e4000107e12a","64de7bb3553dbc538b05b940","","","","","4052",""," ","key"," ","16.66712345679026","500","250","pog","295","2","1","389","0","0","310"
"","psychophysics","133","719246","0.0-133.0","5b0481d17ac6e4000107e12a","64de7bb3553dbc538b05b940","","","","","1333",""," ","key"," ","16.665569620254107","500","250","pog","295","2","1","295","0","0","302"
"","psychophysics","134","722544","0.0-134.0","5b0481d17ac6e4000107e12a","64de7bb3553dbc538b05b940","","","","","3297",""," ","key"," ","16.663766497461868","500","250","pog","331","2","1","297","0","0","368"
"","psychophysics","135","727184","0.0-135.0","5b0481d17ac6e4000107e12a","64de7bb3553dbc538b05b940","","","","","4639",""," ","key"," ","16.66564259927809","500","250","pog","328","2","1","398","0","0","341"
"","psychophysics","136","729551","0.0-136.0","5b0481d17ac6e4000107e12a","64de7bb3553dbc538b05b940","","","","","2366",""," ","key"," ","16.665503546099362","500","250","pog","318","2","1","310","0","0","333"
"","psychophysics","137","731296","0.0-137.0","5b0481d17ac6e4000107e12a","64de7bb3553dbc538b05b940","","","","","1744",""," ","key"," ","16.665432692307288","500","250","pog","335","2","1","329","0","0","343"
"","psychophysics","138","733565","0.0-138.0","5b0481d17ac6e4000107e12a","64de7bb3553dbc538b05b940","","","","","2268",""," ","key"," ","16.66548148148124","500","250","pog","310","2","1","292","0","0","339"
"","psychophysics","139","736676","0.0-139.0","5b0481d17ac6e4000107e12a","64de7bb3553dbc538b05b940","","","","","3110",""," ","key"," ","16.66411290322593","500","250","pog","289","2","1","335","0","0","301"
"","psychophysics","140","739301","0.0-140.0","5b0481d17ac6e4000107e12a","64de7bb3553dbc538b05b940","","","","","2623",""," ","key"," ","16.66539102564163","500","250","pog","357","2","1","329","0","0","379"
"","psychophysics","141","740391","0.0-141.0","5b0481d17ac6e4000107e12a","64de7bb3553dbc538b05b940","","","","","1089",""," ","key"," ","16.666171875000146","500","250","inst","","","","","","",""
"","psychophysics","142","752843","0.0-142.0","5b0481d17ac6e4000107e12a","64de7bb3553dbc538b05b940","","","","","12449",""," ","key"," ","16.665864792503285","500","250","instPz1","51","2","","25","","","50"
"","psychophysics","143","758218","0.0-143.0","5b0481d17ac6e4000107e12a","64de7bb3553dbc538b05b940","","","","","5374",""," ","key"," ","16.665978193146355","500","250","instPz2","36","2","","20","","","35"
"","psychophysics","144","761860","0.0-144.0","5b0481d17ac6e4000107e12a","64de7bb3553dbc538b05b940","","","","","3637",""," ","key"," ","16.666701834862454","500","250","instPz3","54","2","","30","","","100"
"","psychophysics","145","764968","0.0-145.0","5b0481d17ac6e4000107e12a","64de7bb3553dbc538b05b940","","","","","3106",""," ","key"," ","16.665908108107946","500","250","instPz4","56","2","","30","","","100"
"","psychophysics","146","766507","0.0-146.0","5b0481d17ac6e4000107e12a","64de7bb3553dbc538b05b940","","","","","1538",""," ","key"," ","16.665131868131887","500","250","inst","","","","","","",""
"","psychophysics","147","771845","0.0-147.0","5b0481d17ac6e4000107e12a","64de7bb3553dbc538b05b940","","","","","5336",""," ","key"," ","16.666700000000127","500","250","pz","31","2","1","54","","","48"
"","psychophysics","148","775371","0.0-148.0","5b0481d17ac6e4000107e12a","64de7bb3553dbc538b05b940","","","","","3524",""," ","key"," ","16.66567142857128","500","250","pz","27","2","1","22","","","43"
"","psychophysics","149","779264","0.0-149.0","5b0481d17ac6e4000107e12a","64de7bb3553dbc538b05b940","","","","","3892",""," ","key"," ","16.66633905579442","500","250","pz","24","2","1","47","","","30"
"","psychophysics","150","781744","0.0-150.0","5b0481d17ac6e4000107e12a","64de7bb3553dbc538b05b940","","","","","2479",""," ","key"," ","16.66571621621591","500","250","pz","18","2","1","25","","","22"
"","psychophysics","151","786094","0.0-151.0","5b0481d17ac6e4000107e12a","64de7bb3553dbc538b05b940","","","","","4348",""," ","key"," ","16.66560384615396","500","250","pz","25","2","1","42","","","34"
"","psychophysics","152","788535","0.0-152.0","5b0481d17ac6e4000107e12a","64de7bb3553dbc538b05b940","","","","","2440",""," ","key"," ","16.665393103448803","500","250","pz","25","2","1","31","","","39"
"","psychophysics","153","790615","0.0-153.0","5b0481d17ac6e4000107e12a","64de7bb3553dbc538b05b940","","","","","2079",""," ","key"," ","16.668096774193877","500","250","pz","23","2","1","29","","","32"
"","psychophysics","154","795526","0.0-154.0","5b0481d17ac6e4000107e12a","64de7bb3553dbc538b05b940","","","","","4910",""," ","key"," ","16.665391156462587","500","250","pz","29","2","1","36","","","46"
"","psychophysics","155","797901","0.0-155.0","5b0481d17ac6e4000107e12a","64de7bb3553dbc538b05b940","","","","","2373",""," ","key"," ","16.665588652482256","500","250","pz","29","2","1","22","","","42"
"","psychophysics","156","801229","0.0-156.0","5b0481d17ac6e4000107e12a","64de7bb3553dbc538b05b940","","","","","3327",""," ","key"," ","16.665477386934345","500","250","pz","15","2","1","32","","","23"
"","psychophysics","157","803570","0.0-157.0","5b0481d17ac6e4000107e12a","64de7bb3553dbc538b05b940","","","","","2340",""," ","key"," ","16.665769784172777","500","250","pz","30","2","1","39","","","50"
"","psychophysics","158","808053","0.0-158.0","5b0481d17ac6e4000107e12a","64de7bb3553dbc538b05b940","","","","","4480",""," ","key"," ","16.666779850746433","500","250","pz","29","2","1","57","","","58"
"","psychophysics","159","810782","0.0-159.0","5b0481d17ac6e4000107e12a","64de7bb3553dbc538b05b940","","","","","2726",""," ","key"," ","16.665779141104277","500","250","pz","35","2","1","24","","","55"
"","psychophysics","160","813523","0.0-160.0","5b0481d17ac6e4000107e12a","64de7bb3553dbc538b05b940","","","","","2739",""," ","key"," ","16.66584146341448","500","250","pz","36","2","1","60","","","50"
"","psychophysics","161","816619","0.0-161.0","5b0481d17ac6e4000107e12a","64de7bb3553dbc538b05b940","","","","","3095",""," ","key"," ","16.665646739130707","500","250","pz","19","2","1","32","","","32"
"","psychophysics","162","817470","0.0-162.0","5b0481d17ac6e4000107e12a","64de7bb3553dbc538b05b940","","","","","848",""," ","key"," ","16.67260000000009","500","250","inst","","","","","","",""
"","psychophysics","163","824339","0.0-163.0","5b0481d17ac6e4000107e12a","64de7bb3553dbc538b05b940","","","","","6866",""," ","key"," ","16.666405339805845","500","250","instBr3","-18","1","","40","0","0","300"
"","psychophysics","164","825451","0.0-164.0","5b0481d17ac6e4000107e12a","64de7bb3553dbc538b05b940","","","","","1111",""," ","key"," ","16.66564615384604","500","250","inst","","","","","","",""
"","psychophysics","165","828743","0.0-165.0","5b0481d17ac6e4000107e12a","64de7bb3553dbc538b05b940","","","","","3291",""," ","key"," ","16.667086294416084","500","250","br","-16","1","1","-3","-1","6","206"
"","psychophysics","166","830641","0.0-166.0","5b0481d17ac6e4000107e12a","64de7bb3553dbc538b05b940","","","","","1897",""," ","key"," ","16.66595575221262","500","250","br","-13","1","1","-8","23","0","207"
"","psychophysics","167","833642","0.0-167.0","5b0481d17ac6e4000107e12a","64de7bb3553dbc538b05b940","","","","","3000",""," ","key"," ","16.66557541899396","500","250","br","-14","1","1","4","-30","-16","283"
"","psychophysics","168","835799","0.0-168.0","5b0481d17ac6e4000107e12a","64de7bb3553dbc538b05b940","","","","","2155",""," ","key"," ","16.665796874999614","500","250","br","-18","1","1","-6","-18","15","284"
"","psychophysics","169","837943","0.0-169.0","5b0481d17ac6e4000107e12a","64de7bb3553dbc538b05b940","","","","","2143",""," ","key"," ","16.66547656249986","500","250","br","-21","1","1","-22","8","-8","201"
"","psychophysics","170","840031","0.0-170.0","5b0481d17ac6e4000107e12a","64de7bb3553dbc538b05b940","","","","","2087",""," ","key"," ","16.66695967741919","500","250","br","-17","1","1","-1","8","25","244"
"","psychophysics","171","842263","0.0-171.0","5b0481d17ac6e4000107e12a","64de7bb3553dbc538b05b940","","","","","2231",""," ","key"," ","16.66512781954843","500","250","br","-13","1","1","11","-2","25","200"
"","psychophysics","172","844395","0.0-172.0","5b0481d17ac6e4000107e12a","64de7bb3553dbc538b05b940","","","","","2130",""," ","key"," ","16.66607086614185","500","250","br","-20","1","1","-8","-7","25","262"
"","psychophysics","173","846489","0.0-173.0","5b0481d17ac6e4000107e12a","64de7bb3553dbc538b05b940","","","","","2093",""," ","key"," ","16.666031999999657","500","250","br","-26","1","1","-3","16","-11","231"
"","psychophysics","174","848307","0.0-174.0","5b0481d17ac6e4000107e12a","64de7bb3553dbc538b05b940","","","","","1817",""," ","key"," ","16.666064814815332","500","250","br","-16","1","1","-13","13","10","214"
"","psychophysics","175","850900","0.0-175.0","5b0481d17ac6e4000107e12a","64de7bb3553dbc538b05b940","","","","","2591",""," ","key"," ","16.665331168831237","500","250","br","-16","1","1","18","-2","-29","264"
"","psychophysics","176","854546","0.0-176.0","5b0481d17ac6e4000107e12a","64de7bb3553dbc538b05b940","","","","","3646",""," ","key"," ","16.666770642201968","500","250","br","-18","1","1","-30","-20","-28","274"
"","psychophysics","177","858090","0.0-177.0","5b0481d17ac6e4000107e12a","64de7bb3553dbc538b05b940","","","","","3542",""," ","key"," ","16.665797169811206","500","250","br","-17","1","1","27","-28","25","217"
"","psychophysics","178","862199","0.0-178.0","5b0481d17ac6e4000107e12a","64de7bb3553dbc538b05b940","","","","","4108",""," ","key"," ","16.66634693877553","500","250","br","-22","1","1","5","19","11","287"
"","psychophysics","179","864498","0.0-179.0","5b0481d17ac6e4000107e12a","64de7bb3553dbc538b05b940","","","","","2297",""," ","key"," ","16.6679635036492","500","250","br","-19","1","1","4","-13","5","286"
"","psychophysics","180","865576","0.0-180.0","5b0481d17ac6e4000107e12a","64de7bb3553dbc538b05b940","","","","","1077",""," ","key"," ","16.670515624999098","500","250","inst","","","","","","",""
"","psychophysics","181","871639","0.0-181.0","5b0481d17ac6e4000107e12a","64de7bb3553dbc538b05b940","","","","","6062",""," ","key"," ","16.665666666666635","500","250","instEB1","37","1","","40","0","0","30"
"","psychophysics","182","873968","0.0-182.0","5b0481d17ac6e4000107e12a","64de7bb3553dbc538b05b940","","","","","2328",""," ","key"," ","16.667424460431633","500","250","instEB2","39","1","","30","0","0","40"
"","psychophysics","183","876975","0.0-183.0","5b0481d17ac6e4000107e12a","64de7bb3553dbc538b05b940","","","","","3005",""," ","key"," ","16.66585474860316","500","250","instEB3","40","1","","27","0","0","45"
"","psychophysics","184","880892","0.0-184.0","5b0481d17ac6e4000107e12a","64de7bb3553dbc538b05b940","","","","","3915",""," ","key"," ","16.66535897435905","500","250","instEB4","29","1","","40","0","0","30"
"","psychophysics","185","882368","0.0-185.0","5b0481d17ac6e4000107e12a","64de7bb3553dbc538b05b940","","","","","1475",""," ","key"," ","16.667806818181734","500","250","inst","","","","","","",""
"","psychophysics","186","884419","0.0-186.0","5b0481d17ac6e4000107e12a","64de7bb3553dbc538b05b940","","","","","2050",""," ","key"," ","16.665737704917802","500","250","eb","42","1","","47","0","0","50"
"","psychophysics","187","887898","0.0-187.0","5b0481d17ac6e4000107e12a","64de7bb3553dbc538b05b940","","","","","3477",""," ","key"," ","16.665642512077017","500","250","eb","34","1","","52","0","0","39"
"","psychophysics","188","890392","0.0-188.0","5b0481d17ac6e4000107e12a","64de7bb3553dbc538b05b940","","","","","2493",""," ","key"," ","16.667966442953034","500","250","eb","42","1","","26","0","0","43"
"","psychophysics","189","893817","0.0-189.0","5b0481d17ac6e4000107e12a","64de7bb3553dbc538b05b940","","","","","3423",""," ","key"," ","16.666107317073294","500","250","eb","32","1","","32","0","0","37"
"","psychophysics","190","895937","0.0-190.0","5b0481d17ac6e4000107e12a","64de7bb3553dbc538b05b940","","","","","2118",""," ","key"," ","16.665547619048056","500","250","eb","34","1","","40","0","0","33"
"","psychophysics","191","899431","0.0-191.0","5b0481d17ac6e4000107e12a","64de7bb3553dbc538b05b940","","","","","3493",""," ","key"," ","16.66553365384607","500","250","eb","29","1","","45","0","0","27"
"","psychophysics","192","901980","0.0-192.0","5b0481d17ac6e4000107e12a","64de7bb3553dbc538b05b940","","","","","2546",""," ","key"," ","16.667723684210184","500","250","eb","52","1","","50","0","0","54"
"","psychophysics","193","904195","0.0-193.0","5b0481d17ac6e4000107e12a","64de7bb3553dbc538b05b940","","","","","2213",""," ","key"," ","16.66763636363568","500","250","eb","46","1","","35","0","0","50"
"","psychophysics","194","907177","0.0-194.0","5b0481d17ac6e4000107e12a","64de7bb3553dbc538b05b940","","","","","2980",""," ","key"," ","16.666325842696793","500","250","eb","32","1","","34","0","0","32"
"","psychophysics","195","909617","0.0-195.0","5b0481d17ac6e4000107e12a","64de7bb3553dbc538b05b940","","","","","2439",""," ","key"," ","16.6679178082196","500","250","eb","28","1","","31","0","0","24"
"","psychophysics","196","912377","0.0-196.0","5b0481d17ac6e4000107e12a","64de7bb3553dbc538b05b940","","","","","2759",""," ","key"," ","16.665707317073036","500","250","eb","41","1","","32","0","0","49"
"","psychophysics","197","915977","0.0-197.0","5b0481d17ac6e4000107e12a","64de7bb3553dbc538b05b940","","","","","3599",""," ","key"," ","16.666846511627785","500","250","eb","28","1","","25","0","0","24"
"","psychophysics","198","918502","0.0-198.0","5b0481d17ac6e4000107e12a","64de7bb3553dbc538b05b940","","","","","2524",""," ","key"," ","16.664284768212116","500","250","eb","31","1","","35","0","0","25"
"","psychophysics","199","921400","0.0-199.0","5b0481d17ac6e4000107e12a","64de7bb3553dbc538b05b940","","","","","2896",""," ","key"," ","16.66599999999996","500","250","eb","42","1","","53","0","0","48"
"","psychophysics","200","924249","0.0-200.0","5b0481d17ac6e4000107e12a","64de7bb3553dbc538b05b940","","","","","2848",""," ","key"," ","16.666123529411305","500","250","eb","33","1","","33","0","0","29"
"","psychophysics","201","925628","0.0-201.0","5b0481d17ac6e4000107e12a","64de7bb3553dbc538b05b940","","","","","1378",""," ","key"," ","16.66548148148124","500","250","inst","","","","","","",""
"","psychophysics","202","928959","0.0-202.0","5b0481d17ac6e4000107e12a","64de7bb3553dbc538b05b940","","","","","3330",""," ","key"," ","16.667427135678242","500","250","instZol1","-0.5","","","-1.3","0","0",""
"","psychophysics","203","934303","0.0-203.0","5b0481d17ac6e4000107e12a","64de7bb3553dbc538b05b940","","","","","5343",""," ","key"," ","16.665975000000252","500","250","instZol2","1.1000000000000008","1","","2","0","0",""
"","psychophysics","204","936790","0.0-204.0","5b0481d17ac6e4000107e12a","64de7bb3553dbc538b05b940","","","","","2486",""," ","key"," ","16.665824324324433","500","250","inst","","","","","","",""
"","psychophysics","205","941579","0.0-205.0","5b0481d17ac6e4000107e12a","64de7bb3553dbc538b05b940","","","","","4787",""," ","key"," ","16.66663286713289","500","250","zol","1.6700000000000004","1","1","-0.67","0","-24",""
"","psychophysics","206","946850","0.0-206.0","5b0481d17ac6e4000107e12a","64de7bb3553dbc538b05b940","","","","","5268",""," ","key"," ","16.666677215190006","500","250","zol","1.27","1","1","0.33","1","5",""
"","psychophysics","207","949193","0.0-207.0","5b0481d17ac6e4000107e12a","64de7bb3553dbc538b05b940","","","","","2341",""," ","key"," ","16.666863309351807","500","250","zol","1.7200000000000006","1","1","0.28","-11","-23",""
"","psychophysics","208","951621","0.0-208.0","5b0481d17ac6e4000107e12a","64de7bb3553dbc538b05b940","","","","","2426",""," ","key"," ","16.66780000000004","500","250","zol","2.1100000000000008","1","1","-0.11","9","-30",""
"","psychophysics","209","954029","0.0-209.0","5b0481d17ac6e4000107e12a","64de7bb3553dbc538b05b940","","","","","2406",""," ","key"," ","16.66567132867127","500","250","zol","1.9800000000000006","1","1","0.12","19","-17",""
"","psychophysics","210","956514","0.0-210.0","5b0481d17ac6e4000107e12a","64de7bb3553dbc538b05b940","","","","","2481",""," ","key"," ","16.667557046979184","500","250","zol","1.6700000000000004","1","1","0.73","29","3",""
"","psychophysics","211","958949","0.0-211.0","5b0481d17ac6e4000107e12a","64de7bb3553dbc538b05b940","","","","","2433",""," ","key"," ","16.665634482759373","500","250","zol","1.5800000000000005","1","1","0.42","-25","-4",""
"","psychophysics","212","962073","0.0-212.0","5b0481d17ac6e4000107e12a","64de7bb3553dbc538b05b940","","","","","3122",""," ","key"," ","16.66570967741959","500","250","zol","0.8600000000000001","1","1","-0.66","3","-25",""
"","psychophysics","213","964860","0.0-213.0","5b0481d17ac6e4000107e12a","64de7bb3553dbc538b05b940","","","","","2786",""," ","key"," ","16.66577710843356","500","250","zol","1.7600000000000005","1","1","0.64","23","3",""
"","psychophysics","214","967371","0.0-214.0","5b0481d17ac6e4000107e12a","64de7bb3553dbc538b05b940","","","","","2507",""," ","key"," ","16.667126666666785","500","250","zol","1.6900000000000006","1","1","0.41","27","-14",""
"","psychophysics","215","969957","0.0-215.0","5b0481d17ac6e4000107e12a","64de7bb3553dbc538b05b940","","","","","2584",""," ","key"," ","16.667681818181656","500","250","zol","1.9100000000000008","1","1","-0.01","15","8",""
"","psychophysics","216","973704","0.0-216.0","5b0481d17ac6e4000107e12a","64de7bb3553dbc538b05b940","","","","","3745",""," ","key"," ","16.66649999999988","500","250","zol","1.7300000000000004","1","1","0.47","1","19",""
"","psychophysics","217","976749","0.0-217.0","5b0481d17ac6e4000107e12a","64de7bb3553dbc538b05b940","","","","","3044",""," ","key"," ","16.666478021978016","500","250","zol","1.27","1","1","0.63","-4","-16",""
"","psychophysics","218","981160","0.0-218.0","5b0481d17ac6e4000107e12a","64de7bb3553dbc538b05b940","","","","","4408",""," ","key"," ","16.66564638783249","500","250","zol","1.7000000000000004","1","1","-0.6","-19","2",""
"","psychophysics","219","983691","0.0-219.0","5b0481d17ac6e4000107e12a","64de7bb3553dbc538b05b940","","","","","2527",""," ","key"," ","16.668066225164964","500","250","zol","1.6000000000000003","1","1","-0.4","-13","-24",""
