"success","trial_type","trial_index","time_elapsed","internal_node_id","pid","sid","timeout","failed_images","failed_audio","failed_video","rt","stimulus","response","response_type","key_press","avg_frame_time","center_x","center_y","task","resp","start","parA","version","block","jitterX","jitterY"
"true","fullscreen","0","2280","0.0-0.0","5ad38729dfe710000183c244","64de7be092fc7b9a92c1e938","","","","","","","","","","","","","","","","","","","",""
"true","preload","1","2382","0.0-1.0","5ad38729dfe710000183c244","64de7be092fc7b9a92c1e938","false","[]","[]","[]","","","","","","","","","","","","","","","",""
"","html-button-response","2","3691","0.0-2.0","5ad38729dfe710000183c244","64de7be092fc7b9a92c1e938","","","","","1306","Please Make Sure Your Audio Is On.","0","","","","","","","","","","","","",""
"","psychophysics","3","12906","0.0-3.0","5ad38729dfe710000183c244","64de7be092fc7b9a92c1e938","","","","","9205",""," ","key"," ","16.664526220614828","640","250","","","","","","","",""
"","psychophysics","4","16965","0.0-4.0","5ad38729dfe710000183c244","64de7be092fc7b9a92c1e938","","","","","4057",""," ","key"," ","16.66475720164609","500","250","inst","","","","","","",""
"","psychophysics","5","21186","0.0-5.0","5ad38729dfe710000183c244","64de7be092fc7b9a92c1e938","","","","","4215",""," ","key"," ","16.66457936507936","500","250","sample0","","","","","","",""
"","psychophysics","6","25386","0.0-6.0","5ad38729dfe710000183c244","64de7be092fc7b9a92c1e938","","","","","4197",""," ","key"," ","16.663988047808765","500","250","sample1","","","","","","",""
"","psychophysics","7","45636","0.0-7.0","5ad38729dfe710000183c244","64de7be092fc7b9a92c1e938","","","","","20246",""," ","key"," ","16.66462108731466","500","250","sample2","100","","","","","",""
"","psychophysics","8","52403","0.0-8.0","5ad38729dfe710000183c244","64de7be092fc7b9a92c1e938","","","","","6747",""," ","key"," ","16.664683950617285","500","250","sample3","100","","","","","",""
"","psychophysics","9","64423","0.0-9.0","5ad38729dfe710000183c244","64de7be092fc7b9a92c1e938","","","","","12001",""," ","key"," ","16.664630555555565","500","250","sample4","100","","","","","",""
"","psychophysics","10","68806","0.0-10.0","5ad38729dfe710000183c244","64de7be092fc7b9a92c1e938","","","","","4372",""," ","key"," ","16.66450381679386","500","250","sample5","","","","","","",""
"","psychophysics","11","77743","0.0-11.0","5ad38729dfe710000183c244","64de7be092fc7b9a92c1e938","","","","","8928",""," ","key"," ","16.664570895522374","500","250","sample6","502","","","","","",""
"","psychophysics","12","89515","0.0-12.0","5ad38729dfe710000183c244","64de7be092fc7b9a92c1e938","","","","","11768",""," ","key"," ","16.664394326241137","500","250","inst","","","","","","",""
"","psychophysics","13","96825","0.0-13.0","5ad38729dfe710000183c244","64de7be092fc7b9a92c1e938","","","","","7308",""," ","key"," ","16.664632420091316","500","250","inst","","","","","","",""
"","psychophysics","14","104171","0.0-14.0","5ad38729dfe710000183c244","64de7be092fc7b9a92c1e938","","","","","7343",""," ","key"," ","16.664531818181818","500","250","inst","","","","","","",""
"","psychophysics","15","108050","0.0-15.0","5ad38729dfe710000183c244","64de7be092fc7b9a92c1e938","","","","","3874",""," ","key"," ","16.664571428571442","500","250","inst","","","","","","",""
"","psychophysics","16","111369","0.0-16.0","5ad38729dfe710000183c244","64de7be092fc7b9a92c1e938","","","","","3302",""," ","key"," ","16.664402010050253","500","250","inst","","","","","","",""
"","psychophysics","17","119442","0.0-17.0","5ad38729dfe710000183c244","64de7be092fc7b9a92c1e938","","","","","8069",""," ","key"," ","16.664587991718424","500","250","instPzPre","50","50","50","0","","",""
"","psychophysics","18","127165","0.0-18.0","5ad38729dfe710000183c244","64de7be092fc7b9a92c1e938","","","","","7717",""," ","key"," ","16.66446320346321","500","250","instPz0","53","50","50","1","","",""
"","psychophysics","19","139384","0.0-19.0","5ad38729dfe710000183c244","64de7be092fc7b9a92c1e938","","","","","12211",""," ","key"," ","16.664458390177348","500","250","instPz1","53","25","50","1","","",""
"","psychophysics","20","145588","0.0-20.0","5ad38729dfe710000183c244","64de7be092fc7b9a92c1e938","","","","","6200",""," ","key"," ","16.664444743935285","500","250","instPz2","19","35","20","1","","",""
"","psychophysics","21","162654","0.0-21.0","5ad38729dfe710000183c244","64de7be092fc7b9a92c1e938","","","","","17058",""," ","key"," ","16.664524926686227","500","250","instPz3","34","100","30","1","","",""
"","psychophysics","22","171904","0.0-22.0","5ad38729dfe710000183c244","64de7be092fc7b9a92c1e938","","","","","9246",""," ","key"," ","16.664534296028883","500","250","instPz4","30","100","30","1","","",""
"","psychophysics","23","175995","0.0-23.0","5ad38729dfe710000183c244","64de7be092fc7b9a92c1e938","","","","","4089",""," ","key"," ","16.664330612244893","500","250","inst","","","","","","",""
"","psychophysics","24","179408","0.0-24.0","5ad38729dfe710000183c244","64de7be092fc7b9a92c1e938","","","","","3408",""," ","key"," ","16.664551724137834","500","250","pz","41","50","40","1","0","",""
"","psychophysics","25","184230","0.0-25.0","5ad38729dfe710000183c244","64de7be092fc7b9a92c1e938","","","","","4815",""," ","key"," ","16.66483391003456","500","250","pz","23","36","20","1","0","",""
"","psychophysics","26","187508","0.0-26.0","5ad38729dfe710000183c244","64de7be092fc7b9a92c1e938","","","","","3274",""," ","key"," ","16.66453846153842","500","250","pz","36","36","37","1","0","",""
"","psychophysics","27","191981","0.0-27.0","5ad38729dfe710000183c244","64de7be092fc7b9a92c1e938","","","","","4466",""," ","key"," ","16.664570895522427","500","250","pz","41","49","40","1","0","",""
"","psychophysics","28","193735","0.0-28.0","5ad38729dfe710000183c244","64de7be092fc7b9a92c1e938","","","","","1749",""," ","key"," ","16.663980769230804","500","250","pz","34","33","31","1","0","",""
"","psychophysics","29","196012","0.0-29.0","5ad38729dfe710000183c244","64de7be092fc7b9a92c1e938","","","","","2275",""," ","key"," ","16.6646985294118","500","250","pz","25","25","24","1","0","",""
"","psychophysics","30","198497","0.0-30.0","5ad38729dfe710000183c244","64de7be092fc7b9a92c1e938","","","","","2481",""," ","key"," ","16.664358108108186","500","250","pz","54","57","54","1","0","",""
"","psychophysics","31","201554","0.0-31.0","5ad38729dfe710000183c244","64de7be092fc7b9a92c1e938","","","","","3052",""," ","key"," ","16.664368131868017","500","250","pz","47","40","45","1","0","",""
"","psychophysics","32","203987","0.0-32.0","5ad38729dfe710000183c244","64de7be092fc7b9a92c1e938","","","","","2427",""," ","key"," ","16.664406896551775","500","250","pz","35","30","33","1","0","",""
"","psychophysics","33","208706","0.0-33.0","5ad38729dfe710000183c244","64de7be092fc7b9a92c1e938","","","","","4713",""," ","key"," ","16.66467730496448","500","250","pz","22","54","20","1","0","",""
"","psychophysics","34","212738","0.0-34.0","5ad38729dfe710000183c244","64de7be092fc7b9a92c1e938","","","","","4025",""," ","key"," ","16.664493775933657","500","250","pz","25","38","25","1","0","",""
"","psychophysics","35","215297","0.0-35.0","5ad38729dfe710000183c244","64de7be092fc7b9a92c1e938","","","","","2552",""," ","key"," ","16.66442483660135","500","250","pz","26","33","27","1","0","",""
"","psychophysics","36","218865","0.0-36.0","5ad38729dfe710000183c244","64de7be092fc7b9a92c1e938","","","","","3564",""," ","key"," ","16.66432863849769","500","250","pz","29","44","31","1","0","",""
"","psychophysics","37","222690","0.0-37.0","5ad38729dfe710000183c244","64de7be092fc7b9a92c1e938","","","","","3822",""," ","key"," ","16.66451528384279","500","250","pz","63","55","60","1","0","",""
"","psychophysics","38","227244","0.0-38.0","5ad38729dfe710000183c244","64de7be092fc7b9a92c1e938","","","","","4551",""," ","key"," ","16.664676470588294","500","250","pz","34","26","31","1","0","",""
"","psychophysics","39","228859","0.0-39.0","5ad38729dfe710000183c244","64de7be092fc7b9a92c1e938","","","","","1613",""," ","key"," ","16.665291666666537","500","250","inst","","","","","","",""
"","psychophysics","40","239798","0.0-40.0","5ad38729dfe710000183c244","64de7be092fc7b9a92c1e938","","","","","10934",""," ","key"," ","16.664477862595387","500","250","instBr0","0","0","300","","","0","0"
"","psychophysics","41","246597","0.0-41.0","5ad38729dfe710000183c244","64de7be092fc7b9a92c1e938","","","","","6792",""," ","key"," ","16.664496314496272","500","250","instBr1","9","-40","300","","","0","0"
"","psychophysics","42","252026","0.0-42.0","5ad38729dfe710000183c244","64de7be092fc7b9a92c1e938","","","","","5423",""," ","key"," ","16.664575384615365","500","250","instBr3","27","40","300","2","","0","0"
"","psychophysics","43","254072","0.0-43.0","5ad38729dfe710000183c244","64de7be092fc7b9a92c1e938","","","","","2043",""," ","key"," ","16.663663934426264","500","250","inst","","","","","","",""
"","psychophysics","44","258743","0.0-44.0","5ad38729dfe710000183c244","64de7be092fc7b9a92c1e938","","","","","4666",""," ","key"," ","16.664483870967754","500","250","br","20","-29","285","2","0","27","0"
"","psychophysics","45","261587","0.0-45.0","5ad38729dfe710000183c244","64de7be092fc7b9a92c1e938","","","","","2840",""," ","key"," ","16.66466470588228","500","250","br","23","24","279","2","0","-7","-15"
"","psychophysics","46","263969","0.0-46.0","5ad38729dfe710000183c244","64de7be092fc7b9a92c1e938","","","","","2378",""," ","key"," ","16.664359154929834","500","250","br","17","5","215","2","0","-5","4"
"","psychophysics","47","267734","0.0-47.0","5ad38729dfe710000183c244","64de7be092fc7b9a92c1e938","","","","","3761",""," ","key"," ","16.66433333333323","500","250","br","19","28","277","2","0","-19","-16"
"","psychophysics","48","270086","0.0-48.0","5ad38729dfe710000183c244","64de7be092fc7b9a92c1e938","","","","","2347",""," ","key"," ","16.66427142857158","500","250","br","19","28","258","2","0","-27","2"
"","psychophysics","49","271675","0.0-49.0","5ad38729dfe710000183c244","64de7be092fc7b9a92c1e938","","","","","1585",""," ","key"," ","16.665563829787487","500","250","br","21","25","205","2","0","-22","-22"
"","psychophysics","50","277516","0.0-50.0","5ad38729dfe710000183c244","64de7be092fc7b9a92c1e938","","","","","5833",""," ","key"," ","16.66459428571431","500","250","br","19","-22","202","2","0","27","-15"
"","psychophysics","51","280548","0.0-51.0","5ad38729dfe710000183c244","64de7be092fc7b9a92c1e938","","","","","3027",""," ","key"," ","16.66499447513813","500","250","br","16","-12","268","2","0","14","19"
"","psychophysics","52","283435","0.0-52.0","5ad38729dfe710000183c244","64de7be092fc7b9a92c1e938","","","","","2882",""," ","key"," ","16.664627906976694","500","250","br","19","17","225","2","0","7","-20"
"","psychophysics","53","285780","0.0-53.0","5ad38729dfe710000183c244","64de7be092fc7b9a92c1e938","","","","","2341",""," ","key"," ","16.664392857142957","500","250","br","22","30","258","2","0","-9","20"
"","psychophysics","54","287649","0.0-54.0","5ad38729dfe710000183c244","64de7be092fc7b9a92c1e938","","","","","1865",""," ","key"," ","16.66408108108098","500","250","br","20","16","212","2","0","-15","5"
"","psychophysics","55","290728","0.0-55.0","5ad38729dfe710000183c244","64de7be092fc7b9a92c1e938","","","","","3076",""," ","key"," ","16.664825136612023","500","250","br","19","13","254","2","0","14","-11"
"","psychophysics","56","294104","0.0-56.0","5ad38729dfe710000183c244","64de7be092fc7b9a92c1e938","","","","","3369",""," ","key"," ","16.664727722772103","500","250","br","19","-14","276","2","0","10","19"
"","psychophysics","57","297150","0.0-57.0","5ad38729dfe710000183c244","64de7be092fc7b9a92c1e938","","","","","3041",""," ","key"," ","16.66448901098888","500","250","br","24","-5","272","2","0","29","-3"
"","psychophysics","58","300399","0.0-58.0","5ad38729dfe710000183c244","64de7be092fc7b9a92c1e938","","","","","3246",""," ","key"," ","16.66459793814448","500","250","br","20","-20","245","2","0","-25","-28"
"","psychophysics","59","301715","0.0-59.0","5ad38729dfe710000183c244","64de7be092fc7b9a92c1e938","","","","","1313",""," ","key"," ","16.66388461538456","500","250","inst","","","","","","",""
"","psychophysics","60","305692","0.0-60.0","5ad38729dfe710000183c244","64de7be092fc7b9a92c1e938","","","","","3973",""," ","key"," ","16.664295358649888","500","250","instPog0","340","370","340","2","","0","0"
"","psychophysics","61","314634","0.0-61.0","5ad38729dfe710000183c244","64de7be092fc7b9a92c1e938","","","","","8935",""," ","key"," ","16.664565298507455","500","250","instPog1","346","370","340","2","","0","0"
"","psychophysics","62","322068","0.0-62.0","5ad38729dfe710000183c244","64de7be092fc7b9a92c1e938","","","","","7431",""," ","key"," ","16.664483146067433","500","250","instPog2","340","340","340","2","","0","0"
"","psychophysics","63","325292","0.0-63.0","5ad38729dfe710000183c244","64de7be092fc7b9a92c1e938","","","","","3222",""," ","key"," ","16.664487046632043","500","250","inst","","","","","","",""
"","psychophysics","64","327591","0.0-64.0","5ad38729dfe710000183c244","64de7be092fc7b9a92c1e938","","","","","2295",""," ","key"," ","17.04027067669151","500","250","pog","298","298","311","2","0","0","0"
"","psychophysics","65","329371","0.0-65.0","5ad38729dfe710000183c244","64de7be092fc7b9a92c1e938","","","","","1774",""," ","key"," ","16.664367924528396","500","250","pog","327","333","325","2","0","0","0"
"","psychophysics","66","332786","0.0-66.0","5ad38729dfe710000183c244","64de7be092fc7b9a92c1e938","","","","","3411",""," ","key"," ","16.746931034482653","500","250","pog","305","389","305","2","0","0","0"
"","psychophysics","67","334183","0.0-67.0","5ad38729dfe710000183c244","64de7be092fc7b9a92c1e938","","","","","1391",""," ","key"," ","16.6643493975904","500","250","pog","353","351","366","2","0","0","0"
"","psychophysics","68","335977","0.0-68.0","5ad38729dfe710000183c244","64de7be092fc7b9a92c1e938","","","","","1791",""," ","key"," ","16.664149532710404","500","250","pog","316","316","330","2","0","0","0"
"","psychophysics","69","338652","0.0-69.0","5ad38729dfe710000183c244","64de7be092fc7b9a92c1e938","","","","","2672",""," ","key"," ","16.769721518987215","500","250","pog","305","365","310","2","0","0","0"
"","psychophysics","70","342708","0.0-70.0","5ad38729dfe710000183c244","64de7be092fc7b9a92c1e938","","","","","4050",""," ","key"," ","16.664716049382527","500","250","pog","354","394","355","2","0","0","0"
"","psychophysics","71","345894","0.0-71.0","5ad38729dfe710000183c244","64de7be092fc7b9a92c1e938","","","","","3182",""," ","key"," ","16.66454210526304","500","250","pog","372","382","369","2","0","0","0"
"","psychophysics","72","347741","0.0-72.0","5ad38729dfe710000183c244","64de7be092fc7b9a92c1e938","","","","","1842",""," ","key"," ","16.664845454545734","500","250","pog","366","380","364","2","0","0","0"
"","psychophysics","73","349289","0.0-73.0","5ad38729dfe710000183c244","64de7be092fc7b9a92c1e938","","","","","1544",""," ","key"," ","16.663771739130226","500","250","pog","304","298","323","2","0","0","0"
"","psychophysics","74","350961","0.0-74.0","5ad38729dfe710000183c244","64de7be092fc7b9a92c1e938","","","","","1659",""," ","key"," ","16.663555555555952","500","250","pog","309","315","316","2","0","0","0"
"","psychophysics","75","355800","0.0-75.0","5ad38729dfe710000183c244","64de7be092fc7b9a92c1e938","","","","","4837",""," ","key"," ","16.664743944636594","500","250","pog","321","363","321","2","0","0","0"
"","psychophysics","76","357105","0.0-76.0","5ad38729dfe710000183c244","64de7be092fc7b9a92c1e938","","","","","1298",""," ","key"," ","16.665833333333303","500","250","pog","333","341","331","2","0","0","0"
"","psychophysics","77","360920","0.0-77.0","5ad38729dfe710000183c244","64de7be092fc7b9a92c1e938","","","","","3811",""," ","key"," ","16.664175438596367","500","250","pog","357","307","371","2","0","0","0"
"","psychophysics","78","363773","0.0-78.0","5ad38729dfe710000183c244","64de7be092fc7b9a92c1e938","","","","","2850",""," ","key"," ","16.66475294117665","500","250","pog","352","308","360","2","0","0","0"
"","psychophysics","79","364910","0.0-79.0","5ad38729dfe710000183c244","64de7be092fc7b9a92c1e938","","","","","1135",""," ","key"," ","16.663999999999312","500","250","inst","","","","","","",""
"","psychophysics","80","379649","0.0-80.0","5ad38729dfe710000183c244","64de7be092fc7b9a92c1e938","","","","","14737",""," ","key"," ","16.664596828992114","500","250","instZol0","-6.38378239159465e-16","0","","","","0","0"
"","psychophysics","81","386787","0.0-81.0","5ad38729dfe710000183c244","64de7be092fc7b9a92c1e938","","","","","7130",""," ","key"," ","16.664553738317764","500","250","instZol1","-0.09999999999999998","-1.3","","","","0","0"
"","psychophysics","82","397720","0.0-82.0","5ad38729dfe710000183c244","64de7be092fc7b9a92c1e938","","","","","10927",""," ","key"," ","16.664537404580148","500","250","instZol2","-1.2999999999999994","2","","2","","0","0"
"","psychophysics","83","399681","0.0-83.0","5ad38729dfe710000183c244","64de7be092fc7b9a92c1e938","","","","","1958",""," ","key"," ","16.66431896551713","500","250","inst","","","","","","",""
"","psychophysics","84","404844","0.0-84.0","5ad38729dfe710000183c244","64de7be092fc7b9a92c1e938","","","","","5152",""," ","key"," ","16.66457605177991","500","250","zol","-1.4800000000000002","-0.32","","2","0","-21","-15"
"","psychophysics","85","412573","0.0-85.0","5ad38729dfe710000183c244","64de7be092fc7b9a92c1e938","","","","","7718",""," ","key"," ","16.66435205183592","500","250","zol","-1.6100000000000003","0.41","","2","0","-26","28"
"","psychophysics","86","420578","0.0-86.0","5ad38729dfe710000183c244","64de7be092fc7b9a92c1e938","","","","","null","","null","key","null","16.66447181628394","500","250","zol","-0.7200000000000001","-0.48","","2","0","-20","17"
"","psychophysics","87","428590","0.0-87.0","5ad38729dfe710000183c244","64de7be092fc7b9a92c1e938","","","","","null","","null","key","null","16.664535416666695","500","250","zol","-2.7755575615628914e-17","0","","2","0","-20","25"
"","psychophysics","88","433008","0.0-88.0","5ad38729dfe710000183c244","64de7be092fc7b9a92c1e938","","","","","4412",""," ","key"," ","16.664852272727302","500","250","zol","-0.41000000000000003","-0.29","","2","0","23","21"
"","psychophysics","89","438528","0.0-89.0","5ad38729dfe710000183c244","64de7be092fc7b9a92c1e938","","","","","5505",""," ","key"," ","16.66487915407841","500","250","zol","-1.12","0.62","","2","0","-5","-8"
"","psychophysics","90","443088","0.0-90.0","5ad38729dfe710000183c244","64de7be092fc7b9a92c1e938","","","","","4552",""," ","key"," ","16.664312500000104","500","250","zol","-1.11","0.31","","2","0","23","29"
"","psychophysics","91","445521","0.0-91.0","5ad38729dfe710000183c244","64de7be092fc7b9a92c1e938","","","","","2422",""," ","key"," ","16.66471724137945","500","250","zol","-0.9799999999999999","-0.22","","2","0","21","-27"
"","psychophysics","92","449829","0.0-92.0","5ad38729dfe710000183c244","64de7be092fc7b9a92c1e938","","","","","4298",""," ","key"," ","16.66496511627902","500","250","zol","-0.57","-0.63","","2","0","11","-10"
"","psychophysics","93","456269","0.0-93.0","5ad38729dfe710000183c244","64de7be092fc7b9a92c1e938","","","","","6433",""," ","key"," ","16.66442857142855","500","250","zol","-1.0699999999999998","-0.23","","2","0","-9","-10"
"","psychophysics","94","461410","0.0-94.0","5ad38729dfe710000183c244","64de7be092fc7b9a92c1e938","","","","","5131",""," ","key"," ","16.66452597402597","500","250","zol","-1.8100000000000007","0.21","","2","0","24","25"
"","psychophysics","95","469419","0.0-95.0","5ad38729dfe710000183c244","64de7be092fc7b9a92c1e938","","","","","null","","null","key","null","16.66439665970769","500","250","zol","-0.9899999999999999","-0.21","","2","0","-30","29"
"","psychophysics","96","476641","0.0-96.0","5ad38729dfe710000183c244","64de7be092fc7b9a92c1e938","","","","","7217",""," ","key"," ","16.664762124711327","500","250","zol","-1.02","0.22","","2","0","0","-9"
"","psychophysics","97","479452","0.0-97.0","5ad38729dfe710000183c244","64de7be092fc7b9a92c1e938","","","","","2802",""," ","key"," ","16.66455089820348","500","250","zol","-1.9700000000000009","0.67","","2","0","-13","30"
"","psychophysics","98","482949","0.0-98.0","5ad38729dfe710000183c244","64de7be092fc7b9a92c1e938","","","","","3487",""," ","key"," ","16.664669856459458","500","250","zol","-0.6699999999999999","-0.63","","2","0","-16","0"
"","psychophysics","99","484004","0.0-99.0","5ad38729dfe710000183c244","64de7be092fc7b9a92c1e938","","","","","1052",""," ","key"," ","16.662793650793553","500","250","inst","","","","","","",""
"","psychophysics","100","486118","0.0-100.0","5ad38729dfe710000183c244","64de7be092fc7b9a92c1e938","","","","","2111",""," ","key"," ","16.664856000000146","500","250","instEB0","40","40","40","2","","0","0"
"","psychophysics","101","492611","0.0-101.0","5ad38729dfe710000183c244","64de7be092fc7b9a92c1e938","","","","","6485",""," ","key"," ","16.66443444730069","500","250","instEB1","38","30","40","2","","0","0"
"","psychophysics","102","500644","0.0-102.0","5ad38729dfe710000183c244","64de7be092fc7b9a92c1e938","","","","","8028",""," ","key"," ","16.66453430353431","500","250","instEB2","30","40","30","2","","0","0"
"","psychophysics","103","511406","0.0-103.0","5ad38729dfe710000183c244","64de7be092fc7b9a92c1e938","","","","","10756",""," ","key"," ","16.664568992248057","500","250","instEB3","30","45","27","2","","0","0"
"","psychophysics","104","516174","0.0-104.0","5ad38729dfe710000183c244","64de7be092fc7b9a92c1e938","","","","","4763",""," ","key"," ","16.664375438596522","500","250","instEB4","46","30","40","2","","0","0"
"","psychophysics","105","517393","0.0-105.0","5ad38729dfe710000183c244","64de7be092fc7b9a92c1e938","","","","","1217",""," ","key"," ","16.663999999999458","500","250","inst","","","","","","",""
"","psychophysics","106","520818","0.0-106.0","5ad38729dfe710000183c244","64de7be092fc7b9a92c1e938","","","","","3419",""," ","key"," ","16.664663414634116","500","250","eb","47","30","41","2","","0","0"
"","psychophysics","107","524310","0.0-107.0","5ad38729dfe710000183c244","64de7be092fc7b9a92c1e938","","","","","3487",""," ","key"," ","16.66431730769238","500","250","eb","53","26","49","2","","0","0"
"","psychophysics","108","527774","0.0-108.0","5ad38729dfe710000183c244","64de7be092fc7b9a92c1e938","","","","","3434",""," ","key"," ","16.664816425120623","500","250","eb","28","34","26","2","","0","0"
"","psychophysics","109","531126","0.0-109.0","5ad38729dfe710000183c244","64de7be092fc7b9a92c1e938","","","","","3347",""," ","key"," ","16.66405999999959","500","250","eb","43","36","40","2","","0","0"
"","psychophysics","110","533454","0.0-110.0","5ad38729dfe710000183c244","64de7be092fc7b9a92c1e938","","","","","2319",""," ","key"," ","16.66500719424451","500","250","eb","47","47","43","2","","0","0"
"","psychophysics","111","535872","0.0-111.0","5ad38729dfe710000183c244","64de7be092fc7b9a92c1e938","","","","","2412",""," ","key"," ","16.664770833333023","500","250","eb","53","49","47","2","","0","0"
"","psychophysics","112","539923","0.0-112.0","5ad38729dfe710000183c244","64de7be092fc7b9a92c1e938","","","","","4047",""," ","key"," ","16.664285123966874","500","250","eb","27","43","25","2","","0","0"
"","psychophysics","113","544528","0.0-113.0","5ad38729dfe710000183c244","64de7be092fc7b9a92c1e938","","","","","4602",""," ","key"," ","16.664749090909027","500","250","eb","29","45","26","2","","0","0"
"","psychophysics","114","547294","0.0-114.0","5ad38729dfe710000183c244","64de7be092fc7b9a92c1e938","","","","","2757",""," ","key"," ","16.664690909090904","500","250","eb","33","38","30","2","","0","0"
"","psychophysics","115","550546","0.0-115.0","5ad38729dfe710000183c244","64de7be092fc7b9a92c1e938","","","","","3243",""," ","key"," ","16.664402061855522","500","250","eb","41","36","37","2","","0","0"
"","psychophysics","116","558558","0.0-116.0","5ad38729dfe710000183c244","64de7be092fc7b9a92c1e938","","","","","null","","null","key","null","16.664587499999957","500","250","eb","45","26","40","2","","0","0"
"","psychophysics","117","562353","0.0-117.0","5ad38729dfe710000183c244","64de7be092fc7b9a92c1e938","","","","","3784",""," ","key"," ","16.66464317180647","500","250","eb","56","43","53","2","","0","0"
"","psychophysics","118","565570","0.0-118.0","5ad38729dfe710000183c244","64de7be092fc7b9a92c1e938","","","","","3211",""," ","key"," ","16.664781250000186","500","250","eb","40","28","35","2","","0","0"
"","psychophysics","119","570401","0.0-119.0","5ad38729dfe710000183c244","64de7be092fc7b9a92c1e938","","","","","4825",""," ","key"," ","16.664878892733643","500","250","eb","55","50","52","2","","0","0"
"","psychophysics","120","573689","0.0-120.0","5ad38729dfe710000183c244","64de7be092fc7b9a92c1e938","","","","","3283",""," ","key"," ","16.664295918367593","500","250","eb","55","46","53","2","","0","0"
"","psychophysics","121","574896","0.0-121.0","5ad38729dfe710000183c244","64de7be092fc7b9a92c1e938","","","","","1200",""," ","key"," ","16.664569444443462","500","250","inst","","","","","","",""
"","psychophysics","122","582094","0.0-122.0","5ad38729dfe710000183c244","64de7be092fc7b9a92c1e938","","","","","7194",""," ","key"," ","16.664510440835492","500","250","instBr3","-20","40","300","1","","0","0"
"","psychophysics","123","584868","0.0-123.0","5ad38729dfe710000183c244","64de7be092fc7b9a92c1e938","","","","","2771",""," ","key"," ","16.663812121212004","500","250","inst","","","","","","",""
"","psychophysics","124","588669","0.0-124.0","5ad38729dfe710000183c244","64de7be092fc7b9a92c1e938","","","","","3797",""," ","key"," ","16.664810572687273","500","250","br","-15","1","225","1","1","7","-26"
"","psychophysics","125","592581","0.0-125.0","5ad38729dfe710000183c244","64de7be092fc7b9a92c1e938","","","","","3906",""," ","key"," ","16.66467948717913","500","250","br","-12","20","266","1","1","30","16"
"","psychophysics","126","595722","0.0-126.0","5ad38729dfe710000183c244","64de7be092fc7b9a92c1e938","","","","","3136",""," ","key"," ","16.664459893047898","500","250","br","-12","23","271","1","1","3","-15"
"","psychophysics","127","597878","0.0-127.0","5ad38729dfe710000183c244","64de7be092fc7b9a92c1e938","","","","","2149",""," ","key"," ","16.66504651162766","500","250","br","-5","18","256","1","1","-11","14"
"","psychophysics","128","601040","0.0-128.0","5ad38729dfe710000183c244","64de7be092fc7b9a92c1e938","","","","","3157",""," ","key"," ","16.664185185185584","500","250","br","-8","13","223","1","1","18","-28"
"","psychophysics","129","602956","0.0-129.0","5ad38729dfe710000183c244","64de7be092fc7b9a92c1e938","","","","","1911",""," ","key"," ","16.66378947368337","500","250","br","-9","-19","250","1","1","-25","-25"
"","psychophysics","130","606312","0.0-130.0","5ad38729dfe710000183c244","64de7be092fc7b9a92c1e938","","","","","3353",""," ","key"," ","16.66446499999962","500","250","br","-11","28","233","1","1","30","26"
"","psychophysics","131","608088","0.0-131.0","5ad38729dfe710000183c244","64de7be092fc7b9a92c1e938","","","","","1771",""," ","key"," ","16.66461320754628","500","250","br","-10","-20","274","1","1","11","-6"
"","psychophysics","132","611788","0.0-132.0","5ad38729dfe710000183c244","64de7be092fc7b9a92c1e938","","","","","3696",""," ","key"," ","16.66426696832612","500","250","br","-5","25","273","1","1","-24","-1"
"","psychophysics","133","613334","0.0-133.0","5ad38729dfe710000183c244","64de7be092fc7b9a92c1e938","","","","","1542",""," ","key"," ","16.664219780219973","500","250","br","-10","-4","293","1","1","21","7"
"","psychophysics","134","616136","0.0-134.0","5ad38729dfe710000183c244","64de7be092fc7b9a92c1e938","","","","","2800",""," ","key"," ","16.664874251497615","500","250","br","-14","-10","256","1","1","-24","-18"
"","psychophysics","135","620051","0.0-135.0","5ad38729dfe710000183c244","64de7be092fc7b9a92c1e938","","","","","3908",""," ","key"," ","16.66452136752146","500","250","br","-12","12","222","1","1","-21","-14"
"","psychophysics","136","623531","0.0-136.0","5ad38729dfe710000183c244","64de7be092fc7b9a92c1e938","","","","","3472",""," ","key"," ","16.664951923076632","500","250","br","-16","27","222","1","1","-25","19"
"","psychophysics","137","626802","0.0-137.0","5ad38729dfe710000183c244","64de7be092fc7b9a92c1e938","","","","","3264",""," ","key"," ","16.664984615384125","500","250","br","-15","19","269","1","1","8","5"
"","psychophysics","138","628380","0.0-138.0","5ad38729dfe710000183c244","64de7be092fc7b9a92c1e938","","","","","1570",""," ","key"," ","16.663659574468916","500","250","br","-10","-9","208","1","1","16","-24"
"","psychophysics","139","629261","0.0-139.0","5ad38729dfe710000183c244","64de7be092fc7b9a92c1e938","","","","","879",""," ","key"," ","16.665903846153434","500","250","inst","","","","","","",""
"","psychophysics","140","636198","0.0-140.0","5ad38729dfe710000183c244","64de7be092fc7b9a92c1e938","","","","","6931",""," ","key"," ","16.66452048192788","500","250","instPz1","52","25","50","2","","",""
"","psychophysics","141","640082","0.0-141.0","5ad38729dfe710000183c244","64de7be092fc7b9a92c1e938","","","","","3878",""," ","key"," ","16.664659482758626","500","250","instPz2","36","20","35","2","","",""
"","psychophysics","142","647487","0.0-142.0","5ad38729dfe710000183c244","64de7be092fc7b9a92c1e938","","","","","7395",""," ","key"," ","16.664382882882695","500","250","instPz3","90","30","100","2","","",""
"","psychophysics","143","651896","0.0-143.0","5ad38729dfe710000183c244","64de7be092fc7b9a92c1e938","","","","","4405",""," ","key"," ","16.6641825095059","500","250","instPz4","100","30","100","2","","",""
"","psychophysics","144","653993","0.0-144.0","5ad38729dfe710000183c244","64de7be092fc7b9a92c1e938","","","","","2096",""," ","key"," ","16.66527199999988","500","250","inst","","","","","","",""
"","psychophysics","145","657240","0.0-145.0","5ad38729dfe710000183c244","64de7be092fc7b9a92c1e938","","","","","3239",""," ","key"," ","16.664649484536284","500","250","pz","27","33","29","2","1","",""
"","psychophysics","146","659382","0.0-146.0","5ad38729dfe710000183c244","64de7be092fc7b9a92c1e938","","","","","2137",""," ","key"," ","16.664015625000502","500","250","pz","30","36","32","2","1","",""
"","psychophysics","147","661242","0.0-147.0","5ad38729dfe710000183c244","64de7be092fc7b9a92c1e938","","","","","1855",""," ","key"," ","16.66465454545528","500","250","pz","49","55","53","2","1","",""
"","psychophysics","148","665520","0.0-148.0","5ad38729dfe710000183c244","64de7be092fc7b9a92c1e938","","","","","4274",""," ","key"," ","16.664480468749844","500","250","pz","59","59","59","2","1","",""
"","psychophysics","149","667394","0.0-149.0","5ad38729dfe710000183c244","64de7be092fc7b9a92c1e938","","","","","1870",""," ","key"," ","16.664297297298027","500","250","pz","54","53","50","2","1","",""
"","psychophysics","150","671135","0.0-150.0","5ad38729dfe710000183c244","64de7be092fc7b9a92c1e938","","","","","3731",""," ","key"," ","16.66470535714273","500","250","pz","58","46","59","2","1","",""
"","psychophysics","151","674679","0.0-151.0","5ad38729dfe710000183c244","64de7be092fc7b9a92c1e938","","","","","3540",""," ","key"," ","16.66482464455","500","250","pz","43","54","42","2","1","",""
"","psychophysics","152","678696","0.0-152.0","5ad38729dfe710000183c244","64de7be092fc7b9a92c1e938","","","","","4009",""," ","key"," ","16.664394190871636","500","250","pz","49","57","45","2","1","",""
"","psychophysics","153","682446","0.0-153.0","5ad38729dfe710000183c244","64de7be092fc7b9a92c1e938","","","","","3745",""," ","key"," ","16.664241071428737","500","250","pz","24","45","24","2","1","",""
"","psychophysics","154","685493","0.0-154.0","5ad38729dfe710000183c244","64de7be092fc7b9a92c1e938","","","","","3035",""," ","key"," ","16.664718232044272","500","250","pz","41","59","43","2","1","",""
"","psychophysics","155","688880","0.0-155.0","5ad38729dfe710000183c244","64de7be092fc7b9a92c1e938","","","","","3380",""," ","key"," ","16.664571428571694","500","250","pz","27","48","28","2","1","",""
"","psychophysics","156","692082","0.0-156.0","5ad38729dfe710000183c244","64de7be092fc7b9a92c1e938","","","","","3198",""," ","key"," ","16.664350785340027","500","250","pz","56","51","58","2","1","",""
"","psychophysics","157","695365","0.0-157.0","5ad38729dfe710000183c244","64de7be092fc7b9a92c1e938","","","","","3278",""," ","key"," ","16.664448979592226","500","250","pz","27","44","25","2","1","",""
"","psychophysics","158","699720","0.0-158.0","5ad38729dfe710000183c244","64de7be092fc7b9a92c1e938","","","","","4350",""," ","key"," ","16.66451153846171","500","250","pz","60","50","59","2","1","",""
"","psychophysics","159","703398","0.0-159.0","5ad38729dfe710000183c244","64de7be092fc7b9a92c1e938","","","","","3673",""," ","key"," ","16.66416363636381","500","250","pz","28","38","28","2","1","",""
"","psychophysics","160","706710","0.0-160.0","5ad38729dfe710000183c244","64de7be092fc7b9a92c1e938","","","","","3309",""," ","key"," ","16.664095959595564","500","250","inst","","","","","","",""
"","psychophysics","161","711300","0.0-161.0","5ad38729dfe710000183c244","64de7be092fc7b9a92c1e938","","","","","4588",""," ","key"," ","16.665167883211446","500","250","instEB1","30","40","30","1","","0","0"
"","psychophysics","162","715157","0.0-162.0","5ad38729dfe710000183c244","64de7be092fc7b9a92c1e938","","","","","3851",""," ","key"," ","16.664491304347756","500","250","instEB2","43","30","40","1","","0","0"
"","psychophysics","163","719223","0.0-163.0","5ad38729dfe710000183c244","64de7be092fc7b9a92c1e938","","","","","4059",""," ","key"," ","16.66485596707842","500","250","instEB3","43","27","45","1","","0","0"
"","psychophysics","164","724983","0.0-164.0","5ad38729dfe710000183c244","64de7be092fc7b9a92c1e938","","","","","5752",""," ","key"," ","16.664402898550843","500","250","instEB4","26","40","30","1","","0","0"
"","psychophysics","165","728040","0.0-165.0","5ad38729dfe710000183c244","64de7be092fc7b9a92c1e938","","","","","3056",""," ","key"," ","16.664710382513622","500","250","inst","","","","","","",""
"","psychophysics","166","731549","0.0-166.0","5ad38729dfe710000183c244","64de7be092fc7b9a92c1e938","","","","","3503",""," ","key"," ","16.664612440191295","500","250","eb","50","37","52","1","","0","0"
"","psychophysics","167","733757","0.0-167.0","5ad38729dfe710000183c244","64de7be092fc7b9a92c1e938","","","","","2203",""," ","key"," ","16.664992424242275","500","250","eb","33","26","35","1","","0","0"
"","psychophysics","168","737067","0.0-168.0","5ad38729dfe710000183c244","64de7be092fc7b9a92c1e938","","","","","3306",""," ","key"," ","16.664532994924155","500","250","eb","46","46","50","1","","0","0"
"","psychophysics","169","739777","0.0-169.0","5ad38729dfe710000183c244","64de7be092fc7b9a92c1e938","","","","","2701",""," ","key"," ","16.66454938271609","500","250","eb","47","41","50","1","","0","0"
"","psychophysics","170","745297","0.0-170.0","5ad38729dfe710000183c244","64de7be092fc7b9a92c1e938","","","","","5515",""," ","key"," ","16.664390909091118","500","250","eb","39","47","41","1","","0","0"
"","psychophysics","171","749272","0.0-171.0","5ad38729dfe710000183c244","64de7be092fc7b9a92c1e938","","","","","3969",""," ","key"," ","16.664193277310837","500","250","eb","45","36","49","1","","0","0"
"","psychophysics","172","752510","0.0-172.0","5ad38729dfe710000183c244","64de7be092fc7b9a92c1e938","","","","","3232",""," ","key"," ","16.664466321243363","500","250","eb","40","44","42","1","","0","0"
"","psychophysics","173","754481","0.0-173.0","5ad38729dfe710000183c244","64de7be092fc7b9a92c1e938","","","","","1966",""," ","key"," ","16.663794871794785","500","250","eb","42","46","48","1","","0","0"
"","psychophysics","174","757697","0.0-174.0","5ad38729dfe710000183c244","64de7be092fc7b9a92c1e938","","","","","3209",""," ","key"," ","16.664677083332815","500","250","eb","47","27","52","1","","0","0"
"","psychophysics","175","760874","0.0-175.0","5ad38729dfe710000183c244","64de7be092fc7b9a92c1e938","","","","","3168",""," ","key"," ","16.664036842105347","500","250","eb","42","40","44","1","","0","0"
"","psychophysics","176","765444","0.0-176.0","5ad38729dfe710000183c244","64de7be092fc7b9a92c1e938","","","","","4565",""," ","key"," ","16.664648351648008","500","250","eb","22","41","24","1","","0","0"
"","psychophysics","177","770099","0.0-177.0","5ad38729dfe710000183c244","64de7be092fc7b9a92c1e938","","","","","4649",""," ","key"," ","16.664510791366684","500","250","eb","27","48","28","1","","0","0"
"","psychophysics","178","775743","0.0-178.0","5ad38729dfe710000183c244","64de7be092fc7b9a92c1e938","","","","","5636",""," ","key"," ","16.66458579881658","500","250","eb","46","46","50","1","","0","0"
"","psychophysics","179","778006","0.0-179.0","5ad38729dfe710000183c244","64de7be092fc7b9a92c1e938","","","","","2255",""," ","key"," ","16.66448888888893","500","250","eb","51","46","54","1","","0","0"
"","psychophysics","180","780901","0.0-180.0","5ad38729dfe710000183c244","64de7be092fc7b9a92c1e938","","","","","2890",""," ","key"," ","16.66447398843879","500","250","eb","41","49","40","1","","0","0"
"","psychophysics","181","781912","0.0-181.0","5ad38729dfe710000183c244","64de7be092fc7b9a92c1e938","","","","","1008",""," ","key"," ","16.664983050846416","500","250","inst","","","","","","",""
"","psychophysics","182","785275","0.0-182.0","5ad38729dfe710000183c244","64de7be092fc7b9a92c1e938","","","","","3356",""," ","key"," ","16.664875621890616","500","250","instPog0","160","190","160","1","","0","0"
"","psychophysics","183","788753","0.0-183.0","5ad38729dfe710000183c244","64de7be092fc7b9a92c1e938","","","","","3474",""," ","key"," ","16.66460576923083","500","250","instPog1","170","190","160","1","","0","0"
"","psychophysics","184","793212","0.0-184.0","5ad38729dfe710000183c244","64de7be092fc7b9a92c1e938","","","","","4456",""," ","key"," ","16.664469924812288","500","250","instPog2","168","160","160","1","","0","0"
"","psychophysics","185","794505","0.0-185.0","5ad38729dfe710000183c244","64de7be092fc7b9a92c1e938","","","","","1288",""," ","key"," ","16.66548051948012","500","250","inst","","","","","","",""
"","psychophysics","186","797973","0.0-186.0","5ad38729dfe710000183c244","64de7be092fc7b9a92c1e938","","","","","3462",""," ","key"," ","16.664676328502363","500","250","pog","150","182","124","1","1","0","0"
"","psychophysics","187","800226","0.0-187.0","5ad38729dfe710000183c244","64de7be092fc7b9a92c1e938","","","","","2249",""," ","key"," ","16.664373134328017","500","250","pog","184","170","170","1","1","0","0"
"","psychophysics","188","801989","0.0-188.0","5ad38729dfe710000183c244","64de7be092fc7b9a92c1e938","","","","","1760",""," ","key"," ","16.664428571428704","500","250","pog","148","146","126","1","1","0","0"
"","psychophysics","189","805397","0.0-189.0","5ad38729dfe710000183c244","64de7be092fc7b9a92c1e938","","","","","3405",""," ","key"," ","16.66441666666651","500","250","pog","162","126","155","1","1","0","0"
"","psychophysics","190","807383","0.0-190.0","5ad38729dfe710000183c244","64de7be092fc7b9a92c1e938","","","","","1983",""," ","key"," ","16.6654745762708","500","250","pog","162","158","145","1","1","0","0"
"","psychophysics","191","809842","0.0-191.0","5ad38729dfe710000183c244","64de7be092fc7b9a92c1e938","","","","","2455",""," ","key"," ","16.66434931506846","500","250","pog","182","190","159","1","1","0","0"
"","psychophysics","192","811180","0.0-192.0","5ad38729dfe710000183c244","64de7be092fc7b9a92c1e938","","","","","1332",""," ","key"," ","16.664187500000118","500","250","pog","184","192","159","1","1","0","0"
"","psychophysics","193","814788","0.0-193.0","5ad38729dfe710000183c244","64de7be092fc7b9a92c1e938","","","","","3605",""," ","key"," ","16.664423255814064","500","250","pog","173","203","149","1","1","0","0"
"","psychophysics","194","818025","0.0-194.0","5ad38729dfe710000183c244","64de7be092fc7b9a92c1e938","","","","","3233",""," ","key"," ","16.66455440414488","500","250","pog","198","170","176","1","1","0","0"
"","psychophysics","195","820769","0.0-195.0","5ad38729dfe710000183c244","64de7be092fc7b9a92c1e938","","","","","2738",""," ","key"," ","16.664371951219128","500","250","pog","221","193","197","1","1","0","0"
"","psychophysics","196","823127","0.0-196.0","5ad38729dfe710000183c244","64de7be092fc7b9a92c1e938","","","","","2355",""," ","key"," ","16.664262411348087","500","250","pog","202","210","181","1","1","0","0"
"","psychophysics","197","828789","0.0-197.0","5ad38729dfe710000183c244","64de7be092fc7b9a92c1e938","","","","","5659",""," ","key"," ","16.664568047337482","500","250","pog","155","195","133","1","1","0","0"
"","psychophysics","198","831277","0.0-198.0","5ad38729dfe710000183c244","64de7be092fc7b9a92c1e938","","","","","2480",""," ","key"," ","16.664543624161023","500","250","pog","199","215","174","1","1","0","0"
"","psychophysics","199","836811","0.0-199.0","5ad38729dfe710000183c244","64de7be092fc7b9a92c1e938","","","","","5530",""," ","key"," ","16.664483383685504","500","250","pog","165","217","141","1","1","0","0"
"","psychophysics","200","838235","0.0-200.0","5ad38729dfe710000183c244","64de7be092fc7b9a92c1e938","","","","","1421",""," ","key"," ","16.665214285713212","500","250","pog","212","212","195","1","1","0","0"
"","psychophysics","201","839221","0.0-201.0","5ad38729dfe710000183c244","64de7be092fc7b9a92c1e938","","","","","982",""," ","key"," ","16.665293103449272","500","250","inst","","","","","","",""
"","psychophysics","202","844181","0.0-202.0","5ad38729dfe710000183c244","64de7be092fc7b9a92c1e938","","","","","4958",""," ","key"," ","16.664703703703758","500","250","instZol1","-0.5","-1.3","","","","0","0"
"","psychophysics","203","849742","0.0-203.0","5ad38729dfe710000183c244","64de7be092fc7b9a92c1e938","","","","","5554",""," ","key"," ","16.66451051051053","500","250","instZol2","6.38378239159465e-16","2","","1","","0","0"
"","psychophysics","204","851209","0.0-204.0","5ad38729dfe710000183c244","64de7be092fc7b9a92c1e938","","","","","1463",""," ","key"," ","16.664264367817065","500","250","inst","","","","","","",""
"","psychophysics","205","858836","0.0-205.0","5ad38729dfe710000183c244","64de7be092fc7b9a92c1e938","","","","","7619",""," ","key"," ","16.664574561403448","500","250","zol","0.42000000000000015","-0.52","","1","1","8","-17"
"","psychophysics","206","866849","0.0-206.0","5ad38729dfe710000183c244","64de7be092fc7b9a92c1e938","","","","","null","","null","key","null","16.664387499999915","500","250","zol","-1.0799999999999998","-0.12","","1","1","-10","11"
"","psychophysics","207","869864","0.0-207.0","5ad38729dfe710000183c244","64de7be092fc7b9a92c1e938","","","","","3009",""," ","key"," ","16.66500555555556","500","250","zol","1.5800000000000003","-0.58","","1","1","9","-28"
"","psychophysics","208","873239","0.0-208.0","5ad38729dfe710000183c244","64de7be092fc7b9a92c1e938","","","","","3365",""," ","key"," ","16.66462871287131","500","250","zol","0.9199999999999999","-0.52","","1","1","29","-17"
"","psychophysics","209","876892","0.0-209.0","5ad38729dfe710000183c244","64de7be092fc7b9a92c1e938","","","","","3645",""," ","key"," ","16.664697247706332","500","250","zol","0.8099999999999999","-0.21","","1","1","-18","4"
"","psychophysics","210","880965","0.0-210.0","5ad38729dfe710000183c244","64de7be092fc7b9a92c1e938","","","","","4067",""," ","key"," ","16.66432098765453","500","250","zol","0.54","0.36","","1","1","22","18"
"","psychophysics","211","883261","0.0-211.0","5ad38729dfe710000183c244","64de7be092fc7b9a92c1e938","","","","","2287",""," ","key"," ","16.664204379562356","500","250","zol","0.4600000000000001","0.44","","1","1","11","-1"
"","psychophysics","212","886528","0.0-212.0","5ad38729dfe710000183c244","64de7be092fc7b9a92c1e938","","","","","3255",""," ","key"," ","16.66427179487207","500","250","zol","1.0599999999999998","0.24","","1","1","4","-26"
"","psychophysics","213","891049","0.0-213.0","5ad38729dfe710000183c244","64de7be092fc7b9a92c1e938","","","","","4517",""," ","key"," ","16.66466666666696","500","250","zol","1.3","-0.7","","1","1","9","11"
"","psychophysics","214","893684","0.0-214.0","5ad38729dfe710000183c244","64de7be092fc7b9a92c1e938","","","","","2625",""," ","key"," ","16.664815286624506","500","250","zol","0.64","-0.54","","1","1","15","4"
"","psychophysics","215","895804","0.0-215.0","5ad38729dfe710000183c244","64de7be092fc7b9a92c1e938","","","","","2108",""," ","key"," ","16.66483464566936","500","250","zol","0.64","0.26","","1","1","0","20"
"","psychophysics","216","897775","0.0-216.0","5ad38729dfe710000183c244","64de7be092fc7b9a92c1e938","","","","","1963",""," ","key"," ","16.663999999999707","500","250","zol","0.1499999999999999","0.65","","1","1","-18","14"
"","psychophysics","217","900791","0.0-217.0","5ad38729dfe710000183c244","64de7be092fc7b9a92c1e938","","","","","3009",""," ","key"," ","16.664666666666744","500","250","zol","0.7","-0.6","","1","1","-28","-1"
"","psychophysics","218","904521","0.0-218.0","5ad38729dfe710000183c244","64de7be092fc7b9a92c1e938","","","","","3712",""," ","key"," ","16.665044843049557","500","250","zol","0.7699999999999999","-0.17","","1","1","-14","-9"
"","psychophysics","219","906376","0.0-219.0","5ad38729dfe710000183c244","64de7be092fc7b9a92c1e938","","","","","1846",""," ","key"," ","16.664345454546325","500","250","zol","0.5599999999999999","-0.06","","1","1","-10","12"
