"success","trial_type","trial_index","time_elapsed","internal_node_id","pid","sid","timeout","failed_images","failed_audio","failed_video","rt","stimulus","response","response_type","key_press","avg_frame_time","center_x","center_y","task","resp","version","block","start","jitterX","jitterY","parA"
"true","fullscreen","0","3576","0.0-0.0","5ed6c9613e5fc912b310c00c","64de8550c7a8818ba684de11","","","","","","","","","","","","","","","","","","","",""
"true","preload","1","3662","0.0-1.0","5ed6c9613e5fc912b310c00c","64de8550c7a8818ba684de11","false","[]","[]","[]","","","","","","","","","","","","","","","",""
"","html-button-response","2","6052","0.0-2.0","5ed6c9613e5fc912b310c00c","64de8550c7a8818ba684de11","","","","","2389","Please Make Sure Your Audio Is On.","0","","","","","","","","","","","","",""
"","psychophysics","3","9251","0.0-3.0","5ed6c9613e5fc912b310c00c","64de8550c7a8818ba684de11","","","","","3196",""," ","key"," ","16.663671874999995","960","250","","","","","","","",""
"","psychophysics","4","11533","0.0-4.0","5ed6c9613e5fc912b310c00c","64de8550c7a8818ba684de11","","","","","2281",""," ","key"," ","16.6629705882353","500","250","inst","","","","","","",""
"","psychophysics","5","14223","0.0-5.0","5ed6c9613e5fc912b310c00c","64de8550c7a8818ba684de11","","","","","2689",""," ","key"," ","16.66310625","500","250","sample0","","","","","","",""
"","psychophysics","6","16288","0.0-6.0","5ed6c9613e5fc912b310c00c","64de8550c7a8818ba684de11","","","","","2064",""," ","key"," ","16.662593495934956","500","250","sample1","","","","","","",""
"","psychophysics","7","26521","0.0-7.0","5ed6c9613e5fc912b310c00c","64de8550c7a8818ba684de11","","","","","10231",""," ","key"," ","16.66452691680261","500","250","sample2","100","","","","","",""
"","psychophysics","8","30921","0.0-8.0","5ed6c9613e5fc912b310c00c","64de8550c7a8818ba684de11","","","","","4400",""," ","key"," ","16.664140684410654","500","250","sample3","100","","","","","",""
"","psychophysics","9","42762","0.0-9.0","5ed6c9613e5fc912b310c00c","64de8550c7a8818ba684de11","","","","","11839",""," ","key"," ","16.664778873239435","500","250","sample4","100","","","","","",""
"","psychophysics","10","45490","0.0-10.0","5ed6c9613e5fc912b310c00c","64de8550c7a8818ba684de11","","","","","2727",""," ","key"," ","16.66386503067484","500","250","sample5","","","","","","",""
"","psychophysics","11","50470","0.0-11.0","5ed6c9613e5fc912b310c00c","64de8550c7a8818ba684de11","","","","","4979",""," ","key"," ","16.665094276094262","500","250","sample6","500","","","","","",""
"","psychophysics","12","53552","0.0-12.0","5ed6c9613e5fc912b310c00c","64de8550c7a8818ba684de11","","","","","3080",""," ","key"," ","16.665538043478236","500","250","inst","","","","","","",""
"","psychophysics","13","59280","0.0-13.0","5ed6c9613e5fc912b310c00c","64de8550c7a8818ba684de11","","","","","5727",""," ","key"," ","16.66479008746354","500","250","inst","","","","","","",""
"","psychophysics","14","63169","0.0-14.0","5ed6c9613e5fc912b310c00c","64de8550c7a8818ba684de11","","","","","3888",""," ","key"," ","16.665306034482736","500","250","inst","","","","","","",""
"","psychophysics","15","65127","0.0-15.0","5ed6c9613e5fc912b310c00c","64de8550c7a8818ba684de11","","","","","1957",""," ","key"," ","16.665914529914502","500","250","inst","","","","","","",""
"","psychophysics","16","66313","0.0-16.0","5ed6c9613e5fc912b310c00c","64de8550c7a8818ba684de11","","","","","1185",""," ","key"," ","16.664914285714207","500","250","inst","","","","","","",""
"","psychophysics","17","68737","0.0-17.0","5ed6c9613e5fc912b310c00c","64de8550c7a8818ba684de11","","","","","2424",""," ","key"," ","16.663262068965583","500","250","instEB0","40","1","","40","0","0","40"
"","psychophysics","18","73445","0.0-18.0","5ed6c9613e5fc912b310c00c","64de8550c7a8818ba684de11","","","","","4706",""," ","key"," ","16.66464768683275","500","250","instEB1","33","1","","40","0","0","30"
"","psychophysics","19","79391","0.0-19.0","5ed6c9613e5fc912b310c00c","64de8550c7a8818ba684de11","","","","","5945",""," ","key"," ","16.664581460674157","500","250","instEB2","37","1","","30","0","0","40"
"","psychophysics","20","88746","0.0-20.0","5ed6c9613e5fc912b310c00c","64de8550c7a8818ba684de11","","","","","9353",""," ","key"," ","16.664532142857126","500","250","instEB3","40","1","","27","0","0","45"
"","psychophysics","21","97878","0.0-21.0","5ed6c9613e5fc912b310c00c","64de8550c7a8818ba684de11","","","","","9131",""," ","key"," ","16.66422120658135","500","250","instEB4","27","1","","40","0","0","30"
"","psychophysics","22","100200","0.0-22.0","5ed6c9613e5fc912b310c00c","64de8550c7a8818ba684de11","","","","","2321",""," ","key"," ","16.66606474820143","500","250","inst","","","","","","",""
"","psychophysics","23","105069","0.0-23.0","5ed6c9613e5fc912b310c00c","64de8550c7a8818ba684de11","","","","","4867",""," ","key"," ","16.66523367697594","500","250","eb","38","1","","24","0","0","38"
"","psychophysics","24","110247","0.0-24.0","5ed6c9613e5fc912b310c00c","64de8550c7a8818ba684de11","","","","","5177",""," ","key"," ","16.663977419354836","500","250","eb","35","1","","54","0","0","37"
"","psychophysics","25","115265","0.0-25.0","5ed6c9613e5fc912b310c00c","64de8550c7a8818ba684de11","","","","","5016",""," ","key"," ","16.664499999999972","500","250","eb","36","1","","43","0","0","38"
"","psychophysics","26","123147","0.0-26.0","5ed6c9613e5fc912b310c00c","64de8550c7a8818ba684de11","","","","","7880",""," ","key"," ","16.664612288135594","500","250","eb","38","1","","51","0","0","43"
"","psychophysics","27","125114","0.0-27.0","5ed6c9613e5fc912b310c00c","64de8550c7a8818ba684de11","","","","","1966",""," ","key"," ","16.664529914529915","500","250","eb","41","1","","43","0","0","43"
"","psychophysics","28","130381","0.0-28.0","5ed6c9613e5fc912b310c00c","64de8550c7a8818ba684de11","","","","","5265",""," ","key"," ","16.664949206349213","500","250","eb","26","1","","36","0","0","28"
"","psychophysics","29","136180","0.0-29.0","5ed6c9613e5fc912b310c00c","64de8550c7a8818ba684de11","","","","","5798",""," ","key"," ","16.66391642651293","500","250","eb","25","1","","42","0","0","26"
"","psychophysics","30","143271","0.0-30.0","5ed6c9613e5fc912b310c00c","64de8550c7a8818ba684de11","","","","","7090",""," ","key"," ","16.66450000000005","500","250","eb","38","1","","49","0","0","40"
"","psychophysics","31","148132","0.0-31.0","5ed6c9613e5fc912b310c00c","64de8550c7a8818ba684de11","","","","","4859",""," ","key"," ","16.664649484536085","500","250","eb","40","1","","50","0","0","45"
"","psychophysics","32","151585","0.0-32.0","5ed6c9613e5fc912b310c00c","64de8550c7a8818ba684de11","","","","","3452",""," ","key"," ","16.664529126213505","500","250","eb","40","1","","50","0","0","43"
"","psychophysics","33","154108","0.0-33.0","5ed6c9613e5fc912b310c00c","64de8550c7a8818ba684de11","","","","","2521",""," ","key"," ","16.66305298013235","500","250","eb","43","1","","41","0","0","47"
"","psychophysics","34","161047","0.0-34.0","5ed6c9613e5fc912b310c00c","64de8550c7a8818ba684de11","","","","","6937",""," ","key"," ","16.664518072289212","500","250","eb","45","1","","33","0","0","47"
"","psychophysics","35","166675","0.0-35.0","5ed6c9613e5fc912b310c00c","64de8550c7a8818ba684de11","","","","","5627",""," ","key"," ","16.664474777448113","500","250","eb","38","1","","32","0","0","37"
"","psychophysics","36","173248","0.0-36.0","5ed6c9613e5fc912b310c00c","64de8550c7a8818ba684de11","","","","","6573",""," ","key"," ","16.66499745547077","500","250","eb","29","1","","47","0","0","27"
"","psychophysics","37","175196","0.0-37.0","5ed6c9613e5fc912b310c00c","64de8550c7a8818ba684de11","","","","","1946",""," ","key"," ","16.666051724137827","500","250","eb","34","1","","38","0","0","36"
"","psychophysics","38","176743","0.0-38.0","5ed6c9613e5fc912b310c00c","64de8550c7a8818ba684de11","","","","","1546",""," ","key"," ","16.664119565217256","500","250","inst","","","","","","",""
"","psychophysics","39","178856","0.0-39.0","5ed6c9613e5fc912b310c00c","64de8550c7a8818ba684de11","","","","","2112",""," ","key"," ","16.665761904761894","500","250","instPzPre","50","0","","50","","","50"
"","psychophysics","40","181672","0.0-40.0","5ed6c9613e5fc912b310c00c","64de8550c7a8818ba684de11","","","","","2816",""," ","key"," ","16.664375000000117","500","250","instPz0","50","2","","50","","","50"
"","psychophysics","41","188288","0.0-41.0","5ed6c9613e5fc912b310c00c","64de8550c7a8818ba684de11","","","","","6614",""," ","key"," ","16.664527777777757","500","250","instPz1","50","2","","25","","","50"
"","psychophysics","42","194094","0.0-42.0","5ed6c9613e5fc912b310c00c","64de8550c7a8818ba684de11","","","","","5806",""," ","key"," ","16.664412103746418","500","250","instPz2","37","2","","20","","","35"
"","psychophysics","43","206301","0.0-43.0","5ed6c9613e5fc912b310c00c","64de8550c7a8818ba684de11","","","","","12205",""," ","key"," ","16.664259562841508","500","250","instPz3","93","2","","30","","","100"
"","psychophysics","44","215141","0.0-44.0","5ed6c9613e5fc912b310c00c","64de8550c7a8818ba684de11","","","","","8839",""," ","key"," ","16.664559546313793","500","250","instPz4","83","2","","30","","","100"
"","psychophysics","45","217008","0.0-45.0","5ed6c9613e5fc912b310c00c","64de8550c7a8818ba684de11","","","","","1867",""," ","key"," ","16.664261261261068","500","250","inst","","","","","","",""
"","psychophysics","46","223638","0.0-46.0","5ed6c9613e5fc912b310c00c","64de8550c7a8818ba684de11","","","","","6628",""," ","key"," ","16.66470780856422","500","250","pz","57","2","0","25","","","58"
"","psychophysics","47","229079","0.0-47.0","5ed6c9613e5fc912b310c00c","64de8550c7a8818ba684de11","","","","","5440",""," ","key"," ","16.664070769230783","500","250","pz","49","2","0","38","","","53"
"","psychophysics","48","232562","0.0-48.0","5ed6c9613e5fc912b310c00c","64de8550c7a8818ba684de11","","","","","3483",""," ","key"," ","16.664721153846237","500","250","pz","44","2","0","40","","","57"
"","psychophysics","49","238327","0.0-49.0","5ed6c9613e5fc912b310c00c","64de8550c7a8818ba684de11","","","","","5762",""," ","key"," ","16.665243478260845","500","250","pz","58","2","0","33","","","60"
"","psychophysics","50","246328","0.0-50.0","5ed6c9613e5fc912b310c00c","64de8550c7a8818ba684de11","","","","","null","","null","key","null","16.665004175365308","500","250","pz","56","2","0","41","","","60"
"","psychophysics","51","251186","0.0-51.0","5ed6c9613e5fc912b310c00c","64de8550c7a8818ba684de11","","","","","4855",""," ","key"," ","16.66415463917526","500","250","pz","27","2","0","27","","","28"
"","psychophysics","52","253559","0.0-52.0","5ed6c9613e5fc912b310c00c","64de8550c7a8818ba684de11","","","","","2372",""," ","key"," ","16.66619148936163","500","250","pz","21","2","0","22","","","23"
"","psychophysics","53","261052","0.0-53.0","5ed6c9613e5fc912b310c00c","64de8550c7a8818ba684de11","","","","","7492",""," ","key"," ","16.664538975501106","500","250","pz","44","2","0","26","","","46"
"","psychophysics","54","264506","0.0-54.0","5ed6c9613e5fc912b310c00c","64de8550c7a8818ba684de11","","","","","3453",""," ","key"," ","16.664655339805797","500","250","pz","43","2","0","32","","","47"
"","psychophysics","55","266211","0.0-55.0","5ed6c9613e5fc912b310c00c","64de8550c7a8818ba684de11","","","","","1705",""," ","key"," ","16.66647058823511","500","250","pz","53","2","0","50","","","49"
"","psychophysics","56","269981","0.0-56.0","5ed6c9613e5fc912b310c00c","64de8550c7a8818ba684de11","","","","","3768",""," ","key"," ","16.66437333333332","500","250","pz","41","2","0","53","","","47"
"","psychophysics","57","271894","0.0-57.0","5ed6c9613e5fc912b310c00c","64de8550c7a8818ba684de11","","","","","1912",""," ","key"," ","16.6644912280705","500","250","pz","32","2","0","38","","","31"
"","psychophysics","58","279896","0.0-58.0","5ed6c9613e5fc912b310c00c","64de8550c7a8818ba684de11","","","","","null","","null","key","null","16.66447807933189","500","250","pz","58","2","0","39","","","53"
"","psychophysics","59","287897","0.0-59.0","5ed6c9613e5fc912b310c00c","64de8550c7a8818ba684de11","","","","","null","","null","key","null","16.664490605428032","500","250","pz","42","2","0","24","","","54"
"","psychophysics","60","295898","0.0-60.0","5ed6c9613e5fc912b310c00c","64de8550c7a8818ba684de11","","","","","null","","null","key","null","16.664231732776653","500","250","pz","25","2","0","50","","","26"
"","psychophysics","61","296963","0.0-61.0","5ed6c9613e5fc912b310c00c","64de8550c7a8818ba684de11","","","","","1065",""," ","key"," ","16.667222222221817","500","250","inst","","","","","","",""
"","psychophysics","62","299790","0.0-62.0","5ed6c9613e5fc912b310c00c","64de8550c7a8818ba684de11","","","","","2826",""," ","key"," ","16.66444970414176","500","250","instZol0","0","","","0","0","0",""
"","psychophysics","63","314841","0.0-63.0","5ed6c9613e5fc912b310c00c","64de8550c7a8818ba684de11","","","","","15050",""," ","key"," ","16.664692904656334","500","250","instZol1","2.7755575615628914e-17","","","-1.3","0","0",""
"","psychophysics","64","351867","0.0-64.0","5ed6c9613e5fc912b310c00c","64de8550c7a8818ba684de11","","","","","37024",""," ","key"," ","16.664499774876177","500","250","instZol2","6.38378239159465e-16","2","","2","0","0",""
"","psychophysics","65","353536","0.0-65.0","5ed6c9613e5fc912b310c00c","64de8550c7a8818ba684de11","","","","","1669",""," ","key"," ","16.665505050505146","500","250","inst","","","","","","",""
"","psychophysics","66","361538","0.0-66.0","5ed6c9613e5fc912b310c00c","64de8550c7a8818ba684de11","","","","","null","","null","key","null","16.664509394572","500","250","zol","-0.6500000000000001","2","0","0.55","-10","-20",""
"","psychophysics","67","369540","0.0-67.0","5ed6c9613e5fc912b310c00c","64de8550c7a8818ba684de11","","","","","null","","null","key","null","16.66489770354901","500","250","zol","0.18999999999999997","2","0","0.41","-9","-10",""
"","psychophysics","68","377542","0.0-68.0","5ed6c9613e5fc912b310c00c","64de8550c7a8818ba684de11","","","","","null","","null","key","null","16.6641022964509","500","250","zol","-0.17","2","0","-0.43","-9","-24",""
"","psychophysics","69","383014","0.0-69.0","5ed6c9613e5fc912b310c00c","64de8550c7a8818ba684de11","","","","","5471",""," ","key"," ","16.665112804878067","500","250","zol","0.07","2","0","-0.17","-29","-8",""
"","psychophysics","70","386354","0.0-70.0","5ed6c9613e5fc912b310c00c","64de8550c7a8818ba684de11","","","","","3338",""," ","key"," ","16.663663316583005","500","250","zol","0.020000000000000046","2","0","-0.12","1","10",""
"","psychophysics","71","389570","0.0-71.0","5ed6c9613e5fc912b310c00c","64de8550c7a8818ba684de11","","","","","3214",""," ","key"," ","16.66345312500016","500","250","zol","-0.12000000000000005","2","0","0.72","-17","16",""
"","psychophysics","72","395306","0.0-72.0","5ed6c9613e5fc912b310c00c","64de8550c7a8818ba684de11","","","","","5735",""," ","key"," ","16.66452186588933","500","250","zol","0.21000000000000005","2","0","0.09","-21","3",""
"","psychophysics","73","402213","0.0-73.0","5ed6c9613e5fc912b310c00c","64de8550c7a8818ba684de11","","","","","6905",""," ","key"," ","16.664446859903396","500","250","zol","0.03","2","0","-0.03","22","-26",""
"","psychophysics","74","410216","0.0-74.0","5ed6c9613e5fc912b310c00c","64de8550c7a8818ba684de11","","","","","null","","null","key","null","16.66448851774526","500","250","zol","0.1500000000000001","2","0","-0.05","-1","-8",""
"","psychophysics","75","418218","0.0-75.0","5ed6c9613e5fc912b310c00c","64de8550c7a8818ba684de11","","","","","null","","null","key","null","16.66446555323599","500","250","zol","-0.4500000000000002","2","0","0.65","-9","4",""
"","psychophysics","76","424073","0.0-76.0","5ed6c9613e5fc912b310c00c","64de8550c7a8818ba684de11","","","","","5854",""," ","key"," ","16.66384615384618","500","250","zol","-0.7100000000000001","2","0","-0.19","-22","-4",""
"","psychophysics","77","428031","0.0-77.0","5ed6c9613e5fc912b310c00c","64de8550c7a8818ba684de11","","","","","3956",""," ","key"," ","16.66471186440667","500","250","zol","-1.0699999999999998","2","0","0.37","30","4",""
"","psychophysics","78","432508","0.0-78.0","5ed6c9613e5fc912b310c00c","64de8550c7a8818ba684de11","","","","","4476",""," ","key"," ","16.6650559701492","500","250","zol","-0.93","2","0","0.23","-15","-23",""
"","psychophysics","79","439588","0.0-79.0","5ed6c9613e5fc912b310c00c","64de8550c7a8818ba684de11","","","","","7079",""," ","key"," ","16.664089622641423","500","250","zol","-0.47","2","0","0.07","16","-13",""
"","psychophysics","80","442988","0.0-80.0","5ed6c9613e5fc912b310c00c","64de8550c7a8818ba684de11","","","","","3398",""," ","key"," ","16.66471428571417","500","250","zol","-0.61","2","0","0.21","0","9",""
"","psychophysics","81","443713","0.0-81.0","5ed6c9613e5fc912b310c00c","64de8550c7a8818ba684de11","","","","","724",""," ","key"," ","16.664523809524585","500","250","inst","","","","","","",""
"","psychophysics","82","450260","0.0-82.0","5ed6c9613e5fc912b310c00c","64de8550c7a8818ba684de11","","","","","6546",""," ","key"," ","16.664596938775503","500","250","instBr0","0","","","0","0","0","300"
"","psychophysics","83","456261","0.0-83.0","5ed6c9613e5fc912b310c00c","64de8550c7a8818ba684de11","","","","","6000",""," ","key"," ","16.664573816155976","500","250","instBr1","3","","","-40","0","0","300"
"","psychophysics","84","460743","0.0-84.0","5ed6c9613e5fc912b310c00c","64de8550c7a8818ba684de11","","","","","4481",""," ","key"," ","16.664425373134513","500","250","instBr3","-1","1","","40","0","0","300"
"","psychophysics","85","462412","0.0-85.0","5ed6c9613e5fc912b310c00c","64de8550c7a8818ba684de11","","","","","1668",""," ","key"," ","16.664363636363607","500","250","inst","","","","","","",""
"","psychophysics","86","467547","0.0-86.0","5ed6c9613e5fc912b310c00c","64de8550c7a8818ba684de11","","","","","5133",""," ","key"," ","16.66503583061879","500","250","br","-2","1","0","-19","-4","-28","231"
"","psychophysics","87","471488","0.0-87.0","5ed6c9613e5fc912b310c00c","64de8550c7a8818ba684de11","","","","","3941",""," ","key"," ","16.665347457627107","500","250","br","-2","1","0","-27","-28","26","266"
"","psychophysics","88","475062","0.0-88.0","5ed6c9613e5fc912b310c00c","64de8550c7a8818ba684de11","","","","","3573",""," ","key"," ","16.664723004694885","500","250","br","-2","1","0","26","-8","-4","215"
"","psychophysics","89","478308","0.0-89.0","5ed6c9613e5fc912b310c00c","64de8550c7a8818ba684de11","","","","","3245",""," ","key"," ","16.664783505154606","500","250","br","-9","1","0","4","-9","-3","277"
"","psychophysics","90","484177","0.0-90.0","5ed6c9613e5fc912b310c00c","64de8550c7a8818ba684de11","","","","","5868",""," ","key"," ","16.664529914529915","500","250","br","-3","1","0","21","4","27","247"
"","psychophysics","91","488418","0.0-91.0","5ed6c9613e5fc912b310c00c","64de8550c7a8818ba684de11","","","","","4240",""," ","key"," ","16.665779527559085","500","250","br","-7","1","0","24","-22","14","296"
"","psychophysics","92","492040","0.0-92.0","5ed6c9613e5fc912b310c00c","64de8550c7a8818ba684de11","","","","","3621",""," ","key"," ","16.6645231481482","500","250","br","-8","1","0","-21","23","-3","281"
"","psychophysics","93","495294","0.0-93.0","5ed6c9613e5fc912b310c00c","64de8550c7a8818ba684de11","","","","","3253",""," ","key"," ","16.664319587629","500","250","br","-2","1","0","-25","10","-20","246"
"","psychophysics","94","499597","0.0-94.0","5ed6c9613e5fc912b310c00c","64de8550c7a8818ba684de11","","","","","4302",""," ","key"," ","16.665174418604614","500","250","br","-2","1","0","1","-13","26","231"
"","psychophysics","95","505767","0.0-95.0","5ed6c9613e5fc912b310c00c","64de8550c7a8818ba684de11","","","","","6169",""," ","key"," ","16.66443360433614","500","250","br","2","1","0","-18","-22","-12","208"
"","psychophysics","96","510196","0.0-96.0","5ed6c9613e5fc912b310c00c","64de8550c7a8818ba684de11","","","","","4427",""," ","key"," ","16.665226415094462","500","250","br","3","1","0","-9","-23","-1","252"
"","psychophysics","97","513853","0.0-97.0","5ed6c9613e5fc912b310c00c","64de8550c7a8818ba684de11","","","","","3656",""," ","key"," ","16.664555045871392","500","250","br","1","1","0","-30","19","30","282"
"","psychophysics","98","517242","0.0-98.0","5ed6c9613e5fc912b310c00c","64de8550c7a8818ba684de11","","","","","3388",""," ","key"," ","16.665391089108837","500","250","br","-4","1","0","-9","25","24","249"
"","psychophysics","99","522678","0.0-99.0","5ed6c9613e5fc912b310c00c","64de8550c7a8818ba684de11","","","","","5435",""," ","key"," ","16.664558282208613","500","250","br","-1","1","0","15","7","-6","222"
"","psychophysics","100","528668","0.0-100.0","5ed6c9613e5fc912b310c00c","64de8550c7a8818ba684de11","","","","","5988",""," ","key"," ","16.66443016759771","500","250","br","1","1","0","16","-14","-23","295"
"","psychophysics","101","529692","0.0-101.0","5ed6c9613e5fc912b310c00c","64de8550c7a8818ba684de11","","","","","1023",""," ","key"," ","16.664399999999052","500","250","inst","","","","","","",""
"","psychophysics","102","535645","0.0-102.0","5ed6c9613e5fc912b310c00c","64de8550c7a8818ba684de11","","","","","5952",""," ","key"," ","16.66457422969195","500","250","instPog0","340","2","","370","0","0","340"
"","psychophysics","103","548130","0.0-103.0","5ed6c9613e5fc912b310c00c","64de8550c7a8818ba684de11","","","","","12484",""," ","key"," ","16.664532085561586","500","250","instPog1","342","2","","370","0","0","340"
"","psychophysics","104","552819","0.0-104.0","5ed6c9613e5fc912b310c00c","64de8550c7a8818ba684de11","","","","","4688",""," ","key"," ","16.66389285714291","500","250","instPog2","340","2","","340","0","0","340"
"","psychophysics","105","554303","0.0-105.0","5ed6c9613e5fc912b310c00c","64de8550c7a8818ba684de11","","","","","1483",""," ","key"," ","16.663056818181015","500","250","inst","","","","","","",""
"","psychophysics","106","558323","0.0-106.0","5ed6c9613e5fc912b310c00c","64de8550c7a8818ba684de11","","","","","4019",""," ","key"," ","16.66494190871389","500","250","pog","379","2","0","333","0","0","380"
"","psychophysics","107","561704","0.0-107.0","5ed6c9613e5fc912b310c00c","64de8550c7a8818ba684de11","","","","","3380",""," ","key"," ","16.664497512437876","500","250","pog","354","2","0","310","0","0","362"
"","psychophysics","108","562993","0.0-108.0","5ed6c9613e5fc912b310c00c","64de8550c7a8818ba684de11","","","","","1287",""," ","key"," ","16.666558441557836","500","250","pog","379","2","0","381","0","0","374"
"","psychophysics","109","566884","0.0-109.0","5ed6c9613e5fc912b310c00c","64de8550c7a8818ba684de11","","","","","3891",""," ","key"," ","16.66431896551713","500","250","pog","353","2","0","397","0","0","351"
"","psychophysics","110","571074","0.0-110.0","5ed6c9613e5fc912b310c00c","64de8550c7a8818ba684de11","","","","","4189",""," ","key"," ","16.665203187251056","500","250","pog","348","2","0","304","0","0","342"
"","psychophysics","111","576020","0.0-111.0","5ed6c9613e5fc912b310c00c","64de8550c7a8818ba684de11","","","","","4944",""," ","key"," ","16.663530405405105","500","250","pog","310","2","0","296","0","0","319"
"","psychophysics","112","577267","0.0-112.0","5ed6c9613e5fc912b310c00c","64de8550c7a8818ba684de11","","","","","1246",""," ","key"," ","16.664767123288346","500","250","pog","318","2","0","324","0","0","316"
"","psychophysics","113","578665","0.0-113.0","5ed6c9613e5fc912b310c00c","64de8550c7a8818ba684de11","","","","","1398",""," ","key"," ","16.662096385542494","500","250","pog","359","2","0","363","0","0","348"
"","psychophysics","114","583517","0.0-114.0","5ed6c9613e5fc912b310c00c","64de8550c7a8818ba684de11","","","","","4851",""," ","key"," ","16.665055172413926","500","250","pog","376","2","0","398","0","0","380"
"","psychophysics","115","589855","0.0-115.0","5ed6c9613e5fc912b310c00c","64de8550c7a8818ba684de11","","","","","6337",""," ","key"," ","16.664842105263194","500","250","pog","306","2","0","392","0","0","313"
"","psychophysics","116","591517","0.0-116.0","5ed6c9613e5fc912b310c00c","64de8550c7a8818ba684de11","","","","","1661",""," ","key"," ","16.664561224490765","500","250","pog","299","2","0","291","0","0","305"
"","psychophysics","117","599439","0.0-117.0","5ed6c9613e5fc912b310c00c","64de8550c7a8818ba684de11","","","","","7921",""," ","key"," ","16.66502947368414","500","250","pog","314","2","0","324","0","0","312"
"","psychophysics","118","604061","0.0-118.0","5ed6c9613e5fc912b310c00c","64de8550c7a8818ba684de11","","","","","4620",""," ","key"," ","16.664528985507364","500","250","pog","354","2","0","296","0","0","359"
"","psychophysics","119","608100","0.0-119.0","5ed6c9613e5fc912b310c00c","64de8550c7a8818ba684de11","","","","","4038",""," ","key"," ","16.66468181818183","500","250","pog","321","2","0","395","0","0","321"
"","psychophysics","120","610950","0.0-120.0","5ed6c9613e5fc912b310c00c","64de8550c7a8818ba684de11","","","","","2850",""," ","key"," ","16.664717647058698","500","250","pog","374","2","0","398","0","0","374"
"","psychophysics","121","611681","0.0-121.0","5ed6c9613e5fc912b310c00c","64de8550c7a8818ba684de11","","","","","731",""," ","key"," ","16.664418604652678","500","250","inst","","","","","","",""
"","psychophysics","122","616626","0.0-122.0","5ed6c9613e5fc912b310c00c","64de8550c7a8818ba684de11","","","","","4944",""," ","key"," ","16.664454237288023","500","250","instPog0","160","1","","190","0","0","160"
"","psychophysics","123","624846","0.0-123.0","5ed6c9613e5fc912b310c00c","64de8550c7a8818ba684de11","","","","","8219",""," ","key"," ","16.664586206896676","500","250","instPog1","156","1","","190","0","0","160"
"","psychophysics","124","626697","0.0-124.0","5ed6c9613e5fc912b310c00c","64de8550c7a8818ba684de11","","","","","1849",""," ","key"," ","16.662745454545473","500","250","instPog2","160","1","","160","0","0","160"
"","psychophysics","125","628802","0.0-125.0","5ed6c9613e5fc912b310c00c","64de8550c7a8818ba684de11","","","","","2105",""," ","key"," ","16.664575999999418","500","250","inst","","","","","","",""
"","psychophysics","126","633422","0.0-126.0","5ed6c9613e5fc912b310c00c","64de8550c7a8818ba684de11","","","","","4619",""," ","key"," ","16.66456159420288","500","250","pog","177","1","1","107","0","0","177"
"","psychophysics","127","638075","0.0-127.0","5ed6c9613e5fc912b310c00c","64de8550c7a8818ba684de11","","","","","4652",""," ","key"," ","16.66516187050331","500","250","pog","199","1","1","105","0","0","200"
"","psychophysics","128","641258","0.0-128.0","5ed6c9613e5fc912b310c00c","64de8550c7a8818ba684de11","","","","","3182",""," ","key"," ","16.66401052631585","500","250","pog","171","1","1","111","0","0","168"
"","psychophysics","129","644398","0.0-129.0","5ed6c9613e5fc912b310c00c","64de8550c7a8818ba684de11","","","","","3140",""," ","key"," ","16.665335106382894","500","250","pog","156","1","1","102","0","0","158"
"","psychophysics","130","646366","0.0-130.0","5ed6c9613e5fc912b310c00c","64de8550c7a8818ba684de11","","","","","1967",""," ","key"," ","16.664504273505045","500","250","pog","166","1","1","188","0","0","157"
"","psychophysics","131","649031","0.0-131.0","5ed6c9613e5fc912b310c00c","64de8550c7a8818ba684de11","","","","","2664",""," ","key"," ","16.66447169811292","500","250","pog","146","1","1","112","0","0","139"
"","psychophysics","132","652553","0.0-132.0","5ed6c9613e5fc912b310c00c","64de8550c7a8818ba684de11","","","","","3522",""," ","key"," ","16.66399047619031","500","250","pog","178","1","1","104","0","0","174"
"","psychophysics","133","657662","0.0-133.0","5ed6c9613e5fc912b310c00c","64de8550c7a8818ba684de11","","","","","5108",""," ","key"," ","16.665611111110813","500","250","pog","174","1","1","202","0","0","177"
"","psychophysics","134","659084","0.0-134.0","5ed6c9613e5fc912b310c00c","64de8550c7a8818ba684de11","","","","","1420",""," ","key"," ","16.666583333333534","500","250","pog","157","1","1","163","0","0","159"
"","psychophysics","135","663137","0.0-135.0","5ed6c9613e5fc912b310c00c","64de8550c7a8818ba684de11","","","","","4053",""," ","key"," ","16.663677685950354","500","250","pog","151","1","1","197","0","0","150"
"","psychophysics","136","667565","0.0-136.0","5ed6c9613e5fc912b310c00c","64de8550c7a8818ba684de11","","","","","4427",""," ","key"," ","16.66559622641521","500","250","pog","142","1","1","202","0","0","137"
"","psychophysics","137","669114","0.0-137.0","5ed6c9613e5fc912b310c00c","64de8550c7a8818ba684de11","","","","","1548",""," ","key"," ","16.666989130434914","500","250","pog","145","1","1","145","0","0","146"
"","psychophysics","138","673316","0.0-138.0","5ed6c9613e5fc912b310c00c","64de8550c7a8818ba684de11","","","","","4200",""," ","key"," ","16.664768924303093","500","250","pog","175","1","1","215","0","0","172"
"","psychophysics","139","676482","0.0-139.0","5ed6c9613e5fc912b310c00c","64de8550c7a8818ba684de11","","","","","3165",""," ","key"," ","16.662481481481034","500","250","pog","197","1","1","181","0","0","199"
"","psychophysics","140","679470","0.0-140.0","5ed6c9613e5fc912b310c00c","64de8550c7a8818ba684de11","","","","","2987",""," ","key"," ","16.66554494381992","500","250","pog","158","1","1","176","0","0","154"
"","psychophysics","141","680591","0.0-141.0","5ed6c9613e5fc912b310c00c","64de8550c7a8818ba684de11","","","","","1121",""," ","key"," ","16.66680597014892","500","250","inst","","","","","","",""
"","psychophysics","142","686499","0.0-142.0","5ed6c9613e5fc912b310c00c","64de8550c7a8818ba684de11","","","","","5907",""," ","key"," ","16.664699716713788","500","250","instBr3","22","2","","40","0","0","300"
"","psychophysics","143","687575","0.0-143.0","5ed6c9613e5fc912b310c00c","64de8550c7a8818ba684de11","","","","","1075",""," ","key"," ","16.667249999998603","500","250","inst","","","","","","",""
"","psychophysics","144","692262","0.0-144.0","5ed6c9613e5fc912b310c00c","64de8550c7a8818ba684de11","","","","","4686",""," ","key"," ","16.664439285714096","500","250","br","13","2","1","-28","-7","-6","217"
"","psychophysics","145","695241","0.0-145.0","5ed6c9613e5fc912b310c00c","64de8550c7a8818ba684de11","","","","","2978",""," ","key"," ","16.664488764044833","500","250","br","15","2","1","-26","-27","-2","240"
"","psychophysics","146","696710","0.0-146.0","5ed6c9613e5fc912b310c00c","64de8550c7a8818ba684de11","","","","","1468",""," ","key"," ","16.66447126436791","500","250","br","21","2","1","13","-16","3","284"
"","psychophysics","147","699937","0.0-147.0","5ed6c9613e5fc912b310c00c","64de8550c7a8818ba684de11","","","","","3227",""," ","key"," ","16.663300518134676","500","250","br","12","2","1","-23","-8","-30","200"
"","psychophysics","148","701945","0.0-148.0","5ed6c9613e5fc912b310c00c","64de8550c7a8818ba684de11","","","","","2007",""," ","key"," ","16.664663865546963","500","250","br","9","2","1","-16","-24","24","277"
"","psychophysics","149","705888","0.0-149.0","5ed6c9613e5fc912b310c00c","64de8550c7a8818ba684de11","","","","","3942",""," ","key"," ","16.664652542372913","500","250","br","16","2","1","-7","20","13","259"
"","psychophysics","150","709289","0.0-150.0","5ed6c9613e5fc912b310c00c","64de8550c7a8818ba684de11","","","","","3400",""," ","key"," ","16.66433004926078","500","250","br","15","2","1","-27","0","1","274"
"","psychophysics","151","712547","0.0-151.0","5ed6c9613e5fc912b310c00c","64de8550c7a8818ba684de11","","","","","3257",""," ","key"," ","16.663613402061454","500","250","br","9","2","1","-27","8","-4","237"
"","psychophysics","152","717792","0.0-152.0","5ed6c9613e5fc912b310c00c","64de8550c7a8818ba684de11","","","","","5245",""," ","key"," ","16.664506369426842","500","250","br","14","2","1","-25","10","20","295"
"","psychophysics","153","725390","0.0-153.0","5ed6c9613e5fc912b310c00c","64de8550c7a8818ba684de11","","","","","7597",""," ","key"," ","16.66458021978039","500","250","br","16","2","1","2","22","-23","207"
"","psychophysics","154","727971","0.0-154.0","5ed6c9613e5fc912b310c00c","64de8550c7a8818ba684de11","","","","","2580",""," ","key"," ","16.664519480519548","500","250","br","12","2","1","11","-13","30","245"
"","psychophysics","155","732817","0.0-155.0","5ed6c9613e5fc912b310c00c","64de8550c7a8818ba684de11","","","","","4846",""," ","key"," ","16.664413793103222","500","250","br","12","2","1","-18","-7","6","212"
"","psychophysics","156","736214","0.0-156.0","5ed6c9613e5fc912b310c00c","64de8550c7a8818ba684de11","","","","","3396",""," ","key"," ","16.663509900990004","500","250","br","10","2","1","8","20","10","251"
"","psychophysics","157","744216","0.0-157.0","5ed6c9613e5fc912b310c00c","64de8550c7a8818ba684de11","","","","","null","","null","key","null","16.66467916666661","500","250","br","13","2","1","0","-4","-15","277"
"","psychophysics","158","748293","0.0-158.0","5ed6c9613e5fc912b310c00c","64de8550c7a8818ba684de11","","","","","4076",""," ","key"," ","16.664510288065944","500","250","br","16","2","1","20","-26","13","229"
"","psychophysics","159","750602","0.0-159.0","5ed6c9613e5fc912b310c00c","64de8550c7a8818ba684de11","","","","","2308",""," ","key"," ","16.666057971015107","500","250","inst","","","","","","",""
"","psychophysics","160","755886","0.0-160.0","5ed6c9613e5fc912b310c00c","64de8550c7a8818ba684de11","","","","","5284",""," ","key"," ","16.66505696202549","500","250","instPz1","49","1","","25","","","50"
"","psychophysics","161","759237","0.0-161.0","5ed6c9613e5fc912b310c00c","64de8550c7a8818ba684de11","","","","","3350",""," ","key"," ","16.663574999999838","500","250","instPz2","20","1","","35","","","20"
"","psychophysics","162","769307","0.0-162.0","5ed6c9613e5fc912b310c00c","64de8550c7a8818ba684de11","","","","","10070",""," ","key"," ","16.664585406301818","500","250","instPz3","33","1","","100","","","30"
"","psychophysics","163","774817","0.0-163.0","5ed6c9613e5fc912b310c00c","64de8550c7a8818ba684de11","","","","","5509",""," ","key"," ","16.664515151515264","500","250","instPz4","33","1","","100","","","30"
"","psychophysics","164","776091","0.0-164.0","5ed6c9613e5fc912b310c00c","64de8550c7a8818ba684de11","","","","","1273",""," ","key"," ","16.668773333334055","500","250","inst","","","","","","",""
"","psychophysics","165","783165","0.0-165.0","5ed6c9613e5fc912b310c00c","64de8550c7a8818ba684de11","","","","","7073",""," ","key"," ","16.66497169811315","500","250","pz","56","1","1","32","","","53"
"","psychophysics","166","787113","0.0-166.0","5ed6c9613e5fc912b310c00c","64de8550c7a8818ba684de11","","","","","3947",""," ","key"," ","16.664500000000185","500","250","pz","38","1","1","26","","","35"
"","psychophysics","167","792261","0.0-167.0","5ed6c9613e5fc912b310c00c","64de8550c7a8818ba684de11","","","","","5147",""," ","key"," ","16.664392857142957","500","250","pz","53","1","1","44","","","48"
"","psychophysics","168","796418","0.0-168.0","5ed6c9613e5fc912b310c00c","64de8550c7a8818ba684de11","","","","","4156",""," ","key"," ","16.66451209677419","500","250","pz","23","1","1","33","","","20"
"","psychophysics","169","798453","0.0-169.0","5ed6c9613e5fc912b310c00c","64de8550c7a8818ba684de11","","","","","2033",""," ","key"," ","16.66707438016445","500","250","pz","30","1","1","33","","","26"
"","psychophysics","170","803801","0.0-170.0","5ed6c9613e5fc912b310c00c","64de8550c7a8818ba684de11","","","","","5347",""," ","key"," ","16.665040625000255","500","250","pz","28","1","1","60","","","25"
"","psychophysics","171","806013","0.0-171.0","5ed6c9613e5fc912b310c00c","64de8550c7a8818ba684de11","","","","","2211",""," ","key"," ","16.66597727272716","500","250","pz","32","1","1","33","","","34"
"","psychophysics","172","810813","0.0-172.0","5ed6c9613e5fc912b310c00c","64de8550c7a8818ba684de11","","","","","4800",""," ","key"," ","16.663871080139636","500","250","pz","46","1","1","57","","","44"
"","psychophysics","173","816114","0.0-173.0","5ed6c9613e5fc912b310c00c","64de8550c7a8818ba684de11","","","","","5300",""," ","key"," ","16.664965299684525","500","250","pz","57","1","1","58","","","60"
"","psychophysics","174","821232","0.0-174.0","5ed6c9613e5fc912b310c00c","64de8550c7a8818ba684de11","","","","","5117",""," ","key"," ","16.66447712418287","500","250","pz","40","1","1","55","","","32"
"","psychophysics","175","825765","0.0-175.0","5ed6c9613e5fc912b310c00c","64de8550c7a8818ba684de11","","","","","4533",""," ","key"," ","16.66526568265687","500","250","pz","26","1","1","43","","","21"
"","psychophysics","176","828935","0.0-176.0","5ed6c9613e5fc912b310c00c","64de8550c7a8818ba684de11","","","","","3168",""," ","key"," ","16.66453439153413","500","250","pz","53","1","1","49","","","56"
"","psychophysics","177","835637","0.0-177.0","5ed6c9613e5fc912b310c00c","64de8550c7a8818ba684de11","","","","","6700",""," ","key"," ","16.664639303482726","500","250","pz","31","1","1","58","","","28"
"","psychophysics","178","838636","0.0-178.0","5ed6c9613e5fc912b310c00c","64de8550c7a8818ba684de11","","","","","2998",""," ","key"," ","16.66360335195549","500","250","pz","27","1","1","36","","","25"
"","psychophysics","179","843014","0.0-179.0","5ed6c9613e5fc912b310c00c","64de8550c7a8818ba684de11","","","","","4377",""," ","key"," ","16.664429118773825","500","250","pz","27","1","1","46","","","28"
"","psychophysics","180","843743","0.0-180.0","5ed6c9613e5fc912b310c00c","64de8550c7a8818ba684de11","","","","","729",""," ","key"," ","16.66883720930254","500","250","inst","","","","","","",""
"","psychophysics","181","850904","0.0-181.0","5ed6c9613e5fc912b310c00c","64de8550c7a8818ba684de11","","","","","7161",""," ","key"," ","16.664522144522046","500","250","instZol1","-1.942890293094024e-16","","","-1.3","0","0",""
"","psychophysics","182","857337","0.0-182.0","5ed6c9613e5fc912b310c00c","64de8550c7a8818ba684de11","","","","","6431",""," ","key"," ","16.66498441558434","500","250","instZol2","-0.19999999999999937","1","","2","0","0",""
"","psychophysics","183","858207","0.0-183.0","5ed6c9613e5fc912b310c00c","64de8550c7a8818ba684de11","","","","","869",""," ","key"," ","16.666509803923248","500","250","inst","","","","","","",""
"","psychophysics","184","862898","0.0-184.0","5ed6c9613e5fc912b310c00c","64de8550c7a8818ba684de11","","","","","4690",""," ","key"," ","16.663804270462563","500","250","zol","-0.3","1","1","-0.6","-20","10",""
"","psychophysics","185","868069","0.0-185.0","5ed6c9613e5fc912b310c00c","64de8550c7a8818ba684de11","","","","","5169",""," ","key"," ","16.663572815533964","500","250","zol","0.33000000000000007","1","1","-0.33","-3","0",""
"","psychophysics","186","873660","0.0-186.0","5ed6c9613e5fc912b310c00c","64de8550c7a8818ba684de11","","","","","5589",""," ","key"," ","16.66447305389224","500","250","zol","0.13","1","1","0.17","-27","-30",""
"","psychophysics","187","878517","0.0-187.0","5ed6c9613e5fc912b310c00c","64de8550c7a8818ba684de11","","","","","4856",""," ","key"," ","16.664405498282","500","250","zol","0.35","1","1","0.65","11","-10",""
"","psychophysics","188","883671","0.0-188.0","5ed6c9613e5fc912b310c00c","64de8550c7a8818ba684de11","","","","","5153",""," ","key"," ","16.66456168831187","500","250","zol","0.09999999999999998","1","1","0.5","-12","-20",""
"","psychophysics","189","890282","0.0-189.0","5ed6c9613e5fc912b310c00c","64de8550c7a8818ba684de11","","","","","6610",""," ","key"," ","16.664047979798244","500","250","zol","2.7755575615628914e-17","1","1","0.2","-24","-24",""
"","psychophysics","190","896524","0.0-190.0","5ed6c9613e5fc912b310c00c","64de8550c7a8818ba684de11","","","","","6240",""," ","key"," ","16.664506702412957","500","250","zol","0.3400000000000001","1","1","-0.14","24","18",""
"","psychophysics","191","904453","0.0-191.0","5ed6c9613e5fc912b310c00c","64de8550c7a8818ba684de11","","","","","7927",""," ","key"," ","16.664528421052534","500","250","zol","-0.27","1","1","0.07","0","16",""
"","psychophysics","192","912455","0.0-192.0","5ed6c9613e5fc912b310c00c","64de8550c7a8818ba684de11","","","","","null","","null","key","null","16.664578288100177","500","250","zol","0.13","1","1","0.57","-8","-21",""
"","psychophysics","193","912503","0.0-193.0","5ed6c9613e5fc912b310c00c","64de8550c7a8818ba684de11","","","","","47",""," ","key"," ","16.663999999989755","500","250","zol","-0.42","1","1","0.42","17","-17",""
"","psychophysics","194","920505","0.0-194.0","5ed6c9613e5fc912b310c00c","64de8550c7a8818ba684de11","","","","","null","","null","key","null","16.664519832985494","500","250","zol","0.38","1","1","0.02","24","-12",""
"","psychophysics","195","928506","0.0-195.0","5ed6c9613e5fc912b310c00c","64de8550c7a8818ba684de11","","","","","null","","null","key","null","16.66469375000015","500","250","zol","0.040000000000000174","1","1","-0.04","23","21",""
"","psychophysics","196","934867","0.0-196.0","5ed6c9613e5fc912b310c00c","64de8550c7a8818ba684de11","","","","","6359",""," ","key"," ","16.664526315789523","500","250","zol","0.13000000000000017","1","1","-0.03","4","-1",""
"","psychophysics","197","938168","0.0-197.0","5ed6c9613e5fc912b310c00c","64de8550c7a8818ba684de11","","","","","3300",""," ","key"," ","16.665624365482365","500","250","zol","0.66","1","1","-0.56","19","-10",""
"","psychophysics","198","946170","0.0-198.0","5ed6c9613e5fc912b310c00c","64de8550c7a8818ba684de11","","","","","null","","null","key","null","16.66482045928999","500","250","zol","0.27000000000000013","1","1","0.43","-28","24",""
"","psychophysics","199","946754","0.0-199.0","5ed6c9613e5fc912b310c00c","64de8550c7a8818ba684de11","","","","","583",""," ","key"," ","16.664342857142245","500","250","inst","","","","","","",""
"","psychophysics","200","955451","0.0-200.0","5ed6c9613e5fc912b310c00c","64de8550c7a8818ba684de11","","","","","8695",""," ","key"," ","16.664694230769125","500","250","instEB1","40","2","","30","0","0","40"
"","psychophysics","201","957827","0.0-201.0","5ed6c9613e5fc912b310c00c","64de8550c7a8818ba684de11","","","","","2375",""," ","key"," ","16.66456338028181","500","250","instEB2","37","2","","40","0","0","30"
"","psychophysics","202","965337","0.0-202.0","5ed6c9613e5fc912b310c00c","64de8550c7a8818ba684de11","","","","","7509",""," ","key"," ","16.664551111111003","500","250","instEB3","30","2","","45","0","0","27"
"","psychophysics","203","968453","0.0-203.0","5ed6c9613e5fc912b310c00c","64de8550c7a8818ba684de11","","","","","3115",""," ","key"," ","16.663672043011218","500","250","instEB4","45","2","","30","0","0","40"
"","psychophysics","204","969417","0.0-204.0","5ed6c9613e5fc912b310c00c","64de8550c7a8818ba684de11","","","","","963",""," ","key"," ","16.66492857142709","500","250","inst","","","","","","",""
"","psychophysics","205","973365","0.0-205.0","5ed6c9613e5fc912b310c00c","64de8550c7a8818ba684de11","","","","","3947",""," ","key"," ","16.665415254237537","500","250","eb","43","2","","48","0","0","40"
"","psychophysics","206","981367","0.0-206.0","5ed6c9613e5fc912b310c00c","64de8550c7a8818ba684de11","","","","","null","","null","key","null","16.66462916666666","500","250","eb","47","2","","34","0","0","41"
"","psychophysics","207","989369","0.0-207.0","5ed6c9613e5fc912b310c00c","64de8550c7a8818ba684de11","","","","","null","","null","key","null","16.664908141962258","500","250","eb","33","2","","25","0","0","27"
"","psychophysics","208","993700","0.0-208.0","5ed6c9613e5fc912b310c00c","64de8550c7a8818ba684de11","","","","","4329",""," ","key"," ","16.663656370656323","500","250","eb","36","2","","46","0","0","31"
"","psychophysics","209","997042","0.0-209.0","5ed6c9613e5fc912b310c00c","64de8550c7a8818ba684de11","","","","","3341",""," ","key"," ","16.663879396984747","500","250","eb","37","2","","29","0","0","31"
"","psychophysics","210","1001692","0.0-210.0","5ed6c9613e5fc912b310c00c","64de8550c7a8818ba684de11","","","","","4649",""," ","key"," ","16.664266187050245","500","250","eb","46","2","","28","0","0","41"
"","psychophysics","211","1005618","0.0-211.0","5ed6c9613e5fc912b310c00c","64de8550c7a8818ba684de11","","","","","3925",""," ","key"," ","16.66547659574463","500","250","eb","47","2","","27","0","0","42"
"","psychophysics","212","1008308","0.0-212.0","5ed6c9613e5fc912b310c00c","64de8550c7a8818ba684de11","","","","","2690",""," ","key"," ","16.66331250000003","500","250","eb","47","2","","43","0","0","45"
"","psychophysics","213","1012012","0.0-213.0","5ed6c9613e5fc912b310c00c","64de8550c7a8818ba684de11","","","","","3702",""," ","key"," ","16.66433031674226","500","250","eb","57","2","","53","0","0","54"
"","psychophysics","214","1016125","0.0-214.0","5ed6c9613e5fc912b310c00c","64de8550c7a8818ba684de11","","","","","4111",""," ","key"," ","16.665325203252202","500","250","eb","46","2","","53","0","0","41"
"","psychophysics","215","1017738","0.0-215.0","5ed6c9613e5fc912b310c00c","64de8550c7a8818ba684de11","","","","","1612",""," ","key"," ","16.665291666666842","500","250","eb","50","2","","45","0","0","45"
"","psychophysics","216","1022273","0.0-216.0","5ed6c9613e5fc912b310c00c","64de8550c7a8818ba684de11","","","","","4535",""," ","key"," ","16.66500738007403","500","250","eb","50","2","","43","0","0","45"
"","psychophysics","217","1024875","0.0-217.0","5ed6c9613e5fc912b310c00c","64de8550c7a8818ba684de11","","","","","2600",""," ","key"," ","16.665090322580127","500","250","eb","50","2","","54","0","0","47"
"","psychophysics","218","1027641","0.0-218.0","5ed6c9613e5fc912b310c00c","64de8550c7a8818ba684de11","","","","","2766",""," ","key"," ","16.66562424242412","500","250","eb","39","2","","35","0","0","32"
"","psychophysics","219","1033935","0.0-219.0","5ed6c9613e5fc912b310c00c","64de8550c7a8818ba684de11","","","","","6292",""," ","key"," ","16.66514588859419","500","250","eb","31","2","","44","0","0","27"
