"success","trial_type","trial_index","time_elapsed","internal_node_id","pid","sid","timeout","failed_images","failed_audio","failed_video","rt","stimulus","response","response_type","key_press","avg_frame_time","center_x","center_y","task","resp","version","block","jitterX","jitterY","start","parA"
"true","fullscreen","0","2859","0.0-0.0","5d38f983242a6f000156bbc1","64e50bb40e1045717e5ed59c","","","","","","","","","","","","","","","","","","","",""
"true","preload","1","2942","0.0-1.0","5d38f983242a6f000156bbc1","64e50bb40e1045717e5ed59c","false","[]","[]","[]","","","","","","","","","","","","","","","",""
"","html-button-response","2","4541","0.0-2.0","5d38f983242a6f000156bbc1","64e50bb40e1045717e5ed59c","","","","","1597","Please Make Sure Your Audio Is On.","0","","","","","","","","","","","","",""
"","psychophysics","3","342412","0.0-3.0","5d38f983242a6f000156bbc1","64e50bb40e1045717e5ed59c","","","","","337861",""," ","key"," ","16.665863463720218","683","250","","","","","","","",""
"","psychophysics","4","347116","0.0-4.0","5d38f983242a6f000156bbc1","64e50bb40e1045717e5ed59c","","","","","4696",""," ","key"," ","16.665918439716275","500","250","inst","","","","","","",""
"","psychophysics","5","360678","0.0-5.0","5d38f983242a6f000156bbc1","64e50bb40e1045717e5ed59c","","","","","13559",""," ","key"," ","16.666078720787205","500","250","sample0","","","","","","",""
"","psychophysics","6","362894","0.0-6.0","5d38f983242a6f000156bbc1","64e50bb40e1045717e5ed59c","","","","","2213",""," ","key"," ","16.66580303030302","500","250","sample1","","","","","","",""
"","psychophysics","7","383328","0.0-7.0","5d38f983242a6f000156bbc1","64e50bb40e1045717e5ed59c","","","","","20430",""," ","key"," ","16.66601632653061","500","250","sample2","100","","","","","",""
"","psychophysics","8","388932","0.0-8.0","5d38f983242a6f000156bbc1","64e50bb40e1045717e5ed59c","","","","","5600",""," ","key"," ","16.665602985074667","500","250","sample3","106","","","","","",""
"","psychophysics","9","411117","0.0-9.0","5d38f983242a6f000156bbc1","64e50bb40e1045717e5ed59c","","","","","22166",""," ","key"," ","16.665875187969927","500","250","sample4","102","","","","","",""
"","psychophysics","10","422626","0.0-10.0","5d38f983242a6f000156bbc1","64e50bb40e1045717e5ed59c","","","","","11506",""," ","key"," ","16.6662188405797","500","250","sample5","","","","","","",""
"","psychophysics","11","430865","0.0-11.0","5d38f983242a6f000156bbc1","64e50bb40e1045717e5ed59c","","","","","8237",""," ","key"," ","16.665470588235273","500","250","sample6","506","","","","","",""
"","psychophysics","12","436214","0.0-12.0","5d38f983242a6f000156bbc1","64e50bb40e1045717e5ed59c","","","","","5346",""," ","key"," ","16.666400000000067","500","250","inst","","","","","","",""
"","psychophysics","13","444673","0.0-13.0","5d38f983242a6f000156bbc1","64e50bb40e1045717e5ed59c","","","","","8457",""," ","key"," ","16.665885601577894","500","250","inst","","","","","","",""
"","psychophysics","14","483092","0.0-14.0","5d38f983242a6f000156bbc1","64e50bb40e1045717e5ed59c","","","","","38417",""," ","key"," ","16.66586024305555","500","250","inst","","","","","","",""
"","psychophysics","15","486992","0.0-15.0","5d38f983242a6f000156bbc1","64e50bb40e1045717e5ed59c","","","","","3898",""," ","key"," ","16.66616309012882","500","250","inst","","","","","","",""
"","psychophysics","16","489686","0.0-16.0","5d38f983242a6f000156bbc1","64e50bb40e1045717e5ed59c","","","","","2692",""," ","key"," ","16.665260869564968","500","250","inst","","","","","","",""
"","psychophysics","17","498209","0.0-17.0","5d38f983242a6f000156bbc1","64e50bb40e1045717e5ed59c","","","","","8519",""," ","key"," ","16.66603725490197","500","250","instBr0","0","","","0","0","0","300"
"","psychophysics","18","505266","0.0-18.0","5d38f983242a6f000156bbc1","64e50bb40e1045717e5ed59c","","","","","7054",""," ","key"," ","16.666113744075773","500","250","instBr1","4","","","0","0","-40","300"
"","psychophysics","19","514674","0.0-19.0","5d38f983242a6f000156bbc1","64e50bb40e1045717e5ed59c","","","","","9402",""," ","key"," ","16.666289007092217","500","250","instBr3","-15","1","","0","0","40","300"
"","psychophysics","20","518998","0.0-20.0","5d38f983242a6f000156bbc1","64e50bb40e1045717e5ed59c","","","","","4322",""," ","key"," ","16.66693798449615","500","250","inst","","","","","","",""
"","psychophysics","21","523536","0.0-21.0","5d38f983242a6f000156bbc1","64e50bb40e1045717e5ed59c","","","","","4530",""," ","key"," ","16.666102941176444","500","250","br","-21","1","0","-24","19","0","251"
"","psychophysics","22","526945","0.0-22.0","5d38f983242a6f000156bbc1","64e50bb40e1045717e5ed59c","","","","","3407",""," ","key"," ","16.667044334975245","500","250","br","-17","1","0","-23","-16","-7","277"
"","psychophysics","23","532515","0.0-23.0","5d38f983242a6f000156bbc1","64e50bb40e1045717e5ed59c","","","","","5566",""," ","key"," ","16.665813813813507","500","250","br","-22","1","0","4","7","10","257"
"","psychophysics","24","536231","0.0-24.0","5d38f983242a6f000156bbc1","64e50bb40e1045717e5ed59c","","","","","3711",""," ","key"," ","16.666292792792863","500","250","br","-26","1","0","8","7","-27","266"
"","psychophysics","25","540076","0.0-25.0","5d38f983242a6f000156bbc1","64e50bb40e1045717e5ed59c","","","","","3839",""," ","key"," ","16.666082608695245","500","250","br","-19","1","0","15","-24","26","209"
"","psychophysics","26","547300","0.0-26.0","5d38f983242a6f000156bbc1","64e50bb40e1045717e5ed59c","","","","","7220",""," ","key"," ","16.665678983833587","500","250","br","-28","1","0","-14","-5","29","300"
"","psychophysics","27","551955","0.0-27.0","5d38f983242a6f000156bbc1","64e50bb40e1045717e5ed59c","","","","","4652",""," ","key"," ","16.66617266187049","500","250","br","-15","1","0","-7","28","22","252"
"","psychophysics","28","559958","0.0-28.0","5d38f983242a6f000156bbc1","64e50bb40e1045717e5ed59c","","","","","null","","null","key","null","16.6657995824636","500","250","br","-18","1","0","-4","10","28","224"
"","psychophysics","29","563285","0.0-29.0","5d38f983242a6f000156bbc1","64e50bb40e1045717e5ed59c","","","","","3325",""," ","key"," ","16.665959798994745","500","250","br","-14","1","0","-14","19","10","276"
"","psychophysics","30","568616","0.0-30.0","5d38f983242a6f000156bbc1","64e50bb40e1045717e5ed59c","","","","","5328",""," ","key"," ","16.66716614420063","500","250","br","-14","1","0","-21","5","-1","213"
"","psychophysics","31","571786","0.0-31.0","5d38f983242a6f000156bbc1","64e50bb40e1045717e5ed59c","","","","","3167",""," ","key"," ","16.666100529100742","500","250","br","-25","1","0","-23","-16","-9","289"
"","psychophysics","32","575541","0.0-32.0","5d38f983242a6f000156bbc1","64e50bb40e1045717e5ed59c","","","","","3752",""," ","key"," ","16.665906250000262","500","250","br","-11","1","0","-30","19","-26","219"
"","psychophysics","33","579859","0.0-33.0","5d38f983242a6f000156bbc1","64e50bb40e1045717e5ed59c","","","","","4315",""," ","key"," ","16.666744186046582","500","250","br","-21","1","0","6","10","5","261"
"","psychophysics","34","582256","0.0-34.0","5d38f983242a6f000156bbc1","64e50bb40e1045717e5ed59c","","","","","2394",""," ","key"," ","16.66665034965039","500","250","br","-15","1","0","4","10","-3","219"
"","psychophysics","35","586133","0.0-35.0","5d38f983242a6f000156bbc1","64e50bb40e1045717e5ed59c","","","","","3874",""," ","key"," ","16.66578448275837","500","250","br","-18","1","0","-22","-13","-12","253"
"","psychophysics","36","588635","0.0-36.0","5d38f983242a6f000156bbc1","64e50bb40e1045717e5ed59c","","","","","2500",""," ","key"," ","16.66627516778539","500","250","inst","","","","","","",""
"","psychophysics","37","598330","0.0-37.0","5d38f983242a6f000156bbc1","64e50bb40e1045717e5ed59c","","","","","9692",""," ","key"," ","16.66566206896557","500","250","instPzPre","50","0","","","","50","50"
"","psychophysics","38","605082","0.0-38.0","5d38f983242a6f000156bbc1","64e50bb40e1045717e5ed59c","","","","","6747",""," ","key"," ","16.66605925925944","500","250","instPz0","48","1","","","","50","50"
"","psychophysics","39","614141","0.0-39.0","5d38f983242a6f000156bbc1","64e50bb40e1045717e5ed59c","","","","","9056",""," ","key"," ","16.665894833948194","500","250","instPz1","52","1","","","","25","50"
"","psychophysics","40","619891","0.0-40.0","5d38f983242a6f000156bbc1","64e50bb40e1045717e5ed59c","","","","","5748",""," ","key"," ","16.666226744186133","500","250","instPz2","23","1","","","","35","20"
"","psychophysics","41","636917","0.0-41.0","5d38f983242a6f000156bbc1","64e50bb40e1045717e5ed59c","","","","","17018",""," ","key"," ","16.665944172380023","500","250","instPz3","75","1","","","","100","30"
"","psychophysics","42","643649","0.0-42.0","5d38f983242a6f000156bbc1","64e50bb40e1045717e5ed59c","","","","","6729",""," ","key"," ","16.66628287841188","500","250","instPz4","73","1","","","","100","30"
"","psychophysics","43","651502","0.0-43.0","5d38f983242a6f000156bbc1","64e50bb40e1045717e5ed59c","","","","","7850",""," ","key"," ","16.666061702127656","500","250","inst","","","","","","",""
"","psychophysics","44","658841","0.0-44.0","5d38f983242a6f000156bbc1","64e50bb40e1045717e5ed59c","","","","","7336",""," ","key"," ","16.66572209567193","500","250","pz","91","1","0","","","36","38"
"","psychophysics","45","665335","0.0-45.0","5d38f983242a6f000156bbc1","64e50bb40e1045717e5ed59c","","","","","6488",""," ","key"," ","16.665925449871274","500","250","pz","106","1","0","","","43","47"
"","psychophysics","46","667086","0.0-46.0","5d38f983242a6f000156bbc1","64e50bb40e1045717e5ed59c","","","","","1748",""," ","key"," ","16.663740384615195","500","250","pz","58","1","0","","","58","31"
"","psychophysics","47","670283","0.0-47.0","5d38f983242a6f000156bbc1","64e50bb40e1045717e5ed59c","","","","","3194",""," ","key"," ","16.665863874345817","500","250","pz","56","1","0","","","43","29"
"","psychophysics","48","672892","0.0-48.0","5d38f983242a6f000156bbc1","64e50bb40e1045717e5ed59c","","","","","2605",""," ","key"," ","16.666200000000366","500","250","pz","74","1","0","","","37","39"
"","psychophysics","49","678735","0.0-49.0","5d38f983242a6f000156bbc1","64e50bb40e1045717e5ed59c","","","","","5838",""," ","key"," ","16.66638000000002","500","250","pz","96","1","0","","","34","44"
"","psychophysics","50","683172","0.0-50.0","5d38f983242a6f000156bbc1","64e50bb40e1045717e5ed59c","","","","","4434",""," ","key"," ","16.666154716981417","500","250","pz","110","1","0","","","57","49"
"","psychophysics","51","687969","0.0-51.0","5d38f983242a6f000156bbc1","64e50bb40e1045717e5ed59c","","","","","4791",""," ","key"," ","16.666257839721307","500","250","pz","116","1","0","","","54","50"
"","psychophysics","52","691267","0.0-52.0","5d38f983242a6f000156bbc1","64e50bb40e1045717e5ed59c","","","","","3295",""," ","key"," ","16.666390862944652","500","250","pz","56","1","0","","","54","24"
"","psychophysics","53","698032","0.0-53.0","5d38f983242a6f000156bbc1","64e50bb40e1045717e5ed59c","","","","","6763",""," ","key"," ","16.666155555555424","500","250","pz","130","1","0","","","55","55"
"","psychophysics","54","702987","0.0-54.0","5d38f983242a6f000156bbc1","64e50bb40e1045717e5ed59c","","","","","4952",""," ","key"," ","16.665966216216376","500","250","pz","70","1","0","","","51","39"
"","psychophysics","55","708448","0.0-55.0","5d38f983242a6f000156bbc1","64e50bb40e1045717e5ed59c","","","","","5458",""," ","key"," ","16.665764525993755","500","250","pz","95","1","0","","","43","45"
"","psychophysics","56","713402","0.0-56.0","5d38f983242a6f000156bbc1","64e50bb40e1045717e5ed59c","","","","","4950",""," ","key"," ","16.66565202702721","500","250","pz","112","1","0","","","33","52"
"","psychophysics","57","718542","0.0-57.0","5d38f983242a6f000156bbc1","64e50bb40e1045717e5ed59c","","","","","5136",""," ","key"," ","16.665928338762033","500","250","pz","71","1","0","","","40","33"
"","psychophysics","58","725567","0.0-58.0","5d38f983242a6f000156bbc1","64e50bb40e1045717e5ed59c","","","","","7020",""," ","key"," ","16.666372921615075","500","250","pz","118","1","0","","","56","48"
"","psychophysics","59","727895","0.0-59.0","5d38f983242a6f000156bbc1","64e50bb40e1045717e5ed59c","","","","","2326",""," ","key"," ","16.667028776978867","500","250","inst","","","","","","",""
"","psychophysics","60","748009","0.0-60.0","5d38f983242a6f000156bbc1","64e50bb40e1045717e5ed59c","","","","","20111",""," ","key"," ","16.66568739635159","500","250","instPog0","340","2","","0","0","370","340"
"","psychophysics","61","772146","0.0-61.0","5d38f983242a6f000156bbc1","64e50bb40e1045717e5ed59c","","","","","24135",""," ","key"," ","16.666010366275014","500","250","instPog1","346","2","","0","0","370","340"
"","psychophysics","62","782521","0.0-62.0","5d38f983242a6f000156bbc1","64e50bb40e1045717e5ed59c","","","","","10373",""," ","key"," ","16.666156199677875","500","250","instPog2","338","2","","0","0","340","340"
"","psychophysics","63","784273","0.0-63.0","5d38f983242a6f000156bbc1","64e50bb40e1045717e5ed59c","","","","","1748",""," ","key"," ","16.666380952380685","500","250","inst","","","","","","",""
"","psychophysics","64","788382","0.0-64.0","5d38f983242a6f000156bbc1","64e50bb40e1045717e5ed59c","","","","","4105",""," ","key"," ","16.66595102040791","500","250","pog","310","2","0","0","0","388","312"
"","psychophysics","65","790933","0.0-65.0","5d38f983242a6f000156bbc1","64e50bb40e1045717e5ed59c","","","","","2549",""," ","key"," ","16.666493421052827","500","250","pog","342","2","0","0","0","398","360"
"","psychophysics","66","793125","0.0-66.0","5d38f983242a6f000156bbc1","64e50bb40e1045717e5ed59c","","","","","2189",""," ","key"," ","16.667068702289622","500","250","pog","338","2","0","0","0","316","355"
"","psychophysics","67","795089","0.0-67.0","5d38f983242a6f000156bbc1","64e50bb40e1045717e5ed59c","","","","","1961",""," ","key"," ","16.665401709401326","500","250","pog","329","2","0","0","0","309","349"
"","psychophysics","68","796127","0.0-68.0","5d38f983242a6f000156bbc1","64e50bb40e1045717e5ed59c","","","","","1035",""," ","key"," ","16.6649016393444","500","250","pog","351","2","0","0","0","351","367"
"","psychophysics","69","800085","0.0-69.0","5d38f983242a6f000156bbc1","64e50bb40e1045717e5ed59c","","","","","3956",""," ","key"," ","16.66528813559335","500","250","pog","365","2","0","0","0","333","363"
"","psychophysics","70","804429","0.0-70.0","5d38f983242a6f000156bbc1","64e50bb40e1045717e5ed59c","","","","","4339",""," ","key"," ","16.666480769230894","500","250","pog","369","2","0","0","0","297","378"
"","psychophysics","71","808615","0.0-71.0","5d38f983242a6f000156bbc1","64e50bb40e1045717e5ed59c","","","","","4184",""," ","key"," ","16.666608000000007","500","250","pog","332","2","0","0","0","340","342"
"","psychophysics","72","810944","0.0-72.0","5d38f983242a6f000156bbc1","64e50bb40e1045717e5ed59c","","","","","2326",""," ","key"," ","16.66705035971203","500","250","pog","355","2","0","0","0","337","370"
"","psychophysics","73","813259","0.0-73.0","5d38f983242a6f000156bbc1","64e50bb40e1045717e5ed59c","","","","","2312",""," ","key"," ","16.664956521738887","500","250","pog","309","2","0","0","0","333","325"
"","psychophysics","74","817226","0.0-74.0","5d38f983242a6f000156bbc1","64e50bb40e1045717e5ed59c","","","","","3965",""," ","key"," ","16.665654008438857","500","250","pog","310","2","0","0","0","298","323"
"","psychophysics","75","820861","0.0-75.0","5d38f983242a6f000156bbc1","64e50bb40e1045717e5ed59c","","","","","3632",""," ","key"," ","16.665599078340733","500","250","pog","361","2","0","0","0","289","370"
"","psychophysics","76","822788","0.0-76.0","5d38f983242a6f000156bbc1","64e50bb40e1045717e5ed59c","","","","","1924",""," ","key"," ","16.667043478260545","500","250","pog","284","2","0","0","0","284","308"
"","psychophysics","77","826288","0.0-77.0","5d38f983242a6f000156bbc1","64e50bb40e1045717e5ed59c","","","","","3498",""," ","key"," ","16.666464114832383","500","250","pog","342","2","0","0","0","342","352"
"","psychophysics","78","833888","0.0-78.0","5d38f983242a6f000156bbc1","64e50bb40e1045717e5ed59c","","","","","7597",""," ","key"," ","16.666074725274754","500","250","pog","296","2","0","0","0","284","309"
"","psychophysics","79","845391","0.0-79.0","5d38f983242a6f000156bbc1","64e50bb40e1045717e5ed59c","","","","","11501",""," ","key"," ","16.665648766327987","500","250","inst","","","","","","",""
"","psychophysics","80","850920","0.0-80.0","5d38f983242a6f000156bbc1","64e50bb40e1045717e5ed59c","","","","","5527",""," ","key"," ","16.666105740181354","500","250","instEB0","39","2","","0","0","40","40"
"","psychophysics","81","853954","0.0-81.0","5d38f983242a6f000156bbc1","64e50bb40e1045717e5ed59c","","","","","3031",""," ","key"," ","16.665994475138355","500","250","instEB1","40","2","","0","0","30","40"
"","psychophysics","82","859745","0.0-82.0","5d38f983242a6f000156bbc1","64e50bb40e1045717e5ed59c","","","","","5772",""," ","key"," ","16.666213872832397","500","250","instEB2","37","2","","0","0","40","30"
"","psychophysics","83","894729","0.0-83.0","5d38f983242a6f000156bbc1","64e50bb40e1045717e5ed59c","","","","","34981",""," ","key"," ","16.66585271687317","500","250","instEB3","33","2","","0","0","45","27"
"","psychophysics","84","899754","0.0-84.0","5d38f983242a6f000156bbc1","64e50bb40e1045717e5ed59c","","","","","5023",""," ","key"," ","16.666126245847035","500","250","instEB4","55","2","","0","0","30","40"
"","psychophysics","85","900603","0.0-85.0","5d38f983242a6f000156bbc1","64e50bb40e1045717e5ed59c","","","","","846",""," ","key"," ","16.66591999999946","500","250","inst","","","","","","",""
"","psychophysics","86","903828","0.0-86.0","5d38f983242a6f000156bbc1","64e50bb40e1045717e5ed59c","","","","","3222",""," ","key"," ","16.666046874999665","500","250","eb","50","2","","0","0","25","33"
"","psychophysics","87","906996","0.0-87.0","5d38f983242a6f000156bbc1","64e50bb40e1045717e5ed59c","","","","","3166",""," ","key"," ","16.663634920635054","500","250","eb","52","2","","0","0","25","40"
"","psychophysics","88","910498","0.0-88.0","5d38f983242a6f000156bbc1","64e50bb40e1045717e5ed59c","","","","","3496",""," ","key"," ","16.665842105262985","500","250","eb","38","2","","0","0","46","29"
"","psychophysics","89","912550","0.0-89.0","5d38f983242a6f000156bbc1","64e50bb40e1045717e5ed59c","","","","","2048",""," ","key"," ","16.66582926829266","500","250","eb","56","2","","0","0","43","41"
"","psychophysics","90","916497","0.0-90.0","5d38f983242a6f000156bbc1","64e50bb40e1045717e5ed59c","","","","","3943",""," ","key"," ","16.665425531914895","500","250","eb","43","2","","0","0","40","34"
"","psychophysics","91","921354","0.0-91.0","5d38f983242a6f000156bbc1","64e50bb40e1045717e5ed59c","","","","","4851",""," ","key"," ","16.66592439862538","500","250","eb","52","2","","0","0","25","39"
"","psychophysics","92","923584","0.0-92.0","5d38f983242a6f000156bbc1","64e50bb40e1045717e5ed59c","","","","","2227",""," ","key"," ","16.6677819548868","500","250","eb","57","2","","0","0","37","37"
"","psychophysics","93","928517","0.0-93.0","5d38f983242a6f000156bbc1","64e50bb40e1045717e5ed59c","","","","","4930",""," ","key"," ","16.66596949152546","500","250","eb","68","2","","0","0","30","54"
"","psychophysics","94","931894","0.0-94.0","5d38f983242a6f000156bbc1","64e50bb40e1045717e5ed59c","","","","","3374",""," ","key"," ","16.665159203980316","500","250","eb","67","2","","0","0","37","54"
"","psychophysics","95","933608","0.0-95.0","5d38f983242a6f000156bbc1","64e50bb40e1045717e5ed59c","","","","","1708",""," ","key"," ","16.66644117647015","500","250","eb","46","2","","0","0","45","37"
"","psychophysics","96","938230","0.0-96.0","5d38f983242a6f000156bbc1","64e50bb40e1045717e5ed59c","","","","","4619",""," ","key"," ","16.665851449275447","500","250","eb","60","2","","0","0","30","47"
"","psychophysics","97","941363","0.0-97.0","5d38f983242a6f000156bbc1","64e50bb40e1045717e5ed59c","","","","","3128",""," ","key"," ","16.665754010694794","500","250","eb","61","2","","0","0","42","49"
"","psychophysics","98","944254","0.0-98.0","5d38f983242a6f000156bbc1","64e50bb40e1045717e5ed59c","","","","","2885",""," ","key"," ","16.6654855491327","500","250","eb","59","2","","0","0","27","48"
"","psychophysics","99","946962","0.0-99.0","5d38f983242a6f000156bbc1","64e50bb40e1045717e5ed59c","","","","","2706",""," ","key"," ","16.66532298136627","500","250","eb","65","2","","0","0","26","52"
"","psychophysics","100","950326","0.0-100.0","5d38f983242a6f000156bbc1","64e50bb40e1045717e5ed59c","","","","","3359",""," ","key"," ","16.666079601989967","500","250","eb","50","2","","0","0","25","34"
"","psychophysics","101","951099","0.0-101.0","5d38f983242a6f000156bbc1","64e50bb40e1045717e5ed59c","","","","","770",""," ","key"," ","16.664456521740448","500","250","inst","","","","","","",""
"","psychophysics","102","954567","0.0-102.0","5d38f983242a6f000156bbc1","64e50bb40e1045717e5ed59c","","","","","3465",""," ","key"," ","16.66588405797096","500","250","instZol0","0","","","0","0","0",""
"","psychophysics","103","985343","0.0-103.0","5d38f983242a6f000156bbc1","64e50bb40e1045717e5ed59c","","","","","30773",""," ","key"," ","16.665860704607066","500","250","instZol1","-2.7755575615628914e-17","","","0","0","-1.3",""
"","psychophysics","104","1003467","0.0-104.0","5d38f983242a6f000156bbc1","64e50bb40e1045717e5ed59c","","","","","18118",""," ","key"," ","16.66614535418581","500","250","instZol2","-1.3999999999999995","2","","0","0","2",""
"","psychophysics","105","1004794","0.0-105.0","5d38f983242a6f000156bbc1","64e50bb40e1045717e5ed59c","","","","","1325",""," ","key"," ","16.663384615383947","500","250","inst","","","","","","",""
"","psychophysics","106","1009636","0.0-106.0","5d38f983242a6f000156bbc1","64e50bb40e1045717e5ed59c","","","","","4836",""," ","key"," ","16.666155172413987","500","250","zol","-0.7799999999999998","2","0","21","7","0.18",""
"","psychophysics","107","1015798","0.0-107.0","5d38f983242a6f000156bbc1","64e50bb40e1045717e5ed59c","","","","","6157",""," ","key"," ","16.666075880758825","500","250","zol","-1.7600000000000005","2","0","17","-26","-0.04",""
"","psychophysics","108","1022096","0.0-108.0","5d38f983242a6f000156bbc1","64e50bb40e1045717e5ed59c","","","","","6294",""," ","key"," ","16.666021220159372","500","250","zol","-1.9700000000000009","2","0","27","13","-0.43",""
"","psychophysics","109","1027361","0.0-109.0","5d38f983242a6f000156bbc1","64e50bb40e1045717e5ed59c","","","","","5262",""," ","key"," ","16.665911111111072","500","250","zol","-2.8500000000000014","2","0","-3","30","-0.35",""
"","psychophysics","110","1029742","0.0-110.0","5d38f983242a6f000156bbc1","64e50bb40e1045717e5ed59c","","","","","2376",""," ","key"," ","16.6658014184399","500","250","zol","-1.7800000000000005","2","0","21","0","-0.12",""
"","psychophysics","111","1032596","0.0-111.0","5d38f983242a6f000156bbc1","64e50bb40e1045717e5ed59c","","","","","2846",""," ","key"," ","16.667198830409443","500","250","zol","-2.1100000000000008","2","0","24","-15","-0.59",""
"","psychophysics","112","1037377","0.0-112.0","5d38f983242a6f000156bbc1","64e50bb40e1045717e5ed59c","","","","","4778",""," ","key"," ","16.66543006992995","500","250","zol","-1.25","2","0","-24","8","-0.25",""
"","psychophysics","113","1042260","0.0-113.0","5d38f983242a6f000156bbc1","64e50bb40e1045717e5ed59c","","","","","4879",""," ","key"," ","16.666092465753263","500","250","zol","-2.250000000000001","2","0","-2","3","0.05",""
"","psychophysics","114","1045202","0.0-114.0","5d38f983242a6f000156bbc1","64e50bb40e1045717e5ed59c","","","","","2937",""," ","key"," ","16.665959999999696","500","250","zol","-1.9900000000000007","2","0","14","21","-0.21",""
"","psychophysics","115","1047083","0.0-115.0","5d38f983242a6f000156bbc1","64e50bb40e1045717e5ed59c","","","","","1877",""," ","key"," ","16.66490178571465","500","250","zol","-1.8400000000000007","2","0","-28","23","0.44",""
"","psychophysics","116","1052317","0.0-116.0","5d38f983242a6f000156bbc1","64e50bb40e1045717e5ed59c","","","","","5230",""," ","key"," ","16.66516613418507","500","250","zol","-0.8699999999999999","2","0","25","17","-0.73",""
"","psychophysics","117","1054172","0.0-117.0","5d38f983242a6f000156bbc1","64e50bb40e1045717e5ed59c","","","","","1851",""," ","key"," ","16.666563636362977","500","250","zol","-2.0100000000000007","2","0","-6","0","0.01",""
"","psychophysics","118","1056933","0.0-118.0","5d38f983242a6f000156bbc1","64e50bb40e1045717e5ed59c","","","","","2754",""," ","key"," ","16.66618787878701","500","250","zol","-2.3600000000000008","2","0","-10","-14","-0.14",""
"","psychophysics","119","1058993","0.0-119.0","5d38f983242a6f000156bbc1","64e50bb40e1045717e5ed59c","","","","","2055",""," ","key"," ","16.66663414634181","500","250","zol","-1.2200000000000002","2","0","-28","18","0.02",""
"","psychophysics","120","1063626","0.0-120.0","5d38f983242a6f000156bbc1","64e50bb40e1045717e5ed59c","","","","","4628",""," ","key"," ","16.66597111913416","500","250","zol","-1.8300000000000007","2","0","8","-8","-0.27",""
"","psychophysics","121","1082580","0.0-121.0","5d38f983242a6f000156bbc1","64e50bb40e1045717e5ed59c","","","","","18952",""," ","key"," ","16.665731514084463","500","250","inst","","","","","","",""
"","psychophysics","122","1085829","0.0-122.0","5d38f983242a6f000156bbc1","64e50bb40e1045717e5ed59c","","","","","3246",""," ","key"," ","16.665458762887432","500","250","instBr3","9","2","","0","0","40","300"
"","psychophysics","123","1088071","0.0-123.0","5d38f983242a6f000156bbc1","64e50bb40e1045717e5ed59c","","","","","2240",""," ","key"," ","16.665586466163997","500","250","inst","","","","","","",""
"","psychophysics","124","1091125","0.0-124.0","5d38f983242a6f000156bbc1","64e50bb40e1045717e5ed59c","","","","","3048",""," ","key"," ","16.6657650273222","500","250","br","15","2","1","20","-19","-12","256"
"","psychophysics","125","1092440","0.0-125.0","5d38f983242a6f000156bbc1","64e50bb40e1045717e5ed59c","","","","","1311",""," ","key"," ","16.664701298701686","500","250","br","18","2","1","10","24","18","300"
"","psychophysics","126","1095408","0.0-126.0","5d38f983242a6f000156bbc1","64e50bb40e1045717e5ed59c","","","","","2964",""," ","key"," ","16.665943820224395","500","250","br","16","2","1","10","26","-5","281"
"","psychophysics","127","1096838","0.0-127.0","5d38f983242a6f000156bbc1","64e50bb40e1045717e5ed59c","","","","","1427",""," ","key"," ","16.665678571430146","500","250","br","25","2","1","13","20","14","214"
"","psychophysics","128","1100155","0.0-128.0","5d38f983242a6f000156bbc1","64e50bb40e1045717e5ed59c","","","","","3312",""," ","key"," ","16.6667323232325","500","250","br","18","2","1","-30","1","30","204"
"","psychophysics","129","1103286","0.0-129.0","5d38f983242a6f000156bbc1","64e50bb40e1045717e5ed59c","","","","","3126",""," ","key"," ","16.666395721924715","500","250","br","17","2","1","-27","-9","-28","238"
"","psychophysics","130","1105932","0.0-130.0","5d38f983242a6f000156bbc1","64e50bb40e1045717e5ed59c","","","","","2641",""," ","key"," ","16.665727848101618","500","250","br","16","2","1","-28","-1","-29","225"
"","psychophysics","131","1107708","0.0-131.0","5d38f983242a6f000156bbc1","64e50bb40e1045717e5ed59c","","","","","1774",""," ","key"," ","16.665396226416256","500","250","br","18","2","1","-9","10","8","200"
"","psychophysics","132","1110165","0.0-132.0","5d38f983242a6f000156bbc1","64e50bb40e1045717e5ed59c","","","","","2454",""," ","key"," ","16.66646575342468","500","250","br","15","2","1","-12","27","-18","201"
"","psychophysics","133","1112929","0.0-133.0","5d38f983242a6f000156bbc1","64e50bb40e1045717e5ed59c","","","","","2760",""," ","key"," ","16.666218181818046","500","250","br","20","2","1","-10","0","-22","295"
"","psychophysics","134","1114844","0.0-134.0","5d38f983242a6f000156bbc1","64e50bb40e1045717e5ed59c","","","","","1911",""," ","key"," ","16.666298245612875","500","250","br","18","2","1","17","-11","10","265"
"","psychophysics","135","1119944","0.0-135.0","5d38f983242a6f000156bbc1","64e50bb40e1045717e5ed59c","","","","","5098",""," ","key"," ","16.66642622950823","500","250","br","9","2","1","-14","-9","-27","215"
"","psychophysics","136","1122790","0.0-136.0","5d38f983242a6f000156bbc1","64e50bb40e1045717e5ed59c","","","","","2843",""," ","key"," ","16.666788235293044","500","250","br","14","2","1","22","13","-12","279"
"","psychophysics","137","1128023","0.0-137.0","5d38f983242a6f000156bbc1","64e50bb40e1045717e5ed59c","","","","","5230",""," ","key"," ","16.666361022364207","500","250","br","21","2","1","-20","4","-9","200"
"","psychophysics","138","1133741","0.0-138.0","5d38f983242a6f000156bbc1","64e50bb40e1045717e5ed59c","","","","","5713",""," ","key"," ","16.66589766081861","500","250","br","18","2","1","-29","-25","6","242"
"","psychophysics","139","1143424","0.0-139.0","5d38f983242a6f000156bbc1","64e50bb40e1045717e5ed59c","","","","","9682",""," ","key"," ","16.666182758620987","500","250","inst","","","","","","",""
"","psychophysics","140","1201817","0.0-140.0","5d38f983242a6f000156bbc1","64e50bb40e1045717e5ed59c","","","","","58390",""," ","key"," ","16.66586721873211","500","250","instPz1","46","2","","","","25","50"
"","psychophysics","141","1204912","0.0-141.0","5d38f983242a6f000156bbc1","64e50bb40e1045717e5ed59c","","","","","3091",""," ","key"," ","16.666216216216217","500","250","instPz2","33","2","","","","20","35"
"","psychophysics","142","1212462","0.0-142.0","5d38f983242a6f000156bbc1","64e50bb40e1045717e5ed59c","","","","","7547",""," ","key"," ","16.666092920354032","500","250","instPz3","60","2","","","","30","100"
"","psychophysics","143","1215748","0.0-143.0","5d38f983242a6f000156bbc1","64e50bb40e1045717e5ed59c","","","","","3282",""," ","key"," ","16.665795918366378","500","250","instPz4","54","2","","","","30","100"
"","psychophysics","144","1393164","0.0-144.0","5d38f983242a6f000156bbc1","64e50bb40e1045717e5ed59c","","","","","177411",""," ","key"," ","16.66587853452325","500","250","inst","","","","","","",""
"","psychophysics","145","1398977","0.0-145.0","5d38f983242a6f000156bbc1","64e50bb40e1045717e5ed59c","","","","","5809",""," ","key"," ","16.665560344827558","500","250","pz","14","2","1","","","58","20"
"","psychophysics","146","1404195","0.0-146.0","5d38f983242a6f000156bbc1","64e50bb40e1045717e5ed59c","","","","","5214",""," ","key"," ","16.666608974359217","500","250","pz","13","2","1","","","41","23"
"","psychophysics","147","1409661","0.0-147.0","5d38f983242a6f000156bbc1","64e50bb40e1045717e5ed59c","","","","","5463",""," ","key"," ","16.666051987767936","500","250","pz","19","2","1","","","23","26"
"","psychophysics","148","1416663","0.0-148.0","5d38f983242a6f000156bbc1","64e50bb40e1045717e5ed59c","","","","","6998",""," ","key"," ","16.665926014319915","500","250","pz","27","2","1","","","22","50"
"","psychophysics","149","1422703","0.0-149.0","5d38f983242a6f000156bbc1","64e50bb40e1045717e5ed59c","","","","","6038",""," ","key"," ","16.66609141274247","500","250","pz","25","2","1","","","42","47"
"","psychophysics","150","1426497","0.0-150.0","5d38f983242a6f000156bbc1","64e50bb40e1045717e5ed59c","","","","","3787",""," ","key"," ","16.666475770925274","500","250","pz","25","2","1","","","32","47"
"","psychophysics","151","1433532","0.0-151.0","5d38f983242a6f000156bbc1","64e50bb40e1045717e5ed59c","","","","","7033",""," ","key"," ","16.66582422802886","500","250","pz","20","2","1","","","26","36"
"","psychophysics","152","1439018","0.0-152.0","5d38f983242a6f000156bbc1","64e50bb40e1045717e5ed59c","","","","","5482",""," ","key"," ","16.665731707317384","500","250","pz","23","2","1","","","32","40"
"","psychophysics","153","1442112","0.0-153.0","5d38f983242a6f000156bbc1","64e50bb40e1045717e5ed59c","","","","","3091",""," ","key"," ","16.665259459459953","500","250","pz","20","2","1","","","35","30"
"","psychophysics","154","1445602","0.0-154.0","5d38f983242a6f000156bbc1","64e50bb40e1045717e5ed59c","","","","","3486",""," ","key"," ","16.66559615384568","500","250","pz","26","2","1","","","47","55"
"","psychophysics","155","1453606","0.0-155.0","5d38f983242a6f000156bbc1","64e50bb40e1045717e5ed59c","","","","","null","","null","key","null","16.665810020876727","500","250","pz","28","2","1","","","33","55"
"","psychophysics","156","1456430","0.0-156.0","5d38f983242a6f000156bbc1","64e50bb40e1045717e5ed59c","","","","","2821",""," ","key"," ","16.666479289940884","500","250","pz","14","2","1","","","22","21"
"","psychophysics","157","1458492","0.0-157.0","5d38f983242a6f000156bbc1","64e50bb40e1045717e5ed59c","","","","","2060",""," ","key"," ","16.66619512195154","500","250","pz","21","2","1","","","24","45"
"","psychophysics","158","1463029","0.0-158.0","5d38f983242a6f000156bbc1","64e50bb40e1045717e5ed59c","","","","","4534",""," ","key"," ","16.66475276752784","500","250","pz","23","2","1","","","34","53"
"","psychophysics","159","1465674","0.0-159.0","5d38f983242a6f000156bbc1","64e50bb40e1045717e5ed59c","","","","","2642",""," ","key"," ","16.66667088607615","500","250","pz","26","2","1","","","21","42"
"","psychophysics","160","1475533","0.0-160.0","5d38f983242a6f000156bbc1","64e50bb40e1045717e5ed59c","","","","","9857",""," ","key"," ","16.66582711864405","500","250","inst","","","","","","",""
"","psychophysics","161","1488091","0.0-161.0","5d38f983242a6f000156bbc1","64e50bb40e1045717e5ed59c","","","","","12555",""," ","key"," ","16.66600929614859","500","250","instPog0","160","1","","0","0","190","160"
"","psychophysics","162","1490922","0.0-162.0","5d38f983242a6f000156bbc1","64e50bb40e1045717e5ed59c","","","","","2829",""," ","key"," ","16.666467455620793","500","250","instPog1","168","1","","0","0","190","160"
"","psychophysics","163","1493224","0.0-163.0","5d38f983242a6f000156bbc1","64e50bb40e1045717e5ed59c","","","","","2299",""," ","key"," ","16.666328467153367","500","250","instPog2","174","1","","0","0","160","160"
"","psychophysics","164","1496838","0.0-164.0","5d38f983242a6f000156bbc1","64e50bb40e1045717e5ed59c","","","","","3611",""," ","key"," ","16.666353488371296","500","250","inst","","","","","","",""
"","psychophysics","165","1499524","0.0-165.0","5d38f983242a6f000156bbc1","64e50bb40e1045717e5ed59c","","","","","2683",""," ","key"," ","16.666670807453613","500","250","pog","210","1","1","0","0","184","200"
"","psychophysics","166","1504727","0.0-166.0","5d38f983242a6f000156bbc1","64e50bb40e1045717e5ed59c","","","","","5201",""," ","key"," ","16.665926045015713","500","250","pog","143","1","1","0","0","183","125"
"","psychophysics","167","1511899","0.0-167.0","5d38f983242a6f000156bbc1","64e50bb40e1045717e5ed59c","","","","","7169",""," ","key"," ","16.66587179487176","500","250","pog","189","1","1","0","0","105","172"
"","psychophysics","168","1516243","0.0-168.0","5d38f983242a6f000156bbc1","64e50bb40e1045717e5ed59c","","","","","4341",""," ","key"," ","16.6656153846156","500","250","pog","140","1","1","0","0","100","122"
"","psychophysics","169","1521182","0.0-169.0","5d38f983242a6f000156bbc1","64e50bb40e1045717e5ed59c","","","","","4937",""," ","key"," ","16.66621016949115","500","250","pog","177","1","1","0","0","157","152"
"","psychophysics","170","1526873","0.0-170.0","5d38f983242a6f000156bbc1","64e50bb40e1045717e5ed59c","","","","","5685",""," ","key"," ","16.66625513196472","500","250","pog","165","1","1","0","0","109","157"
"","psychophysics","171","1533824","0.0-171.0","5d38f983242a6f000156bbc1","64e50bb40e1045717e5ed59c","","","","","6948",""," ","key"," ","16.665341346154143","500","250","pog","179","1","1","0","0","141","165"
"","psychophysics","172","1537700","0.0-172.0","5d38f983242a6f000156bbc1","64e50bb40e1045717e5ed59c","","","","","3872",""," ","key"," ","16.666515151514506","500","250","pog","184","1","1","0","0","200","171"
"","psychophysics","173","1544990","0.0-173.0","5d38f983242a6f000156bbc1","64e50bb40e1045717e5ed59c","","","","","7285",""," ","key"," ","16.66602517162488","500","250","pog","146","1","1","0","0","192","133"
"","psychophysics","174","1547005","0.0-174.0","5d38f983242a6f000156bbc1","64e50bb40e1045717e5ed59c","","","","","2013",""," ","key"," ","16.665500000000854","500","250","pog","163","1","1","0","0","181","145"
"","psychophysics","175","1550186","0.0-175.0","5d38f983242a6f000156bbc1","64e50bb40e1045717e5ed59c","","","","","3180",""," ","key"," ","16.665668421052395","500","250","pog","206","1","1","0","0","152","188"
"","psychophysics","176","1552982","0.0-176.0","5d38f983242a6f000156bbc1","64e50bb40e1045717e5ed59c","","","","","2794",""," ","key"," ","16.665656626505037","500","250","pog","142","1","1","0","0","112","120"
"","psychophysics","177","1555840","0.0-177.0","5d38f983242a6f000156bbc1","64e50bb40e1045717e5ed59c","","","","","2853",""," ","key"," ","16.666274853802303","500","250","pog","150","1","1","0","0","126","134"
"","psychophysics","178","1556778","0.0-178.0","5d38f983242a6f000156bbc1","64e50bb40e1045717e5ed59c","","","","","936",""," ","key"," ","16.66245454545556","500","250","pog","214","1","1","0","0","214","189"
"","psychophysics","179","1560189","0.0-179.0","5d38f983242a6f000156bbc1","64e50bb40e1045717e5ed59c","","","","","3409",""," ","key"," ","16.665632352940555","500","250","pog","167","1","1","0","0","113","148"
"","psychophysics","180","1560968","0.0-180.0","5d38f983242a6f000156bbc1","64e50bb40e1045717e5ed59c","","","","","777",""," ","key"," ","16.665869565220024","500","250","inst","","","","","","",""
"","psychophysics","181","1564513","0.0-181.0","5d38f983242a6f000156bbc1","64e50bb40e1045717e5ed59c","","","","","3543",""," ","key"," ","16.666511848340498","500","250","instEB1","33","1","","0","0","40","30"
"","psychophysics","182","1567504","0.0-182.0","5d38f983242a6f000156bbc1","64e50bb40e1045717e5ed59c","","","","","2986",""," ","key"," ","16.666335195530593","500","250","instEB2","40","1","","0","0","30","40"
"","psychophysics","183","1569697","0.0-183.0","5d38f983242a6f000156bbc1","64e50bb40e1045717e5ed59c","","","","","2190",""," ","key"," ","16.66611538461517","500","250","instEB3","40","1","","0","0","27","45"
"","psychophysics","184","1572930","0.0-184.0","5d38f983242a6f000156bbc1","64e50bb40e1045717e5ed59c","","","","","3228",""," ","key"," ","16.666145077720767","500","250","instEB4","28","1","","0","0","40","30"
"","psychophysics","185","1575912","0.0-185.0","5d38f983242a6f000156bbc1","64e50bb40e1045717e5ed59c","","","","","2977",""," ","key"," ","16.666337078651726","500","250","inst","","","","","","",""
"","psychophysics","186","1577999","0.0-186.0","5d38f983242a6f000156bbc1","64e50bb40e1045717e5ed59c","","","","","2080",""," ","key"," ","16.665911290323315","500","250","eb","32","1","","0","0","41","44"
"","psychophysics","187","1579554","0.0-187.0","5d38f983242a6f000156bbc1","64e50bb40e1045717e5ed59c","","","","","1549",""," ","key"," ","16.66662365591444","500","250","eb","45","1","","0","0","44","52"
"","psychophysics","188","1581412","0.0-188.0","5d38f983242a6f000156bbc1","64e50bb40e1045717e5ed59c","","","","","1856",""," ","key"," ","16.667663636363365","500","250","eb","30","1","","0","0","40","37"
"","psychophysics","189","1584396","0.0-189.0","5d38f983242a6f000156bbc1","64e50bb40e1045717e5ed59c","","","","","2980",""," ","key"," ","16.66671910112347","500","250","eb","32","1","","0","0","48","31"
"","psychophysics","190","1587012","0.0-190.0","5d38f983242a6f000156bbc1","64e50bb40e1045717e5ed59c","","","","","2610",""," ","key"," ","16.665846153845987","500","250","eb","24","1","","0","0","31","26"
"","psychophysics","191","1589671","0.0-191.0","5d38f983242a6f000156bbc1","64e50bb40e1045717e5ed59c","","","","","2657",""," ","key"," ","16.665628930817377","500","250","eb","34","1","","0","0","53","41"
"","psychophysics","192","1591217","0.0-192.0","5d38f983242a6f000156bbc1","64e50bb40e1045717e5ed59c","","","","","1543",""," ","key"," ","16.665652173912942","500","250","eb","38","1","","0","0","53","49"
"","psychophysics","193","1592761","0.0-193.0","5d38f983242a6f000156bbc1","64e50bb40e1045717e5ed59c","","","","","1540",""," ","key"," ","16.665670329669062","500","250","eb","23","1","","0","0","41","26"
"","psychophysics","194","1594683","0.0-194.0","5d38f983242a6f000156bbc1","64e50bb40e1045717e5ed59c","","","","","1919",""," ","key"," ","16.66729824561544","500","250","eb","26","1","","0","0","42","35"
"","psychophysics","195","1598150","0.0-195.0","5d38f983242a6f000156bbc1","64e50bb40e1045717e5ed59c","","","","","3463",""," ","key"," ","16.665298076922998","500","250","eb","26","1","","0","0","52","27"
"","psychophysics","196","1601201","0.0-196.0","5d38f983242a6f000156bbc1","64e50bb40e1045717e5ed59c","","","","","3047",""," ","key"," ","16.665928571428694","500","250","eb","29","1","","0","0","34","29"
"","psychophysics","197","1604479","0.0-197.0","5d38f983242a6f000156bbc1","64e50bb40e1045717e5ed59c","","","","","3275",""," ","key"," ","16.665687179486625","500","250","eb","29","1","","0","0","37","42"
"","psychophysics","198","1606877","0.0-198.0","5d38f983242a6f000156bbc1","64e50bb40e1045717e5ed59c","","","","","2392",""," ","key"," ","16.66639160839157","500","250","eb","31","1","","0","0","47","31"
"","psychophysics","199","1608505","0.0-199.0","5d38f983242a6f000156bbc1","64e50bb40e1045717e5ed59c","","","","","1624",""," ","key"," ","16.665010309278887","500","250","eb","28","1","","0","0","43","42"
"","psychophysics","200","1610024","0.0-200.0","5d38f983242a6f000156bbc1","64e50bb40e1045717e5ed59c","","","","","1516",""," ","key"," ","16.66501111111138","500","250","eb","26","1","","0","0","41","34"
"","psychophysics","201","1620280","0.0-201.0","5d38f983242a6f000156bbc1","64e50bb40e1045717e5ed59c","","","","","10254",""," ","key"," ","16.665944625407377","500","250","inst","","","","","","",""
"","psychophysics","202","1629033","0.0-202.0","5d38f983242a6f000156bbc1","64e50bb40e1045717e5ed59c","","","","","8748",""," ","key"," ","16.666792380952586","500","250","instZol1","0.20000000000000004","","","0","0","-1.3",""
"","psychophysics","203","1636081","0.0-203.0","5d38f983242a6f000156bbc1","64e50bb40e1045717e5ed59c","","","","","7044",""," ","key"," ","16.666220902612945","500","250","instZol2","0.9000000000000006","1","","0","0","2",""
"","psychophysics","204","1636801","0.0-204.0","5d38f983242a6f000156bbc1","64e50bb40e1045717e5ed59c","","","","","716",""," ","key"," ","16.662720930231952","500","250","inst","","","","","","",""
"","psychophysics","205","1639013","0.0-205.0","5d38f983242a6f000156bbc1","64e50bb40e1045717e5ed59c","","","","","2208",""," ","key"," ","16.665549618319986","500","250","zol","1.5800000000000003","1","1","-27","29","0.72",""
"","psychophysics","206","1642167","0.0-206.0","5d38f983242a6f000156bbc1","64e50bb40e1045717e5ed59c","","","","","3148",""," ","key"," ","16.66520105820105","500","250","zol","1.9000000000000004","1","1","-1","20","-0.3",""
"","psychophysics","207","1646948","0.0-207.0","5d38f983242a6f000156bbc1","64e50bb40e1045717e5ed59c","","","","","4777",""," ","key"," ","16.665734265734756","500","250","zol","1.6500000000000004","1","1","-3","-20","-0.65",""
"","psychophysics","208","1649164","0.0-208.0","5d38f983242a6f000156bbc1","64e50bb40e1045717e5ed59c","","","","","2195",""," ","key"," ","16.666572519083942","500","250","zol","1.3100000000000003","1","1","-25","25","0.39",""
"","psychophysics","209","1657168","0.0-209.0","5d38f983242a6f000156bbc1","64e50bb40e1045717e5ed59c","","","","","null","","null","key","null","16.665727083333575","500","250","zol","1.1800000000000002","1","1","-29","-9","0.42",""
"","psychophysics","210","1658189","0.0-210.0","5d38f983242a6f000156bbc1","64e50bb40e1045717e5ed59c","","","","","1018",""," ","key"," ","16.667033333335226","500","250","zol","0.42","1","1","-30","19","-0.42",""
"","psychophysics","211","1663134","0.0-211.0","5d38f983242a6f000156bbc1","64e50bb40e1045717e5ed59c","","","","","4940",""," ","key"," ","16.66677364864862","500","250","zol","1.4800000000000002","1","1","21","-3","0.52",""
"","psychophysics","212","1668299","0.0-212.0","5d38f983242a6f000156bbc1","64e50bb40e1045717e5ed59c","","","","","5161",""," ","key"," ","16.665679611650695","500","250","zol","2.210000000000001","1","1","-22","-8","-0.21",""
"","psychophysics","213","1671582","0.0-213.0","5d38f983242a6f000156bbc1","64e50bb40e1045717e5ed59c","","","","","3279",""," ","key"," ","16.665923469387497","500","250","zol","1.6400000000000001","1","1","-1","8","-0.24",""
"","psychophysics","214","1674925","0.0-214.0","5d38f983242a6f000156bbc1","64e50bb40e1045717e5ed59c","","","","","3338",""," ","key"," ","16.66570351758724","500","250","zol","1.6100000000000005","1","1","19","-4","-0.51",""
"","psychophysics","215","1677157","0.0-215.0","5d38f983242a6f000156bbc1","64e50bb40e1045717e5ed59c","","","","","2226",""," ","key"," ","16.665781954888086","500","250","zol","1.35","1","1","-25","1","0.15",""
"","psychophysics","216","1679390","0.0-216.0","5d38f983242a6f000156bbc1","64e50bb40e1045717e5ed59c","","","","","2230",""," ","key"," ","16.66573684210574","500","250","zol","1.2500000000000002","1","1","29","14","0.35",""
"","psychophysics","217","1681342","0.0-217.0","5d38f983242a6f000156bbc1","64e50bb40e1045717e5ed59c","","","","","1946",""," ","key"," ","16.667051724138155","500","250","zol","1.36","1","1","28","0","0.74",""
"","psychophysics","218","1683288","0.0-218.0","5d38f983242a6f000156bbc1","64e50bb40e1045717e5ed59c","","","","","1940",""," ","key"," ","16.666586206896746","500","250","zol","1.8900000000000006","1","1","21","-30","0.11",""
"","psychophysics","219","1685551","0.0-219.0","5d38f983242a6f000156bbc1","64e50bb40e1045717e5ed59c","","","","","2257",""," ","key"," ","16.666177777776976","500","250","zol","2.1100000000000008","1","1","17","-26","0.29",""
