"success","trial_type","trial_index","time_elapsed","internal_node_id","pid","sid","timeout","failed_images","failed_audio","failed_video","rt","stimulus","response","response_type","key_press","avg_frame_time","center_x","center_y","task","resp","start","parA","version","block","jitterX","jitterY"
"true","fullscreen","0","3939","0.0-0.0","642d878f344f0fb346572fc2","64de7d66a98a70dec9ef43e3","","","","","","","","","","","","","","","","","","","",""
"true","preload","1","4119","0.0-1.0","642d878f344f0fb346572fc2","64de7d66a98a70dec9ef43e3","false","[]","[]","[]","","","","","","","","","","","","","","","",""
"","html-button-response","2","14186","0.0-2.0","642d878f344f0fb346572fc2","64de7d66a98a70dec9ef43e3","","","","","10066","Please Make Sure Your Audio Is On.","0","","","","","","","","","","","","",""
"","psychophysics","3","22070","0.0-3.0","642d878f344f0fb346572fc2","64de7d66a98a70dec9ef43e3","","","","","7876",""," ","key"," ","16.651435517970402","640","250","","","","","","","",""
"","psychophysics","4","29421","0.0-4.0","642d878f344f0fb346572fc2","64de7d66a98a70dec9ef43e3","","","","","7320",""," ","key"," ","16.650902494331064","500","250","inst","","","","","","",""
"","psychophysics","5","37164","0.0-5.0","642d878f344f0fb346572fc2","64de7d66a98a70dec9ef43e3","","","","","7735",""," ","key"," ","16.650943965517243","500","250","sample0","","","","","","",""
"","psychophysics","6","42580","0.0-6.0","642d878f344f0fb346572fc2","64de7d66a98a70dec9ef43e3","","","","","5392",""," ","key"," ","16.651404320987655","500","250","sample1","","","","","","",""
"","psychophysics","7","68002","0.0-7.0","642d878f344f0fb346572fc2","64de7d66a98a70dec9ef43e3","","","","","25392",""," ","key"," ","16.651119266055044","500","250","sample2","102","","","","","",""
"","psychophysics","8","75531","0.0-8.0","642d878f344f0fb346572fc2","64de7d66a98a70dec9ef43e3","","","","","7523",""," ","key"," ","16.65116629711753","500","250","sample3","102","","","","","",""
"","psychophysics","9","84134","0.0-9.0","642d878f344f0fb346572fc2","64de7d66a98a70dec9ef43e3","","","","","8596",""," ","key"," ","16.65102131782945","500","250","sample4","102","","","","","",""
"","psychophysics","10","91610","0.0-10.0","642d878f344f0fb346572fc2","64de7d66a98a70dec9ef43e3","","","","","7469",""," ","key"," ","16.65085714285715","500","250","sample5","","","","","","",""
"","psychophysics","11","100954","0.0-11.0","642d878f344f0fb346572fc2","64de7d66a98a70dec9ef43e3","","","","","9339",""," ","key"," ","16.6507607142857","500","250","sample6","502","","","","","",""
"","psychophysics","12","108296","0.0-12.0","642d878f344f0fb346572fc2","64de7d66a98a70dec9ef43e3","","","","","7335",""," ","key"," ","16.65087045454546","500","250","inst","","","","","","",""
"","psychophysics","13","117387","0.0-13.0","642d878f344f0fb346572fc2","64de7d66a98a70dec9ef43e3","","","","","9087",""," ","key"," ","16.650998165137604","500","250","inst","","","","","","",""
"","psychophysics","14","122332","0.0-14.0","642d878f344f0fb346572fc2","64de7d66a98a70dec9ef43e3","","","","","4941",""," ","key"," ","16.65083783783784","500","250","inst","","","","","","",""
"","psychophysics","15","129343","0.0-15.0","642d878f344f0fb346572fc2","64de7d66a98a70dec9ef43e3","","","","","7006",""," ","key"," ","16.650733333333346","500","250","inst","","","","","","",""
"","psychophysics","16","133197","0.0-16.0","642d878f344f0fb346572fc2","64de7d66a98a70dec9ef43e3","","","","","3850",""," ","key"," ","16.65189565217392","500","250","inst","","","","","","",""
"","psychophysics","17","136925","0.0-17.0","642d878f344f0fb346572fc2","64de7d66a98a70dec9ef43e3","","","","","3716",""," ","key"," ","16.65137219730939","500","250","instPzPre","50","50","50","0","","",""
"","psychophysics","18","148076","0.0-18.0","642d878f344f0fb346572fc2","64de7d66a98a70dec9ef43e3","","","","","11135",""," ","key"," ","16.651209267563505","500","250","instPz0","49","50","50","1","","",""
"","psychophysics","19","159668","0.0-19.0","642d878f344f0fb346572fc2","64de7d66a98a70dec9ef43e3","","","","","11587",""," ","key"," ","16.65086187050358","500","250","instPz1","47","25","50","1","","",""
"","psychophysics","20","166272","0.0-20.0","642d878f344f0fb346572fc2","64de7d66a98a70dec9ef43e3","","","","","6598",""," ","key"," ","16.65118939393943","500","250","instPz2","22","35","20","1","","",""
"","psychophysics","21","179562","0.0-21.0","642d878f344f0fb346572fc2","64de7d66a98a70dec9ef43e3","","","","","13280",""," ","key"," ","16.651279799247185","500","250","instPz3","32","100","30","1","","",""
"","psychophysics","22","190372","0.0-22.0","642d878f344f0fb346572fc2","64de7d66a98a70dec9ef43e3","","","","","10804",""," ","key"," ","16.651097222222255","500","250","instPz4","37","100","30","1","","",""
"","psychophysics","23","198877","0.0-23.0","642d878f344f0fb346572fc2","64de7d66a98a70dec9ef43e3","","","","","8499",""," ","key"," ","16.65119019607841","500","250","inst","","","","","","",""
"","psychophysics","24","204091","0.0-24.0","642d878f344f0fb346572fc2","64de7d66a98a70dec9ef43e3","","","","","5196",""," ","key"," ","16.65201602564104","500","250","pz","71","44","57","1","0","",""
"","psychophysics","25","208502","0.0-25.0","642d878f344f0fb346572fc2","64de7d66a98a70dec9ef43e3","","","","","4405",""," ","key"," ","16.65086363636367","500","250","pz","67","44","56","1","0","",""
"","psychophysics","26","213171","0.0-26.0","642d878f344f0fb346572fc2","64de7d66a98a70dec9ef43e3","","","","","4662",""," ","key"," ","16.650566308243732","500","250","pz","39","30","30","1","0","",""
"","psychophysics","27","216030","0.0-27.0","642d878f344f0fb346572fc2","64de7d66a98a70dec9ef43e3","","","","","2848",""," ","key"," ","16.651368421052748","500","250","pz","32","28","24","1","0","",""
"","psychophysics","28","220693","0.0-28.0","642d878f344f0fb346572fc2","64de7d66a98a70dec9ef43e3","","","","","4657",""," ","key"," ","16.651136200716902","500","250","pz","35","42","20","1","0","",""
"","psychophysics","29","223227","0.0-29.0","642d878f344f0fb346572fc2","64de7d66a98a70dec9ef43e3","","","","","2529",""," ","key"," ","16.65079470198688","500","250","pz","51","51","36","1","0","",""
"","psychophysics","30","226495","0.0-30.0","642d878f344f0fb346572fc2","64de7d66a98a70dec9ef43e3","","","","","3257",""," ","key"," ","16.651712820512834","500","250","pz","59","58","50","1","0","",""
"","psychophysics","31","233726","0.0-31.0","642d878f344f0fb346572fc2","64de7d66a98a70dec9ef43e3","","","","","7219",""," ","key"," ","16.651076036866314","500","250","pz","79","20","53","1","0","",""
"","psychophysics","32","241735","0.0-32.0","642d878f344f0fb346572fc2","64de7d66a98a70dec9ef43e3","","","","","null","","null","key","null","16.65062630480172","500","250","pz","98","25","53","1","0","",""
"","psychophysics","33","241796","0.0-33.0","642d878f344f0fb346572fc2","64de7d66a98a70dec9ef43e3","","","","","52",""," ","key"," ","16.659666666664027","500","250","pz","60","60","24","1","0","",""
"","psychophysics","34","249804","0.0-34.0","642d878f344f0fb346572fc2","64de7d66a98a70dec9ef43e3","","","","","null","","null","key","null","16.650924999999976","500","250","pz","67","33","49","1","0","",""
"","psychophysics","35","253625","0.0-35.0","642d878f344f0fb346572fc2","64de7d66a98a70dec9ef43e3","","","","","3809",""," ","key"," ","16.651310043668097","500","250","pz","55","56","32","1","0","",""
"","psychophysics","36","261632","0.0-36.0","642d878f344f0fb346572fc2","64de7d66a98a70dec9ef43e3","","","","","null","","null","key","null","16.6507787056368","500","250","pz","70","26","42","1","0","",""
"","psychophysics","37","265371","0.0-37.0","642d878f344f0fb346572fc2","64de7d66a98a70dec9ef43e3","","","","","3729",""," ","key"," ","16.650428571428556","500","250","pz","65","34","47","1","0","",""
"","psychophysics","38","270981","0.0-38.0","642d878f344f0fb346572fc2","64de7d66a98a70dec9ef43e3","","","","","5597",""," ","key"," ","16.65143749999992","500","250","pz","56","43","46","1","0","",""
"","psychophysics","39","273407","0.0-39.0","642d878f344f0fb346572fc2","64de7d66a98a70dec9ef43e3","","","","","2421",""," ","key"," ","16.651186206896693","500","250","inst","","","","","","",""
"","psychophysics","40","277830","0.0-40.0","642d878f344f0fb346572fc2","64de7d66a98a70dec9ef43e3","","","","","4416",""," ","key"," ","16.714965779467764","500","250","instZol0","0","0","","","","0","0"
"","psychophysics","41","294840","0.0-41.0","642d878f344f0fb346572fc2","64de7d66a98a70dec9ef43e3","","","","","17001",""," ","key"," ","16.651200783545534","500","250","instZol1","1.6000000000000003","-1.3","","","","0","0"
"","psychophysics","42","302155","0.0-42.0","642d878f344f0fb346572fc2","64de7d66a98a70dec9ef43e3","","","","","7299",""," ","key"," ","16.651057077625573","500","250","instZol2","-2","2","","1","","0","0"
"","psychophysics","43","305338","0.0-43.0","642d878f344f0fb346572fc2","64de7d66a98a70dec9ef43e3","","","","","3173",""," ","key"," ","16.65185263157902","500","250","inst","","","","","","",""
"","psychophysics","44","309476","0.0-44.0","642d878f344f0fb346572fc2","64de7d66a98a70dec9ef43e3","","","","","4119",""," ","key"," ","16.651556451612944","500","250","zol","-0.24000000000000002","0.34","","1","0","-15","21"
"","psychophysics","45","310470","0.0-45.0","642d878f344f0fb346572fc2","64de7d66a98a70dec9ef43e3","","","","","976",""," ","key"," ","16.653966101695453","500","250","zol","-0.33","0.33","","1","0","24","10"
"","psychophysics","46","311329","0.0-46.0","642d878f344f0fb346572fc2","64de7d66a98a70dec9ef43e3","","","","","842",""," ","key"," ","16.64878000000026","500","250","zol","-0.31","0.31","","1","0","30","10"
"","psychophysics","47","314737","0.0-47.0","642d878f344f0fb346572fc2","64de7d66a98a70dec9ef43e3","","","","","3394",""," ","key"," ","16.651921568627586","500","250","zol","-0.23","0.23","","1","0","15","1"
"","psychophysics","48","319578","0.0-48.0","642d878f344f0fb346572fc2","64de7d66a98a70dec9ef43e3","","","","","4823",""," ","key"," ","16.652868965517225","500","250","zol","-0.58","0.58","","1","0","-18","18"
"","psychophysics","49","320327","0.0-49.0","642d878f344f0fb346572fc2","64de7d66a98a70dec9ef43e3","","","","","730",""," ","key"," ","16.657181818181098","500","250","zol","-0.09","0.09","","1","0","-1","-10"
"","psychophysics","50","321103","0.0-50.0","642d878f344f0fb346572fc2","64de7d66a98a70dec9ef43e3","","","","","758",""," ","key"," ","16.65377777777871","500","250","zol","-0.36","0.36","","1","0","4","6"
"","psychophysics","51","321814","0.0-51.0","642d878f344f0fb346572fc2","64de7d66a98a70dec9ef43e3","","","","","695",""," ","key"," ","16.654738095236965","500","250","zol","-0.01","0.01","","1","0","10","-2"
"","psychophysics","52","322542","0.0-52.0","642d878f344f0fb346572fc2","64de7d66a98a70dec9ef43e3","","","","","713",""," ","key"," ","16.655604651162594","500","250","zol","-0.25","0.25","","1","0","24","18"
"","psychophysics","53","323292","0.0-53.0","642d878f344f0fb346572fc2","64de7d66a98a70dec9ef43e3","","","","","741",""," ","key"," ","16.652659090909186","500","250","zol","0.41","-0.41","","1","0","10","6"
"","psychophysics","54","323959","0.0-54.0","642d878f344f0fb346572fc2","64de7d66a98a70dec9ef43e3","","","","","658",""," ","key"," ","16.647205128204615","500","250","zol","0","0","","1","0","24","13"
"","psychophysics","55","324945","0.0-55.0","642d878f344f0fb346572fc2","64de7d66a98a70dec9ef43e3","","","","","977",""," ","key"," ","16.653068965516688","500","250","zol","-0.24","0.24","","1","0","-24","-4"
"","psychophysics","56","325924","0.0-56.0","642d878f344f0fb346572fc2","64de7d66a98a70dec9ef43e3","","","","","948",""," ","key"," ","16.652706896551035","500","250","zol","0.05","-0.05","","1","0","-28","-30"
"","psychophysics","57","333939","0.0-57.0","642d878f344f0fb346572fc2","64de7d66a98a70dec9ef43e3","","","","","null","","null","key","null","16.651175000000027","500","250","zol","-0.64","0.74","","1","0","-13","21"
"","psychophysics","58","337796","0.0-58.0","642d878f344f0fb346572fc2","64de7d66a98a70dec9ef43e3","","","","","3843",""," ","key"," ","16.651822510822495","500","250","zol","0","0.1","","1","0","-11","14"
"","psychophysics","59","340725","0.0-59.0","642d878f344f0fb346572fc2","64de7d66a98a70dec9ef43e3","","","","","2926",""," ","key"," ","16.651362068965515","500","250","inst","","","","","","",""
"","psychophysics","60","350668","0.0-60.0","642d878f344f0fb346572fc2","64de7d66a98a70dec9ef43e3","","","","","9933",""," ","key"," ","16.651056951423854","500","250","instBr0","0","0","300","","","0","0"
"","psychophysics","61","361247","0.0-61.0","642d878f344f0fb346572fc2","64de7d66a98a70dec9ef43e3","","","","","10573",""," ","key"," ","16.651260252365983","500","250","instBr1","6","-40","300","","","0","0"
"","psychophysics","62","374279","0.0-62.0","642d878f344f0fb346572fc2","64de7d66a98a70dec9ef43e3","","","","","13027",""," ","key"," ","16.65120076726343","500","250","instBr3","24","40","300","2","","0","0"
"","psychophysics","63","380248","0.0-63.0","642d878f344f0fb346572fc2","64de7d66a98a70dec9ef43e3","","","","","5966",""," ","key"," ","16.65092717086833","500","250","inst","","","","","","",""
"","psychophysics","64","385567","0.0-64.0","642d878f344f0fb346572fc2","64de7d66a98a70dec9ef43e3","","","","","5307",""," ","key"," ","16.651427672955915","500","250","br","30","-13","292","2","0","-1","-2"
"","psychophysics","65","390917","0.0-65.0","642d878f344f0fb346572fc2","64de7d66a98a70dec9ef43e3","","","","","5342",""," ","key"," ","16.651404984423753","500","250","br","26","-21","245","2","0","-16","11"
"","psychophysics","66","396541","0.0-66.0","642d878f344f0fb346572fc2","64de7d66a98a70dec9ef43e3","","","","","5616",""," ","key"," ","16.651424332344124","500","250","br","26","-9","242","2","0","30","-24"
"","psychophysics","67","402644","0.0-67.0","642d878f344f0fb346572fc2","64de7d66a98a70dec9ef43e3","","","","","6097",""," ","key"," ","16.65123561643836","500","250","br","21","-6","214","2","0","21","-12"
"","psychophysics","68","408556","0.0-68.0","642d878f344f0fb346572fc2","64de7d66a98a70dec9ef43e3","","","","","5899",""," ","key"," ","16.651485875706186","500","250","br","23","12","234","2","0","-11","-25"
"","psychophysics","69","411534","0.0-69.0","642d878f344f0fb346572fc2","64de7d66a98a70dec9ef43e3","","","","","2967",""," ","key"," ","16.745960451977584","500","250","br","32","-5","294","2","0","-12","25"
"","psychophysics","70","419252","0.0-70.0","642d878f344f0fb346572fc2","64de7d66a98a70dec9ef43e3","","","","","7706",""," ","key"," ","16.6510885529157","500","250","br","22","6","263","2","0","-23","11"
"","psychophysics","71","424680","0.0-71.0","642d878f344f0fb346572fc2","64de7d66a98a70dec9ef43e3","","","","","5421",""," ","key"," ","16.651339506172974","500","250","br","25","13","240","2","0","-5","15"
"","psychophysics","72","427972","0.0-72.0","642d878f344f0fb346572fc2","64de7d66a98a70dec9ef43e3","","","","","3283",""," ","key"," ","16.73614285714278","500","250","br","29","18","299","2","0","30","-17"
"","psychophysics","73","432063","0.0-73.0","642d878f344f0fb346572fc2","64de7d66a98a70dec9ef43e3","","","","","4079",""," ","key"," ","16.65163265306132","500","250","br","21","-12","210","2","0","25","-26"
"","psychophysics","74","435939","0.0-74.0","642d878f344f0fb346572fc2","64de7d66a98a70dec9ef43e3","","","","","3864",""," ","key"," ","16.651836206896405","500","250","br","16","28","204","2","0","-19","-2"
"","psychophysics","75","439421","0.0-75.0","642d878f344f0fb346572fc2","64de7d66a98a70dec9ef43e3","","","","","3475",""," ","key"," ","16.651110576922992","500","250","br","27","-6","295","2","0","-11","0"
"","psychophysics","76","442836","0.0-76.0","642d878f344f0fb346572fc2","64de7d66a98a70dec9ef43e3","","","","","3410",""," ","key"," ","16.650887254902045","500","250","br","29","0","272","2","0","28","-20"
"","psychophysics","77","446258","0.0-77.0","642d878f344f0fb346572fc2","64de7d66a98a70dec9ef43e3","","","","","3413",""," ","key"," ","16.651666666666678","500","250","br","25","25","295","2","0","2","10"
"","psychophysics","78","449416","0.0-78.0","642d878f344f0fb346572fc2","64de7d66a98a70dec9ef43e3","","","","","3150",""," ","key"," ","16.65056613756611","500","250","br","21","-13","219","2","0","29","-14"
"","psychophysics","79","451296","0.0-79.0","642d878f344f0fb346572fc2","64de7d66a98a70dec9ef43e3","","","","","1869",""," ","key"," ","16.65254464285681","500","250","inst","","","","","","",""
"","psychophysics","80","461347","0.0-80.0","642d878f344f0fb346572fc2","64de7d66a98a70dec9ef43e3","","","","","10047",""," ","key"," ","16.65097678275298","500","250","instPog0","340","370","340","2","","0","0"
"","psychophysics","81","467753","0.0-81.0","642d878f344f0fb346572fc2","64de7d66a98a70dec9ef43e3","","","","","6401",""," ","key"," ","16.650916449086104","500","250","instPog1","326","370","340","2","","0","0"
"","psychophysics","82","475809","0.0-82.0","642d878f344f0fb346572fc2","64de7d66a98a70dec9ef43e3","","","","","8047",""," ","key"," ","16.650739130434843","500","250","instPog2","320","340","340","2","","0","0"
"","psychophysics","83","478090","0.0-83.0","642d878f344f0fb346572fc2","64de7d66a98a70dec9ef43e3","","","","","2280",""," ","key"," ","16.652860294117573","500","250","inst","","","","","","",""
"","psychophysics","84","484178","0.0-84.0","642d878f344f0fb346572fc2","64de7d66a98a70dec9ef43e3","","","","","6080",""," ","key"," ","16.651460273972592","500","250","pog","309","391","352","2","0","0","0"
"","psychophysics","85","491389","0.0-85.0","642d878f344f0fb346572fc2","64de7d66a98a70dec9ef43e3","","","","","7207",""," ","key"," ","16.651148148148085","500","250","pog","274","358","314","2","0","0","0"
"","psychophysics","86","496429","0.0-86.0","642d878f344f0fb346572fc2","64de7d66a98a70dec9ef43e3","","","","","5035",""," ","key"," ","16.651377483443564","500","250","pog","280","362","326","2","0","0","0"
"","psychophysics","87","499710","0.0-87.0","642d878f344f0fb346572fc2","64de7d66a98a70dec9ef43e3","","","","","3275",""," ","key"," ","16.65066326530597","500","250","pog","334","332","366","2","0","0","0"
"","psychophysics","88","506685","0.0-88.0","642d878f344f0fb346572fc2","64de7d66a98a70dec9ef43e3","","","","","6970",""," ","key"," ","16.651052757793767","500","250","pog","269","341","303","2","0","0","0"
"","psychophysics","89","508877","0.0-89.0","642d878f344f0fb346572fc2","64de7d66a98a70dec9ef43e3","","","","","2185",""," ","key"," ","16.651267175572457","500","250","pog","298","294","340","2","0","0","0"
"","psychophysics","90","514746","0.0-90.0","642d878f344f0fb346572fc2","64de7d66a98a70dec9ef43e3","","","","","5859",""," ","key"," ","16.651392045454486","500","250","pog","322","334","352","2","0","0","0"
"","psychophysics","91","520283","0.0-91.0","642d878f344f0fb346572fc2","64de7d66a98a70dec9ef43e3","","","","","5532",""," ","key"," ","16.650930513595117","500","250","pog","317","359","363","2","0","0","0"
"","psychophysics","92","523994","0.0-92.0","642d878f344f0fb346572fc2","64de7d66a98a70dec9ef43e3","","","","","3700",""," ","key"," ","16.65175225225231","500","250","pog","267","351","308","2","0","0","0"
"","psychophysics","93","528451","0.0-93.0","642d878f344f0fb346572fc2","64de7d66a98a70dec9ef43e3","","","","","4449",""," ","key"," ","16.651254681647973","500","250","pog","258","290","301","2","0","0","0"
"","psychophysics","94","532263","0.0-94.0","642d878f344f0fb346572fc2","64de7d66a98a70dec9ef43e3","","","","","3807",""," ","key"," ","16.650460526316014","500","250","pog","319","361","357","2","0","0","0"
"","psychophysics","95","535204","0.0-95.0","642d878f344f0fb346572fc2","64de7d66a98a70dec9ef43e3","","","","","2936",""," ","key"," ","16.650668571428398","500","250","pog","317","377","363","2","0","0","0"
"","psychophysics","96","538606","0.0-96.0","642d878f344f0fb346572fc2","64de7d66a98a70dec9ef43e3","","","","","3390",""," ","key"," ","16.650990196078556","500","250","pog","317","377","362","2","0","0","0"
"","psychophysics","97","543559","0.0-97.0","642d878f344f0fb346572fc2","64de7d66a98a70dec9ef43e3","","","","","4948",""," ","key"," ","16.651141891891932","500","250","pog","256","342","302","2","0","0","0"
"","psychophysics","98","548151","0.0-98.0","642d878f344f0fb346572fc2","64de7d66a98a70dec9ef43e3","","","","","4587",""," ","key"," ","16.651654545454818","500","250","pog","343","349","368","2","0","0","0"
"","psychophysics","99","549544","0.0-99.0","642d878f344f0fb346572fc2","64de7d66a98a70dec9ef43e3","","","","","1389",""," ","key"," ","16.64964634146422","500","250","inst","","","","","","",""
"","psychophysics","100","557723","0.0-100.0","642d878f344f0fb346572fc2","64de7d66a98a70dec9ef43e3","","","","","8170",""," ","key"," ","16.651173116089662","500","250","instEB0","40","40","40","2","","0","0"
"","psychophysics","101","562497","0.0-101.0","642d878f344f0fb346572fc2","64de7d66a98a70dec9ef43e3","","","","","4769",""," ","key"," ","16.651466666666888","500","250","instEB1","40","30","40","2","","0","0"
"","psychophysics","102","570435","0.0-102.0","642d878f344f0fb346572fc2","64de7d66a98a70dec9ef43e3","","","","","7926",""," ","key"," ","16.65092436974783","500","250","instEB2","31","40","30","2","","0","0"
"","psychophysics","103","576932","0.0-103.0","642d878f344f0fb346572fc2","64de7d66a98a70dec9ef43e3","","","","","6492",""," ","key"," ","16.651483290488496","500","250","instEB3","32","45","27","2","","0","0"
"","psychophysics","104","582216","0.0-104.0","642d878f344f0fb346572fc2","64de7d66a98a70dec9ef43e3","","","","","5273",""," ","key"," ","16.651602523659182","500","250","instEB4","46","30","40","2","","0","0"
"","psychophysics","105","584076","0.0-105.0","642d878f344f0fb346572fc2","64de7d66a98a70dec9ef43e3","","","","","1855",""," ","key"," ","16.653100000000137","500","250","inst","","","","","","",""
"","psychophysics","106","587943","0.0-106.0","642d878f344f0fb346572fc2","64de7d66a98a70dec9ef43e3","","","","","3856",""," ","key"," ","16.651374999999774","500","250","eb","60","47","54","2","","0","0"
"","psychophysics","107","593163","0.0-107.0","642d878f344f0fb346572fc2","64de7d66a98a70dec9ef43e3","","","","","5213",""," ","key"," ","16.650897435897676","500","250","eb","29","52","27","2","","0","0"
"","psychophysics","108","601071","0.0-108.0","642d878f344f0fb346572fc2","64de7d66a98a70dec9ef43e3","","","","","7897",""," ","key"," ","16.651246835443022","500","250","eb","61","44","54","2","","0","0"
"","psychophysics","109","609087","0.0-109.0","642d878f344f0fb346572fc2","64de7d66a98a70dec9ef43e3","","","","","null","","null","key","null","16.651020833333313","500","250","eb","34","41","29","2","","0","0"
"","psychophysics","110","609364","0.0-110.0","642d878f344f0fb346572fc2","64de7d66a98a70dec9ef43e3","","","","","266",""," ","key"," ","16.65156250000291","500","250","eb","34","34","32","2","","0","0"
"","psychophysics","111","612387","0.0-111.0","642d878f344f0fb346572fc2","64de7d66a98a70dec9ef43e3","","","","","3013",""," ","key"," ","16.6519005524859","500","250","eb","50","36","44","2","","0","0"
"","psychophysics","112","614884","0.0-112.0","642d878f344f0fb346572fc2","64de7d66a98a70dec9ef43e3","","","","","2490",""," ","key"," ","16.650986577181033","500","250","eb","29","33","25","2","","0","0"
"","psychophysics","113","617174","0.0-113.0","642d878f344f0fb346572fc2","64de7d66a98a70dec9ef43e3","","","","","2283",""," ","key"," ","16.650955882352292","500","250","eb","30","35","27","2","","0","0"
"","psychophysics","114","619169","0.0-114.0","642d878f344f0fb346572fc2","64de7d66a98a70dec9ef43e3","","","","","1984",""," ","key"," ","16.651226890756664","500","250","eb","61","49","47","2","","0","0"
"","psychophysics","115","621885","0.0-115.0","642d878f344f0fb346572fc2","64de7d66a98a70dec9ef43e3","","","","","2711",""," ","key"," ","16.64993209876537","500","250","eb","52","54","45","2","","0","0"
"","psychophysics","116","625283","0.0-116.0","642d878f344f0fb346572fc2","64de7d66a98a70dec9ef43e3","","","","","3388",""," ","key"," ","16.653034482758578","500","250","eb","32","46","25","2","","0","0"
"","psychophysics","117","628200","0.0-117.0","642d878f344f0fb346572fc2","64de7d66a98a70dec9ef43e3","","","","","2901",""," ","key"," ","16.651166666666416","500","250","eb","45","29","41","2","","0","0"
"","psychophysics","118","630731","0.0-118.0","642d878f344f0fb346572fc2","64de7d66a98a70dec9ef43e3","","","","","2521",""," ","key"," ","16.651894039735012","500","250","eb","59","45","53","2","","0","0"
"","psychophysics","119","632752","0.0-119.0","642d878f344f0fb346572fc2","64de7d66a98a70dec9ef43e3","","","","","2011",""," ","key"," ","16.65133057851229","500","250","eb","35","49","29","2","","0","0"
"","psychophysics","120","635708","0.0-120.0","642d878f344f0fb346572fc2","64de7d66a98a70dec9ef43e3","","","","","2949",""," ","key"," ","16.651312500000298","500","250","eb","29","38","26","2","","0","0"
"","psychophysics","121","636914","0.0-121.0","642d878f344f0fb346572fc2","64de7d66a98a70dec9ef43e3","","","","","1197",""," ","key"," ","16.656166666665943","500","250","inst","","","","","","",""
"","psychophysics","122","648159","0.0-122.0","642d878f344f0fb346572fc2","64de7d66a98a70dec9ef43e3","","","","","11238",""," ","key"," ","16.651084569732944","500","250","instBr3","-19","40","300","1","","0","0"
"","psychophysics","123","649109","0.0-123.0","642d878f344f0fb346572fc2","64de7d66a98a70dec9ef43e3","","","","","945",""," ","key"," ","16.650428571428556","500","250","inst","","","","","","",""
"","psychophysics","124","653643","0.0-124.0","642d878f344f0fb346572fc2","64de7d66a98a70dec9ef43e3","","","","","4520",""," ","key"," ","16.651520295203078","500","250","br","-10","-26","296","1","1","5","-8"
"","psychophysics","125","656690","0.0-125.0","642d878f344f0fb346572fc2","64de7d66a98a70dec9ef43e3","","","","","3037",""," ","key"," ","16.651714285714732","500","250","br","-17","7","218","1","1","-9","-27"
"","psychophysics","126","659229","0.0-126.0","642d878f344f0fb346572fc2","64de7d66a98a70dec9ef43e3","","","","","2529",""," ","key"," ","16.652138157894736","500","250","br","-8","-29","262","1","1","2","27"
"","psychophysics","127","661958","0.0-127.0","642d878f344f0fb346572fc2","64de7d66a98a70dec9ef43e3","","","","","2721",""," ","key"," ","16.652042944784892","500","250","br","-16","13","280","1","1","-29","-13"
"","psychophysics","128","665804","0.0-128.0","642d878f344f0fb346572fc2","64de7d66a98a70dec9ef43e3","","","","","3841",""," ","key"," ","16.652939130434685","500","250","br","-14","-19","249","1","1","20","12"
"","psychophysics","129","668478","0.0-129.0","642d878f344f0fb346572fc2","64de7d66a98a70dec9ef43e3","","","","","2669",""," ","key"," ","16.650924528301722","500","250","br","-18","14","219","1","1","-27","14"
"","psychophysics","130","671425","0.0-130.0","642d878f344f0fb346572fc2","64de7d66a98a70dec9ef43e3","","","","","2937",""," ","key"," ","16.651681818181796","500","250","br","-11","-10","225","1","1","28","-22"
"","psychophysics","131","677237","0.0-131.0","642d878f344f0fb346572fc2","64de7d66a98a70dec9ef43e3","","","","","5801",""," ","key"," ","16.651356321838804","500","250","br","-12","-1","269","1","1","-26","-29"
"","psychophysics","132","679401","0.0-132.0","642d878f344f0fb346572fc2","64de7d66a98a70dec9ef43e3","","","","","2150",""," ","key"," ","16.6519767441859","500","250","br","-19","-8","226","1","1","0","-19"
"","psychophysics","133","681224","0.0-133.0","642d878f344f0fb346572fc2","64de7d66a98a70dec9ef43e3","","","","","1814",""," ","key"," ","16.651798165137368","500","250","br","-26","-5","261","1","1","9","-24"
"","psychophysics","134","683594","0.0-134.0","642d878f344f0fb346572fc2","64de7d66a98a70dec9ef43e3","","","","","2365",""," ","key"," ","16.65148936170203","500","250","br","-12","-25","295","1","1","-3","30"
"","psychophysics","135","685671","0.0-135.0","642d878f344f0fb346572fc2","64de7d66a98a70dec9ef43e3","","","","","2067",""," ","key"," ","16.652475806451665","500","250","br","-18","-3","268","1","1","-19","2"
"","psychophysics","136","687673","0.0-136.0","642d878f344f0fb346572fc2","64de7d66a98a70dec9ef43e3","","","","","1997",""," ","key"," ","16.65084033613504","500","250","br","-15","10","273","1","1","-20","6"
"","psychophysics","137","689765","0.0-137.0","642d878f344f0fb346572fc2","64de7d66a98a70dec9ef43e3","","","","","2082",""," ","key"," ","16.65082400000002","500","250","br","-20","-10","229","1","1","7","7"
"","psychophysics","138","691817","0.0-138.0","642d878f344f0fb346572fc2","64de7d66a98a70dec9ef43e3","","","","","2046",""," ","key"," ","16.650377049180488","500","250","br","-15","17","277","1","1","-25","-19"
"","psychophysics","139","692619","0.0-139.0","642d878f344f0fb346572fc2","64de7d66a98a70dec9ef43e3","","","","","797",""," ","key"," ","16.65551063829805","500","250","inst","","","","","","",""
"","psychophysics","140","703755","0.0-140.0","642d878f344f0fb346572fc2","64de7d66a98a70dec9ef43e3","","","","","11131",""," ","key"," ","16.651137724550843","500","250","instZol1","0.5999999999999998","-1.3","","","","0","0"
"","psychophysics","141","710726","0.0-141.0","642d878f344f0fb346572fc2","64de7d66a98a70dec9ef43e3","","","","","6962",""," ","key"," ","16.651477218225345","500","250","instZol2","-2.1","2","","2","","0","0"
"","psychophysics","142","711445","0.0-142.0","642d878f344f0fb346572fc2","64de7d66a98a70dec9ef43e3","","","","","711",""," ","key"," ","16.65106976744015","500","250","inst","","","","","","",""
"","psychophysics","143","719470","0.0-143.0","642d878f344f0fb346572fc2","64de7d66a98a70dec9ef43e3","","","","","null","","null","key","null","16.651182952182797","500","250","zol","-0.9099999999999999","0.21","","2","1","-6","-3"
"","psychophysics","144","722420","0.0-144.0","642d878f344f0fb346572fc2","64de7d66a98a70dec9ef43e3","","","","","2943",""," ","key"," ","16.651090909091263","500","250","zol","-0.82","0.02","","2","1","4","-30"
"","psychophysics","145","725969","0.0-145.0","642d878f344f0fb346572fc2","64de7d66a98a70dec9ef43e3","","","","","3532",""," ","key"," ","16.6516226415093","500","250","zol","-1.6800000000000004","0.18","","2","1","2","-27"
"","psychophysics","146","728246","0.0-146.0","642d878f344f0fb346572fc2","64de7d66a98a70dec9ef43e3","","","","","2264",""," ","key"," ","16.651264705882674","500","250","zol","-1.8700000000000006","0.37","","2","1","-17","29"
"","psychophysics","147","730048","0.0-147.0","642d878f344f0fb346572fc2","64de7d66a98a70dec9ef43e3","","","","","1794",""," ","key"," ","16.65235514018715","500","250","zol","-1.4600000000000002","0.16","","2","1","19","-25"
"","psychophysics","148","731756","0.0-148.0","642d878f344f0fb346572fc2","64de7d66a98a70dec9ef43e3","","","","","1693",""," ","key"," ","16.652188118811154","500","250","zol","-1.25","0.25","","2","1","22","13"
"","psychophysics","149","733474","0.0-149.0","642d878f344f0fb346572fc2","64de7d66a98a70dec9ef43e3","","","","","1707",""," ","key"," ","16.652951456311396","500","250","zol","-1.5200000000000005","0.02","","2","1","-10","-30"
"","psychophysics","150","735259","0.0-150.0","642d878f344f0fb346572fc2","64de7d66a98a70dec9ef43e3","","","","","1776",""," ","key"," ","16.651962264151013","500","250","zol","-2.060000000000001","0.66","","2","1","11","18"
"","psychophysics","151","736958","0.0-151.0","642d878f344f0fb346572fc2","64de7d66a98a70dec9ef43e3","","","","","1681",""," ","key"," ","16.65121782178262","500","250","zol","-1.0499999999999998","-0.65","","2","1","3","-12"
"","psychophysics","152","738987","0.0-152.0","642d878f344f0fb346572fc2","64de7d66a98a70dec9ef43e3","","","","","2016",""," ","key"," ","16.651876033057675","500","250","zol","-2.0000000000000004","0.6","","2","1","-19","-9"
"","psychophysics","153","740885","0.0-153.0","642d878f344f0fb346572fc2","64de7d66a98a70dec9ef43e3","","","","","1890",""," ","key"," ","16.65099115044175","500","250","zol","-1.4200000000000002","-0.68","","2","1","3","9"
"","psychophysics","154","742650","0.0-154.0","642d878f344f0fb346572fc2","64de7d66a98a70dec9ef43e3","","","","","1757",""," ","key"," ","16.65137142857226","500","250","zol","-1.4100000000000004","-0.19","","2","1","4","-9"
"","psychophysics","155","744262","0.0-155.0","642d878f344f0fb346572fc2","64de7d66a98a70dec9ef43e3","","","","","1600",""," ","key"," ","16.649968421052357","500","250","zol","-1.5500000000000003","-0.25","","2","1","3","-15"
"","psychophysics","156","745963","0.0-156.0","642d878f344f0fb346572fc2","64de7d66a98a70dec9ef43e3","","","","","1690",""," ","key"," ","16.651509803921833","500","250","zol","-1.8700000000000006","0.37","","2","1","-17","-1"
"","psychophysics","157","747690","0.0-157.0","642d878f344f0fb346572fc2","64de7d66a98a70dec9ef43e3","","","","","1716",""," ","key"," ","16.65236274509773","500","250","zol","-2.2000000000000006","0.3","","2","1","-16","23"
"","psychophysics","158","748792","0.0-158.0","642d878f344f0fb346572fc2","64de7d66a98a70dec9ef43e3","","","","","1095",""," ","key"," ","16.652136363635883","500","250","inst","","","","","","",""
"","psychophysics","159","753505","0.0-159.0","642d878f344f0fb346572fc2","64de7d66a98a70dec9ef43e3","","","","","4712",""," ","key"," ","16.651326241134747","500","250","instEB1","27","40","30","1","","0","0"
"","psychophysics","160","757406","0.0-160.0","642d878f344f0fb346572fc2","64de7d66a98a70dec9ef43e3","","","","","3895",""," ","key"," ","16.6508798283263","500","250","instEB2","42","30","40","1","","0","0"
"","psychophysics","161","760898","0.0-161.0","642d878f344f0fb346572fc2","64de7d66a98a70dec9ef43e3","","","","","3484",""," ","key"," ","16.65107177033448","500","250","instEB3","40","27","45","1","","0","0"
"","psychophysics","162","764395","0.0-162.0","642d878f344f0fb346572fc2","64de7d66a98a70dec9ef43e3","","","","","3493",""," ","key"," ","16.65118181818214","500","250","instEB4","27","40","30","1","","0","0"
"","psychophysics","163","765144","0.0-163.0","642d878f344f0fb346572fc2","64de7d66a98a70dec9ef43e3","","","","","745",""," ","key"," ","16.650113636363212","500","250","inst","","","","","","",""
"","psychophysics","164","768078","0.0-164.0","642d878f344f0fb346572fc2","64de7d66a98a70dec9ef43e3","","","","","2912",""," ","key"," ","16.65185142857089","500","250","eb","36","53","41","1","","0","0"
"","psychophysics","165","770440","0.0-165.0","642d878f344f0fb346572fc2","64de7d66a98a70dec9ef43e3","","","","","2356",""," ","key"," ","16.651865248226542","500","250","eb","33","35","35","1","","0","0"
"","psychophysics","166","771532","0.0-166.0","642d878f344f0fb346572fc2","64de7d66a98a70dec9ef43e3","","","","","1086",""," ","key"," ","16.651046875000247","500","250","eb","40","40","29","1","","0","0"
"","psychophysics","167","776253","0.0-167.0","642d878f344f0fb346572fc2","64de7d66a98a70dec9ef43e3","","","","","4711",""," ","key"," ","16.65143816254403","500","250","eb","41","54","49","1","","0","0"
"","psychophysics","168","778773","0.0-168.0","642d878f344f0fb346572fc2","64de7d66a98a70dec9ef43e3","","","","","2514",""," ","key"," ","16.650840000000315","500","250","eb","42","28","45","1","","0","0"
"","psychophysics","169","782669","0.0-169.0","642d878f344f0fb346572fc2","64de7d66a98a70dec9ef43e3","","","","","3888",""," ","key"," ","16.651072961373192","500","250","eb","35","28","38","1","","0","0"
"","psychophysics","170","784983","0.0-170.0","642d878f344f0fb346572fc2","64de7d66a98a70dec9ef43e3","","","","","2302",""," ","key"," ","16.651057971013792","500","250","eb","32","34","35","1","","0","0"
"","psychophysics","171","788722","0.0-171.0","642d878f344f0fb346572fc2","64de7d66a98a70dec9ef43e3","","","","","3729",""," ","key"," ","16.650116071428783","500","250","eb","33","46","33","1","","0","0"
"","psychophysics","172","792434","0.0-172.0","642d878f344f0fb346572fc2","64de7d66a98a70dec9ef43e3","","","","","3703",""," ","key"," ","16.65156108597283","500","250","eb","49","28","53","1","","0","0"
"","psychophysics","173","794903","0.0-173.0","642d878f344f0fb346572fc2","64de7d66a98a70dec9ef43e3","","","","","2460",""," ","key"," ","16.651385135135325","500","250","eb","44","43","48","1","","0","0"
"","psychophysics","174","797447","0.0-174.0","642d878f344f0fb346572fc2","64de7d66a98a70dec9ef43e3","","","","","2538",""," ","key"," ","16.651434210526578","500","250","eb","40","40","40","1","","0","0"
"","psychophysics","175","803530","0.0-175.0","642d878f344f0fb346572fc2","64de7d66a98a70dec9ef43e3","","","","","6077",""," ","key"," ","16.65117582417596","500","250","eb","23","37","26","1","","0","0"
"","psychophysics","176","806057","0.0-176.0","642d878f344f0fb346572fc2","64de7d66a98a70dec9ef43e3","","","","","2521",""," ","key"," ","16.652059602648304","500","250","eb","32","46","41","1","","0","0"
"","psychophysics","177","809314","0.0-177.0","642d878f344f0fb346572fc2","64de7d66a98a70dec9ef43e3","","","","","3250",""," ","key"," ","16.651201030927755","500","250","eb","37","43","43","1","","0","0"
"","psychophysics","178","811271","0.0-178.0","642d878f344f0fb346572fc2","64de7d66a98a70dec9ef43e3","","","","","1946",""," ","key"," ","16.651940170940186","500","250","eb","34","36","35","1","","0","0"
"","psychophysics","179","812092","0.0-179.0","642d878f344f0fb346572fc2","64de7d66a98a70dec9ef43e3","","","","","818",""," ","key"," ","16.64787499999996","500","250","inst","","","","","","",""
"","psychophysics","180","817697","0.0-180.0","642d878f344f0fb346572fc2","64de7d66a98a70dec9ef43e3","","","","","5593",""," ","key"," ","16.65139583333318","500","250","instPz1","53","25","50","2","","",""
"","psychophysics","181","822192","0.0-181.0","642d878f344f0fb346572fc2","64de7d66a98a70dec9ef43e3","","","","","4490",""," ","key"," ","16.65108550185871","500","250","instPz2","33","20","35","2","","",""
"","psychophysics","182","829086","0.0-182.0","642d878f344f0fb346572fc2","64de7d66a98a70dec9ef43e3","","","","","6888",""," ","key"," ","16.651368932038697","500","250","instPz3","49","30","100","2","","",""
"","psychophysics","183","832808","0.0-183.0","642d878f344f0fb346572fc2","64de7d66a98a70dec9ef43e3","","","","","3713",""," ","key"," ","16.651031390134236","500","250","instPz4","52","30","100","2","","",""
"","psychophysics","184","833638","0.0-184.0","642d878f344f0fb346572fc2","64de7d66a98a70dec9ef43e3","","","","","817",""," ","key"," ","16.653734693878654","500","250","inst","","","","","","",""
"","psychophysics","185","838550","0.0-185.0","642d878f344f0fb346572fc2","64de7d66a98a70dec9ef43e3","","","","","4884",""," ","key"," ","16.65114625850352","500","250","pz","22","56","31","2","1","",""
"","psychophysics","186","840850","0.0-186.0","642d878f344f0fb346572fc2","64de7d66a98a70dec9ef43e3","","","","","2286",""," ","key"," ","16.65099270072983","500","250","pz","21","23","24","2","1","",""
"","psychophysics","187","843659","0.0-187.0","642d878f344f0fb346572fc2","64de7d66a98a70dec9ef43e3","","","","","2800",""," ","key"," ","16.65045238095211","500","250","pz","23","57","37","2","1","",""
"","psychophysics","188","845678","0.0-188.0","642d878f344f0fb346572fc2","64de7d66a98a70dec9ef43e3","","","","","2015",""," ","key"," ","16.650308333333427","500","250","pz","39","43","56","2","1","",""
"","psychophysics","189","847874","0.0-189.0","642d878f344f0fb346572fc2","64de7d66a98a70dec9ef43e3","","","","","2185",""," ","key"," ","16.652358778626194","500","250","pz","32","43","33","2","1","",""
"","psychophysics","190","850089","0.0-190.0","642d878f344f0fb346572fc2","64de7d66a98a70dec9ef43e3","","","","","2189",""," ","key"," ","16.652136363636767","500","250","pz","41","58","60","2","1","",""
"","psychophysics","191","854610","0.0-191.0","642d878f344f0fb346572fc2","64de7d66a98a70dec9ef43e3","","","","","4511",""," ","key"," ","16.650723247232545","500","250","pz","24","33","28","2","1","",""
"","psychophysics","192","858131","0.0-192.0","642d878f344f0fb346572fc2","64de7d66a98a70dec9ef43e3","","","","","3515",""," ","key"," ","16.65033333333309","500","250","pz","20","35","27","2","1","",""
"","psychophysics","193","861585","0.0-193.0","642d878f344f0fb346572fc2","64de7d66a98a70dec9ef43e3","","","","","3440",""," ","key"," ","16.6519514563108","500","250","pz","34","52","51","2","1","",""
"","psychophysics","194","865092","0.0-194.0","642d878f344f0fb346572fc2","64de7d66a98a70dec9ef43e3","","","","","3499",""," ","key"," ","16.651661904762122","500","250","pz","34","58","42","2","1","",""
"","psychophysics","195","867831","0.0-195.0","642d878f344f0fb346572fc2","64de7d66a98a70dec9ef43e3","","","","","2713",""," ","key"," ","16.65323780487766","500","250","pz","33","35","56","2","1","",""
"","psychophysics","196","873527","0.0-196.0","642d878f344f0fb346572fc2","64de7d66a98a70dec9ef43e3","","","","","5689",""," ","key"," ","16.650941348973664","500","250","pz","36","20","57","2","1","",""
"","psychophysics","197","876990","0.0-197.0","642d878f344f0fb346572fc2","64de7d66a98a70dec9ef43e3","","","","","3457",""," ","key"," ","16.65073429951658","500","250","pz","25","34","35","2","1","",""
"","psychophysics","198","879637","0.0-198.0","642d878f344f0fb346572fc2","64de7d66a98a70dec9ef43e3","","","","","2642",""," ","key"," ","16.651265822784957","500","250","pz","29","29","48","2","1","",""
"","psychophysics","199","884200","0.0-199.0","642d878f344f0fb346572fc2","64de7d66a98a70dec9ef43e3","","","","","4558",""," ","key"," ","16.650501831502044","500","250","pz","21","56","28","2","1","",""
"","psychophysics","200","885128","0.0-200.0","642d878f344f0fb346572fc2","64de7d66a98a70dec9ef43e3","","","","","924",""," ","key"," ","16.650722222221603","500","250","inst","","","","","","",""
"","psychophysics","201","889492","0.0-201.0","642d878f344f0fb346572fc2","64de7d66a98a70dec9ef43e3","","","","","4356",""," ","key"," ","16.651655172413996","500","250","instPog0","160","190","160","1","","0","0"
"","psychophysics","202","893258","0.0-202.0","642d878f344f0fb346572fc2","64de7d66a98a70dec9ef43e3","","","","","3758",""," ","key"," ","16.65040707964588","500","250","instPog1","180","190","160","1","","0","0"
"","psychophysics","203","896943","0.0-203.0","642d878f344f0fb346572fc2","64de7d66a98a70dec9ef43e3","","","","","3682",""," ","key"," ","16.651036363636376","500","250","instPog2","194","160","160","1","","0","0"
"","psychophysics","204","898020","0.0-204.0","642d878f344f0fb346572fc2","64de7d66a98a70dec9ef43e3","","","","","1073",""," ","key"," ","16.650843749999694","500","250","inst","","","","","","",""
"","psychophysics","205","901155","0.0-205.0","642d878f344f0fb346572fc2","64de7d66a98a70dec9ef43e3","","","","","3129",""," ","key"," ","16.65098930481276","500","250","pog","188","164","150","1","1","0","0"
"","psychophysics","206","903923","0.0-206.0","642d878f344f0fb346572fc2","64de7d66a98a70dec9ef43e3","","","","","2764",""," ","key"," ","16.65086666666691","500","250","pog","190","146","146","1","1","0","0"
"","psychophysics","207","906313","0.0-207.0","642d878f344f0fb346572fc2","64de7d66a98a70dec9ef43e3","","","","","2380",""," ","key"," ","16.650818181818455","500","250","pog","170","178","130","1","1","0","0"
"","psychophysics","208","909291","0.0-208.0","642d878f344f0fb346572fc2","64de7d66a98a70dec9ef43e3","","","","","2974",""," ","key"," ","16.650842696629084","500","250","pog","175","197","131","1","1","0","0"
"","psychophysics","209","914066","0.0-209.0","642d878f344f0fb346572fc2","64de7d66a98a70dec9ef43e3","","","","","4769",""," ","key"," ","16.65129473684233","500","250","pog","178","142","134","1","1","0","0"
"","psychophysics","210","917984","0.0-210.0","642d878f344f0fb346572fc2","64de7d66a98a70dec9ef43e3","","","","","3909",""," ","key"," ","16.651646808510588","500","250","pog","213","107","170","1","1","0","0"
"","psychophysics","211","920648","0.0-211.0","642d878f344f0fb346572fc2","64de7d66a98a70dec9ef43e3","","","","","2659",""," ","key"," ","16.651075471697798","500","250","pog","237","185","194","1","1","0","0"
"","psychophysics","212","924810","0.0-212.0","642d878f344f0fb346572fc2","64de7d66a98a70dec9ef43e3","","","","","4156",""," ","key"," ","16.65032128514077","500","250","pog","170","212","120","1","1","0","0"
"","psychophysics","213","928262","0.0-213.0","642d878f344f0fb346572fc2","64de7d66a98a70dec9ef43e3","","","","","3445",""," ","key"," ","16.651504854368753","500","250","pog","245","157","195","1","1","0","0"
"","psychophysics","214","931359","0.0-214.0","642d878f344f0fb346572fc2","64de7d66a98a70dec9ef43e3","","","","","3093",""," ","key"," ","16.652048648649046","500","250","pog","205","143","161","1","1","0","0"
"","psychophysics","215","935145","0.0-215.0","642d878f344f0fb346572fc2","64de7d66a98a70dec9ef43e3","","","","","3780",""," ","key"," ","16.650924778761304","500","250","pog","167","113","127","1","1","0","0"
"","psychophysics","216","941818","0.0-216.0","642d878f344f0fb346572fc2","64de7d66a98a70dec9ef43e3","","","","","6663",""," ","key"," ","16.65129499999981","500","250","pog","207","147","164","1","1","0","0"
"","psychophysics","217","947368","0.0-217.0","642d878f344f0fb346572fc2","64de7d66a98a70dec9ef43e3","","","","","5538",""," ","key"," ","16.65164457831296","500","250","pog","189","213","133","1","1","0","0"
"","psychophysics","218","949958","0.0-218.0","642d878f344f0fb346572fc2","64de7d66a98a70dec9ef43e3","","","","","2579",""," ","key"," ","16.652154838709883","500","250","pog","199","143","149","1","1","0","0"
"","psychophysics","219","952059","0.0-219.0","642d878f344f0fb346572fc2","64de7d66a98a70dec9ef43e3","","","","","2095",""," ","key"," ","16.65215199999977","500","250","pog","179","205","122","1","1","0","0"
