"success","trial_type","trial_index","time_elapsed","internal_node_id","pid","sid","timeout","failed_images","failed_audio","failed_video","rt","stimulus","response","response_type","key_press","avg_frame_time","center_x","center_y","task","resp","version","block","start","jitterX","jitterY","parA"
"true","fullscreen","0","3587","0.0-0.0","5f5848bad298df3b59ffcd12","64e50c9b9e292bdebdd238ed","","","","","","","","","","","","","","","","","","","",""
"true","preload","1","3967","0.0-1.0","5f5848bad298df3b59ffcd12","64e50c9b9e292bdebdd238ed","false","[]","[]","[]","","","","","","","","","","","","","","","",""
"","html-button-response","2","5494","0.0-2.0","5f5848bad298df3b59ffcd12","64e50c9b9e292bdebdd238ed","","","","","1525","Please Make Sure Your Audio Is On.","0","","","","","","","","","","","","",""
"","psychophysics","3","10036","0.0-3.0","5f5848bad298df3b59ffcd12","64e50c9b9e292bdebdd238ed","","","","","4232",""," ","key"," ","18.060366533864542","720","250","","","","","","","",""
"","psychophysics","4","12183","0.0-4.0","5f5848bad298df3b59ffcd12","64e50c9b9e292bdebdd238ed","","","","","2066",""," ","key"," ","17.203612903225803","500","250","inst","","","","","","",""
"","psychophysics","5","21044","0.0-5.0","5f5848bad298df3b59ffcd12","64e50c9b9e292bdebdd238ed","","","","","8857",""," ","key"," ","16.673409433962266","500","250","sample0","","","","","","",""
"","psychophysics","6","22810","0.0-6.0","5f5848bad298df3b59ffcd12","64e50c9b9e292bdebdd238ed","","","","","1764",""," ","key"," ","16.666000000000004","500","250","sample1","","","","","","",""
"","psychophysics","7","35680","0.0-7.0","5f5848bad298df3b59ffcd12","64e50c9b9e292bdebdd238ed","","","","","12862",""," ","key"," ","16.657686528497404","500","250","sample2","102","","","","","",""
"","psychophysics","8","40930","0.0-8.0","5f5848bad298df3b59ffcd12","64e50c9b9e292bdebdd238ed","","","","","5247",""," ","key"," ","16.665999999999986","500","250","sample3","98","","","","","",""
"","psychophysics","9","47807","0.0-9.0","5f5848bad298df3b59ffcd12","64e50c9b9e292bdebdd238ed","","","","","6875",""," ","key"," ","17.038588089330023","500","250","sample4","100","","","","","",""
"","psychophysics","10","53728","0.0-10.0","5f5848bad298df3b59ffcd12","64e50c9b9e292bdebdd238ed","","","","","5918",""," ","key"," ","16.713212464589244","500","250","sample5","","","","","","",""
"","psychophysics","11","59864","0.0-11.0","5f5848bad298df3b59ffcd12","64e50c9b9e292bdebdd238ed","","","","","6133",""," ","key"," ","16.66702179836512","500","250","sample6","500","","","","","",""
"","psychophysics","12","64394","0.0-12.0","5f5848bad298df3b59ffcd12","64e50c9b9e292bdebdd238ed","","","","","4526",""," ","key"," ","16.66599999999999","500","250","inst","","","","","","",""
"","psychophysics","13","68542","0.0-13.0","5f5848bad298df3b59ffcd12","64e50c9b9e292bdebdd238ed","","","","","4146",""," ","key"," ","16.667258064516112","500","250","inst","","","","","","",""
"","psychophysics","14","72393","0.0-14.0","5f5848bad298df3b59ffcd12","64e50c9b9e292bdebdd238ed","","","","","3847",""," ","key"," ","16.66599999999997","500","250","inst","","","","","","",""
"","psychophysics","15","74662","0.0-15.0","5f5848bad298df3b59ffcd12","64e50c9b9e292bdebdd238ed","","","","","2267",""," ","key"," ","16.666000000000025","500","250","inst","","","","","","",""
"","psychophysics","16","78695","0.0-16.0","5f5848bad298df3b59ffcd12","64e50c9b9e292bdebdd238ed","","","","","4029",""," ","key"," ","16.66649377593361","500","250","inst","","","","","","",""
"","psychophysics","17","81188","0.0-17.0","5f5848bad298df3b59ffcd12","64e50c9b9e292bdebdd238ed","","","","","2490",""," ","key"," ","16.666000000000075","500","250","instEB0","40","1","","40","0","0","40"
"","psychophysics","18","91924","0.0-18.0","5f5848bad298df3b59ffcd12","64e50c9b9e292bdebdd238ed","","","","","10734",""," ","key"," ","16.66659720062209","500","250","instEB1","28","1","","40","0","0","30"
"","psychophysics","19","99128","0.0-19.0","5f5848bad298df3b59ffcd12","64e50c9b9e292bdebdd238ed","","","","","7202",""," ","key"," ","16.666614849187937","500","250","instEB2","32","1","","30","0","0","40"
"","psychophysics","20","107511","0.0-20.0","5f5848bad298df3b59ffcd12","64e50c9b9e292bdebdd238ed","","","","","8379",""," ","key"," ","16.902212121212123","500","250","instEB3","37","1","","27","0","0","45"
"","psychophysics","21","115306","0.0-21.0","5f5848bad298df3b59ffcd12","64e50c9b9e292bdebdd238ed","","","","","7793",""," ","key"," ","16.666593147751605","500","250","instEB4","29","1","","40","0","0","30"
"","psychophysics","22","117375","0.0-22.0","5f5848bad298df3b59ffcd12","64e50c9b9e292bdebdd238ed","","","","","2065",""," ","key"," ","16.666000000000043","500","250","inst","","","","","","",""
"","psychophysics","23","122591","0.0-23.0","5f5848bad298df3b59ffcd12","64e50c9b9e292bdebdd238ed","","","","","5190",""," ","key"," ","16.666000000000004","500","250","eb","32","1","","25","0","0","37"
"","psychophysics","24","129560","0.0-24.0","5f5848bad298df3b59ffcd12","64e50c9b9e292bdebdd238ed","","","","","6965",""," ","key"," ","16.666606714628276","500","250","eb","27","1","","50","0","0","25"
"","psychophysics","25","134036","0.0-25.0","5f5848bad298df3b59ffcd12","64e50c9b9e292bdebdd238ed","","","","","4466",""," ","key"," ","16.666000000000047","500","250","eb","41","1","","24","0","0","51"
"","psychophysics","26","137459","0.0-26.0","5f5848bad298df3b59ffcd12","64e50c9b9e292bdebdd238ed","","","","","3419",""," ","key"," ","16.66698529411766","500","250","eb","32","1","","42","0","0","28"
"","psychophysics","27","143935","0.0-27.0","5f5848bad298df3b59ffcd12","64e50c9b9e292bdebdd238ed","","","","","6456",""," ","key"," ","16.66599999999999","500","250","eb","36","1","","50","0","0","33"
"","psychophysics","28","145942","0.0-28.0","5f5848bad298df3b59ffcd12","64e50c9b9e292bdebdd238ed","","","","","2004",""," ","key"," ","16.66961344537822","500","250","eb","51","1","","51","0","0","52"
"","psychophysics","29","149591","0.0-29.0","5f5848bad298df3b59ffcd12","64e50c9b9e292bdebdd238ed","","","","","3645",""," ","key"," ","16.665999999999976","500","250","eb","24","1","","25","0","0","24"
"","psychophysics","30","153188","0.0-30.0","5f5848bad298df3b59ffcd12","64e50c9b9e292bdebdd238ed","","","","","3593",""," ","key"," ","16.66600000000001","500","250","eb","39","1","","47","0","0","30"
"","psychophysics","31","158338","0.0-31.0","5f5848bad298df3b59ffcd12","64e50c9b9e292bdebdd238ed","","","","","5147",""," ","key"," ","16.666655844155898","500","250","eb","30","1","","50","0","0","24"
"","psychophysics","32","159768","0.0-32.0","5f5848bad298df3b59ffcd12","64e50c9b9e292bdebdd238ed","","","","","1425",""," ","key"," ","16.665999999999837","500","250","eb","34","1","","34","0","0","43"
"","psychophysics","33","161122","0.0-33.0","5f5848bad298df3b59ffcd12","64e50c9b9e292bdebdd238ed","","","","","1349",""," ","key"," ","16.665999999999986","500","250","eb","32","1","","32","0","0","35"
"","psychophysics","34","162621","0.0-34.0","5f5848bad298df3b59ffcd12","64e50c9b9e292bdebdd238ed","","","","","1479",""," ","key"," ","16.665999999999727","500","250","eb","50","1","","50","0","0","47"
"","psychophysics","35","165191","0.0-35.0","5f5848bad298df3b59ffcd12","64e50c9b9e292bdebdd238ed","","","","","2565",""," ","key"," ","16.66599999999991","500","250","eb","39","1","","45","0","0","37"
"","psychophysics","36","167854","0.0-36.0","5f5848bad298df3b59ffcd12","64e50c9b9e292bdebdd238ed","","","","","2659",""," ","key"," ","17.208818181818156","500","250","eb","34","1","","39","0","0","28"
"","psychophysics","37","170304","0.0-37.0","5f5848bad298df3b59ffcd12","64e50c9b9e292bdebdd238ed","","","","","2445",""," ","key"," ","16.89747222222225","500","250","eb","39","1","","41","0","0","34"
"","psychophysics","38","172456","0.0-38.0","5f5848bad298df3b59ffcd12","64e50c9b9e292bdebdd238ed","","","","","2146",""," ","key"," ","16.666000000000167","500","250","inst","","","","","","",""
"","psychophysics","39","174636","0.0-39.0","5f5848bad298df3b59ffcd12","64e50c9b9e292bdebdd238ed","","","","","2099",""," ","key"," ","17.059685039369977","500","250","instZol0","0","","","0","0","0",""
"","psychophysics","40","184166","0.0-40.0","5f5848bad298df3b59ffcd12","64e50c9b9e292bdebdd238ed","","","","","9527",""," ","key"," ","16.666511383537667","500","250","instZol1","2.7755575615628914e-17","","","-1.3","0","0",""
"","psychophysics","41","192086","0.0-41.0","5f5848bad298df3b59ffcd12","64e50c9b9e292bdebdd238ed","","","","","7901",""," ","key"," ","16.666322784810127","500","250","instZol2","-2.4000000000000004","2","","2","0","0",""
"","psychophysics","42","193592","0.0-42.0","5f5848bad298df3b59ffcd12","64e50c9b9e292bdebdd238ed","","","","","1502",""," ","key"," ","16.666000000000054","500","250","inst","","","","","","",""
"","psychophysics","43","201597","0.0-43.0","5f5848bad298df3b59ffcd12","64e50c9b9e292bdebdd238ed","","","","","null","","null","key","null","16.66668750000002","500","250","zol","-2.190000000000001","2","0","0.29","28","-12",""
"","psychophysics","44","207196","0.0-44.0","5f5848bad298df3b59ffcd12","64e50c9b9e292bdebdd238ed","","","","","5592",""," ","key"," ","16.666913432835813","500","250","zol","-1.7400000000000007","2","0","0.04","14","-22",""
"","psychophysics","45","210734","0.0-45.0","5f5848bad298df3b59ffcd12","64e50c9b9e292bdebdd238ed","","","","","3534",""," ","key"," ","16.665999999999922","500","250","zol","-1.9700000000000006","2","0","0.17","15","-9",""
"","psychophysics","46","214013","0.0-46.0","5f5848bad298df3b59ffcd12","64e50c9b9e292bdebdd238ed","","","","","3274",""," ","key"," ","16.665999999999965","500","250","zol","-1.0599999999999998","2","0","-0.64","7","-15",""
"","psychophysics","47","217089","0.0-47.0","5f5848bad298df3b59ffcd12","64e50c9b9e292bdebdd238ed","","","","","3073",""," ","key"," ","16.66709289617491","500","250","zol","-0.9299999999999999","2","0","-0.57","1","-13",""
"","psychophysics","48","219541","0.0-48.0","5f5848bad298df3b59ffcd12","64e50c9b9e292bdebdd238ed","","","","","2446",""," ","key"," ","16.66600000000003","500","250","zol","-1.5200000000000005","2","0","0.42","-1","0",""
"","psychophysics","49","222281","0.0-49.0","5f5848bad298df3b59ffcd12","64e50c9b9e292bdebdd238ed","","","","","2732",""," ","key"," ","16.665999999999922","500","250","zol","-1.3200000000000003","2","0","0.52","-13","2",""
"","psychophysics","50","225184","0.0-50.0","5f5848bad298df3b59ffcd12","64e50c9b9e292bdebdd238ed","","","","","2897",""," ","key"," ","16.66599999999996","500","250","zol","-1.18","2","0","-0.22","6","28",""
"","psychophysics","51","232082","0.0-51.0","5f5848bad298df3b59ffcd12","64e50c9b9e292bdebdd238ed","","","","","6893",""," ","key"," ","17.251368421052636","500","250","zol","-2.0700000000000007","2","0","-0.33","-2","18",""
"","psychophysics","52","236207","0.0-52.0","5f5848bad298df3b59ffcd12","64e50c9b9e292bdebdd238ed","","","","","4120",""," ","key"," ","16.667077235772457","500","250","zol","-2.020000000000001","2","0","0.72","-19","2",""
"","psychophysics","53","238806","0.0-53.0","5f5848bad298df3b59ffcd12","64e50c9b9e292bdebdd238ed","","","","","2591",""," ","key"," ","16.66599999999988","500","250","zol","-1.0499999999999998","2","0","-0.25","-2","-9",""
"","psychophysics","54","243385","0.0-54.0","5f5848bad298df3b59ffcd12","64e50c9b9e292bdebdd238ed","","","","","4571",""," ","key"," ","16.666000000000093","500","250","zol","-2.3000000000000007","2","0","0.4","-28","22",""
"","psychophysics","55","246516","0.0-55.0","5f5848bad298df3b59ffcd12","64e50c9b9e292bdebdd238ed","","","","","3126",""," ","key"," ","16.668598930481235","500","250","zol","-1.6000000000000003","2","0","-0.2","18","-12",""
"","psychophysics","56","249305","0.0-56.0","5f5848bad298df3b59ffcd12","64e50c9b9e292bdebdd238ed","","","","","2783",""," ","key"," ","16.666000000000068","500","250","zol","-1.5400000000000005","2","0","-0.06","6","-29",""
"","psychophysics","57","252013","0.0-57.0","5f5848bad298df3b59ffcd12","64e50c9b9e292bdebdd238ed","","","","","2700",""," ","key"," ","16.665999999999954","500","250","zol","-1.8900000000000006","2","0","0.49","14","7",""
"","psychophysics","58","253238","0.0-58.0","5f5848bad298df3b59ffcd12","64e50c9b9e292bdebdd238ed","","","","","1221",""," ","key"," ","16.665999999999865","500","250","inst","","","","","","",""
"","psychophysics","59","254904","0.0-59.0","5f5848bad298df3b59ffcd12","64e50c9b9e292bdebdd238ed","","","","","1663",""," ","key"," ","16.66599999999979","500","250","instPzPre","50","0","","50","","","50"
"","psychophysics","60","259008","0.0-60.0","5f5848bad298df3b59ffcd12","64e50c9b9e292bdebdd238ed","","","","","4099",""," ","key"," ","16.87370247933891","500","250","instPz0","50","1","","50","","","50"
"","psychophysics","61","268019","0.0-61.0","5f5848bad298df3b59ffcd12","64e50c9b9e292bdebdd238ed","","","","","9004",""," ","key"," ","16.66635740740738","500","250","instPz1","46","1","","25","","","50"
"","psychophysics","62","273788","0.0-62.0","5f5848bad298df3b59ffcd12","64e50c9b9e292bdebdd238ed","","","","","5765",""," ","key"," ","16.665999999999887","500","250","instPz2","22","1","","35","","","20"
"","psychophysics","63","283011","0.0-63.0","5f5848bad298df3b59ffcd12","64e50c9b9e292bdebdd238ed","","","","","9197",""," ","key"," ","16.696634057971043","500","250","instPz3","51","1","","100","","","30"
"","psychophysics","64","288844","0.0-64.0","5f5848bad298df3b59ffcd12","64e50c9b9e292bdebdd238ed","","","","","5830",""," ","key"," ","16.909322674418693","500","250","instPz4","64","1","","100","","","30"
"","psychophysics","65","290049","0.0-65.0","5f5848bad298df3b59ffcd12","64e50c9b9e292bdebdd238ed","","","","","1202",""," ","key"," ","16.66600000000031","500","250","inst","","","","","","",""
"","psychophysics","66","291887","0.0-66.0","5f5848bad298df3b59ffcd12","64e50c9b9e292bdebdd238ed","","","","","1820",""," ","key"," ","16.666000000000377","500","250","pz","51","1","0","54","","","29"
"","psychophysics","67","293968","0.0-67.0","5f5848bad298df3b59ffcd12","64e50c9b9e292bdebdd238ed","","","","","2076",""," ","key"," ","16.666000000000256","500","250","pz","55","1","0","58","","","27"
"","psychophysics","68","296838","0.0-68.0","5f5848bad298df3b59ffcd12","64e50c9b9e292bdebdd238ed","","","","","2866",""," ","key"," ","16.666970760234065","500","250","pz","54","1","0","57","","","30"
"","psychophysics","69","298929","0.0-69.0","5f5848bad298df3b59ffcd12","64e50c9b9e292bdebdd238ed","","","","","2084",""," ","key"," ","16.666","500","250","pz","52","1","0","50","","","40"
"","psychophysics","70","300348","0.0-70.0","5f5848bad298df3b59ffcd12","64e50c9b9e292bdebdd238ed","","","","","1416",""," ","key"," ","16.66600000000021","500","250","pz","44","1","0","44","","","33"
"","psychophysics","71","306232","0.0-71.0","5f5848bad298df3b59ffcd12","64e50c9b9e292bdebdd238ed","","","","","5880",""," ","key"," ","16.666769886363742","500","250","pz","65","1","0","31","","","40"
"","psychophysics","72","309980","0.0-72.0","5f5848bad298df3b59ffcd12","64e50c9b9e292bdebdd238ed","","","","","3744",""," ","key"," ","16.666000000000036","500","250","pz","56","1","0","34","","","45"
"","psychophysics","73","311135","0.0-73.0","5f5848bad298df3b59ffcd12","64e50c9b9e292bdebdd238ed","","","","","1151",""," ","key"," ","16.666000000000007","500","250","pz","60","1","0","60","","","50"
"","psychophysics","74","314659","0.0-74.0","5f5848bad298df3b59ffcd12","64e50c9b9e292bdebdd238ed","","","","","3520",""," ","key"," ","16.66600000000006","500","250","pz","71","1","0","54","","","59"
"","psychophysics","75","316664","0.0-75.0","5f5848bad298df3b59ffcd12","64e50c9b9e292bdebdd238ed","","","","","2000",""," ","key"," ","16.667781512605167","500","250","pz","49","1","0","42","","","51"
"","psychophysics","76","320871","0.0-76.0","5f5848bad298df3b59ffcd12","64e50c9b9e292bdebdd238ed","","","","","4204",""," ","key"," ","16.665999999999872","500","250","pz","52","1","0","33","","","48"
"","psychophysics","77","323391","0.0-77.0","5f5848bad298df3b59ffcd12","64e50c9b9e292bdebdd238ed","","","","","2513",""," ","key"," ","16.665999999999944","500","250","pz","50","1","0","44","","","60"
"","psychophysics","78","327519","0.0-78.0","5f5848bad298df3b59ffcd12","64e50c9b9e292bdebdd238ed","","","","","4124",""," ","key"," ","16.667056910569187","500","250","pz","53","1","0","39","","","47"
"","psychophysics","79","329194","0.0-79.0","5f5848bad298df3b59ffcd12","64e50c9b9e292bdebdd238ed","","","","","1658",""," ","key"," ","16.665999999999766","500","250","pz","59","1","0","54","","","53"
"","psychophysics","80","331345","0.0-80.0","5f5848bad298df3b59ffcd12","64e50c9b9e292bdebdd238ed","","","","","2147",""," ","key"," ","16.665999999999713","500","250","pz","47","1","0","42","","","49"
"","psychophysics","81","332339","0.0-81.0","5f5848bad298df3b59ffcd12","64e50c9b9e292bdebdd238ed","","","","","976",""," ","key"," ","16.665999999999446","500","250","inst","","","","","","",""
"","psychophysics","82","334115","0.0-82.0","5f5848bad298df3b59ffcd12","64e50c9b9e292bdebdd238ed","","","","","1771",""," ","key"," ","16.82472380952344","500","250","instBr0","0","","","0","0","0","300"
"","psychophysics","83","341302","0.0-83.0","5f5848bad298df3b59ffcd12","64e50c9b9e292bdebdd238ed","","","","","7183",""," ","key"," ","16.666541860465145","500","250","instBr1","-5","","","-40","0","0","300"
"","psychophysics","84","353443","0.0-84.0","5f5848bad298df3b59ffcd12","64e50c9b9e292bdebdd238ed","","","","","12135",""," ","key"," ","16.851701388888937","500","250","instBr3","-15","1","","40","0","0","300"
"","psychophysics","85","354274","0.0-85.0","5f5848bad298df3b59ffcd12","64e50c9b9e292bdebdd238ed","","","","","815",""," ","key"," ","17.752913043478696","500","250","inst","","","","","","",""
"","psychophysics","86","357372","0.0-86.0","5f5848bad298df3b59ffcd12","64e50c9b9e292bdebdd238ed","","","","","3096",""," ","key"," ","16.667470270270055","500","250","br","-19","1","0","0","18","-8","252"
"","psychophysics","87","360800","0.0-87.0","5f5848bad298df3b59ffcd12","64e50c9b9e292bdebdd238ed","","","","","3424",""," ","key"," ","16.666000000000007","500","250","br","-15","1","0","0","-30","12","260"
"","psychophysics","88","365527","0.0-88.0","5f5848bad298df3b59ffcd12","64e50c9b9e292bdebdd238ed","","","","","4720",""," ","key"," ","16.66600000000001","500","250","br","-18","1","0","15","16","-5","239"
"","psychophysics","89","370350","0.0-89.0","5f5848bad298df3b59ffcd12","64e50c9b9e292bdebdd238ed","","","","","4819",""," ","key"," ","16.667281249999885","500","250","br","-10","1","0","25","-2","-9","227"
"","psychophysics","90","374223","0.0-90.0","5f5848bad298df3b59ffcd12","64e50c9b9e292bdebdd238ed","","","","","3867",""," ","key"," ","16.665999999999947","500","250","br","-17","1","0","4","-15","-20","215"
"","psychophysics","91","375309","0.0-91.0","5f5848bad298df3b59ffcd12","64e50c9b9e292bdebdd238ed","","","","","1082",""," ","key"," ","16.665999999999258","500","250","br","-22","1","0","-22","-24","-18","211"
"","psychophysics","92","378078","0.0-92.0","5f5848bad298df3b59ffcd12","64e50c9b9e292bdebdd238ed","","","","","2765",""," ","key"," ","16.667690909090876","500","250","br","-15","1","0","0","1","-5","297"
"","psychophysics","93","380254","0.0-93.0","5f5848bad298df3b59ffcd12","64e50c9b9e292bdebdd238ed","","","","","2159",""," ","key"," ","16.665999999999922","500","250","br","-14","1","0","-3","-15","14","268"
"","psychophysics","94","381704","0.0-94.0","5f5848bad298df3b59ffcd12","64e50c9b9e292bdebdd238ed","","","","","1445",""," ","key"," ","16.666000000000448","500","250","br","-21","1","0","-21","-18","-10","269"
"","psychophysics","95","383336","0.0-95.0","5f5848bad298df3b59ffcd12","64e50c9b9e292bdebdd238ed","","","","","1629",""," ","key"," ","16.66600000000014","500","250","br","-13","1","0","-13","-8","9","256"
"","psychophysics","96","388058","0.0-96.0","5f5848bad298df3b59ffcd12","64e50c9b9e292bdebdd238ed","","","","","4706",""," ","key"," ","16.666241134751584","500","250","br","-12","1","0","25","-6","-29","235"
"","psychophysics","97","389787","0.0-97.0","5f5848bad298df3b59ffcd12","64e50c9b9e292bdebdd238ed","","","","","1726",""," ","key"," ","16.665999999999983","500","250","br","-22","1","0","-22","29","27","265"
"","psychophysics","98","390758","0.0-98.0","5f5848bad298df3b59ffcd12","64e50c9b9e292bdebdd238ed","","","","","967",""," ","key"," ","16.665999999999993","500","250","br","-16","1","0","-16","8","22","278"
"","psychophysics","99","393395","0.0-99.0","5f5848bad298df3b59ffcd12","64e50c9b9e292bdebdd238ed","","","","","2633",""," ","key"," ","16.66600000000022","500","250","br","-9","1","0","-3","-11","-28","231"
"","psychophysics","100","397659","0.0-100.0","5f5848bad298df3b59ffcd12","64e50c9b9e292bdebdd238ed","","","","","4247",""," ","key"," ","16.667850980392256","500","250","br","-18","1","0","-17","29","-9","203"
"","psychophysics","101","398348","0.0-101.0","5f5848bad298df3b59ffcd12","64e50c9b9e292bdebdd238ed","","","","","687",""," ","key"," ","16.66600000000035","500","250","inst","","","","","","",""
"","psychophysics","102","405730","0.0-102.0","5f5848bad298df3b59ffcd12","64e50c9b9e292bdebdd238ed","","","","","7376",""," ","key"," ","16.66600000000007","500","250","instPog0","160","1","","190","0","0","160"
"","psychophysics","103","412538","0.0-103.0","5f5848bad298df3b59ffcd12","64e50c9b9e292bdebdd238ed","","","","","6803",""," ","key"," ","16.87343176178664","500","250","instPog1","166","1","","190","0","0","160"
"","psychophysics","104","421180","0.0-104.0","5f5848bad298df3b59ffcd12","64e50c9b9e292bdebdd238ed","","","","","8639",""," ","key"," ","16.666117988394532","500","250","instPog2","164","1","","160","0","0","160"
"","psychophysics","105","422190","0.0-105.0","5f5848bad298df3b59ffcd12","64e50c9b9e292bdebdd238ed","","","","","1004",""," ","key"," ","16.66599999999938","500","250","inst","","","","","","",""
"","psychophysics","106","427839","0.0-106.0","5f5848bad298df3b59ffcd12","64e50c9b9e292bdebdd238ed","","","","","5645",""," ","key"," ","16.667136094674465","500","250","pog","179","1","0","157","0","0","166"
"","psychophysics","107","435848","0.0-107.0","5f5848bad298df3b59ffcd12","64e50c9b9e292bdebdd238ed","","","","","null","","null","key","null","16.66600000000005","500","250","pog","186","1","0","126","0","0","172"
"","psychophysics","108","435862","0.0-108.0","5f5848bad298df3b59ffcd12","64e50c9b9e292bdebdd238ed","","","","","9",""," ","key"," ","NaN","500","250","pog","115","1","0","115","0","0","129"
"","psychophysics","109","440737","0.0-109.0","5f5848bad298df3b59ffcd12","64e50c9b9e292bdebdd238ed","","","","","4858",""," ","key"," ","16.666897260273963","500","250","pog","172","1","0","218","0","0","150"
"","psychophysics","110","446580","0.0-110.0","5f5848bad298df3b59ffcd12","64e50c9b9e292bdebdd238ed","","","","","5839",""," ","key"," ","16.666458452722182","500","250","pog","214","1","0","114","0","0","197"
"","psychophysics","111","450190","0.0-111.0","5f5848bad298df3b59ffcd12","64e50c9b9e292bdebdd238ed","","","","","3605",""," ","key"," ","16.666000000000135","500","250","pog","212","1","0","164","0","0","195"
"","psychophysics","112","452971","0.0-112.0","5f5848bad298df3b59ffcd12","64e50c9b9e292bdebdd238ed","","","","","2777",""," ","key"," ","16.665999999999894","500","250","pog","162","1","0","140","0","0","150"
"","psychophysics","113","456989","0.0-113.0","5f5848bad298df3b59ffcd12","64e50c9b9e292bdebdd238ed","","","","","4014",""," ","key"," ","16.667579166666595","500","250","pog","188","1","0","160","0","0","173"
"","psychophysics","114","459558","0.0-114.0","5f5848bad298df3b59ffcd12","64e50c9b9e292bdebdd238ed","","","","","2553",""," ","key"," ","16.66599999999991","500","250","pog","193","1","0","205","0","0","178"
"","psychophysics","115","462670","0.0-115.0","5f5848bad298df3b59ffcd12","64e50c9b9e292bdebdd238ed","","","","","3096",""," ","key"," ","16.665999999999944","500","250","pog","177","1","0","205","0","0","163"
"","psychophysics","116","465326","0.0-116.0","5f5848bad298df3b59ffcd12","64e50c9b9e292bdebdd238ed","","","","","2652",""," ","key"," ","16.666000000000018","500","250","pog","203","1","0","217","0","0","179"
"","psychophysics","117","467019","0.0-117.0","5f5848bad298df3b59ffcd12","64e50c9b9e292bdebdd238ed","","","","","1688",""," ","key"," ","17.72142105263131","500","250","pog","198","1","0","200","0","0","185"
"","psychophysics","118","470719","0.0-118.0","5f5848bad298df3b59ffcd12","64e50c9b9e292bdebdd238ed","","","","","3697",""," ","key"," ","16.66599999999994","500","250","pog","170","1","0","128","0","0","163"
"","psychophysics","119","471790","0.0-119.0","5f5848bad298df3b59ffcd12","64e50c9b9e292bdebdd238ed","","","","","1067",""," ","key"," ","16.665999999999748","500","250","pog","127","1","0","127","0","0","121"
"","psychophysics","120","475091","0.0-120.0","5f5848bad298df3b59ffcd12","64e50c9b9e292bdebdd238ed","","","","","3284",""," ","key"," ","16.666000000000246","500","250","pog","170","1","0","206","0","0","160"
"","psychophysics","121","479237","0.0-121.0","5f5848bad298df3b59ffcd12","64e50c9b9e292bdebdd238ed","","","","","4142",""," ","key"," ","16.667088709677515","500","250","inst","","","","","","",""
"","psychophysics","122","485276","0.0-122.0","5f5848bad298df3b59ffcd12","64e50c9b9e292bdebdd238ed","","","","","6035",""," ","key"," ","16.6660000000001","500","250","instPz1","36","2","","25","","","50"
"","psychophysics","123","488890","0.0-123.0","5f5848bad298df3b59ffcd12","64e50c9b9e292bdebdd238ed","","","","","3611",""," ","key"," ","16.66725925925938","500","250","instPz2","32","2","","20","","","35"
"","psychophysics","124","497865","0.0-124.0","5f5848bad298df3b59ffcd12","64e50c9b9e292bdebdd238ed","","","","","8956",""," ","key"," ","16.666507434944247","500","250","instPz3","16","2","","30","","","100"
"","psychophysics","125","508601","0.0-125.0","5f5848bad298df3b59ffcd12","64e50c9b9e292bdebdd238ed","","","","","10733",""," ","key"," ","16.666295489891066","500","250","instPz4","47","2","","30","","","100"
"","psychophysics","126","509650","0.0-126.0","5f5848bad298df3b59ffcd12","64e50c9b9e292bdebdd238ed","","","","","1048",""," ","key"," ","16.666000000000256","500","250","inst","","","","","","",""
"","psychophysics","127","513183","0.0-127.0","5f5848bad298df3b59ffcd12","64e50c9b9e292bdebdd238ed","","","","","3529",""," ","key"," ","16.66600000000006","500","250","pz","38","2","1","44","","","50"
"","psychophysics","128","516051","0.0-128.0","5f5848bad298df3b59ffcd12","64e50c9b9e292bdebdd238ed","","","","","2864",""," ","key"," ","16.665999999999993","500","250","pz","40","2","1","47","","","52"
"","psychophysics","129","520875","0.0-129.0","5f5848bad298df3b59ffcd12","64e50c9b9e292bdebdd238ed","","","","","4807",""," ","key"," ","16.667562500000106","500","250","pz","45","2","1","59","","","47"
"","psychophysics","130","523568","0.0-130.0","5f5848bad298df3b59ffcd12","64e50c9b9e292bdebdd238ed","","","","","2686",""," ","key"," ","16.665999999999787","500","250","pz","38","2","1","44","","","41"
"","psychophysics","131","526235","0.0-131.0","5f5848bad298df3b59ffcd12","64e50c9b9e292bdebdd238ed","","","","","2663",""," ","key"," ","16.66599999999982","500","250","pz","43","2","1","53","","","47"
"","psychophysics","132","528725","0.0-132.0","5f5848bad298df3b59ffcd12","64e50c9b9e292bdebdd238ed","","","","","2472",""," ","key"," ","17.250692307692628","500","250","pz","35","2","1","27","","","50"
"","psychophysics","133","532633","0.0-133.0","5f5848bad298df3b59ffcd12","64e50c9b9e292bdebdd238ed","","","","","3901",""," ","key"," ","16.666000000000174","500","250","pz","42","2","1","55","","","51"
"","psychophysics","134","534863","0.0-134.0","5f5848bad298df3b59ffcd12","64e50c9b9e292bdebdd238ed","","","","","2227",""," ","key"," ","16.665999999999848","500","250","pz","40","2","1","44","","","34"
"","psychophysics","135","536895","0.0-135.0","5f5848bad298df3b59ffcd12","64e50c9b9e292bdebdd238ed","","","","","2028",""," ","key"," ","16.667694214876732","500","250","pz","46","2","1","56","","","43"
"","psychophysics","136","538763","0.0-136.0","5f5848bad298df3b59ffcd12","64e50c9b9e292bdebdd238ed","","","","","1864",""," ","key"," ","16.665999999999798","500","250","pz","37","2","1","41","","","37"
"","psychophysics","137","540685","0.0-137.0","5f5848bad298df3b59ffcd12","64e50c9b9e292bdebdd238ed","","","","","1905",""," ","key"," ","16.665999999999993","500","250","pz","25","2","1","22","","","33"
"","psychophysics","138","544782","0.0-138.0","5f5848bad298df3b59ffcd12","64e50c9b9e292bdebdd238ed","","","","","4093",""," ","key"," ","16.73430327868822","500","250","pz","42","2","1","54","","","29"
"","psychophysics","139","547847","0.0-139.0","5f5848bad298df3b59ffcd12","64e50c9b9e292bdebdd238ed","","","","","3061",""," ","key"," ","16.66663934426227","500","250","pz","41","2","1","50","","","42"
"","psychophysics","140","549565","0.0-140.0","5f5848bad298df3b59ffcd12","64e50c9b9e292bdebdd238ed","","","","","1714",""," ","key"," ","16.66600000000029","500","250","pz","38","2","1","43","","","45"
"","psychophysics","141","551496","0.0-141.0","5f5848bad298df3b59ffcd12","64e50c9b9e292bdebdd238ed","","","","","1928",""," ","key"," ","16.665999999999716","500","250","pz","29","2","1","24","","","36"
"","psychophysics","142","553815","0.0-142.0","5f5848bad298df3b59ffcd12","64e50c9b9e292bdebdd238ed","","","","","2303",""," ","key"," ","16.66599999999955","500","250","inst","","","","","","",""
"","psychophysics","143","558151","0.0-143.0","5f5848bad298df3b59ffcd12","64e50c9b9e292bdebdd238ed","","","","","4333",""," ","key"," ","16.667447876448126","500","250","instZol1","-0.09999999999999998","","","-1.3","0","0",""
"","psychophysics","144","566618","0.0-144.0","5f5848bad298df3b59ffcd12","64e50c9b9e292bdebdd238ed","","","","","8463",""," ","key"," ","16.66653451676521","500","250","instZol2","1.300000000000001","1","","2","0","0",""
"","psychophysics","145","569498","0.0-145.0","5f5848bad298df3b59ffcd12","64e50c9b9e292bdebdd238ed","","","","","2877",""," ","key"," ","16.66599999999947","500","250","inst","","","","","","",""
"","psychophysics","146","576630","0.0-146.0","5f5848bad298df3b59ffcd12","64e50c9b9e292bdebdd238ed","","","","","7128",""," ","key"," ","16.666391100702572","500","250","zol","1.7400000000000004","1","1","-0.44","-25","8",""
"","psychophysics","147","582996","0.0-147.0","5f5848bad298df3b59ffcd12","64e50c9b9e292bdebdd238ed","","","","","6360",""," ","key"," ","16.666000000000114","500","250","zol","1.5500000000000003","1","1","-0.15","18","-5",""
"","psychophysics","148","586152","0.0-148.0","5f5848bad298df3b59ffcd12","64e50c9b9e292bdebdd238ed","","","","","3152",""," ","key"," ","16.665999999999915","500","250","zol","1.8600000000000005","1","1","-0.06","1","21",""
"","psychophysics","149","591642","0.0-149.0","5f5848bad298df3b59ffcd12","64e50c9b9e292bdebdd238ed","","","","","5420",""," ","key"," ","16.82281677018647","500","250","zol","0.57","1","1","0.33","26","-13",""
"","psychophysics","150","596783","0.0-150.0","5f5848bad298df3b59ffcd12","64e50c9b9e292bdebdd238ed","","","","","5091",""," ","key"," ","16.99424262295103","500","250","zol","0.46999999999999986","1","1","0.63","3","-28",""
"","psychophysics","151","598860","0.0-151.0","5f5848bad298df3b59ffcd12","64e50c9b9e292bdebdd238ed","","","","","2073",""," ","key"," ","16.666000000000256","500","250","zol","0.7699999999999999","1","1","-0.07","12","-22",""
"","psychophysics","152","600729","0.0-152.0","5f5848bad298df3b59ffcd12","64e50c9b9e292bdebdd238ed","","","","","1865",""," ","key"," ","16.665999999999798","500","250","zol","0.53","1","1","-0.13","-11","-29",""
"","psychophysics","153","606726","0.0-153.0","5f5848bad298df3b59ffcd12","64e50c9b9e292bdebdd238ed","","","","","5991",""," ","key"," ","16.666899721448512","500","250","zol","1.9400000000000008","1","1","0.36","2","20",""
"","psychophysics","154","609317","0.0-154.0","5f5848bad298df3b59ffcd12","64e50c9b9e292bdebdd238ed","","","","","2586",""," ","key"," ","16.66599999999933","500","250","zol","1.5700000000000003","1","1","-0.57","6","-23",""
"","psychophysics","155","614544","0.0-155.0","5f5848bad298df3b59ffcd12","64e50c9b9e292bdebdd238ed","","","","","5222",""," ","key"," ","16.66599999999995","500","250","zol","1.7700000000000005","1","1","0.73","26","-30",""
"","psychophysics","156","619783","0.0-156.0","5f5848bad298df3b59ffcd12","64e50c9b9e292bdebdd238ed","","","","","5234",""," ","key"," ","16.66678274760377","500","250","zol","1.8900000000000006","1","1","0.61","11","-25",""
"","psychophysics","157","622562","0.0-157.0","5f5848bad298df3b59ffcd12","64e50c9b9e292bdebdd238ed","","","","","2770",""," ","key"," ","16.665999999999894","500","250","zol","1.4400000000000004","1","1","-0.14","-11","-6",""
"","psychophysics","158","626763","0.0-158.0","5f5848bad298df3b59ffcd12","64e50c9b9e292bdebdd238ed","","","","","4196",""," ","key"," ","16.66666932270929","500","250","zol","1.9900000000000007","1","1","-0.49","-5","8",""
"","psychophysics","159","630085","0.0-159.0","5f5848bad298df3b59ffcd12","64e50c9b9e292bdebdd238ed","","","","","3317",""," ","key"," ","16.666000000000086","500","250","zol","2.220000000000001","1","1","-0.52","15","16",""
"","psychophysics","160","632758","0.0-160.0","5f5848bad298df3b59ffcd12","64e50c9b9e292bdebdd238ed","","","","","2664",""," ","key"," ","16.66600000000035","500","250","zol","1.8500000000000008","1","1","-0.45","24","28",""
"","psychophysics","161","633878","0.0-161.0","5f5848bad298df3b59ffcd12","64e50c9b9e292bdebdd238ed","","","","","1117",""," ","key"," ","16.666000000000086","500","250","inst","","","","","","",""
"","psychophysics","162","638094","0.0-162.0","5f5848bad298df3b59ffcd12","64e50c9b9e292bdebdd238ed","","","","","4213",""," ","key"," ","16.667361111111298","500","250","instBr3","28","2","","40","0","0","300"
"","psychophysics","163","638764","0.0-163.0","5f5848bad298df3b59ffcd12","64e50c9b9e292bdebdd238ed","","","","","667",""," ","key"," ","16.66600000000117","500","250","inst","","","","","","",""
"","psychophysics","164","642727","0.0-164.0","5f5848bad298df3b59ffcd12","64e50c9b9e292bdebdd238ed","","","","","3960",""," ","key"," ","16.665999999999773","500","250","br","17","2","1","-7","17","-13","272"
"","psychophysics","165","644279","0.0-165.0","5f5848bad298df3b59ffcd12","64e50c9b9e292bdebdd238ed","","","","","1549",""," ","key"," ","16.66599999999997","500","250","br","24","2","1","26","10","-8","300"
"","psychophysics","166","647933","0.0-166.0","5f5848bad298df3b59ffcd12","64e50c9b9e292bdebdd238ed","","","","","3651",""," ","key"," ","17.469134615384412","500","250","br","13","2","1","-1","5","-16","263"
"","psychophysics","167","649062","0.0-167.0","5f5848bad298df3b59ffcd12","64e50c9b9e292bdebdd238ed","","","","","1123",""," ","key"," ","16.66599999999961","500","250","br","14","2","1","14","2","-14","279"
"","psychophysics","168","650707","0.0-168.0","5f5848bad298df3b59ffcd12","64e50c9b9e292bdebdd238ed","","","","","1642",""," ","key"," ","16.66600000000041","500","250","br","13","2","1","9","-14","-15","286"
"","psychophysics","169","655793","0.0-169.0","5f5848bad298df3b59ffcd12","64e50c9b9e292bdebdd238ed","","","","","5082",""," ","key"," ","16.721003300330153","500","250","br","17","2","1","-3","28","-12","243"
"","psychophysics","170","657193","0.0-170.0","5f5848bad298df3b59ffcd12","64e50c9b9e292bdebdd238ed","","","","","1395",""," ","key"," ","16.6679397590363","500","250","br","28","2","1","26","11","27","286"
"","psychophysics","171","661112","0.0-171.0","5f5848bad298df3b59ffcd12","64e50c9b9e292bdebdd238ed","","","","","3916",""," ","key"," ","17.1045789473686","500","250","br","18","2","1","3","12","15","242"
"","psychophysics","172","667849","0.0-172.0","5f5848bad298df3b59ffcd12","64e50c9b9e292bdebdd238ed","","","","","6734",""," ","key"," ","16.666454094292817","500","250","br","21","2","1","-26","-5","26","277"
"","psychophysics","173","672531","0.0-173.0","5f5848bad298df3b59ffcd12","64e50c9b9e292bdebdd238ed","","","","","4676",""," ","key"," ","16.665999999999933","500","250","br","22","2","1","-14","28","29","249"
"","psychophysics","174","673410","0.0-174.0","5f5848bad298df3b59ffcd12","64e50c9b9e292bdebdd238ed","","","","","873",""," ","key"," ","16.665999999999677","500","250","br","22","2","1","22","24","-1","227"
"","psychophysics","175","679726","0.0-175.0","5f5848bad298df3b59ffcd12","64e50c9b9e292bdebdd238ed","","","","","6313",""," ","key"," ","16.666986772486887","500","250","br","21","2","1","-26","-23","17","270"
"","psychophysics","176","680817","0.0-176.0","5f5848bad298df3b59ffcd12","64e50c9b9e292bdebdd238ed","","","","","1087",""," ","key"," ","16.665999999999258","500","250","br","26","2","1","27","7","-11","286"
"","psychophysics","177","686006","0.0-177.0","5f5848bad298df3b59ffcd12","64e50c9b9e292bdebdd238ed","","","","","5172",""," ","key"," ","16.66599999999978","500","250","br","21","2","1","-26","-11","-16","289"
"","psychophysics","178","687089","0.0-178.0","5f5848bad298df3b59ffcd12","64e50c9b9e292bdebdd238ed","","","","","1078",""," ","key"," ","16.670234374998472","500","250","br","14","2","1","14","21","-19","201"
"","psychophysics","179","687986","0.0-179.0","5f5848bad298df3b59ffcd12","64e50c9b9e292bdebdd238ed","","","","","895",""," ","key"," ","16.665999999999087","500","250","inst","","","","","","",""
"","psychophysics","180","694341","0.0-180.0","5f5848bad298df3b59ffcd12","64e50c9b9e292bdebdd238ed","","","","","6352",""," ","key"," ","16.666000000000196","500","250","instEB1","39","2","","30","0","0","40"
"","psychophysics","181","696822","0.0-181.0","5f5848bad298df3b59ffcd12","64e50c9b9e292bdebdd238ed","","","","","2477",""," ","key"," ","16.665999999999798","500","250","instEB2","36","2","","40","0","0","30"
"","psychophysics","182","700241","0.0-182.0","5f5848bad298df3b59ffcd12","64e50c9b9e292bdebdd238ed","","","","","3416",""," ","key"," ","16.666941176471074","500","250","instEB3","42","2","","45","0","0","27"
"","psychophysics","183","704623","0.0-183.0","5f5848bad298df3b59ffcd12","64e50c9b9e292bdebdd238ed","","","","","4378",""," ","key"," ","16.665999999999883","500","250","instEB4","44","2","","30","0","0","40"
"","psychophysics","184","706007","0.0-184.0","5f5848bad298df3b59ffcd12","64e50c9b9e292bdebdd238ed","","","","","1382",""," ","key"," ","16.666000000000988","500","250","inst","","","","","","",""
"","psychophysics","185","711289","0.0-185.0","5f5848bad298df3b59ffcd12","64e50c9b9e292bdebdd238ed","","","","","5277",""," ","key"," ","16.88080128205146","500","250","eb","53","2","","46","0","0","49"
"","psychophysics","186","712678","0.0-186.0","5f5848bad298df3b59ffcd12","64e50c9b9e292bdebdd238ed","","","","","1384",""," ","key"," ","16.665999999999567","500","250","eb","54","2","","54","0","0","42"
"","psychophysics","187","717072","0.0-187.0","5f5848bad298df3b59ffcd12","64e50c9b9e292bdebdd238ed","","","","","4391",""," ","key"," ","16.667003802281446","500","250","eb","57","2","","31","0","0","43"
"","psychophysics","188","724390","0.0-188.0","5f5848bad298df3b59ffcd12","64e50c9b9e292bdebdd238ed","","","","","7314",""," ","key"," ","16.66600000000023","500","250","eb","54","2","","29","0","0","51"
"","psychophysics","189","729193","0.0-189.0","5f5848bad298df3b59ffcd12","64e50c9b9e292bdebdd238ed","","","","","4800",""," ","key"," ","16.666571428571366","500","250","eb","53","2","","30","0","0","54"
"","psychophysics","190","731045","0.0-190.0","5f5848bad298df3b59ffcd12","64e50c9b9e292bdebdd238ed","","","","","1847",""," ","key"," ","16.666000000000086","500","250","eb","33","2","","30","0","0","29"
"","psychophysics","191","732707","0.0-191.0","5f5848bad298df3b59ffcd12","64e50c9b9e292bdebdd238ed","","","","","1655",""," ","key"," ","16.666000000000086","500","250","eb","26","2","","26","0","0","27"
"","psychophysics","192","736139","0.0-192.0","5f5848bad298df3b59ffcd12","64e50c9b9e292bdebdd238ed","","","","","3427",""," ","key"," ","16.665999999999567","500","250","eb","53","2","","42","0","0","51"
"","psychophysics","193","739638","0.0-193.0","5f5848bad298df3b59ffcd12","64e50c9b9e292bdebdd238ed","","","","","3496",""," ","key"," ","16.667808612439845","500","250","eb","43","2","","52","0","0","31"
"","psychophysics","194","741629","0.0-194.0","5f5848bad298df3b59ffcd12","64e50c9b9e292bdebdd238ed","","","","","1987",""," ","key"," ","16.665999999999904","500","250","eb","33","2","","36","0","0","26"
"","psychophysics","195","745557","0.0-195.0","5f5848bad298df3b59ffcd12","64e50c9b9e292bdebdd238ed","","","","","3921",""," ","key"," ","16.66600000000004","500","250","eb","44","2","","28","0","0","46"
"","psychophysics","196","746470","0.0-196.0","5f5848bad298df3b59ffcd12","64e50c9b9e292bdebdd238ed","","","","","909",""," ","key"," ","16.666000000000672","500","250","eb","41","2","","41","0","0","37"
"","psychophysics","197","749219","0.0-197.0","5f5848bad298df3b59ffcd12","64e50c9b9e292bdebdd238ed","","","","","2745",""," ","key"," ","16.667786585365807","500","250","eb","51","2","","38","0","0","54"
"","psychophysics","198","752117","0.0-198.0","5f5848bad298df3b59ffcd12","64e50c9b9e292bdebdd238ed","","","","","2895",""," ","key"," ","16.666000000000636","500","250","eb","53","2","","39","0","0","46"
"","psychophysics","199","753229","0.0-199.0","5f5848bad298df3b59ffcd12","64e50c9b9e292bdebdd238ed","","","","","1108",""," ","key"," ","16.665999999998782","500","250","eb","29","2","","29","0","0","27"
"","psychophysics","200","754119","0.0-200.0","5f5848bad298df3b59ffcd12","64e50c9b9e292bdebdd238ed","","","","","872",""," ","key"," ","16.665999999999087","500","250","inst","","","","","","",""
"","psychophysics","201","759316","0.0-201.0","5f5848bad298df3b59ffcd12","64e50c9b9e292bdebdd238ed","","","","","5194",""," ","key"," ","16.66645659164","500","250","instPog0","340","2","","370","0","0","340"
"","psychophysics","202","761037","0.0-202.0","5f5848bad298df3b59ffcd12","64e50c9b9e292bdebdd238ed","","","","","1718",""," ","key"," ","16.66600000000029","500","250","instPog1","370","2","","370","0","0","340"
"","psychophysics","203","764199","0.0-203.0","5f5848bad298df3b59ffcd12","64e50c9b9e292bdebdd238ed","","","","","3144",""," ","key"," ","16.666000000000366","500","250","instPog2","324","2","","340","0","0","340"
"","psychophysics","204","764801","0.0-204.0","5f5848bad298df3b59ffcd12","64e50c9b9e292bdebdd238ed","","","","","600",""," ","key"," ","16.666000000001596","500","250","inst","","","","","","",""
"","psychophysics","205","768782","0.0-205.0","5f5848bad298df3b59ffcd12","64e50c9b9e292bdebdd238ed","","","","","3978",""," ","key"," ","17.173168831168738","500","250","pog","308","2","1","354","0","0","315"
"","psychophysics","206","776356","0.0-206.0","5f5848bad298df3b59ffcd12","64e50c9b9e292bdebdd238ed","","","","","7570",""," ","key"," ","16.666000000000203","500","250","pog","369","2","1","287","0","0","366"
"","psychophysics","207","782219","0.0-207.0","5f5848bad298df3b59ffcd12","64e50c9b9e292bdebdd238ed","","","","","5860",""," ","key"," ","16.666749287749234","500","250","pog","318","2","1","400","0","0","330"
"","psychophysics","208","787445","0.0-208.0","5f5848bad298df3b59ffcd12","64e50c9b9e292bdebdd238ed","","","","","5223",""," ","key"," ","16.666503205128276","500","250","pog","335","2","1","301","0","0","358"
"","psychophysics","209","791388","0.0-209.0","5f5848bad298df3b59ffcd12","64e50c9b9e292bdebdd238ed","","","","","3937",""," ","key"," ","16.6660000000004","500","250","pog","371","2","1","371","0","0","358"
"","psychophysics","210","797273","0.0-210.0","5f5848bad298df3b59ffcd12","64e50c9b9e292bdebdd238ed","","","","","5882",""," ","key"," ","16.666000000000086","500","250","pog","316","2","1","372","0","0","300"
"","psychophysics","211","798452","0.0-211.0","5f5848bad298df3b59ffcd12","64e50c9b9e292bdebdd238ed","","","","","1176",""," ","key"," ","16.671314285713848","500","250","pog","339","2","1","339","0","0","347"
"","psychophysics","212","803942","0.0-212.0","5f5848bad298df3b59ffcd12","64e50c9b9e292bdebdd238ed","","","","","5487",""," ","key"," ","16.666000000000277","500","250","pog","349","2","1","289","0","0","362"
"","psychophysics","213","807683","0.0-213.0","5f5848bad298df3b59ffcd12","64e50c9b9e292bdebdd238ed","","","","","3737",""," ","key"," ","16.6667499999998","500","250","pog","317","2","1","287","0","0","312"
"","psychophysics","214","810614","0.0-214.0","5f5848bad298df3b59ffcd12","64e50c9b9e292bdebdd238ed","","","","","2928",""," ","key"," ","16.666000000000267","500","250","pog","317","2","1","287","0","0","308"
"","psychophysics","215","814467","0.0-215.0","5f5848bad298df3b59ffcd12","64e50c9b9e292bdebdd238ed","","","","","3849",""," ","key"," ","16.666000000000224","500","250","pog","298","2","1","326","0","0","300"
"","psychophysics","216","816614","0.0-216.0","5f5848bad298df3b59ffcd12","64e50c9b9e292bdebdd238ed","","","","","2144",""," ","key"," ","16.666000000000167","500","250","pog","308","2","1","292","0","0","342"
"","psychophysics","217","820237","0.0-217.0","5f5848bad298df3b59ffcd12","64e50c9b9e292bdebdd238ed","","","","","3620",""," ","key"," ","16.666810185185536","500","250","pog","292","2","1","332","0","0","313"
"","psychophysics","218","824236","0.0-218.0","5f5848bad298df3b59ffcd12","64e50c9b9e292bdebdd238ed","","","","","3994",""," ","key"," ","16.665999999999997","500","250","pog","381","2","1","321","0","0","372"
"","psychophysics","219","827815","0.0-219.0","5f5848bad298df3b59ffcd12","64e50c9b9e292bdebdd238ed","","","","","3575",""," ","key"," ","17.149221153846437","500","250","pog","314","2","1","292","0","0","305"
