"success","trial_type","trial_index","time_elapsed","internal_node_id","pid","sid","timeout","failed_images","failed_audio","failed_video","rt","stimulus","response","response_type","key_press","avg_frame_time","center_x","center_y","task","resp","version","block","jitterX","jitterY","start","parA"
"true","fullscreen","0","5330","0.0-0.0","631bfb8f27645e704e21c1cd","64de83948061a741afe9e213","","","","","","","","","","","","","","","","","","","",""
"true","preload","1","5615","0.0-1.0","631bfb8f27645e704e21c1cd","64de83948061a741afe9e213","false","[]","[]","[]","","","","","","","","","","","","","","","",""
"","html-button-response","2","6674","0.0-2.0","631bfb8f27645e704e21c1cd","64de83948061a741afe9e213","","","","","1057","Please Make Sure Your Audio Is On.","0","","","","","","","","","","","","",""
"","psychophysics","3","9760","0.0-3.0","631bfb8f27645e704e21c1cd","64de83948061a741afe9e213","","","","","3082",""," ","key"," ","6.942334831460672","768","250","","","","","","","",""
"","psychophysics","4","12630","0.0-4.0","631bfb8f27645e704e21c1cd","64de83948061a741afe9e213","","","","","2868",""," ","key"," ","6.9448470873786405","500","250","inst","","","","","","",""
"","psychophysics","5","15028","0.0-5.0","631bfb8f27645e704e21c1cd","64de83948061a741afe9e213","","","","","2397",""," ","key"," ","6.9444738372093004","500","250","sample0","","","","","","",""
"","psychophysics","6","16212","0.0-6.0","631bfb8f27645e704e21c1cd","64de83948061a741afe9e213","","","","","1182",""," ","key"," ","6.948447058823534","500","250","sample1","","","","","","",""
"","psychophysics","7","24086","0.0-7.0","631bfb8f27645e704e21c1cd","64de83948061a741afe9e213","","","","","7873",""," ","key"," ","6.943976169461604","500","250","sample2","132","","","","","",""
"","psychophysics","8","31821","0.0-8.0","631bfb8f27645e704e21c1cd","64de83948061a741afe9e213","","","","","7733",""," ","key"," ","6.944248876909252","500","250","sample3","100","","","","","",""
"","psychophysics","9","40005","0.0-9.0","631bfb8f27645e704e21c1cd","64de83948061a741afe9e213","","","","","8183",""," ","key"," ","6.943158878504671","500","250","sample4","100","","","","","",""
"","psychophysics","10","43025","0.0-10.0","631bfb8f27645e704e21c1cd","64de83948061a741afe9e213","","","","","3017",""," ","key"," ","6.945506912442393","500","250","sample5","","","","","","",""
"","psychophysics","11","51876","0.0-11.0","631bfb8f27645e704e21c1cd","64de83948061a741afe9e213","","","","","8850",""," ","key"," ","6.944124018838304","500","250","sample6","504","","","","","",""
"","psychophysics","12","53285","0.0-12.0","631bfb8f27645e704e21c1cd","64de83948061a741afe9e213","","","","","1408",""," ","key"," ","6.944876237623788","500","250","inst","","","","","","",""
"","psychophysics","13","53922","0.0-13.0","631bfb8f27645e704e21c1cd","64de83948061a741afe9e213","","","","","636",""," ","key"," ","6.945197802197791","500","250","inst","","","","","","",""
"","psychophysics","14","54962","0.0-14.0","631bfb8f27645e704e21c1cd","64de83948061a741afe9e213","","","","","1038",""," ","key"," ","6.9423851351351225","500","250","inst","","","","","","",""
"","psychophysics","15","55778","0.0-15.0","631bfb8f27645e704e21c1cd","64de83948061a741afe9e213","","","","","813",""," ","key"," ","6.948547008546973","500","250","inst","","","","","","",""
"","psychophysics","16","56380","0.0-16.0","631bfb8f27645e704e21c1cd","64de83948061a741afe9e213","","","","","601",""," ","key"," ","6.943848837209242","500","250","inst","","","","","","",""
"","psychophysics","17","62847","0.0-17.0","631bfb8f27645e704e21c1cd","64de83948061a741afe9e213","","","","","6465",""," ","key"," ","6.944616129032252","500","250","instBr0","-1","","","0","0","0","300"
"","psychophysics","18","65664","0.0-18.0","631bfb8f27645e704e21c1cd","64de83948061a741afe9e213","","","","","2816",""," ","key"," ","6.944306172839514","500","250","instBr1","7","","","0","0","-40","300"
"","psychophysics","19","73732","0.0-19.0","631bfb8f27645e704e21c1cd","64de83948061a741afe9e213","","","","","8067",""," ","key"," ","6.943004306632209","500","250","instBr3","14","2","","0","0","40","300"
"","psychophysics","20","75505","0.0-20.0","631bfb8f27645e704e21c1cd","64de83948061a741afe9e213","","","","","1772",""," ","key"," ","6.947011811023669","500","250","inst","","","","","","",""
"","psychophysics","21","78764","0.0-21.0","631bfb8f27645e704e21c1cd","64de83948061a741afe9e213","","","","","3257",""," ","key"," ","6.94489957264958","500","250","br","20","2","0","11","-22","13","242"
"","psychophysics","22","80335","0.0-22.0","631bfb8f27645e704e21c1cd","64de83948061a741afe9e213","","","","","1570",""," ","key"," ","6.9438849557522095","500","250","br","25","2","0","-3","-5","29","261"
"","psychophysics","23","82951","0.0-23.0","631bfb8f27645e704e21c1cd","64de83948061a741afe9e213","","","","","2614",""," ","key"," ","6.9433893333333545","500","250","br","30","2","0","-17","-13","-17","297"
"","psychophysics","24","87062","0.0-24.0","631bfb8f27645e704e21c1cd","64de83948061a741afe9e213","","","","","4109",""," ","key"," ","6.94360067681896","500","250","br","19","2","0","27","-20","-10","206"
"","psychophysics","25","88892","0.0-25.0","631bfb8f27645e704e21c1cd","64de83948061a741afe9e213","","","","","1828",""," ","key"," ","6.946638783269964","500","250","br","14","2","0","2","15","23","237"
"","psychophysics","26","91127","0.0-26.0","631bfb8f27645e704e21c1cd","64de83948061a741afe9e213","","","","","2233",""," ","key"," ","6.946336448598146","500","250","br","14","2","0","6","-11","0","217"
"","psychophysics","27","92616","0.0-27.0","631bfb8f27645e704e21c1cd","64de83948061a741afe9e213","","","","","1488",""," ","key"," ","6.9437370892018935","500","250","br","19","2","0","25","13","15","216"
"","psychophysics","28","93656","0.0-28.0","631bfb8f27645e704e21c1cd","64de83948061a741afe9e213","","","","","1039",""," ","key"," ","6.949114093959766","500","250","br","21","2","0","30","-9","21","268"
"","psychophysics","29","96111","0.0-29.0","631bfb8f27645e704e21c1cd","64de83948061a741afe9e213","","","","","2454",""," ","key"," ","6.9427705382436535","500","250","br","23","2","0","-7","7","0","255"
"","psychophysics","30","98447","0.0-30.0","631bfb8f27645e704e21c1cd","64de83948061a741afe9e213","","","","","2334",""," ","key"," ","6.944662686567162","500","250","br","21","2","0","-3","21","16","222"
"","psychophysics","31","100285","0.0-31.0","631bfb8f27645e704e21c1cd","64de83948061a741afe9e213","","","","","1837",""," ","key"," ","6.944284090909136","500","250","br","36","2","0","-14","9","29","263"
"","psychophysics","32","101968","0.0-32.0","631bfb8f27645e704e21c1cd","64de83948061a741afe9e213","","","","","1681",""," ","key"," ","6.944112033195032","500","250","br","23","2","0","-13","10","12","267"
"","psychophysics","33","105406","0.0-33.0","631bfb8f27645e704e21c1cd","64de83948061a741afe9e213","","","","","3437",""," ","key"," ","6.944751012145739","500","250","br","24","2","0","10","-1","-15","219"
"","psychophysics","34","107743","0.0-34.0","631bfb8f27645e704e21c1cd","64de83948061a741afe9e213","","","","","2336",""," ","key"," ","6.944758928571424","500","250","br","16","2","0","7","4","-15","266"
"","psychophysics","35","109538","0.0-35.0","631bfb8f27645e704e21c1cd","64de83948061a741afe9e213","","","","","1794",""," ","key"," ","6.94572373540853","500","250","br","22","2","0","-7","-24","-1","269"
"","psychophysics","36","110283","0.0-36.0","631bfb8f27645e704e21c1cd","64de83948061a741afe9e213","","","","","745",""," ","key"," ","6.9416822429906055","500","250","inst","","","","","","",""
"","psychophysics","37","112164","0.0-37.0","631bfb8f27645e704e21c1cd","64de83948061a741afe9e213","","","","","1880",""," ","key"," ","6.940758364312262","500","250","instPzPre","50","0","","","","50","50"
"","psychophysics","38","113864","0.0-38.0","631bfb8f27645e704e21c1cd","64de83948061a741afe9e213","","","","","1697",""," ","key"," ","6.946172131147518","500","250","instPz0","50","1","","","","50","50"
"","psychophysics","39","120356","0.0-39.0","631bfb8f27645e704e21c1cd","64de83948061a741afe9e213","","","","","6491",""," ","key"," ","6.944532119914346","500","250","instPz1","43","1","","","","25","50"
"","psychophysics","40","128191","0.0-40.0","631bfb8f27645e704e21c1cd","64de83948061a741afe9e213","","","","","7833",""," ","key"," ","6.944449866903287","500","250","instPz2","21","1","","","","35","20"
"","psychophysics","41","130293","0.0-41.0","631bfb8f27645e704e21c1cd","64de83948061a741afe9e213","","","","","2099",""," ","key"," ","6.944536423841059","500","250","instPz3","100","1","","","","100","30"
"","psychophysics","42","131666","0.0-42.0","631bfb8f27645e704e21c1cd","64de83948061a741afe9e213","","","","","1372",""," ","key"," ","6.944730964467047","500","250","instPz4","100","1","","","","100","30"
"","psychophysics","43","132374","0.0-43.0","631bfb8f27645e704e21c1cd","64de83948061a741afe9e213","","","","","707",""," ","key"," ","6.945455445544645","500","250","inst","","","","","","",""
"","psychophysics","44","140375","0.0-44.0","631bfb8f27645e704e21c1cd","64de83948061a741afe9e213","","","","","null","","null","key","null","6.943671589921805","500","250","pz","35","1","0","","","56","35"
"","psychophysics","45","142288","0.0-45.0","631bfb8f27645e704e21c1cd","64de83948061a741afe9e213","","","","","1911",""," ","key"," ","6.944836363636423","500","250","pz","44","1","0","","","51","38"
"","psychophysics","46","144749","0.0-46.0","631bfb8f27645e704e21c1cd","64de83948061a741afe9e213","","","","","2460",""," ","key"," ","6.942178470254896","500","250","pz","43","1","0","","","54","36"
"","psychophysics","47","147289","0.0-47.0","631bfb8f27645e704e21c1cd","64de83948061a741afe9e213","","","","","2539",""," ","key"," ","6.945723287671189","500","250","pz","75","1","0","","","34","60"
"","psychophysics","48","149020","0.0-48.0","631bfb8f27645e704e21c1cd","64de83948061a741afe9e213","","","","","1730",""," ","key"," ","6.945641129032259","500","250","pz","31","1","0","","","29","21"
"","psychophysics","49","151590","0.0-49.0","631bfb8f27645e704e21c1cd","64de83948061a741afe9e213","","","","","2569",""," ","key"," ","6.943728997289906","500","250","pz","32","1","0","","","20","20"
"","psychophysics","50","153029","0.0-50.0","631bfb8f27645e704e21c1cd","64de83948061a741afe9e213","","","","","1436",""," ","key"," ","6.943497584541081","500","250","pz","41","1","0","","","39","27"
"","psychophysics","51","155502","0.0-51.0","631bfb8f27645e704e21c1cd","64de83948061a741afe9e213","","","","","2472",""," ","key"," ","6.9414000000000415","500","250","pz","88","1","0","","","59","54"
"","psychophysics","52","157114","0.0-52.0","631bfb8f27645e704e21c1cd","64de83948061a741afe9e213","","","","","1611",""," ","key"," ","6.947194805194788","500","250","pz","44","1","0","","","33","27"
"","psychophysics","53","160042","0.0-53.0","631bfb8f27645e704e21c1cd","64de83948061a741afe9e213","","","","","2927",""," ","key"," ","6.945030952380954","500","250","pz","61","1","0","","","44","46"
"","psychophysics","54","162710","0.0-54.0","631bfb8f27645e704e21c1cd","64de83948061a741afe9e213","","","","","2667",""," ","key"," ","6.94493489583336","500","250","pz","66","1","0","","","21","44"
"","psychophysics","55","164088","0.0-55.0","631bfb8f27645e704e21c1cd","64de83948061a741afe9e213","","","","","1377",""," ","key"," ","6.945984771573587","500","250","pz","44","1","0","","","37","25"
"","psychophysics","56","166404","0.0-56.0","631bfb8f27645e704e21c1cd","64de83948061a741afe9e213","","","","","2314",""," ","key"," ","6.945168168168196","500","250","pz","48","1","0","","","58","21"
"","psychophysics","57","168158","0.0-57.0","631bfb8f27645e704e21c1cd","64de83948061a741afe9e213","","","","","1753",""," ","key"," ","6.9446135458167255","500","250","pz","52","1","0","","","36","34"
"","psychophysics","58","170425","0.0-58.0","631bfb8f27645e704e21c1cd","64de83948061a741afe9e213","","","","","2265",""," ","key"," ","6.9460214723927","500","250","pz","55","1","0","","","45","42"
"","psychophysics","59","171105","0.0-59.0","631bfb8f27645e704e21c1cd","64de83948061a741afe9e213","","","","","679",""," ","key"," ","6.935773195876481","500","250","inst","","","","","","",""
"","psychophysics","60","172303","0.0-60.0","631bfb8f27645e704e21c1cd","64de83948061a741afe9e213","","","","","1197",""," ","key"," ","6.9446725146199935","500","250","instEB0","40","1","","0","0","40","40"
"","psychophysics","61","174093","0.0-61.0","631bfb8f27645e704e21c1cd","64de83948061a741afe9e213","","","","","1789",""," ","key"," ","6.94578988326848","500","250","instEB1","40","1","","0","0","40","30"
"","psychophysics","62","175439","0.0-62.0","631bfb8f27645e704e21c1cd","64de83948061a741afe9e213","","","","","1345",""," ","key"," ","6.947005181347135","500","250","instEB2","30","1","","0","0","30","40"
"","psychophysics","63","179942","0.0-63.0","631bfb8f27645e704e21c1cd","64de83948061a741afe9e213","","","","","4502",""," ","key"," ","6.944122102009242","500","250","instEB3","27","1","","0","0","27","45"
"","psychophysics","64","190228","0.0-64.0","631bfb8f27645e704e21c1cd","64de83948061a741afe9e213","","","","","10285",""," ","key"," ","6.944064821066849","500","250","instEB4","23","1","","0","0","40","30"
"","psychophysics","65","190943","0.0-65.0","631bfb8f27645e704e21c1cd","64de83948061a741afe9e213","","","","","714",""," ","key"," ","6.945715686274686","500","250","inst","","","","","","",""
"","psychophysics","66","192987","0.0-66.0","631bfb8f27645e704e21c1cd","64de83948061a741afe9e213","","","","","2042",""," ","key"," ","6.9438020477816185","500","250","eb","34","1","","0","0","31","52"
"","psychophysics","67","196047","0.0-67.0","631bfb8f27645e704e21c1cd","64de83948061a741afe9e213","","","","","3059",""," ","key"," ","6.945354545454558","500","250","eb","43","1","","0","0","53","48"
"","psychophysics","68","198322","0.0-68.0","631bfb8f27645e704e21c1cd","64de83948061a741afe9e213","","","","","2274",""," ","key"," ","6.943571865443455","500","250","eb","36","1","","0","0","52","34"
"","psychophysics","69","200872","0.0-69.0","631bfb8f27645e704e21c1cd","64de83948061a741afe9e213","","","","","2548",""," ","key"," ","6.942243169398839","500","250","eb","28","1","","0","0","43","35"
"","psychophysics","70","202284","0.0-70.0","631bfb8f27645e704e21c1cd","64de83948061a741afe9e213","","","","","1411",""," ","key"," ","6.94151980198008","500","250","eb","28","1","","0","0","27","43"
"","psychophysics","71","204389","0.0-71.0","631bfb8f27645e704e21c1cd","64de83948061a741afe9e213","","","","","2104",""," ","key"," ","6.946188741721794","500","250","eb","26","1","","0","0","45","30"
"","psychophysics","72","207211","0.0-72.0","631bfb8f27645e704e21c1cd","64de83948061a741afe9e213","","","","","2821",""," ","key"," ","6.945756157635501","500","250","eb","35","1","","0","0","26","50"
"","psychophysics","73","208700","0.0-73.0","631bfb8f27645e704e21c1cd","64de83948061a741afe9e213","","","","","1487",""," ","key"," ","6.9414929577464815","500","250","eb","37","1","","0","0","40","47"
"","psychophysics","74","210924","0.0-74.0","631bfb8f27645e704e21c1cd","64de83948061a741afe9e213","","","","","2223",""," ","key"," ","6.944137931034552","500","250","eb","34","1","","0","0","44","39"
"","psychophysics","75","213740","0.0-75.0","631bfb8f27645e704e21c1cd","64de83948061a741afe9e213","","","","","2814",""," ","key"," ","6.943725925925932","500","250","eb","28","1","","0","0","43","32"
"","psychophysics","76","215703","0.0-76.0","631bfb8f27645e704e21c1cd","64de83948061a741afe9e213","","","","","1961",""," ","key"," ","6.943567375886561","500","250","eb","28","1","","0","0","35","32"
"","psychophysics","77","217578","0.0-77.0","631bfb8f27645e704e21c1cd","64de83948061a741afe9e213","","","","","1874",""," ","key"," ","6.943862453531617","500","250","eb","28","1","","0","0","39","32"
"","psychophysics","78","219861","0.0-78.0","631bfb8f27645e704e21c1cd","64de83948061a741afe9e213","","","","","2281",""," ","key"," ","6.943681957186552","500","250","eb","39","1","","0","0","29","52"
"","psychophysics","79","221256","0.0-79.0","631bfb8f27645e704e21c1cd","64de83948061a741afe9e213","","","","","1393",""," ","key"," ","6.947320000000036","500","250","eb","30","1","","0","0","38","35"
"","psychophysics","80","222837","0.0-80.0","631bfb8f27645e704e21c1cd","64de83948061a741afe9e213","","","","","1578",""," ","key"," ","6.94710572687232","500","250","eb","38","1","","0","0","48","37"
"","psychophysics","81","223522","0.0-81.0","631bfb8f27645e704e21c1cd","64de83948061a741afe9e213","","","","","683",""," ","key"," ","6.943142857142708","500","250","inst","","","","","","",""
"","psychophysics","82","224735","0.0-82.0","631bfb8f27645e704e21c1cd","64de83948061a741afe9e213","","","","","1212",""," ","key"," ","6.9468959537573625","500","250","instZol0","0","","","0","0","0",""
"","psychophysics","83","234941","0.0-83.0","631bfb8f27645e704e21c1cd","64de83948061a741afe9e213","","","","","10204",""," ","key"," ","6.9442382573179104","500","250","instZol1","0.5999999999999998","","","0","0","-1.3",""
"","psychophysics","84","241439","0.0-84.0","631bfb8f27645e704e21c1cd","64de83948061a741afe9e213","","","","","6495",""," ","key"," ","6.944570053475946","500","250","instZol2","-1.3999999999999995","2","","0","0","2",""
"","psychophysics","85","241933","0.0-85.0","631bfb8f27645e704e21c1cd","64de83948061a741afe9e213","","","","","493",""," ","key"," ","6.950014285714133","500","250","inst","","","","","","",""
"","psychophysics","86","247134","0.0-86.0","631bfb8f27645e704e21c1cd","64de83948061a741afe9e213","","","","","5199",""," ","key"," ","6.944538770053494","500","250","zol","-1.9600000000000006","2","0","19","-28","-0.14",""
"","psychophysics","87","252739","0.0-87.0","631bfb8f27645e704e21c1cd","64de83948061a741afe9e213","","","","","5603",""," ","key"," ","6.943990074441687","500","250","zol","-1.6500000000000006","2","0","-2","13","0.15",""
"","psychophysics","88","258512","0.0-88.0","631bfb8f27645e704e21c1cd","64de83948061a741afe9e213","","","","","5771",""," ","key"," ","6.944407942238285","500","250","zol","-0.3799999999999999","2","0","-28","-12","-0.52",""
"","psychophysics","89","260868","0.0-89.0","631bfb8f27645e704e21c1cd","64de83948061a741afe9e213","","","","","2351",""," ","key"," ","6.945890532544323","500","250","zol","-0.9699999999999999","2","0","0","-19","-0.33",""
"","psychophysics","90","265253","0.0-90.0","631bfb8f27645e704e21c1cd","64de83948061a741afe9e213","","","","","4383",""," ","key"," ","6.943591125198125","500","250","zol","-2.130000000000001","2","0","-28","-17","-0.57",""
"","psychophysics","91","268267","0.0-91.0","631bfb8f27645e704e21c1cd","64de83948061a741afe9e213","","","","","3011",""," ","key"," ","6.942374133949214","500","250","zol","-1.6100000000000005","2","0","-14","-23","0.61",""
"","psychophysics","92","271077","0.0-92.0","631bfb8f27645e704e21c1cd","64de83948061a741afe9e213","","","","","2808",""," ","key"," ","6.943803970223332","500","250","zol","-1.6500000000000004","2","0","-18","14","-0.25",""
"","psychophysics","93","273881","0.0-93.0","631bfb8f27645e704e21c1cd","64de83948061a741afe9e213","","","","","2803",""," ","key"," ","6.945863523573248","500","250","zol","-1.36","2","0","-25","24","-0.54",""
"","psychophysics","94","278186","0.0-94.0","631bfb8f27645e704e21c1cd","64de83948061a741afe9e213","","","","","4303",""," ","key"," ","6.945003231017762","500","250","zol","-1.6900000000000004","2","0","-17","-14","-0.31",""
"","psychophysics","95","280903","0.0-95.0","631bfb8f27645e704e21c1cd","64de83948061a741afe9e213","","","","","2715",""," ","key"," ","6.946043589743577","500","250","zol","-1.2","2","0","-27","-29","-0.6",""
"","psychophysics","96","285865","0.0-96.0","631bfb8f27645e704e21c1cd","64de83948061a741afe9e213","","","","","4960",""," ","key"," ","6.944817927170836","500","250","zol","-2.310000000000001","2","0","5","-12","0.11",""
"","psychophysics","97","289588","0.0-97.0","631bfb8f27645e704e21c1cd","64de83948061a741afe9e213","","","","","3721",""," ","key"," ","6.944771962616784","500","250","zol","-2.320000000000001","2","0","18","-13","0.52",""
"","psychophysics","98","292376","0.0-98.0","631bfb8f27645e704e21c1cd","64de83948061a741afe9e213","","","","","2787",""," ","key"," ","6.945640897755586","500","250","zol","-1.7800000000000005","2","0","-28","1","-0.02",""
"","psychophysics","99","296217","0.0-99.0","631bfb8f27645e704e21c1cd","64de83948061a741afe9e213","","","","","3839",""," ","key"," ","6.943920289855062","500","250","zol","-1.8900000000000006","2","0","10","21","-0.71",""
"","psychophysics","100","299246","0.0-100.0","631bfb8f27645e704e21c1cd","64de83948061a741afe9e213","","","","","3028",""," ","key"," ","6.94413333333341","500","250","zol","-2.0100000000000007","2","0","2","22","0.71",""
"","psychophysics","101","299961","0.0-101.0","631bfb8f27645e704e21c1cd","64de83948061a741afe9e213","","","","","713",""," ","key"," ","6.945911764705955","500","250","inst","","","","","","",""
"","psychophysics","102","304101","0.0-102.0","631bfb8f27645e704e21c1cd","64de83948061a741afe9e213","","","","","4139",""," ","key"," ","6.944189915966395","500","250","instPog0","340","2","","0","0","370","340"
"","psychophysics","103","306671","0.0-103.0","631bfb8f27645e704e21c1cd","64de83948061a741afe9e213","","","","","2569",""," ","key"," ","6.945918699186977","500","250","instPog1","342","2","","0","0","370","340"
"","psychophysics","104","309805","0.0-104.0","631bfb8f27645e704e21c1cd","64de83948061a741afe9e213","","","","","3132",""," ","key"," ","6.943645232815905","500","250","instPog2","318","2","","0","0","340","340"
"","psychophysics","105","310337","0.0-105.0","631bfb8f27645e704e21c1cd","64de83948061a741afe9e213","","","","","530",""," ","key"," ","6.953560000000677","500","250","inst","","","","","","",""
"","psychophysics","106","313780","0.0-106.0","631bfb8f27645e704e21c1cd","64de83948061a741afe9e213","","","","","3441",""," ","key"," ","6.945482828282761","500","250","pog","283","2","0","0","0","363","306"
"","psychophysics","107","317180","0.0-107.0","631bfb8f27645e704e21c1cd","64de83948061a741afe9e213","","","","","3399",""," ","key"," ","6.944042944785251","500","250","pog","276","2","0","0","0","388","306"
"","psychophysics","108","318348","0.0-108.0","631bfb8f27645e704e21c1cd","64de83948061a741afe9e213","","","","","1168",""," ","key"," ","6.943724550898285","500","250","pog","335","2","0","0","0","337","347"
"","psychophysics","109","321534","0.0-109.0","631bfb8f27645e704e21c1cd","64de83948061a741afe9e213","","","","","3185",""," ","key"," ","6.945438864628945","500","250","pog","316","2","0","0","0","286","347"
"","psychophysics","110","322401","0.0-110.0","631bfb8f27645e704e21c1cd","64de83948061a741afe9e213","","","","","866",""," ","key"," ","6.945354838709576","500","250","pog","289","2","0","0","0","289","314"
"","psychophysics","111","323631","0.0-111.0","631bfb8f27645e704e21c1cd","64de83948061a741afe9e213","","","","","1229",""," ","key"," ","6.939744318181924","500","250","pog","377","2","0","0","0","377","371"
"","psychophysics","112","326122","0.0-112.0","631bfb8f27645e704e21c1cd","64de83948061a741afe9e213","","","","","2490",""," ","key"," ","6.94205865921783","500","250","pog","336","2","0","0","0","392","363"
"","psychophysics","113","329407","0.0-113.0","631bfb8f27645e704e21c1cd","64de83948061a741afe9e213","","","","","3284",""," ","key"," ","6.945427966101629","500","250","pog","281","2","0","0","0","371","310"
"","psychophysics","114","332119","0.0-114.0","631bfb8f27645e704e21c1cd","64de83948061a741afe9e213","","","","","2710",""," ","key"," ","6.945331619537266","500","250","pog","316","2","0","0","0","370","347"
"","psychophysics","115","335746","0.0-115.0","631bfb8f27645e704e21c1cd","64de83948061a741afe9e213","","","","","3626",""," ","key"," ","6.945086206896592","500","250","pog","319","2","0","0","0","335","339"
"","psychophysics","116","338806","0.0-116.0","631bfb8f27645e704e21c1cd","64de83948061a741afe9e213","","","","","3058",""," ","key"," ","6.943357630979412","500","250","pog","305","2","0","0","0","373","327"
"","psychophysics","117","342813","0.0-117.0","631bfb8f27645e704e21c1cd","64de83948061a741afe9e213","","","","","4007",""," ","key"," ","6.944484374999977","500","250","pog","325","2","0","0","0","307","359"
"","psychophysics","118","347026","0.0-118.0","631bfb8f27645e704e21c1cd","64de83948061a741afe9e213","","","","","4211",""," ","key"," ","6.9450924092409645","500","250","pog","303","2","0","0","0","399","336"
"","psychophysics","119","352523","0.0-119.0","631bfb8f27645e704e21c1cd","64de83948061a741afe9e213","","","","","5496",""," ","key"," ","6.94444627054358","500","250","pog","303","2","0","0","0","399","337"
"","psychophysics","120","358983","0.0-120.0","631bfb8f27645e704e21c1cd","64de83948061a741afe9e213","","","","","6459",""," ","key"," ","6.943637244348789","500","250","pog","341","2","0","0","0","285","380"
"","psychophysics","121","359514","0.0-121.0","631bfb8f27645e704e21c1cd","64de83948061a741afe9e213","","","","","530",""," ","key"," ","6.938631578947503","500","250","inst","","","","","","",""
"","psychophysics","122","363813","0.0-122.0","631bfb8f27645e704e21c1cd","64de83948061a741afe9e213","","","","","4299",""," ","key"," ","6.943702265372143","500","250","instPz1","37","2","","","","25","50"
"","psychophysics","123","366325","0.0-123.0","631bfb8f27645e704e21c1cd","64de83948061a741afe9e213","","","","","2511",""," ","key"," ","6.9436426592796945","500","250","instPz2","26","2","","","","20","35"
"","psychophysics","124","380247","0.0-124.0","631bfb8f27645e704e21c1cd","64de83948061a741afe9e213","","","","","13920",""," ","key"," ","6.943666666666671","500","250","instPz3","54","2","","","","30","100"
"","psychophysics","125","383943","0.0-125.0","631bfb8f27645e704e21c1cd","64de83948061a741afe9e213","","","","","3695",""," ","key"," ","6.943580037664724","500","250","instPz4","55","2","","","","30","100"
"","psychophysics","126","384677","0.0-126.0","631bfb8f27645e704e21c1cd","64de83948061a741afe9e213","","","","","733",""," ","key"," ","6.939771428571215","500","250","inst","","","","","","",""
"","psychophysics","127","387364","0.0-127.0","631bfb8f27645e704e21c1cd","64de83948061a741afe9e213","","","","","2685",""," ","key"," ","6.945036363636458","500","250","pz","30","2","1","","","23","46"
"","psychophysics","128","390775","0.0-128.0","631bfb8f27645e704e21c1cd","64de83948061a741afe9e213","","","","","3409",""," ","key"," ","6.945378818737235","500","250","pz","26","2","1","","","39","34"
"","psychophysics","129","392604","0.0-129.0","631bfb8f27645e704e21c1cd","64de83948061a741afe9e213","","","","","1828",""," ","key"," ","6.945958015267233","500","250","pz","36","2","1","","","44","53"
"","psychophysics","130","395429","0.0-130.0","631bfb8f27645e704e21c1cd","64de83948061a741afe9e213","","","","","2824",""," ","key"," ","6.9456157635467575","500","250","pz","21","2","1","","","29","29"
"","psychophysics","131","397435","0.0-131.0","631bfb8f27645e704e21c1cd","64de83948061a741afe9e213","","","","","2005",""," ","key"," ","6.945506944444383","500","250","pz","39","2","1","","","48","60"
"","psychophysics","132","402033","0.0-132.0","631bfb8f27645e704e21c1cd","64de83948061a741afe9e213","","","","","4597",""," ","key"," ","6.944184568835054","500","250","pz","29","2","1","","","57","41"
"","psychophysics","133","404229","0.0-133.0","631bfb8f27645e704e21c1cd","64de83948061a741afe9e213","","","","","2194",""," ","key"," ","6.946063492063337","500","250","pz","26","2","1","","","46","31"
"","psychophysics","134","406439","0.0-134.0","631bfb8f27645e704e21c1cd","64de83948061a741afe9e213","","","","","2208",""," ","key"," ","6.945358490565888","500","250","pz","28","2","1","","","46","50"
"","psychophysics","135","409519","0.0-135.0","631bfb8f27645e704e21c1cd","64de83948061a741afe9e213","","","","","3079",""," ","key"," ","6.943653846153783","500","250","pz","14","2","1","","","21","20"
"","psychophysics","136","412302","0.0-136.0","631bfb8f27645e704e21c1cd","64de83948061a741afe9e213","","","","","2781",""," ","key"," ","6.94544499999989","500","250","pz","28","2","1","","","49","60"
"","psychophysics","137","416484","0.0-137.0","631bfb8f27645e704e21c1cd","64de83948061a741afe9e213","","","","","4181",""," ","key"," ","6.943998336106478","500","250","pz","14","2","1","","","51","21"
"","psychophysics","138","418547","0.0-138.0","631bfb8f27645e704e21c1cd","64de83948061a741afe9e213","","","","","2063",""," ","key"," ","6.946199324324364","500","250","pz","19","2","1","","","46","32"
"","psychophysics","139","420867","0.0-139.0","631bfb8f27645e704e21c1cd","64de83948061a741afe9e213","","","","","2317",""," ","key"," ","6.9455795795794835","500","250","pz","22","2","1","","","45","35"
"","psychophysics","140","424417","0.0-140.0","631bfb8f27645e704e21c1cd","64de83948061a741afe9e213","","","","","3547",""," ","key"," ","6.94403131115453","500","250","pz","22","2","1","","","49","30"
"","psychophysics","141","427702","0.0-141.0","631bfb8f27645e704e21c1cd","64de83948061a741afe9e213","","","","","3285",""," ","key"," ","6.943529661016867","500","250","pz","17","2","1","","","48","24"
"","psychophysics","142","428382","0.0-142.0","631bfb8f27645e704e21c1cd","64de83948061a741afe9e213","","","","","679",""," ","key"," ","6.944350515464056","500","250","inst","","","","","","",""
"","psychophysics","143","432441","0.0-143.0","631bfb8f27645e704e21c1cd","64de83948061a741afe9e213","","","","","4058",""," ","key"," ","6.945001715265843","500","250","instPog0","160","1","","0","0","190","160"
"","psychophysics","144","434280","0.0-144.0","631bfb8f27645e704e21c1cd","64de83948061a741afe9e213","","","","","1838",""," ","key"," ","6.94434469696981","500","250","instPog1","180","1","","0","0","190","160"
"","psychophysics","145","437846","0.0-145.0","631bfb8f27645e704e21c1cd","64de83948061a741afe9e213","","","","","3565",""," ","key"," ","6.944300194931844","500","250","instPog2","198","1","","0","0","160","160"
"","psychophysics","146","438304","0.0-146.0","631bfb8f27645e704e21c1cd","64de83948061a741afe9e213","","","","","457",""," ","key"," ","6.9324615384613235","500","250","inst","","","","","","",""
"","psychophysics","147","439777","0.0-147.0","631bfb8f27645e704e21c1cd","64de83948061a741afe9e213","","","","","1472",""," ","key"," ","6.947511848341177","500","250","pog","214","1","1","0","0","218","172"
"","psychophysics","148","442395","0.0-148.0","631bfb8f27645e704e21c1cd","64de83948061a741afe9e213","","","","","2617",""," ","key"," ","6.945771276595708","500","250","pog","187","1","1","0","0","209","128"
"","psychophysics","149","444331","0.0-149.0","631bfb8f27645e704e21c1cd","64de83948061a741afe9e213","","","","","1936",""," ","key"," ","6.944395683453294","500","250","pog","174","1","1","0","0","184","120"
"","psychophysics","150","446299","0.0-150.0","631bfb8f27645e704e21c1cd","64de83948061a741afe9e213","","","","","1966",""," ","key"," ","6.943585106382825","500","250","pog","161","1","1","0","0","151","128"
"","psychophysics","151","449791","0.0-151.0","631bfb8f27645e704e21c1cd","64de83948061a741afe9e213","","","","","3491",""," ","key"," ","6.943219123505945","500","250","pog","209","1","1","0","0","115","178"
"","psychophysics","152","452796","0.0-152.0","631bfb8f27645e704e21c1cd","64de83948061a741afe9e213","","","","","3004",""," ","key"," ","6.945622685185096","500","250","pog","206","1","1","0","0","138","176"
"","psychophysics","153","457465","0.0-153.0","631bfb8f27645e704e21c1cd","64de83948061a741afe9e213","","","","","4668",""," ","key"," ","6.944783904619988","500","250","pog","177","1","1","0","0","209","126"
"","psychophysics","154","458367","0.0-154.0","631bfb8f27645e704e21c1cd","64de83948061a741afe9e213","","","","","900",""," ","key"," ","6.945441860465112","500","250","pog","216","1","1","0","0","216","186"
"","psychophysics","155","462034","0.0-155.0","631bfb8f27645e704e21c1cd","64de83948061a741afe9e213","","","","","3667",""," ","key"," ","6.943595825426989","500","250","pog","245","1","1","0","0","141","199"
"","psychophysics","156","465154","0.0-156.0","631bfb8f27645e704e21c1cd","64de83948061a741afe9e213","","","","","3118",""," ","key"," ","6.94478571428577","500","250","pog","240","1","1","0","0","192","199"
"","psychophysics","157","466055","0.0-157.0","631bfb8f27645e704e21c1cd","64de83948061a741afe9e213","","","","","899",""," ","key"," ","6.94944961240304","500","250","pog","212","1","1","0","0","212","193"
"","psychophysics","158","466993","0.0-158.0","631bfb8f27645e704e21c1cd","64de83948061a741afe9e213","","","","","937",""," ","key"," ","6.9457985074628565","500","250","pog","192","1","1","0","0","192","172"
"","psychophysics","159","468614","0.0-159.0","631bfb8f27645e704e21c1cd","64de83948061a741afe9e213","","","","","1620",""," ","key"," ","6.946922746781248","500","250","pog","197","1","1","0","0","205","164"
"","psychophysics","160","469752","0.0-160.0","631bfb8f27645e704e21c1cd","64de83948061a741afe9e213","","","","","1134",""," ","key"," ","6.948809815950669","500","250","pog","178","1","1","0","0","180","140"
"","psychophysics","161","472975","0.0-161.0","631bfb8f27645e704e21c1cd","64de83948061a741afe9e213","","","","","3221",""," ","key"," ","6.944457883369424","500","250","pog","246","1","1","0","0","134","197"
"","psychophysics","162","473539","0.0-162.0","631bfb8f27645e704e21c1cd","64de83948061a741afe9e213","","","","","564",""," ","key"," ","6.939262500000041","500","250","inst","","","","","","",""
"","psychophysics","163","479086","0.0-163.0","631bfb8f27645e704e21c1cd","64de83948061a741afe9e213","","","","","5546",""," ","key"," ","6.944061403508741","500","250","instZol1","0.6999999999999997","","","0","0","-1.3",""
"","psychophysics","164","486087","0.0-164.0","631bfb8f27645e704e21c1cd","64de83948061a741afe9e213","","","","","6999",""," ","key"," ","6.944246276067556","500","250","instZol2","1.2000000000000008","1","","0","0","2",""
"","psychophysics","165","486621","0.0-165.0","631bfb8f27645e704e21c1cd","64de83948061a741afe9e213","","","","","533",""," ","key"," ","6.940263157894247","500","250","inst","","","","","","",""
"","psychophysics","166","489517","0.0-166.0","631bfb8f27645e704e21c1cd","64de83948061a741afe9e213","","","","","2894",""," ","key"," ","6.94418269230762","500","250","zol","1.8200000000000007","1","1","-27","-8","0.08",""
"","psychophysics","167","493678","0.0-167.0","631bfb8f27645e704e21c1cd","64de83948061a741afe9e213","","","","","4160",""," ","key"," ","6.944371237458286","500","250","zol","0.55","1","1","11","8","0.45",""
"","psychophysics","168","495697","0.0-168.0","631bfb8f27645e704e21c1cd","64de83948061a741afe9e213","","","","","2016",""," ","key"," ","6.946286206896586","500","250","zol","1.4200000000000004","1","1","6","-30","0.48",""
"","psychophysics","169","498603","0.0-169.0","631bfb8f27645e704e21c1cd","64de83948061a741afe9e213","","","","","2905",""," ","key"," ","6.944564593301386","500","250","zol","0.95","1","1","-6","-4","0.45",""
"","psychophysics","170","501608","0.0-170.0","631bfb8f27645e704e21c1cd","64de83948061a741afe9e213","","","","","3003",""," ","key"," ","6.944176334106734","500","250","zol","1.4400000000000004","1","1","-12","-11","0.26",""
"","psychophysics","171","504964","0.0-171.0","631bfb8f27645e704e21c1cd","64de83948061a741afe9e213","","","","","3354",""," ","key"," ","6.945414078674967","500","250","zol","1.8900000000000006","1","1","-24","-19","-0.39",""
"","psychophysics","172","507544","0.0-172.0","631bfb8f27645e704e21c1cd","64de83948061a741afe9e213","","","","","2579",""," ","key"," ","6.943127027027013","500","250","zol","1.6000000000000003","1","1","25","-4","0",""
"","psychophysics","173","510290","0.0-173.0","631bfb8f27645e704e21c1cd","64de83948061a741afe9e213","","","","","2743",""," ","key"," ","6.945030379746863","500","250","zol","2.3400000000000007","1","1","17","-26","-0.24",""
"","psychophysics","174","512233","0.0-174.0","631bfb8f27645e704e21c1cd","64de83948061a741afe9e213","","","","","1942",""," ","key"," ","6.943111111110996","500","250","zol","0.9499999999999998","1","1","-5","1","0.55",""
"","psychophysics","175","514868","0.0-175.0","631bfb8f27645e704e21c1cd","64de83948061a741afe9e213","","","","","2633",""," ","key"," ","6.944031746031855","500","250","zol","1.37","1","1","11","4","-0.27",""
"","psychophysics","176","517006","0.0-176.0","631bfb8f27645e704e21c1cd","64de83948061a741afe9e213","","","","","2136",""," ","key"," ","6.944807817589519","500","250","zol","1.2200000000000002","1","1","-2","28","-0.52",""
"","psychophysics","177","519646","0.0-177.0","631bfb8f27645e704e21c1cd","64de83948061a741afe9e213","","","","","2639",""," ","key"," ","6.942812664907654","500","250","zol","1.2400000000000002","1","1","-30","16","-0.64",""
"","psychophysics","178","522726","0.0-178.0","631bfb8f27645e704e21c1cd","64de83948061a741afe9e213","","","","","3078",""," ","key"," ","6.945392776523589","500","250","zol","1.3900000000000001","1","1","4","-7","0.01",""
"","psychophysics","179","524913","0.0-179.0","631bfb8f27645e704e21c1cd","64de83948061a741afe9e213","","","","","2185",""," ","key"," ","6.944439490445687","500","250","zol","1.02","1","1","-6","26","-0.32",""
"","psychophysics","180","527439","0.0-180.0","631bfb8f27645e704e21c1cd","64de83948061a741afe9e213","","","","","2525",""," ","key"," ","6.9421349862258825","500","250","zol","0.65","1","1","-26","-15","0.35",""
"","psychophysics","181","528165","0.0-181.0","631bfb8f27645e704e21c1cd","64de83948061a741afe9e213","","","","","724",""," ","key"," ","6.943718446601743","500","250","inst","","","","","","",""
"","psychophysics","182","531628","0.0-182.0","631bfb8f27645e704e21c1cd","64de83948061a741afe9e213","","","","","3463",""," ","key"," ","6.944857429718855","500","250","instEB1","39","2","","0","0","30","40"
"","psychophysics","183","533580","0.0-183.0","631bfb8f27645e704e21c1cd","64de83948061a741afe9e213","","","","","1950",""," ","key"," ","6.943546428571322","500","250","instEB2","31","2","","0","0","40","30"
"","psychophysics","184","537801","0.0-184.0","631bfb8f27645e704e21c1cd","64de83948061a741afe9e213","","","","","4220",""," ","key"," ","6.9440658978582395","500","250","instEB3","44","2","","0","0","45","27"
"","psychophysics","185","541868","0.0-185.0","631bfb8f27645e704e21c1cd","64de83948061a741afe9e213","","","","","4065",""," ","key"," ","6.944462328767109","500","250","instEB4","45","2","","0","0","30","40"
"","psychophysics","186","542423","0.0-186.0","631bfb8f27645e704e21c1cd","64de83948061a741afe9e213","","","","","553",""," ","key"," ","6.954974683543926","500","250","inst","","","","","","",""
"","psychophysics","187","544176","0.0-187.0","631bfb8f27645e704e21c1cd","64de83948061a741afe9e213","","","","","1751",""," ","key"," ","6.946936507936149","500","250","eb","43","2","","0","0","39","31"
"","psychophysics","188","545467","0.0-188.0","631bfb8f27645e704e21c1cd","64de83948061a741afe9e213","","","","","1289",""," ","key"," ","6.947767567567251","500","250","eb","35","2","","0","0","39","27"
"","psychophysics","189","547042","0.0-189.0","631bfb8f27645e704e21c1cd","64de83948061a741afe9e213","","","","","1574",""," ","key"," ","6.941247787610916","500","250","eb","36","2","","0","0","31","30"
"","psychophysics","190","547925","0.0-190.0","631bfb8f27645e704e21c1cd","64de83948061a741afe9e213","","","","","881",""," ","key"," ","6.944873015873045","500","250","eb","34","2","","0","0","36","28"
"","psychophysics","191","550081","0.0-191.0","631bfb8f27645e704e21c1cd","64de83948061a741afe9e213","","","","","2155",""," ","key"," ","6.943818770226582","500","250","eb","50","2","","0","0","43","49"
"","psychophysics","192","552994","0.0-192.0","631bfb8f27645e704e21c1cd","64de83948061a741afe9e213","","","","","2911",""," ","key"," ","6.945661097852211","500","250","eb","41","2","","0","0","37","35"
"","psychophysics","193","555543","0.0-193.0","631bfb8f27645e704e21c1cd","64de83948061a741afe9e213","","","","","2547",""," ","key"," ","6.945721311475306","500","250","eb","40","2","","0","0","31","44"
"","psychophysics","194","557980","0.0-194.0","631bfb8f27645e704e21c1cd","64de83948061a741afe9e213","","","","","2436",""," ","key"," ","6.943379999999888","500","250","eb","43","2","","0","0","34","48"
"","psychophysics","195","559381","0.0-195.0","631bfb8f27645e704e21c1cd","64de83948061a741afe9e213","","","","","1400",""," ","key"," ","6.945139303482578","500","250","eb","44","2","","0","0","42","42"
"","psychophysics","196","561825","0.0-196.0","631bfb8f27645e704e21c1cd","64de83948061a741afe9e213","","","","","2442",""," ","key"," ","6.944475783475614","500","250","eb","56","2","","0","0","50","54"
"","psychophysics","197","564121","0.0-197.0","631bfb8f27645e704e21c1cd","64de83948061a741afe9e213","","","","","2294",""," ","key"," ","6.9416534954407405","500","250","eb","39","2","","0","0","34","30"
"","psychophysics","198","565357","0.0-198.0","631bfb8f27645e704e21c1cd","64de83948061a741afe9e213","","","","","1233",""," ","key"," ","6.9481977401130255","500","250","eb","34","2","","0","0","32","27"
"","psychophysics","199","566576","0.0-199.0","631bfb8f27645e704e21c1cd","64de83948061a741afe9e213","","","","","1219",""," ","key"," ","6.941188571429146","500","250","eb","52","2","","0","0","50","43"
"","psychophysics","200","568280","0.0-200.0","631bfb8f27645e704e21c1cd","64de83948061a741afe9e213","","","","","1702",""," ","key"," ","6.943475409836001","500","250","eb","30","2","","0","0","32","24"
"","psychophysics","201","569639","0.0-201.0","631bfb8f27645e704e21c1cd","64de83948061a741afe9e213","","","","","1358",""," ","key"," ","6.945323076923019","500","250","eb","46","2","","0","0","44","40"
"","psychophysics","202","570391","0.0-202.0","631bfb8f27645e704e21c1cd","64de83948061a741afe9e213","","","","","750",""," ","key"," ","6.94900934579434","500","250","inst","","","","","","",""
"","psychophysics","203","572288","0.0-203.0","631bfb8f27645e704e21c1cd","64de83948061a741afe9e213","","","","","1897",""," ","key"," ","6.945367647058875","500","250","instBr3","40","1","","0","0","40","300"
"","psychophysics","204","572852","0.0-204.0","631bfb8f27645e704e21c1cd","64de83948061a741afe9e213","","","","","558",""," ","key"," ","6.950456790124457","500","250","inst","","","","","","",""
"","psychophysics","205","574419","0.0-205.0","631bfb8f27645e704e21c1cd","64de83948061a741afe9e213","","","","","1566",""," ","key"," ","6.945263392856889","500","250","br","-16","1","1","18","-25","-11","300"
"","psychophysics","206","575828","0.0-206.0","631bfb8f27645e704e21c1cd","64de83948061a741afe9e213","","","","","1407",""," ","key"," ","6.947500000000092","500","250","br","-16","1","1","16","5","-11","289"
"","psychophysics","207","578869","0.0-207.0","631bfb8f27645e704e21c1cd","64de83948061a741afe9e213","","","","","3040",""," ","key"," ","6.945487414187809","500","250","br","-14","1","1","-15","3","30","243"
"","psychophysics","208","581050","0.0-208.0","631bfb8f27645e704e21c1cd","64de83948061a741afe9e213","","","","","2179",""," ","key"," ","6.946249201277884","500","250","br","-9","1","1","-25","23","-17","204"
"","psychophysics","209","582526","0.0-209.0","631bfb8f27645e704e21c1cd","64de83948061a741afe9e213","","","","","1476",""," ","key"," ","6.947023584905525","500","250","br","-11","1","1","11","9","-16","233"
"","psychophysics","210","584588","0.0-210.0","631bfb8f27645e704e21c1cd","64de83948061a741afe9e213","","","","","2060",""," ","key"," ","6.945614864864871","500","250","br","-19","1","1","-6","-2","3","293"
"","psychophysics","211","586739","0.0-211.0","631bfb8f27645e704e21c1cd","64de83948061a741afe9e213","","","","","2150",""," ","key"," ","6.941158576051683","500","250","br","-16","1","1","-8","8","19","289"
"","psychophysics","212","588435","0.0-212.0","631bfb8f27645e704e21c1cd","64de83948061a741afe9e213","","","","","1694",""," ","key"," ","6.945860082304695","500","250","br","-23","1","1","28","-18","-15","247"
"","psychophysics","213","590379","0.0-213.0","631bfb8f27645e704e21c1cd","64de83948061a741afe9e213","","","","","1944",""," ","key"," ","6.9455591397848995","500","250","br","-21","1","1","18","-5","-12","279"
"","psychophysics","214","591441","0.0-214.0","631bfb8f27645e704e21c1cd","64de83948061a741afe9e213","","","","","1060",""," ","key"," ","6.944513157894682","500","250","br","-15","1","1","7","22","-12","271"
"","psychophysics","215","594871","0.0-215.0","631bfb8f27645e704e21c1cd","64de83948061a741afe9e213","","","","","3429",""," ","key"," ","6.9436997971601375","500","250","br","-21","1","1","27","-24","-25","295"
"","psychophysics","216","598181","0.0-216.0","631bfb8f27645e704e21c1cd","64de83948061a741afe9e213","","","","","3309",""," ","key"," ","6.944252631578987","500","250","br","-13","1","1","7","-9","9","249"
"","psychophysics","217","600047","0.0-217.0","631bfb8f27645e704e21c1cd","64de83948061a741afe9e213","","","","","1864",""," ","key"," ","6.946611940298219","500","250","br","-14","1","1","5","3","-21","248"
"","psychophysics","218","602163","0.0-218.0","631bfb8f27645e704e21c1cd","64de83948061a741afe9e213","","","","","2114",""," ","key"," ","6.945838815789581","500","250","br","-15","1","1","15","-5","-2","262"
"","psychophysics","219","603555","0.0-219.0","631bfb8f27645e704e21c1cd","64de83948061a741afe9e213","","","","","1392",""," ","key"," ","6.944080402009919","500","250","br","-25","1","1","0","30","-26","279"
