"success","trial_type","trial_index","time_elapsed","internal_node_id","pid","sid","timeout","failed_images","failed_audio","failed_video","rt","stimulus","response","response_type","key_press","avg_frame_time","center_x","center_y","task","resp","version","block","jitterX","jitterY","start","parA"
"true","fullscreen","0","3443","0.0-0.0","5808f958b648e600016375dd","64e50401a7cab5e0e20d486f","","","","","","","","","","","","","","","","","","","",""
"true","preload","1","3575","0.0-1.0","5808f958b648e600016375dd","64e50401a7cab5e0e20d486f","false","[]","[]","[]","","","","","","","","","","","","","","","",""
"","html-button-response","2","6294","0.0-2.0","5808f958b648e600016375dd","64e50401a7cab5e0e20d486f","","","","","2718","Please Make Sure Your Audio Is On.","0","","","","","","","","","","","","",""
"","psychophysics","3","11299","0.0-3.0","5808f958b648e600016375dd","64e50401a7cab5e0e20d486f","","","","","4929",""," ","key"," ","16.821818181818177","640","250","","","","","","","",""
"","psychophysics","4","17547","0.0-4.0","5808f958b648e600016375dd","64e50401a7cab5e0e20d486f","","","","","6244",""," ","key"," ","16.66160427807487","500","250","inst","","","","","","",""
"","psychophysics","5","21500","0.0-5.0","5808f958b648e600016375dd","64e50401a7cab5e0e20d486f","","","","","3950",""," ","key"," ","16.661864406779664","500","250","sample0","","","","","","",""
"","psychophysics","6","24139","0.0-6.0","5808f958b648e600016375dd","64e50401a7cab5e0e20d486f","","","","","2637",""," ","key"," ","16.661898734177225","500","250","sample1","","","","","","",""
"","psychophysics","7","40010","0.0-7.0","5808f958b648e600016375dd","64e50401a7cab5e0e20d486f","","","","","15867",""," ","key"," ","16.66145110410095","500","250","sample2","100","","","","","",""
"","psychophysics","8","45035","0.0-8.0","5808f958b648e600016375dd","64e50401a7cab5e0e20d486f","","","","","5023",""," ","key"," ","17.23395189003437","500","250","sample3","98","","","","","",""
"","psychophysics","9","53290","0.0-9.0","5808f958b648e600016375dd","64e50401a7cab5e0e20d486f","","","","","8251",""," ","key"," ","16.661295546558705","500","250","sample4","100","","","","","",""
"","psychophysics","10","56532","0.0-10.0","5808f958b648e600016375dd","64e50401a7cab5e0e20d486f","","","","","3230",""," ","key"," ","16.66164948453605","500","250","sample5","","","","","","",""
"","psychophysics","11","62603","0.0-11.0","5808f958b648e600016375dd","64e50401a7cab5e0e20d486f","","","","","6070",""," ","key"," ","16.66115702479339","500","250","sample6","502","","","","","",""
"","psychophysics","12","66411","0.0-12.0","5808f958b648e600016375dd","64e50401a7cab5e0e20d486f","","","","","3807",""," ","key"," ","16.661491228070204","500","250","inst","","","","","","",""
"","psychophysics","13","71747","0.0-13.0","5808f958b648e600016375dd","64e50401a7cab5e0e20d486f","","","","","5334",""," ","key"," ","16.661567398119146","500","250","inst","","","","","","",""
"","psychophysics","14","75508","0.0-14.0","5808f958b648e600016375dd","64e50401a7cab5e0e20d486f","","","","","3758",""," ","key"," ","16.66115555555553","500","250","inst","","","","","","",""
"","psychophysics","15","77708","0.0-15.0","5808f958b648e600016375dd","64e50401a7cab5e0e20d486f","","","","","2198",""," ","key"," ","16.660152671755693","500","250","inst","","","","","","",""
"","psychophysics","16","78875","0.0-16.0","5808f958b648e600016375dd","64e50401a7cab5e0e20d486f","","","","","1164",""," ","key"," ","16.661159420289998","500","250","inst","","","","","","",""
"","psychophysics","17","81099","0.0-17.0","5808f958b648e600016375dd","64e50401a7cab5e0e20d486f","","","","","2222",""," ","key"," ","16.66060606060604","500","250","instBr0","0","","","0","0","0","300"
"","psychophysics","18","87304","0.0-18.0","5808f958b648e600016375dd","64e50401a7cab5e0e20d486f","","","","","6190",""," ","key"," ","16.84255434782608","500","250","instBr1","4","","","0","0","-40","300"
"","psychophysics","19","93668","0.0-19.0","5808f958b648e600016375dd","64e50401a7cab5e0e20d486f","","","","","6359",""," ","key"," ","16.661207349081398","500","250","instBr3","-13","1","","0","0","40","300"
"","psychophysics","20","95652","0.0-20.0","5808f958b648e600016375dd","64e50401a7cab5e0e20d486f","","","","","1982",""," ","key"," ","16.662033898305168","500","250","inst","","","","","","",""
"","psychophysics","21","100116","0.0-21.0","5808f958b648e600016375dd","64e50401a7cab5e0e20d486f","","","","","4460",""," ","key"," ","16.661198501872637","500","250","br","-10","1","0","11","5","9","248"
"","psychophysics","22","105828","0.0-22.0","5808f958b648e600016375dd","64e50401a7cab5e0e20d486f","","","","","5709",""," ","key"," ","16.66187134502924","500","250","br","-2","1","0","-11","22","28","265"
"","psychophysics","23","109668","0.0-23.0","5808f958b648e600016375dd","64e50401a7cab5e0e20d486f","","","","","3835",""," ","key"," ","16.661659388646306","500","250","br","-10","1","0","-12","-11","-4","209"
"","psychophysics","24","114676","0.0-24.0","5808f958b648e600016375dd","64e50401a7cab5e0e20d486f","","","","","5006",""," ","key"," ","16.66126666666668","500","250","br","-8","1","0","-9","11","10","292"
"","psychophysics","25","117292","0.0-25.0","5808f958b648e600016375dd","64e50401a7cab5e0e20d486f","","","","","2613",""," ","key"," ","16.661410256410306","500","250","br","-12","1","0","-21","-17","-9","204"
"","psychophysics","26","121108","0.0-26.0","5808f958b648e600016375dd","64e50401a7cab5e0e20d486f","","","","","3813",""," ","key"," ","16.66131578947368","500","250","br","-20","1","0","6","-7","-30","292"
"","psychophysics","27","124084","0.0-27.0","5808f958b648e600016375dd","64e50401a7cab5e0e20d486f","","","","","2973",""," ","key"," ","16.661355932203378","500","250","br","-16","1","0","18","15","-30","266"
"","psychophysics","28","127932","0.0-28.0","5808f958b648e600016375dd","64e50401a7cab5e0e20d486f","","","","","3826",""," ","key"," ","16.661391304347806","500","250","br","-15","1","0","11","-13","-27","241"
"","psychophysics","29","131531","0.0-29.0","5808f958b648e600016375dd","64e50401a7cab5e0e20d486f","","","","","3586",""," ","key"," ","16.661674418604694","500","250","br","-15","1","0","24","29","-30","238"
"","psychophysics","30","133451","0.0-30.0","5808f958b648e600016375dd","64e50401a7cab5e0e20d486f","","","","","1918",""," ","key"," ","16.662260869565248","500","250","br","-13","1","0","-14","14","-18","258"
"","psychophysics","31","137740","0.0-31.0","5808f958b648e600016375dd","64e50401a7cab5e0e20d486f","","","","","4286",""," ","key"," ","16.661718749999977","500","250","br","-9","1","0","5","-5","18","243"
"","psychophysics","32","141995","0.0-32.0","5808f958b648e600016375dd","64e50401a7cab5e0e20d486f","","","","","4252",""," ","key"," ","16.661338582677093","500","250","br","-10","1","0","-17","14","18","280"
"","psychophysics","33","146396","0.0-33.0","5808f958b648e600016375dd","64e50401a7cab5e0e20d486f","","","","","4393",""," ","key"," ","16.661901140684474","500","250","br","-17","1","0","20","12","-20","286"
"","psychophysics","34","151891","0.0-34.0","5808f958b648e600016375dd","64e50401a7cab5e0e20d486f","","","","","5486",""," ","key"," ","16.661641337385998","500","250","br","-10","1","0","-26","2","21","215"
"","psychophysics","35","157275","0.0-35.0","5808f958b648e600016375dd","64e50401a7cab5e0e20d486f","","","","","5383",""," ","key"," ","16.661552795031113","500","250","br","-10","1","0","27","-22","30","204"
"","psychophysics","36","158804","0.0-36.0","5808f958b648e600016375dd","64e50401a7cab5e0e20d486f","","","","","1519",""," ","key"," ","16.660879120878956","500","250","inst","","","","","","",""
"","psychophysics","37","164164","0.0-37.0","5808f958b648e600016375dd","64e50401a7cab5e0e20d486f","","","","","5359",""," ","key"," ","16.66155763239871","500","250","instPog0","340","2","","0","0","370","340"
"","psychophysics","38","174797","0.0-38.0","5808f958b648e600016375dd","64e50401a7cab5e0e20d486f","","","","","10629",""," ","key"," ","17.39842622950816","500","250","instPog1","336","2","","0","0","370","340"
"","psychophysics","39","179508","0.0-39.0","5808f958b648e600016375dd","64e50401a7cab5e0e20d486f","","","","","4706",""," ","key"," ","16.661347517730498","500","250","instPog2","340","2","","0","0","340","340"
"","psychophysics","40","182061","0.0-40.0","5808f958b648e600016375dd","64e50401a7cab5e0e20d486f","","","","","2549",""," ","key"," ","16.661578947368405","500","250","inst","","","","","","",""
"","psychophysics","41","186540","0.0-41.0","5808f958b648e600016375dd","64e50401a7cab5e0e20d486f","","","","","4477",""," ","key"," ","16.6616417910448","500","250","pog","346","2","0","0","0","374","353"
"","psychophysics","42","189005","0.0-42.0","5808f958b648e600016375dd","64e50401a7cab5e0e20d486f","","","","","2462",""," ","key"," ","16.661768707482985","500","250","pog","317","2","0","0","0","315","340"
"","psychophysics","43","191532","0.0-43.0","5808f958b648e600016375dd","64e50401a7cab5e0e20d486f","","","","","2524",""," ","key"," ","16.662384105960196","500","250","pog","313","2","0","0","0","317","336"
"","psychophysics","44","197675","0.0-44.0","5808f958b648e600016375dd","64e50401a7cab5e0e20d486f","","","","","6141",""," ","key"," ","16.661852861035406","500","250","pog","300","2","0","0","0","378","319"
"","psychophysics","45","201316","0.0-45.0","5808f958b648e600016375dd","64e50401a7cab5e0e20d486f","","","","","3638",""," ","key"," ","16.66146788990831","500","250","pog","342","2","0","0","0","382","362"
"","psychophysics","46","204981","0.0-46.0","5808f958b648e600016375dd","64e50401a7cab5e0e20d486f","","","","","3661",""," ","key"," ","16.661826484018274","500","250","pog","288","2","0","0","0","366","307"
"","psychophysics","47","212277","0.0-47.0","5808f958b648e600016375dd","64e50401a7cab5e0e20d486f","","","","","7293",""," ","key"," ","16.66132723112128","500","250","pog","337","2","0","0","0","281","361"
"","psychophysics","48","218188","0.0-48.0","5808f958b648e600016375dd","64e50401a7cab5e0e20d486f","","","","","5909",""," ","key"," ","17.248093841642245","500","250","pog","336","2","0","0","0","372","359"
"","psychophysics","49","222765","0.0-49.0","5808f958b648e600016375dd","64e50401a7cab5e0e20d486f","","","","","4567",""," ","key"," ","16.661532846715364","500","250","pog","314","2","0","0","0","280","336"
"","psychophysics","50","229884","0.0-50.0","5808f958b648e600016375dd","64e50401a7cab5e0e20d486f","","","","","7118",""," ","key"," ","16.661784037558714","500","250","pog","293","2","0","0","0","349","312"
"","psychophysics","51","234142","0.0-51.0","5808f958b648e600016375dd","64e50401a7cab5e0e20d486f","","","","","4248",""," ","key"," ","16.66156862745091","500","250","pog","298","2","0","0","0","380","320"
"","psychophysics","52","237948","0.0-52.0","5808f958b648e600016375dd","64e50401a7cab5e0e20d486f","","","","","3804",""," ","key"," ","16.661674008810497","500","250","pog","300","2","0","0","0","300","320"
"","psychophysics","53","242549","0.0-53.0","5808f958b648e600016375dd","64e50401a7cab5e0e20d486f","","","","","4590",""," ","key"," ","16.661600000000007","500","250","pog","326","2","0","0","0","334","342"
"","psychophysics","54","244677","0.0-54.0","5808f958b648e600016375dd","64e50401a7cab5e0e20d486f","","","","","2120",""," ","key"," ","16.66125984251977","500","250","pog","313","2","0","0","0","323","327"
"","psychophysics","55","248324","0.0-55.0","5808f958b648e600016375dd","64e50401a7cab5e0e20d486f","","","","","3647",""," ","key"," ","16.66155963302753","500","250","pog","355","2","0","0","0","371","371"
"","psychophysics","56","249952","0.0-56.0","5808f958b648e600016375dd","64e50401a7cab5e0e20d486f","","","","","1625",""," ","key"," ","16.659587628865786","500","250","inst","","","","","","",""
"","psychophysics","57","251813","0.0-57.0","5808f958b648e600016375dd","64e50401a7cab5e0e20d486f","","","","","1859",""," ","key"," ","16.663063063063117","500","250","instZol0","0","","","0","0","0",""
"","psychophysics","58","267262","0.0-58.0","5808f958b648e600016375dd","64e50401a7cab5e0e20d486f","","","","","15447",""," ","key"," ","16.661274298056185","500","250","instZol1","0.20000000000000004","","","0","0","-1.3",""
"","psychophysics","59","278713","0.0-59.0","5808f958b648e600016375dd","64e50401a7cab5e0e20d486f","","","","","11448",""," ","key"," ","16.833136966126673","500","250","instZol2","1.300000000000001","1","","0","0","2",""
"","psychophysics","60","280197","0.0-60.0","5808f958b648e600016375dd","64e50401a7cab5e0e20d486f","","","","","1481",""," ","key"," ","16.85195402298845","500","250","inst","","","","","","",""
"","psychophysics","61","284629","0.0-61.0","5808f958b648e600016375dd","64e50401a7cab5e0e20d486f","","","","","4430",""," ","key"," ","16.661811320754733","500","250","zol","1.2400000000000002","1","0","-26","-10","-0.34",""
"","psychophysics","62","290245","0.0-62.0","5808f958b648e600016375dd","64e50401a7cab5e0e20d486f","","","","","5614",""," ","key"," ","16.661607142857108","500","250","zol","1.08","1","0","-21","0","0.42",""
"","psychophysics","63","293085","0.0-63.0","5808f958b648e600016375dd","64e50401a7cab5e0e20d486f","","","","","2838",""," ","key"," ","17.485555555555397","500","250","zol","1.15","1","0","-6","6","-0.25",""
"","psychophysics","64","297780","0.0-64.0","5808f958b648e600016375dd","64e50401a7cab5e0e20d486f","","","","","4693",""," ","key"," ","16.661571428571396","500","250","zol","1.11","1","0","-4","30","0.59",""
"","psychophysics","65","303957","0.0-65.0","5808f958b648e600016375dd","64e50401a7cab5e0e20d486f","","","","","6165",""," ","key"," ","16.66151351351354","500","250","zol","1.36","1","0","11","11","-0.16",""
"","psychophysics","66","308565","0.0-66.0","5808f958b648e600016375dd","64e50401a7cab5e0e20d486f","","","","","4605",""," ","key"," ","16.661086956521814","500","250","zol","1.35","1","0","-14","-7","0.75",""
"","psychophysics","67","316237","0.0-67.0","5808f958b648e600016375dd","64e50401a7cab5e0e20d486f","","","","","7670",""," ","key"," ","16.697903930131034","500","250","zol","1.0899999999999999","1","0","22","7","-0.69",""
"","psychophysics","68","319901","0.0-68.0","5808f958b648e600016375dd","64e50401a7cab5e0e20d486f","","","","","3651",""," ","key"," ","16.661643835616545","500","250","zol","1.7100000000000006","1","0","-15","-26","-0.31",""
"","psychophysics","69","323132","0.0-69.0","5808f958b648e600016375dd","64e50401a7cab5e0e20d486f","","","","","3227",""," ","key"," ","16.66155440414504","500","250","zol","1.5600000000000003","1","0","24","-20","0.34",""
"","psychophysics","70","325758","0.0-70.0","5808f958b648e600016375dd","64e50401a7cab5e0e20d486f","","","","","2622",""," ","key"," ","16.661910828025373","500","250","zol","1.9600000000000009","1","0","7","22","-0.56",""
"","psychophysics","71","328573","0.0-71.0","5808f958b648e600016375dd","64e50401a7cab5e0e20d486f","","","","","2811",""," ","key"," ","16.6621428571428","500","250","zol","1.7200000000000006","1","0","-28","-6","-0.52",""
"","psychophysics","72","332261","0.0-72.0","5808f958b648e600016375dd","64e50401a7cab5e0e20d486f","","","","","3683",""," ","key"," ","16.66190909090907","500","250","zol","1.3100000000000003","1","0","-25","-28","-0.21",""
"","psychophysics","73","335365","0.0-73.0","5808f958b648e600016375dd","64e50401a7cab5e0e20d486f","","","","","3100",""," ","key"," ","16.661189189189226","500","250","zol","1.0999999999999999","1","0","24","-3","0.4",""
"","psychophysics","74","338158","0.0-74.0","5808f958b648e600016375dd","64e50401a7cab5e0e20d486f","","","","","2790",""," ","key"," ","16.661916167664895","500","250","zol","0.8499999999999999","1","0","6","5","0.75",""
"","psychophysics","75","341349","0.0-75.0","5808f958b648e600016375dd","64e50401a7cab5e0e20d486f","","","","","3189",""," ","key"," ","16.66199999999984","500","250","zol","1.03","1","0","29","2","-0.63",""
"","psychophysics","76","344350","0.0-76.0","5808f958b648e600016375dd","64e50401a7cab5e0e20d486f","","","","","2985",""," ","key"," ","16.66133333333354","500","250","inst","","","","","","",""
"","psychophysics","77","346094","0.0-77.0","5808f958b648e600016375dd","64e50401a7cab5e0e20d486f","","","","","1741",""," ","key"," ","16.660970873786567","500","250","instEB0","40","2","","0","0","40","40"
"","psychophysics","78","351790","0.0-78.0","5808f958b648e600016375dd","64e50401a7cab5e0e20d486f","","","","","5694",""," ","key"," ","16.661524926686266","500","250","instEB1","40","2","","0","0","30","40"
"","psychophysics","79","357502","0.0-79.0","5808f958b648e600016375dd","64e50401a7cab5e0e20d486f","","","","","5709",""," ","key"," ","16.66116959064326","500","250","instEB2","31","2","","0","0","40","30"
"","psychophysics","80","366695","0.0-80.0","5808f958b648e600016375dd","64e50401a7cab5e0e20d486f","","","","","9191",""," ","key"," ","16.66152450090744","500","250","instEB3","32","2","","0","0","45","27"
"","psychophysics","81","375182","0.0-81.0","5808f958b648e600016375dd","64e50401a7cab5e0e20d486f","","","","","8485",""," ","key"," ","16.661338582677207","500","250","instEB4","43","2","","0","0","30","40"
"","psychophysics","82","376390","0.0-82.0","5808f958b648e600016375dd","64e50401a7cab5e0e20d486f","","","","","1206",""," ","key"," ","16.660555555555522","500","250","inst","","","","","","",""
"","psychophysics","83","381310","0.0-83.0","5808f958b648e600016375dd","64e50401a7cab5e0e20d486f","","","","","4918",""," ","key"," ","16.66115646258505","500","250","eb","46","2","","0","0","41","42"
"","psychophysics","84","384406","0.0-84.0","5808f958b648e600016375dd","64e50401a7cab5e0e20d486f","","","","","3093",""," ","key"," ","16.661729729729956","500","250","eb","53","2","","0","0","46","49"
"","psychophysics","85","387598","0.0-85.0","5808f958b648e600016375dd","64e50401a7cab5e0e20d486f","","","","","3188",""," ","key"," ","16.661157894736817","500","250","eb","42","2","","0","0","43","39"
"","psychophysics","86","391614","0.0-86.0","5808f958b648e600016375dd","64e50401a7cab5e0e20d486f","","","","","4013",""," ","key"," ","16.66150000000004","500","250","eb","41","2","","0","0","34","34"
"","psychophysics","87","396262","0.0-87.0","5808f958b648e600016375dd","64e50401a7cab5e0e20d486f","","","","","4646",""," ","key"," ","18.164313725490288","500","250","eb","29","2","","0","0","39","24"
"","psychophysics","88","400894","0.0-88.0","5808f958b648e600016375dd","64e50401a7cab5e0e20d486f","","","","","4562",""," ","key"," ","17.031629629629553","500","250","eb","46","2","","0","0","36","42"
"","psychophysics","89","403974","0.0-89.0","5808f958b648e600016375dd","64e50401a7cab5e0e20d486f","","","","","3078",""," ","key"," ","16.66206521739134","500","250","eb","42","2","","0","0","46","37"
"","psychophysics","90","407415","0.0-90.0","5808f958b648e600016375dd","64e50401a7cab5e0e20d486f","","","","","3439",""," ","key"," ","16.661844660194298","500","250","eb","43","2","","0","0","54","38"
"","psychophysics","91","412758","0.0-91.0","5808f958b648e600016375dd","64e50401a7cab5e0e20d486f","","","","","5339",""," ","key"," ","16.661504702194232","500","250","eb","52","2","","0","0","54","47"
"","psychophysics","92","416822","0.0-92.0","5808f958b648e600016375dd","64e50401a7cab5e0e20d486f","","","","","4055",""," ","key"," ","16.66172839506192","500","250","eb","36","2","","0","0","38","31"
"","psychophysics","93","420318","0.0-93.0","5808f958b648e600016375dd","64e50401a7cab5e0e20d486f","","","","","3494",""," ","key"," ","16.661722488038222","500","250","eb","40","2","","0","0","24","37"
"","psychophysics","94","423279","0.0-94.0","5808f958b648e600016375dd","64e50401a7cab5e0e20d486f","","","","","2956",""," ","key"," ","16.66124293785299","500","250","eb","45","2","","0","0","34","41"
"","psychophysics","95","430870","0.0-95.0","5808f958b648e600016375dd","64e50401a7cab5e0e20d486f","","","","","7589",""," ","key"," ","16.661585903083797","500","250","eb","56","2","","0","0","30","53"
"","psychophysics","96","434534","0.0-96.0","5808f958b648e600016375dd","64e50401a7cab5e0e20d486f","","","","","3656",""," ","key"," ","16.662009132420007","500","250","eb","54","2","","0","0","28","51"
"","psychophysics","97","439350","0.0-97.0","5808f958b648e600016375dd","64e50401a7cab5e0e20d486f","","","","","4814",""," ","key"," ","16.661458333333332","500","250","eb","25","2","","0","0","33","25"
"","psychophysics","98","440375","0.0-98.0","5808f958b648e600016375dd","64e50401a7cab5e0e20d486f","","","","","1010",""," ","key"," ","16.686557377049258","500","250","inst","","","","","","",""
"","psychophysics","99","442398","0.0-99.0","5808f958b648e600016375dd","64e50401a7cab5e0e20d486f","","","","","2022",""," ","key"," ","16.6606666666669","500","250","instPzPre","50","0","","","","50","50"
"","psychophysics","100","445054","0.0-100.0","5808f958b648e600016375dd","64e50401a7cab5e0e20d486f","","","","","2655",""," ","key"," ","16.6617610062895","500","250","instPz0","50","1","","","","50","50"
"","psychophysics","101","453006","0.0-101.0","5808f958b648e600016375dd","64e50401a7cab5e0e20d486f","","","","","7950",""," ","key"," ","16.661344537815225","500","250","instPz1","49","1","","","","25","50"
"","psychophysics","102","457991","0.0-102.0","5808f958b648e600016375dd","64e50401a7cab5e0e20d486f","","","","","4983",""," ","key"," ","16.66167785234897","500","250","instPz2","22","1","","","","35","20"
"","psychophysics","103","463864","0.0-103.0","5808f958b648e600016375dd","64e50401a7cab5e0e20d486f","","","","","5870",""," ","key"," ","16.66102272727271","500","250","instPz3","100","1","","","","100","30"
"","psychophysics","104","473662","0.0-104.0","5808f958b648e600016375dd","64e50401a7cab5e0e20d486f","","","","","9795",""," ","key"," ","16.661499148211224","500","250","instPz4","37","1","","","","100","30"
"","psychophysics","105","474719","0.0-105.0","5808f958b648e600016375dd","64e50401a7cab5e0e20d486f","","","","","1053",""," ","key"," ","16.66322580645154","500","250","inst","","","","","","",""
"","psychophysics","106","480663","0.0-106.0","5808f958b648e600016375dd","64e50401a7cab5e0e20d486f","","","","","5939",""," ","key"," ","16.661573033707917","500","250","pz","34","1","0","","","48","25"
"","psychophysics","107","485278","0.0-107.0","5808f958b648e600016375dd","64e50401a7cab5e0e20d486f","","","","","4614",""," ","key"," ","16.661304347826153","500","250","pz","36","1","0","","","43","24"
"","psychophysics","108","492676","0.0-108.0","5808f958b648e600016375dd","64e50401a7cab5e0e20d486f","","","","","7395",""," ","key"," ","16.66139954853273","500","250","pz","74","1","0","","","29","53"
"","psychophysics","109","496367","0.0-109.0","5808f958b648e600016375dd","64e50401a7cab5e0e20d486f","","","","","3686",""," ","key"," ","16.737534246575162","500","250","pz","69","1","0","","","58","59"
"","psychophysics","110","500759","0.0-110.0","5808f958b648e600016375dd","64e50401a7cab5e0e20d486f","","","","","4382",""," ","key"," ","16.66152091254746","500","250","pz","44","1","0","","","27","29"
"","psychophysics","111","506990","0.0-111.0","5808f958b648e600016375dd","64e50401a7cab5e0e20d486f","","","","","6227",""," ","key"," ","17.807277936962723","500","250","pz","34","1","0","","","42","24"
"","psychophysics","112","515327","0.0-112.0","5808f958b648e600016375dd","64e50401a7cab5e0e20d486f","","","","","8294",""," ","key"," ","16.762056451612867","500","250","pz","75","1","0","","","36","59"
"","psychophysics","113","521079","0.0-113.0","5808f958b648e600016375dd","64e50401a7cab5e0e20d486f","","","","","5743",""," ","key"," ","16.661217391304334","500","250","pz","34","1","0","","","28","24"
"","psychophysics","114","526919","0.0-114.0","5808f958b648e600016375dd","64e50401a7cab5e0e20d486f","","","","","5837",""," ","key"," ","16.66154727793681","500","250","pz","72","1","0","","","24","50"
"","psychophysics","115","530639","0.0-115.0","5808f958b648e600016375dd","64e50401a7cab5e0e20d486f","","","","","3718",""," ","key"," ","16.661711711711817","500","250","pz","34","1","0","","","56","24"
"","psychophysics","116","533271","0.0-116.0","5808f958b648e600016375dd","64e50401a7cab5e0e20d486f","","","","","2623",""," ","key"," ","16.662038216560152","500","250","pz","52","1","0","","","51","36"
"","psychophysics","117","538608","0.0-117.0","5808f958b648e600016375dd","64e50401a7cab5e0e20d486f","","","","","5327",""," ","key"," ","16.66168749999997","500","250","pz","80","1","0","","","52","59"
"","psychophysics","118","542832","0.0-118.0","5808f958b648e600016375dd","64e50401a7cab5e0e20d486f","","","","","4220",""," ","key"," ","16.66166666666663","500","250","pz","48","1","0","","","20","38"
"","psychophysics","119","546303","0.0-119.0","5808f958b648e600016375dd","64e50401a7cab5e0e20d486f","","","","","3470",""," ","key"," ","16.66153846153891","500","250","pz","68","1","0","","","41","52"
"","psychophysics","120","549631","0.0-120.0","5808f958b648e600016375dd","64e50401a7cab5e0e20d486f","","","","","3324",""," ","key"," ","16.66131313131285","500","250","pz","48","1","0","","","58","36"
"","psychophysics","121","552871","0.0-121.0","5808f958b648e600016375dd","64e50401a7cab5e0e20d486f","","","","","3239",""," ","key"," ","16.662371134020617","500","250","inst","","","","","","",""
"","psychophysics","122","561439","0.0-122.0","5808f958b648e600016375dd","64e50401a7cab5e0e20d486f","","","","","8561",""," ","key"," ","16.661286549707583","500","250","instPz1","42","2","","","","25","50"
"","psychophysics","123","565798","0.0-123.0","5808f958b648e600016375dd","64e50401a7cab5e0e20d486f","","","","","4357",""," ","key"," ","16.660996168582002","500","250","instPz2","30","2","","","","20","35"
"","psychophysics","124","574742","0.0-124.0","5808f958b648e600016375dd","64e50401a7cab5e0e20d486f","","","","","8942",""," ","key"," ","16.661007462686655","500","250","instPz3","60","2","","","","30","100"
"","psychophysics","125","583071","0.0-125.0","5808f958b648e600016375dd","64e50401a7cab5e0e20d486f","","","","","8325",""," ","key"," ","16.661044176706966","500","250","instPz4","61","2","","","","30","100"
"","psychophysics","126","585928","0.0-126.0","5808f958b648e600016375dd","64e50401a7cab5e0e20d486f","","","","","2850",""," ","key"," ","16.66187134502954","500","250","inst","","","","","","",""
"","psychophysics","127","591335","0.0-127.0","5808f958b648e600016375dd","64e50401a7cab5e0e20d486f","","","","","5404",""," ","key"," ","16.661733746130363","500","250","pz","21","2","1","","","46","24"
"","psychophysics","128","595320","0.0-128.0","5808f958b648e600016375dd","64e50401a7cab5e0e20d486f","","","","","3974",""," ","key"," ","16.661589958158977","500","250","pz","37","2","1","","","44","49"
"","psychophysics","129","599728","0.0-129.0","5808f958b648e600016375dd","64e50401a7cab5e0e20d486f","","","","","4405",""," ","key"," ","16.66144486692001","500","250","pz","15","2","1","","","46","20"
"","psychophysics","130","605608","0.0-130.0","5808f958b648e600016375dd","64e50401a7cab5e0e20d486f","","","","","5879",""," ","key"," ","16.66159090909059","500","250","pz","37","2","1","","","56","60"
"","psychophysics","131","609696","0.0-131.0","5808f958b648e600016375dd","64e50401a7cab5e0e20d486f","","","","","4083",""," ","key"," ","16.661639344262067","500","250","pz","31","2","1","","","39","45"
"","psychophysics","132","614423","0.0-132.0","5808f958b648e600016375dd","64e50401a7cab5e0e20d486f","","","","","4718",""," ","key"," ","17.14596363636369","500","250","pz","39","2","1","","","51","50"
"","psychophysics","133","617592","0.0-133.0","5808f958b648e600016375dd","64e50401a7cab5e0e20d486f","","","","","3165",""," ","key"," ","16.662328042327697","500","250","pz","28","2","1","","","40","36"
"","psychophysics","134","620784","0.0-134.0","5808f958b648e600016375dd","64e50401a7cab5e0e20d486f","","","","","3190",""," ","key"," ","16.661884816754146","500","250","pz","28","2","1","","","34","38"
"","psychophysics","135","623911","0.0-135.0","5808f958b648e600016375dd","64e50401a7cab5e0e20d486f","","","","","3125",""," ","key"," ","16.66192513368999","500","250","pz","25","2","1","","","32","31"
"","psychophysics","136","630552","0.0-136.0","5808f958b648e600016375dd","64e50401a7cab5e0e20d486f","","","","","6637",""," ","key"," ","16.661057934508676","500","250","pz","22","2","1","","","52","24"
"","psychophysics","137","635393","0.0-137.0","5808f958b648e600016375dd","64e50401a7cab5e0e20d486f","","","","","4839",""," ","key"," ","16.66220689655185","500","250","pz","24","2","1","","","49","31"
"","psychophysics","138","640608","0.0-138.0","5808f958b648e600016375dd","64e50401a7cab5e0e20d486f","","","","","5211",""," ","key"," ","16.66173076923065","500","250","pz","38","2","1","","","22","58"
"","psychophysics","139","644000","0.0-139.0","5808f958b648e600016375dd","64e50401a7cab5e0e20d486f","","","","","3389",""," ","key"," ","16.661485148515403","500","250","pz","21","2","1","","","29","27"
"","psychophysics","140","649832","0.0-140.0","5808f958b648e600016375dd","64e50401a7cab5e0e20d486f","","","","","5830",""," ","key"," ","16.661318051576064","500","250","pz","33","2","1","","","21","52"
"","psychophysics","141","654528","0.0-141.0","5808f958b648e600016375dd","64e50401a7cab5e0e20d486f","","","","","4684",""," ","key"," ","16.6615658362986","500","250","pz","41","2","1","","","56","57"
"","psychophysics","142","663048","0.0-142.0","5808f958b648e600016375dd","64e50401a7cab5e0e20d486f","","","","","8517",""," ","key"," ","16.66140900195714","500","250","inst","","","","","","",""
"","psychophysics","143","672866","0.0-143.0","5808f958b648e600016375dd","64e50401a7cab5e0e20d486f","","","","","9813",""," ","key"," ","16.661360544217693","500","250","instBr3","20","2","","0","0","40","300"
"","psychophysics","144","673985","0.0-144.0","5808f958b648e600016375dd","64e50401a7cab5e0e20d486f","","","","","1117",""," ","key"," ","16.660303030302394","500","250","inst","","","","","","",""
"","psychophysics","145","677351","0.0-145.0","5808f958b648e600016375dd","64e50401a7cab5e0e20d486f","","","","","3366",""," ","key"," ","16.661492537313247","500","250","br","14","2","1","-20","5","24","281"
"","psychophysics","146","680672","0.0-146.0","5808f958b648e600016375dd","64e50401a7cab5e0e20d486f","","","","","3317",""," ","key"," ","16.662020202019992","500","250","br","18","2","1","-3","-5","23","210"
"","psychophysics","147","683465","0.0-147.0","5808f958b648e600016375dd","64e50401a7cab5e0e20d486f","","","","","2791",""," ","key"," ","16.662035928144046","500","250","br","11","2","1","-17","29","-2","234"
"","psychophysics","148","686009","0.0-148.0","5808f958b648e600016375dd","64e50401a7cab5e0e20d486f","","","","","2541",""," ","key"," ","16.662631578947185","500","250","br","14","2","1","-19","4","10","244"
"","psychophysics","149","688544","0.0-149.0","5808f958b648e600016375dd","64e50401a7cab5e0e20d486f","","","","","2531",""," ","key"," ","16.661721854304144","500","250","br","19","2","1","12","-6","24","249"
"","psychophysics","150","691465","0.0-150.0","5808f958b648e600016375dd","64e50401a7cab5e0e20d486f","","","","","2919",""," ","key"," ","16.66195402298813","500","250","br","15","2","1","26","-21","13","279"
"","psychophysics","151","696434","0.0-151.0","5808f958b648e600016375dd","64e50401a7cab5e0e20d486f","","","","","4966",""," ","key"," ","16.661616161616163","500","250","br","10","2","1","-16","9","-19","271"
"","psychophysics","152","699032","0.0-152.0","5808f958b648e600016375dd","64e50401a7cab5e0e20d486f","","","","","2597",""," ","key"," ","16.662064516129004","500","250","br","15","2","1","27","11","0","230"
"","psychophysics","153","702848","0.0-153.0","5808f958b648e600016375dd","64e50401a7cab5e0e20d486f","","","","","3815",""," ","key"," ","16.661403508771624","500","250","br","13","2","1","-29","24","-6","221"
"","psychophysics","154","706137","0.0-154.0","5808f958b648e600016375dd","64e50401a7cab5e0e20d486f","","","","","3286",""," ","key"," ","16.66010152284283","500","250","br","18","2","1","-2","-8","-12","257"
"","psychophysics","155","710264","0.0-155.0","5808f958b648e600016375dd","64e50401a7cab5e0e20d486f","","","","","4123",""," ","key"," ","16.66130081300834","500","250","br","18","2","1","27","5","12","255"
"","psychophysics","156","713760","0.0-156.0","5808f958b648e600016375dd","64e50401a7cab5e0e20d486f","","","","","3487",""," ","key"," ","16.66162679425795","500","250","br","15","2","1","-13","18","0","211"
"","psychophysics","157","717457","0.0-157.0","5808f958b648e600016375dd","64e50401a7cab5e0e20d486f","","","","","3695",""," ","key"," ","16.66162895927589","500","250","br","17","2","1","17","6","16","223"
"","psychophysics","158","723153","0.0-158.0","5808f958b648e600016375dd","64e50401a7cab5e0e20d486f","","","","","5695",""," ","key"," ","16.661348973607094","500","250","br","14","2","1","4","-21","-24","257"
"","psychophysics","159","727592","0.0-159.0","5808f958b648e600016375dd","64e50401a7cab5e0e20d486f","","","","","4437",""," ","key"," ","16.6619622641511","500","250","br","14","2","1","22","-23","-13","293"
"","psychophysics","160","729352","0.0-160.0","5808f958b648e600016375dd","64e50401a7cab5e0e20d486f","","","","","1753",""," ","key"," ","16.6609523809526","500","250","inst","","","","","","",""
"","psychophysics","161","739737","0.0-161.0","5808f958b648e600016375dd","64e50401a7cab5e0e20d486f","","","","","10380",""," ","key"," ","17.624931972789053","500","250","instZol1","-0.1000000000000002","","","0","0","-1.3",""
"","psychophysics","162","745876","0.0-162.0","5808f958b648e600016375dd","64e50401a7cab5e0e20d486f","","","","","6123",""," ","key"," ","16.661358695652186","500","250","instZol2","-0.9999999999999992","2","","0","0","2",""
"","psychophysics","163","746528","0.0-163.0","5808f958b648e600016375dd","64e50401a7cab5e0e20d486f","","","","","651",""," ","key"," ","16.663157894735615","500","250","inst","","","","","","",""
"","psychophysics","164","752393","0.0-164.0","5808f958b648e600016375dd","64e50401a7cab5e0e20d486f","","","","","5861",""," ","key"," ","16.661310541310527","500","250","zol","-1.0999999999999999","2","1","-23","-6","0.6",""
"","psychophysics","165","756689","0.0-165.0","5808f958b648e600016375dd","64e50401a7cab5e0e20d486f","","","","","4292",""," ","key"," ","16.66178988326832","500","250","zol","-1.0599999999999998","2","1","26","20","-0.54",""
"","psychophysics","166","762592","0.0-166.0","5808f958b648e600016375dd","64e50401a7cab5e0e20d486f","","","","","5899",""," ","key"," ","16.66130311614715","500","250","zol","-1.15","2","1","-12","15","0.15",""
"","psychophysics","167","766417","0.0-167.0","5808f958b648e600016375dd","64e50401a7cab5e0e20d486f","","","","","3821",""," ","key"," ","16.661484716157123","500","250","zol","-0.8599999999999999","2","1","-22","4","-0.74",""
"","psychophysics","168","769066","0.0-168.0","5808f958b648e600016375dd","64e50401a7cab5e0e20d486f","","","","","2642",""," ","key"," ","16.661265822784692","500","250","zol","-0.7","2","1","-30","27","-0.7",""
"","psychophysics","169","771961","0.0-169.0","5808f958b648e600016375dd","64e50401a7cab5e0e20d486f","","","","","2890",""," ","key"," ","16.662325581395592","500","250","zol","-1.04","2","1","-29","28","-0.36",""
"","psychophysics","170","776233","0.0-170.0","5808f958b648e600016375dd","64e50401a7cab5e0e20d486f","","","","","4261",""," ","key"," ","16.661640625000018","500","250","zol","-1.3900000000000001","2","1","-25","0","0.39",""
"","psychophysics","171","782346","0.0-171.0","5808f958b648e600016375dd","64e50401a7cab5e0e20d486f","","","","","6110",""," ","key"," ","16.66136612021873","500","250","zol","-1.2500000000000002","2","1","-20","26","-0.35",""
"","psychophysics","172","785737","0.0-172.0","5808f958b648e600016375dd","64e50401a7cab5e0e20d486f","","","","","3387",""," ","key"," ","16.661782178218076","500","250","zol","-1.5000000000000002","2","1","-29","29","0.3",""
"","psychophysics","173","790625","0.0-173.0","5808f958b648e600016375dd","64e50401a7cab5e0e20d486f","","","","","4886",""," ","key"," ","16.66122866894195","500","250","zol","-1.4000000000000001","2","1","-1","-19","-0.6",""
"","psychophysics","174","795609","0.0-174.0","5808f958b648e600016375dd","64e50401a7cab5e0e20d486f","","","","","4982",""," ","key"," ","16.661275167785032","500","250","zol","-1.5200000000000005","2","1","-14","-1","0.42",""
"","psychophysics","175","797865","0.0-175.0","5808f958b648e600016375dd","64e50401a7cab5e0e20d486f","","","","","2253",""," ","key"," ","16.66149253731354","500","250","zol","-1.4700000000000004","2","1","-5","11","0.67",""
"","psychophysics","176","800362","0.0-176.0","5808f958b648e600016375dd","64e50401a7cab5e0e20d486f","","","","","2494",""," ","key"," ","16.661879194630842","500","250","zol","-1.26","2","1","-25","2","0.36",""
"","psychophysics","177","804722","0.0-177.0","5808f958b648e600016375dd","64e50401a7cab5e0e20d486f","","","","","4359",""," ","key"," ","16.662145593869983","500","250","zol","-1.1600000000000001","2","1","-6","-5","-0.44",""
"","psychophysics","178","808129","0.0-178.0","5808f958b648e600016375dd","64e50401a7cab5e0e20d486f","","","","","3404",""," ","key"," ","16.661280788177294","500","250","zol","-1.4700000000000002","2","1","-25","-23","0.47",""
"","psychophysics","179","809113","0.0-179.0","5808f958b648e600016375dd","64e50401a7cab5e0e20d486f","","","","","982",""," ","key"," ","16.66068965517153","500","250","inst","","","","","","",""
"","psychophysics","180","817064","0.0-180.0","5808f958b648e600016375dd","64e50401a7cab5e0e20d486f","","","","","7951",""," ","key"," ","16.661383647798704","500","250","instEB1","30","1","","0","0","40","30"
"","psychophysics","181","820370","0.0-181.0","5808f958b648e600016375dd","64e50401a7cab5e0e20d486f","","","","","3302",""," ","key"," ","16.661015228426255","500","250","instEB2","40","1","","0","0","30","40"
"","psychophysics","182","826138","0.0-182.0","5808f958b648e600016375dd","64e50401a7cab5e0e20d486f","","","","","5765",""," ","key"," ","16.661333333333427","500","250","instEB3","42","1","","0","0","27","45"
"","psychophysics","183","829001","0.0-183.0","5808f958b648e600016375dd","64e50401a7cab5e0e20d486f","","","","","2861",""," ","key"," ","16.661754385965104","500","250","instEB4","29","1","","0","0","40","30"
"","psychophysics","184","829658","0.0-184.0","5808f958b648e600016375dd","64e50401a7cab5e0e20d486f","","","","","654",""," ","key"," ","16.662631578945653","500","250","inst","","","","","","",""
"","psychophysics","185","836697","0.0-185.0","5808f958b648e600016375dd","64e50401a7cab5e0e20d486f","","","","","7039",""," ","key"," ","16.700950118765068","500","250","eb","29","1","","0","0","50","30"
"","psychophysics","186","839914","0.0-186.0","5808f958b648e600016375dd","64e50401a7cab5e0e20d486f","","","","","3214",""," ","key"," ","16.662604166666522","500","250","eb","43","1","","0","0","37","48"
"","psychophysics","187","844130","0.0-187.0","5808f958b648e600016375dd","64e50401a7cab5e0e20d486f","","","","","4215",""," ","key"," ","16.66222222222224","500","250","eb","36","1","","0","0","31","38"
"","psychophysics","188","849307","0.0-188.0","5808f958b648e600016375dd","64e50401a7cab5e0e20d486f","","","","","5173",""," ","key"," ","16.66148387096792","500","250","eb","50","1","","0","0","29","53"
"","psychophysics","189","857313","0.0-189.0","5808f958b648e600016375dd","64e50401a7cab5e0e20d486f","","","","","null","","null","key","null","16.944331210190896","500","250","eb","32","1","","0","0","25","31"
"","psychophysics","190","863570","0.0-190.0","5808f958b648e600016375dd","64e50401a7cab5e0e20d486f","","","","","6253",""," ","key"," ","16.661493333333173","500","250","eb","27","1","","0","0","52","28"
"","psychophysics","191","867313","0.0-191.0","5808f958b648e600016375dd","64e50401a7cab5e0e20d486f","","","","","3739",""," ","key"," ","16.661973094170904","500","250","eb","46","1","","0","0","34","52"
"","psychophysics","192","873075","0.0-192.0","5808f958b648e600016375dd","64e50401a7cab5e0e20d486f","","","","","5751",""," ","key"," ","16.66144927536252","500","250","eb","30","1","","0","0","50","28"
"","psychophysics","193","875994","0.0-193.0","5808f958b648e600016375dd","64e50401a7cab5e0e20d486f","","","","","2916",""," ","key"," ","16.662298850574658","500","250","eb","27","1","","0","0","33","26"
"","psychophysics","194","879674","0.0-194.0","5808f958b648e600016375dd","64e50401a7cab5e0e20d486f","","","","","3670",""," ","key"," ","16.661454545454102","500","250","eb","48","1","","0","0","37","50"
"","psychophysics","195","883394","0.0-195.0","5808f958b648e600016375dd","64e50401a7cab5e0e20d486f","","","","","3709",""," ","key"," ","16.661883408071645","500","250","eb","50","1","","0","0","30","50"
"","psychophysics","196","886578","0.0-196.0","5808f958b648e600016375dd","64e50401a7cab5e0e20d486f","","","","","3181",""," ","key"," ","16.661894736842154","500","250","eb","45","1","","0","0","50","45"
"","psychophysics","197","891386","0.0-197.0","5808f958b648e600016375dd","64e50401a7cab5e0e20d486f","","","","","4805",""," ","key"," ","16.66209059233456","500","250","eb","31","1","","0","0","24","30"
"","psychophysics","198","896170","0.0-198.0","5808f958b648e600016375dd","64e50401a7cab5e0e20d486f","","","","","4781",""," ","key"," ","16.661398601398307","500","250","eb","40","1","","0","0","25","41"
"","psychophysics","199","899651","0.0-199.0","5808f958b648e600016375dd","64e50401a7cab5e0e20d486f","","","","","3479",""," ","key"," ","16.66153846153891","500","250","eb","45","1","","0","0","25","44"
"","psychophysics","200","902690","0.0-200.0","5808f958b648e600016375dd","64e50401a7cab5e0e20d486f","","","","","3038",""," ","key"," ","16.661648351648584","500","250","inst","","","","","","",""
"","psychophysics","201","910354","0.0-201.0","5808f958b648e600016375dd","64e50401a7cab5e0e20d486f","","","","","7661",""," ","key"," ","16.66148148148147","500","250","instPog0","160","1","","0","0","190","160"
"","psychophysics","202","918003","0.0-202.0","5808f958b648e600016375dd","64e50401a7cab5e0e20d486f","","","","","7647",""," ","key"," ","16.6613973799125","500","250","instPog1","162","1","","0","0","190","160"
"","psychophysics","203","921994","0.0-203.0","5808f958b648e600016375dd","64e50401a7cab5e0e20d486f","","","","","3989",""," ","key"," ","16.660924369748095","500","250","instPog2","178","1","","0","0","160","160"
"","psychophysics","204","922675","0.0-204.0","5808f958b648e600016375dd","64e50401a7cab5e0e20d486f","","","","","678",""," ","key"," ","16.66149999999907","500","250","inst","","","","","","",""
"","psychophysics","205","926362","0.0-205.0","5808f958b648e600016375dd","64e50401a7cab5e0e20d486f","","","","","3685",""," ","key"," ","16.662090909090526","500","250","pog","145","1","1","0","0","137","124"
"","psychophysics","206","931957","0.0-206.0","5808f958b648e600016375dd","64e50401a7cab5e0e20d486f","","","","","5585",""," ","key"," ","18.92074576271185","500","250","pog","189","1","1","0","0","157","171"
"","psychophysics","207","937243","0.0-207.0","5808f958b648e600016375dd","64e50401a7cab5e0e20d486f","","","","","5250",""," ","key"," ","16.66132911392399","500","250","pog","157","1","1","0","0","115","142"
"","psychophysics","208","942842","0.0-208.0","5808f958b648e600016375dd","64e50401a7cab5e0e20d486f","","","","","5591",""," ","key"," ","16.661785714285674","500","250","pog","146","1","1","0","0","202","125"
"","psychophysics","209","947314","0.0-209.0","5808f958b648e600016375dd","64e50401a7cab5e0e20d486f","","","","","4470",""," ","key"," ","16.66104868913858","500","250","pog","200","1","1","0","0","182","182"
"","psychophysics","210","951331","0.0-210.0","5808f958b648e600016375dd","64e50401a7cab5e0e20d486f","","","","","4014",""," ","key"," ","16.66216666666684","500","250","pog","136","1","1","0","0","130","123"
"","psychophysics","211","956843","0.0-211.0","5808f958b648e600016375dd","64e50401a7cab5e0e20d486f","","","","","5511",""," ","key"," ","16.661636363636266","500","250","pog","179","1","1","0","0","121","161"
"","psychophysics","212","962595","0.0-212.0","5808f958b648e600016375dd","64e50401a7cab5e0e20d486f","","","","","5749",""," ","key"," ","16.662209302325717","500","250","pog","170","1","1","0","0","204","147"
"","psychophysics","213","966147","0.0-213.0","5808f958b648e600016375dd","64e50401a7cab5e0e20d486f","","","","","3548",""," ","key"," ","16.66150943396277","500","250","pog","190","1","1","0","0","194","167"
"","psychophysics","214","972972","0.0-214.0","5808f958b648e600016375dd","64e50401a7cab5e0e20d486f","","","","","6823",""," ","key"," ","16.661711491442578","500","250","pog","141","1","1","0","0","217","121"
"","psychophysics","215","978076","0.0-215.0","5808f958b648e600016375dd","64e50401a7cab5e0e20d486f","","","","","5101",""," ","key"," ","16.66137704918062","500","250","pog","195","1","1","0","0","131","183"
"","psychophysics","216","981371","0.0-216.0","5808f958b648e600016375dd","64e50401a7cab5e0e20d486f","","","","","3285",""," ","key"," ","16.66192893401027","500","250","pog","176","1","1","0","0","144","172"
"","psychophysics","217","984539","0.0-217.0","5808f958b648e600016375dd","64e50401a7cab5e0e20d486f","","","","","3165",""," ","key"," ","16.66148148148158","500","250","pog","145","1","1","0","0","123","136"
"","psychophysics","218","988083","0.0-218.0","5808f958b648e600016375dd","64e50401a7cab5e0e20d486f","","","","","3542",""," ","key"," ","16.66160377358495","500","250","pog","141","1","1","0","0","151","124"
"","psychophysics","219","991139","0.0-219.0","5808f958b648e600016375dd","64e50401a7cab5e0e20d486f","","","","","3054",""," ","key"," ","16.66153846153859","500","250","pog","167","1","1","0","0","195","149"
