"success","trial_type","trial_index","time_elapsed","internal_node_id","pid","sid","timeout","failed_images","failed_audio","failed_video","rt","stimulus","response","response_type","key_press","avg_frame_time","center_x","center_y","task","resp","start","parA","version","block","jitterX","jitterY"
"true","fullscreen","0","4285","0.0-0.0","61720637efa93f56c3c3b92b","64de82547feb811e63c1455e","","","","","","","","","","","","","","","","","","","",""
"true","preload","1","4679","0.0-1.0","61720637efa93f56c3c3b92b","64de82547feb811e63c1455e","false","[]","[]","[]","","","","","","","","","","","","","","","",""
"","html-button-response","2","7839","0.0-2.0","61720637efa93f56c3c3b92b","64de82547feb811e63c1455e","","","","","3155","Please Make Sure Your Audio Is On.","0","","","","","","","","","","","","",""
"","psychophysics","3","19677","0.0-3.0","61720637efa93f56c3c3b92b","64de82547feb811e63c1455e","","","","","11789",""," ","key"," ","16.676945070422537","698.3635123552299","249.75311451746117","","","","","","","",""
"","psychophysics","4","26968","0.0-4.0","61720637efa93f56c3c3b92b","64de82547feb811e63c1455e","","","","","7219",""," ","key"," ","16.74504597701149","499.8697706863306","249.75311451746117","inst","","","","","","",""
"","psychophysics","5","33161","0.0-5.0","61720637efa93f56c3c3b92b","64de82547feb811e63c1455e","","","","","6185",""," ","key"," ","16.6300269541779","499.8697706863306","249.75311451746117","sample0","","","","","","",""
"","psychophysics","6","40278","0.0-6.0","61720637efa93f56c3c3b92b","64de82547feb811e63c1455e","","","","","7112",""," ","key"," ","16.629885245901647","499.8697706863306","249.75311451746117","sample1","","","","","","",""
"","psychophysics","7","62659","0.0-7.0","61720637efa93f56c3c3b92b","64de82547feb811e63c1455e","","","","","22377",""," ","key"," ","16.629859479553904","499.8697706863306","249.75311451746117","sample2","104","","","","","",""
"","psychophysics","8","74703","0.0-8.0","61720637efa93f56c3c3b92b","64de82547feb811e63c1455e","","","","","12039",""," ","key"," ","16.63013278008298","499.8697706863306","249.75311451746117","sample3","100","","","","","",""
"","psychophysics","9","90930","0.0-9.0","61720637efa93f56c3c3b92b","64de82547feb811e63c1455e","","","","","16221",""," ","key"," ","16.62998666666666","499.8697706863306","249.75311451746117","sample4","104","","","","","",""
"","psychophysics","10","110393","0.0-10.0","61720637efa93f56c3c3b92b","64de82547feb811e63c1455e","","","","","19457",""," ","key"," ","16.629782720273738","499.8697706863306","249.75311451746117","sample5","","","","","","",""
"","psychophysics","11","128848","0.0-11.0","61720637efa93f56c3c3b92b","64de82547feb811e63c1455e","","","","","18445",""," ","key"," ","16.62991704238052","499.8697706863306","249.75311451746117","sample6","500","","","","","",""
"","psychophysics","12","133034","0.0-12.0","61720637efa93f56c3c3b92b","64de82547feb811e63c1455e","","","","","4180",""," ","key"," ","16.63078087649403","499.8697706863306","249.75311451746117","inst","","","","","","",""
"","psychophysics","13","134681","0.0-13.0","61720637efa93f56c3c3b92b","64de82547feb811e63c1455e","","","","","1641",""," ","key"," ","16.62930612244889","499.8697706863306","249.75311451746117","inst","","","","","","",""
"","psychophysics","14","136368","0.0-14.0","61720637efa93f56c3c3b92b","64de82547feb811e63c1455e","","","","","1682",""," ","key"," ","16.631600000000034","499.8697706863306","249.75311451746117","inst","","","","","","",""
"","psychophysics","15","138175","0.0-15.0","61720637efa93f56c3c3b92b","64de82547feb811e63c1455e","","","","","1797",""," ","key"," ","16.62867592592617","499.8697706863306","249.75311451746117","inst","","","","","","",""
"","psychophysics","16","139554","0.0-16.0","61720637efa93f56c3c3b92b","64de82547feb811e63c1455e","","","","","1374",""," ","key"," ","16.631134146341427","499.8697706863306","249.75311451746117","inst","","","","","","",""
"","psychophysics","17","143195","0.0-17.0","61720637efa93f56c3c3b92b","64de82547feb811e63c1455e","","","","","3636",""," ","key"," ","16.63002293577982","499.8697706863306","249.75311451746117","instPzPre","50","50","50","0","","",""
"","psychophysics","18","149634","0.0-18.0","61720637efa93f56c3c3b92b","64de82547feb811e63c1455e","","","","","6433",""," ","key"," ","16.629870466321254","499.8697706863306","249.75311451746117","instPz0","50","50","50","2","","",""
"","psychophysics","19","172245","0.0-19.0","61720637efa93f56c3c3b92b","64de82547feb811e63c1455e","","","","","22606",""," ","key"," ","16.629849889624737","499.8697706863306","249.75311451746117","instPz1","47","25","50","2","","",""
"","psychophysics","20","185958","0.0-20.0","61720637efa93f56c3c3b92b","64de82547feb811e63c1455e","","","","","13706",""," ","key"," ","16.630233292831107","499.8697706863306","249.75311451746117","instPz2","35","20","35","2","","",""
"","psychophysics","21","198361","0.0-21.0","61720637efa93f56c3c3b92b","64de82547feb811e63c1455e","","","","","12386",""," ","key"," ","16.71953846153844","499.8697706863306","249.75311451746117","instPz3","30","30","100","2","","",""
"","psychophysics","22","205829","0.0-22.0","61720637efa93f56c3c3b92b","64de82547feb811e63c1455e","","","","","7453",""," ","key"," ","16.63046428571423","499.8697706863306","249.75311451746117","instPz4","28","30","100","2","","",""
"","psychophysics","23","218199","0.0-23.0","61720637efa93f56c3c3b92b","64de82547feb811e63c1455e","","","","","12364",""," ","key"," ","16.629874831763125","499.8697706863306","249.75311451746117","inst","","","","","","",""
"","psychophysics","24","226208","0.0-24.0","61720637efa93f56c3c3b92b","64de82547feb811e63c1455e","","","","","null","","null","key","null","16.629779166666655","499.8697706863306","249.75311451746117","pz","38","57","51","2","0","",""
"","psychophysics","25","234219","0.0-25.0","61720637efa93f56c3c3b92b","64de82547feb811e63c1455e","","","","","null","","null","key","null","16.62983783783788","499.8697706863306","249.75311451746117","pz","24","20","31","2","0","",""
"","psychophysics","26","234259","0.0-26.0","61720637efa93f56c3c3b92b","64de82547feb811e63c1455e","","","","","32",""," ","key"," ","16.67500000000291","499.8697706863306","249.75311451746117","pz","55","55","37","2","0","",""
"","psychophysics","27","242268","0.0-27.0","61720637efa93f56c3c3b92b","64de82547feb811e63c1455e","","","","","null","","null","key","null","16.62970833333335","499.8697706863306","249.75311451746117","pz","45","56","56","2","0","",""
"","psychophysics","28","250281","0.0-28.0","61720637efa93f56c3c3b92b","64de82547feb811e63c1455e","","","","","null","","null","key","null","16.629933471933455","499.8697706863306","249.75311451746117","pz","37","33","54","2","0","",""
"","psychophysics","29","258290","0.0-29.0","61720637efa93f56c3c3b92b","64de82547feb811e63c1455e","","","","","null","","null","key","null","16.629515592515634","499.8697706863306","249.75311451746117","pz","30","34","41","2","0","",""
"","psychophysics","30","266300","0.0-30.0","61720637efa93f56c3c3b92b","64de82547feb811e63c1455e","","","","","null","","null","key","null","16.629562500000006","499.8697706863306","249.75311451746117","pz","41","34","59","2","0","",""
"","psychophysics","31","274316","0.0-31.0","61720637efa93f56c3c3b92b","64de82547feb811e63c1455e","","","","","null","","null","key","null","16.629925155925047","499.8697706863306","249.75311451746117","pz","31","41","42","2","0","",""
"","psychophysics","32","282325","0.0-32.0","61720637efa93f56c3c3b92b","64de82547feb811e63c1455e","","","","","null","","null","key","null","16.630058212058252","499.8697706863306","249.75311451746117","pz","26","56","32","2","0","",""
"","psychophysics","33","290335","0.0-33.0","61720637efa93f56c3c3b92b","64de82547feb811e63c1455e","","","","","null","","null","key","null","16.62985031185028","499.8697706863306","249.75311451746117","pz","18","51","25","2","0","",""
"","psychophysics","34","298348","0.0-34.0","61720637efa93f56c3c3b92b","64de82547feb811e63c1455e","","","","","null","","null","key","null","16.62952291666661","499.8697706863306","249.75311451746117","pz","32","22","45","2","0","",""
"","psychophysics","35","306356","0.0-35.0","61720637efa93f56c3c3b92b","64de82547feb811e63c1455e","","","","","null","","null","key","null","16.630224532224606","499.8697706863306","249.75311451746117","pz","26","40","35","2","0","",""
"","psychophysics","36","314366","0.0-36.0","61720637efa93f56c3c3b92b","64de82547feb811e63c1455e","","","","","null","","null","key","null","16.63032224532224","499.8697706863306","249.75311451746117","pz","17","23","22","2","0","",""
"","psychophysics","37","322378","0.0-37.0","61720637efa93f56c3c3b92b","64de82547feb811e63c1455e","","","","","null","","null","key","null","16.630014583333345","499.8697706863306","249.75311451746117","pz","30","36","44","2","0","",""
"","psychophysics","38","330394","0.0-38.0","61720637efa93f56c3c3b92b","64de82547feb811e63c1455e","","","","","null","","null","key","null","16.630062370062365","499.8697706863306","249.75311451746117","pz","32","29","46","2","0","",""
"","psychophysics","39","334765","0.0-39.0","61720637efa93f56c3c3b92b","64de82547feb811e63c1455e","","","","","4360",""," ","key"," ","16.630068702289996","499.8697706863306","249.75311451746117","inst","","","","","","",""
"","psychophysics","40","338569","0.0-40.0","61720637efa93f56c3c3b92b","64de82547feb811e63c1455e","","","","","3783",""," ","key"," ","16.6297412280702","499.8697706863306","249.75311451746117","instEB0","40","40","40","2","","0","0"
"","psychophysics","41","347958","0.0-41.0","61720637efa93f56c3c3b92b","64de82547feb811e63c1455e","","","","","9384",""," ","key"," ","16.62993794326247","499.8697706863306","249.75311451746117","instEB1","39","30","40","2","","0","0"
"","psychophysics","42","360336","0.0-42.0","61720637efa93f56c3c3b92b","64de82547feb811e63c1455e","","","","","12372",""," ","key"," ","16.62976985195154","499.8697706863306","249.75311451746117","instEB2","33","40","30","2","","0","0"
"","psychophysics","43","377602","0.0-43.0","61720637efa93f56c3c3b92b","64de82547feb811e63c1455e","","","","","17244",""," ","key"," ","16.62990549662488","499.8697706863306","249.75311451746117","instEB3","34","45","27","2","","0","0"
"","psychophysics","44","390258","0.0-44.0","61720637efa93f56c3c3b92b","64de82547feb811e63c1455e","","","","","12636",""," ","key"," ","16.630017105263114","499.8697706863306","249.75311451746117","instEB4","47","30","40","2","","0","0"
"","psychophysics","45","394163","0.0-45.0","61720637efa93f56c3c3b92b","64de82547feb811e63c1455e","","","","","3895",""," ","key"," ","16.63002136752132","499.8697706863306","249.75311451746117","inst","","","","","","",""
"","psychophysics","46","402169","0.0-46.0","61720637efa93f56c3c3b92b","64de82547feb811e63c1455e","","","","","null","","null","key","null","16.629795833333386","499.8697706863306","249.75311451746117","eb","37","51","30","2","","0","0"
"","psychophysics","47","410179","0.0-47.0","61720637efa93f56c3c3b92b","64de82547feb811e63c1455e","","","","","null","","null","key","null","16.6645666666666","499.8697706863306","249.75311451746117","eb","37","26","30","2","","0","0"
"","psychophysics","48","418192","0.0-48.0","61720637efa93f56c3c3b92b","64de82547feb811e63c1455e","","","","","null","","null","key","null","16.629731808731833","499.8697706863306","249.75311451746117","eb","37","52","31","2","","0","0"
"","psychophysics","49","426209","0.0-49.0","61720637efa93f56c3c3b92b","64de82547feb811e63c1455e","","","","","null","","null","key","null","16.630332640332647","499.8697706863306","249.75311451746117","eb","46","36","37","2","","0","0"
"","psychophysics","50","434223","0.0-50.0","61720637efa93f56c3c3b92b","64de82547feb811e63c1455e","","","","","null","","null","key","null","16.629773388773334","499.8697706863306","249.75311451746117","eb","43","48","35","2","","0","0"
"","psychophysics","51","442239","0.0-51.0","61720637efa93f56c3c3b92b","64de82547feb811e63c1455e","","","","","null","","null","key","null","16.62978794178797","499.8697706863306","249.75311451746117","eb","57","40","53","2","","0","0"
"","psychophysics","52","450255","0.0-52.0","61720637efa93f56c3c3b92b","64de82547feb811e63c1455e","","","","","null","","null","key","null","16.62971933471925","499.8697706863306","249.75311451746117","eb","48","27","39","2","","0","0"
"","psychophysics","53","458269","0.0-53.0","61720637efa93f56c3c3b92b","64de82547feb811e63c1455e","","","","","null","","null","key","null","16.630305613305666","499.8697706863306","249.75311451746117","eb","32","50","26","2","","0","0"
"","psychophysics","54","466285","0.0-54.0","61720637efa93f56c3c3b92b","64de82547feb811e63c1455e","","","","","null","","null","key","null","16.629698544698442","499.8697706863306","249.75311451746117","eb","55","30","45","2","","0","0"
"","psychophysics","55","474308","0.0-55.0","61720637efa93f56c3c3b92b","64de82547feb811e63c1455e","","","","","null","","null","key","null","16.630049896049783","499.8697706863306","249.75311451746117","eb","49","38","40","2","","0","0"
"","psychophysics","56","482321","0.0-56.0","61720637efa93f56c3c3b92b","64de82547feb811e63c1455e","","","","","null","","null","key","null","16.63011434511439","499.8697706863306","249.75311451746117","eb","63","45","54","2","","0","0"
"","psychophysics","57","490333","0.0-57.0","61720637efa93f56c3c3b92b","64de82547feb811e63c1455e","","","","","null","","null","key","null","16.63027650727651","499.8697706863306","249.75311451746117","eb","38","51","36","2","","0","0"
"","psychophysics","58","498349","0.0-58.0","61720637efa93f56c3c3b92b","64de82547feb811e63c1455e","","","","","null","","null","key","null","16.629972972972958","499.8697706863306","249.75311451746117","eb","56","39","49","2","","0","0"
"","psychophysics","59","506364","0.0-59.0","61720637efa93f56c3c3b92b","64de82547feb811e63c1455e","","","","","null","","null","key","null","16.62961954261956","499.8697706863306","249.75311451746117","eb","27","26","24","2","","0","0"
"","psychophysics","60","514380","0.0-60.0","61720637efa93f56c3c3b92b","64de82547feb811e63c1455e","","","","","null","","null","key","null","16.629898128898066","499.8697706863306","249.75311451746117","eb","35","42","28","2","","0","0"
"","psychophysics","61","517191","0.0-61.0","61720637efa93f56c3c3b92b","64de82547feb811e63c1455e","","","","","2804",""," ","key"," ","16.629821428571415","499.8697706863306","249.75311451746117","inst","","","","","","",""
"","psychophysics","62","521489","0.0-62.0","61720637efa93f56c3c3b92b","64de82547feb811e63c1455e","","","","","4293",""," ","key"," ","16.694796874999838","499.8697706863306","249.75311451746117","instPog0","190","190","160","1","","0","0"
"","psychophysics","63","523686","0.0-63.0","61720637efa93f56c3c3b92b","64de82547feb811e63c1455e","","","","","2189",""," ","key"," ","16.630863636363454","499.8697706863306","249.75311451746117","instPog1","190","190","160","1","","0","0"
"","psychophysics","64","524763","0.0-64.0","61720637efa93f56c3c3b92b","64de82547feb811e63c1455e","","","","","1070",""," ","key"," ","16.633412698411295","499.8697706863306","249.75311451746117","instPog2","160","160","160","1","","0","0"
"","psychophysics","65","526464","0.0-65.0","61720637efa93f56c3c3b92b","64de82547feb811e63c1455e","","","","","1693",""," ","key"," ","16.630245098038394","499.8697706863306","249.75311451746117","inst","","","","","","",""
"","psychophysics","66","534475","0.0-66.0","61720637efa93f56c3c3b92b","64de82547feb811e63c1455e","","","","","null","","null","key","null","16.629781249999844","499.8697706863306","249.75311451746117","pog","171","199","135","1","0","0","0"
"","psychophysics","67","542484","0.0-67.0","61720637efa93f56c3c3b92b","64de82547feb811e63c1455e","","","","","null","","null","key","null","16.630120582120558","499.8697706863306","249.75311451746117","pog","224","170","196","1","0","0","0"
"","psychophysics","68","550492","0.0-68.0","61720637efa93f56c3c3b92b","64de82547feb811e63c1455e","","","","","null","","null","key","null","16.629972916666883","499.8697706863306","249.75311451746117","pog","221","185","199","1","0","0","0"
"","psychophysics","69","558500","0.0-69.0","61720637efa93f56c3c3b92b","64de82547feb811e63c1455e","","","","","null","","null","key","null","16.630072765072892","499.8697706863306","249.75311451746117","pog","206","156","187","1","0","0","0"
"","psychophysics","70","566508","0.0-70.0","61720637efa93f56c3c3b92b","64de82547feb811e63c1455e","","","","","null","","null","key","null","16.629804573804545","499.8697706863306","249.75311451746117","pog","205","129","190","1","0","0","0"
"","psychophysics","71","574516","0.0-71.0","61720637efa93f56c3c3b92b","64de82547feb811e63c1455e","","","","","null","","null","key","null","16.63017291666644","499.8697706863306","249.75311451746117","pog","162","182","145","1","0","0","0"
"","psychophysics","72","582523","0.0-72.0","61720637efa93f56c3c3b92b","64de82547feb811e63c1455e","","","","","null","","null","key","null","16.629873180873265","499.8697706863306","249.75311451746117","pog","213","125","198","1","0","0","0"
"","psychophysics","73","590532","0.0-73.0","61720637efa93f56c3c3b92b","64de82547feb811e63c1455e","","","","","null","","null","key","null","16.629458333333364","499.8697706863306","249.75311451746117","pog","169","117","163","1","0","0","0"
"","psychophysics","74","598541","0.0-74.0","61720637efa93f56c3c3b92b","64de82547feb811e63c1455e","","","","","null","","null","key","null","16.630122661122737","499.8697706863306","249.75311451746117","pog","156","194","135","1","0","0","0"
"","psychophysics","75","606549","0.0-75.0","61720637efa93f56c3c3b92b","64de82547feb811e63c1455e","","","","","null","","null","key","null","16.629862500000065","499.8697706863306","249.75311451746117","pog","180","208","164","1","0","0","0"
"","psychophysics","76","614564","0.0-76.0","61720637efa93f56c3c3b92b","64de82547feb811e63c1455e","","","","","null","","null","key","null","16.629956340956504","499.8697706863306","249.75311451746117","pog","161","155","151","1","0","0","0"
"","psychophysics","77","622596","0.0-77.0","61720637efa93f56c3c3b92b","64de82547feb811e63c1455e","","","","","null","","null","key","null","16.664403326403285","499.8697706863306","249.75311451746117","pog","154","116","149","1","0","0","0"
"","psychophysics","78","630604","0.0-78.0","61720637efa93f56c3c3b92b","64de82547feb811e63c1455e","","","","","null","","null","key","null","16.63005197505184","499.8697706863306","249.75311451746117","pog","190","164","174","1","0","0","0"
"","psychophysics","79","638612","0.0-79.0","61720637efa93f56c3c3b92b","64de82547feb811e63c1455e","","","","","null","","null","key","null","16.62993749999999","499.8697706863306","249.75311451746117","pog","198","100","184","1","0","0","0"
"","psychophysics","80","646619","0.0-80.0","61720637efa93f56c3c3b92b","64de82547feb811e63c1455e","","","","","null","","null","key","null","16.63000623700635","499.8697706863306","249.75311451746117","pog","177","105","165","1","0","0","0"
"","psychophysics","81","648794","0.0-81.0","61720637efa93f56c3c3b92b","64de82547feb811e63c1455e","","","","","2167",""," ","key"," ","16.630192307692667","499.8697706863306","249.75311451746117","inst","","","","","","",""
"","psychophysics","82","649923","0.0-82.0","61720637efa93f56c3c3b92b","64de82547feb811e63c1455e","","","","","1121",""," ","key"," ","16.628537313432307","499.8697706863306","249.75311451746117","instZol0","0","0","","","","0","0"
"","psychophysics","83","650482","0.0-83.0","61720637efa93f56c3c3b92b","64de82547feb811e63c1455e","","","","","555",""," ","key"," ","16.63103124999907","499.8697706863306","249.75311451746117","instZol1","1.3","-1.3","","","","0","0"
"","psychophysics","84","651135","0.0-84.0","61720637efa93f56c3c3b92b","64de82547feb811e63c1455e","","","","","640",""," ","key"," ","16.630631578948325","499.8697706863306","249.75311451746117","instZol2","-2","2","","2","","0","0"
"","psychophysics","85","652271","0.0-85.0","61720637efa93f56c3c3b92b","64de82547feb811e63c1455e","","","","","1123",""," ","key"," ","16.62807352941223","499.8697706863306","249.75311451746117","inst","","","","","","",""
"","psychophysics","86","657265","0.0-86.0","61720637efa93f56c3c3b92b","64de82547feb811e63c1455e","","","","","4984",""," ","key"," ","16.629903010033495","499.8697706863306","249.75311451746117","zol","0.61","-0.61","","2","0","-20","-4"
"","psychophysics","87","659804","0.0-87.0","61720637efa93f56c3c3b92b","64de82547feb811e63c1455e","","","","","2526",""," ","key"," ","16.629171052631328","499.8697706863306","249.75311451746117","zol","0.41","-0.41","","2","0","18","2"
"","psychophysics","88","662922","0.0-88.0","61720637efa93f56c3c3b92b","64de82547feb811e63c1455e","","","","","3099",""," ","key"," ","16.631241935483676","499.8697706863306","249.75311451746117","zol","0.6","-0.6","","2","0","9","29"
"","psychophysics","89","664571","0.0-89.0","61720637efa93f56c3c3b92b","64de82547feb811e63c1455e","","","","","1627",""," ","key"," ","16.628918367347737","499.8697706863306","249.75311451746117","zol","0.04","-0.04","","2","0","27","19"
"","psychophysics","90","665701","0.0-90.0","61720637efa93f56c3c3b92b","64de82547feb811e63c1455e","","","","","1118",""," ","key"," ","16.63159701492596","499.8697706863306","249.75311451746117","zol","-0.75","0.75","","2","0","-9","-5"
"","psychophysics","91","666821","0.0-91.0","61720637efa93f56c3c3b92b","64de82547feb811e63c1455e","","","","","1108",""," ","key"," ","16.63001492537329","499.8697706863306","249.75311451746117","zol","0.01","-0.01","","2","0","-16","23"
"","psychophysics","92","667810","0.0-92.0","61720637efa93f56c3c3b92b","64de82547feb811e63c1455e","","","","","951",""," ","key"," ","16.62741379310369","499.8697706863306","249.75311451746117","zol","-0.67","0.67","","2","0","24","7"
"","psychophysics","93","671163","0.0-93.0","61720637efa93f56c3c3b92b","64de82547feb811e63c1455e","","","","","3336",""," ","key"," ","16.629940298507545","499.8697706863306","249.75311451746117","zol","0.03","-0.03","","2","0","9","9"
"","psychophysics","94","672917","0.0-94.0","61720637efa93f56c3c3b92b","64de82547feb811e63c1455e","","","","","1746",""," ","key"," ","16.63193269230788","499.8697706863306","249.75311451746117","zol","-0.39","0.39","","2","0","23","-10"
"","psychophysics","95","673530","0.0-95.0","61720637efa93f56c3c3b92b","64de82547feb811e63c1455e","","","","","595",""," ","key"," ","16.62955555555527","499.8697706863306","249.75311451746117","zol","0.33","-0.33","","2","0","-10","-4"
"","psychophysics","96","674024","0.0-96.0","61720637efa93f56c3c3b92b","64de82547feb811e63c1455e","","","","","476",""," ","key"," ","16.6322068965488","499.8697706863306","249.75311451746117","zol","-0.02","0.02","","2","0","18","-12"
"","psychophysics","97","674890","0.0-97.0","61720637efa93f56c3c3b92b","64de82547feb811e63c1455e","","","","","849",""," ","key"," ","16.62821568627431","499.8697706863306","249.75311451746117","zol","0.44","-0.44","","2","0","-18","27"
"","psychophysics","98","680144","0.0-98.0","61720637efa93f56c3c3b92b","64de82547feb811e63c1455e","","","","","5244",""," ","key"," ","16.62998730158729","499.8697706863306","249.75311451746117","zol","0.09","-0.09","","2","0","-2","0"
"","psychophysics","99","680826","0.0-99.0","61720637efa93f56c3c3b92b","64de82547feb811e63c1455e","","","","","674",""," ","key"," ","16.627825000000303","499.8697706863306","249.75311451746117","zol","0.05","-0.05","","2","0","-30","-8"
"","psychophysics","100","681262","0.0-100.0","61720637efa93f56c3c3b92b","64de82547feb811e63c1455e","","","","","427",""," ","key"," ","16.633599999998697","499.8697706863306","249.75311451746117","zol","0.25","-0.25","","2","0","-3","-30"
"","psychophysics","101","683105","0.0-101.0","61720637efa93f56c3c3b92b","64de82547feb811e63c1455e","","","","","1839",""," ","key"," ","16.62945454545552","499.8697706863306","249.75311451746117","inst","","","","","","",""
"","psychophysics","102","690370","0.0-102.0","61720637efa93f56c3c3b92b","64de82547feb811e63c1455e","","","","","7238",""," ","key"," ","16.630139908256968","499.8697706863306","249.75311451746117","instBr0","0","0","300","","","0","0"
"","psychophysics","103","693057","0.0-103.0","61720637efa93f56c3c3b92b","64de82547feb811e63c1455e","","","","","2679",""," ","key"," ","16.62965624999997","499.8697706863306","249.75311451746117","instBr1","-40","-40","300","","","0","0"
"","psychophysics","104","696793","0.0-104.0","61720637efa93f56c3c3b92b","64de82547feb811e63c1455e","","","","","3726",""," ","key"," ","16.63009821428568","499.8697706863306","249.75311451746117","instBr3","40","40","300","1","","0","0"
"","psychophysics","105","697910","0.0-105.0","61720637efa93f56c3c3b92b","64de82547feb811e63c1455e","","","","","1112",""," ","key"," ","16.629212121211104","499.8697706863306","249.75311451746117","inst","","","","","","",""
"","psychophysics","106","705914","0.0-106.0","61720637efa93f56c3c3b92b","64de82547feb811e63c1455e","","","","","null","","null","key","null","16.62978750000014","499.8697706863306","249.75311451746117","br","-16","-18","270","1","0","-7","24"
"","psychophysics","107","713923","0.0-107.0","61720637efa93f56c3c3b92b","64de82547feb811e63c1455e","","","","","null","","null","key","null","16.630130977130964","499.8697706863306","249.75311451746117","br","-18","26","294","1","0","-2","-12"
"","psychophysics","108","721932","0.0-108.0","61720637efa93f56c3c3b92b","64de82547feb811e63c1455e","","","","","null","","null","key","null","16.62998336798336","499.8697706863306","249.75311451746117","br","-14","-19","254","1","0","-14","-22"
"","psychophysics","109","729950","0.0-109.0","61720637efa93f56c3c3b92b","64de82547feb811e63c1455e","","","","","null","","null","key","null","16.630016632016513","499.8697706863306","249.75311451746117","br","-15","21","234","1","0","-18","-13"
"","psychophysics","110","737961","0.0-110.0","61720637efa93f56c3c3b92b","64de82547feb811e63c1455e","","","","","null","","null","key","null","16.62996875000002","499.8697706863306","249.75311451746117","br","-18","19","204","1","0","24","13"
"","psychophysics","111","745968","0.0-111.0","61720637efa93f56c3c3b92b","64de82547feb811e63c1455e","","","","","null","","null","key","null","16.62991683991682","499.8697706863306","249.75311451746117","br","-16","-5","204","1","0","24","-30"
"","psychophysics","112","753974","0.0-112.0","61720637efa93f56c3c3b92b","64de82547feb811e63c1455e","","","","","null","","null","key","null","16.629877083333366","499.8697706863306","249.75311451746117","br","-13","7","252","1","0","9","-1"
"","psychophysics","113","761988","0.0-113.0","61720637efa93f56c3c3b92b","64de82547feb811e63c1455e","","","","","null","","null","key","null","16.630282744282677","499.8697706863306","249.75311451746117","br","-17","28","257","1","0","-5","26"
"","psychophysics","114","769996","0.0-114.0","61720637efa93f56c3c3b92b","64de82547feb811e63c1455e","","","","","null","","null","key","null","16.629993762993767","499.8697706863306","249.75311451746117","br","-19","12","244","1","0","-26","30"
"","psychophysics","115","778005","0.0-115.0","61720637efa93f56c3c3b92b","64de82547feb811e63c1455e","","","","","null","","null","key","null","16.630006250000104","499.8697706863306","249.75311451746117","br","-17","11","272","1","0","-28","-21"
"","psychophysics","116","786020","0.0-116.0","61720637efa93f56c3c3b92b","64de82547feb811e63c1455e","","","","","null","","null","key","null","16.629995841995946","499.8697706863306","249.75311451746117","br","-9","18","219","1","0","-19","2"
"","psychophysics","117","794028","0.0-117.0","61720637efa93f56c3c3b92b","64de82547feb811e63c1455e","","","","","null","","null","key","null","16.62986902286915","499.8697706863306","249.75311451746117","br","-20","1","273","1","0","-19","-26"
"","psychophysics","118","802036","0.0-118.0","61720637efa93f56c3c3b92b","64de82547feb811e63c1455e","","","","","null","","null","key","null","16.630281249999825","499.8697706863306","249.75311451746117","br","-21","8","283","1","0","20","9"
"","psychophysics","119","810044","0.0-119.0","61720637efa93f56c3c3b92b","64de82547feb811e63c1455e","","","","","null","","null","key","null","16.62964864864872","499.8697706863306","249.75311451746117","br","-13","-11","276","1","0","-29","5"
"","psychophysics","120","818052","0.0-120.0","61720637efa93f56c3c3b92b","64de82547feb811e63c1455e","","","","","null","","null","key","null","16.62993762993763","499.8697706863306","249.75311451746117","br","-6","18","208","1","0","6","6"
"","psychophysics","121","819807","0.0-121.0","61720637efa93f56c3c3b92b","64de82547feb811e63c1455e","","","","","1747",""," ","key"," ","16.62992307692296","499.8697706863306","249.75311451746117","inst","","","","","","",""
"","psychophysics","122","823330","0.0-122.0","61720637efa93f56c3c3b92b","64de82547feb811e63c1455e","","","","","3509",""," ","key"," ","16.63097156398109","499.8697706863306","249.75311451746117","instPz1","25","25","50","1","","",""
"","psychophysics","123","824037","0.0-123.0","61720637efa93f56c3c3b92b","64de82547feb811e63c1455e","","","","","702",""," ","key"," ","16.63107317073055","499.8697706863306","249.75311451746117","instPz2","35","35","20","1","","",""
"","psychophysics","124","827540","0.0-124.0","61720637efa93f56c3c3b92b","64de82547feb811e63c1455e","","","","","3493",""," ","key"," ","16.630328571428322","499.8697706863306","249.75311451746117","instPz3","101","100","30","1","","",""
"","psychophysics","125","828040","0.0-125.0","61720637efa93f56c3c3b92b","64de82547feb811e63c1455e","","","","","490",""," ","key"," ","16.63096551723971","499.8697706863306","249.75311451746117","instPz4","100","100","30","1","","",""
"","psychophysics","126","828756","0.0-126.0","61720637efa93f56c3c3b92b","64de82547feb811e63c1455e","","","","","704",""," ","key"," ","16.624833333333733","499.8697706863306","249.75311451746117","inst","","","","","","",""
"","psychophysics","127","836763","0.0-127.0","61720637efa93f56c3c3b92b","64de82547feb811e63c1455e","","","","","null","","null","key","null","16.63003326403321","499.8697706863306","249.75311451746117","pz","72","32","42","1","1","",""
"","psychophysics","128","844796","0.0-128.0","61720637efa93f56c3c3b92b","64de82547feb811e63c1455e","","","","","null","","null","key","null","16.63011434511427","499.8697706863306","249.75311451746117","pz","42","58","31","1","1","",""
"","psychophysics","129","852804","0.0-129.0","61720637efa93f56c3c3b92b","64de82547feb811e63c1455e","","","","","null","","null","key","null","16.629914760914644","499.8697706863306","249.75311451746117","pz","75","26","47","1","1","",""
"","psychophysics","130","860811","0.0-130.0","61720637efa93f56c3c3b92b","64de82547feb811e63c1455e","","","","","null","","null","key","null","16.630153846153952","499.8697706863306","249.75311451746117","pz","69","34","51","1","1","",""
"","psychophysics","131","868820","0.0-131.0","61720637efa93f56c3c3b92b","64de82547feb811e63c1455e","","","","","null","","null","key","null","16.629758333333303","499.8697706863306","249.75311451746117","pz","63","41","43","1","1","",""
"","psychophysics","132","876830","0.0-132.0","61720637efa93f56c3c3b92b","64de82547feb811e63c1455e","","","","","null","","null","key","null","16.63020790020791","499.8697706863306","249.75311451746117","pz","31","39","22","1","1","",""
"","psychophysics","133","884840","0.0-133.0","61720637efa93f56c3c3b92b","64de82547feb811e63c1455e","","","","","null","","null","key","null","16.63041874999981","499.8697706863306","249.75311451746117","pz","33","49","23","1","1","",""
"","psychophysics","134","892854","0.0-134.0","61720637efa93f56c3c3b92b","64de82547feb811e63c1455e","","","","","null","","null","key","null","16.629630705394348","499.8697706863306","249.75311451746117","pz","51","46","33","1","1","",""
"","psychophysics","135","900873","0.0-135.0","61720637efa93f56c3c3b92b","64de82547feb811e63c1455e","","","","","null","","null","key","null","16.630372141372206","499.8697706863306","249.75311451746117","pz","43","37","30","1","1","",""
"","psychophysics","136","908892","0.0-136.0","61720637efa93f56c3c3b92b","64de82547feb811e63c1455e","","","","","null","","null","key","null","16.62998544698554","499.8697706863306","249.75311451746117","pz","30","29","25","1","1","",""
"","psychophysics","137","916899","0.0-137.0","61720637efa93f56c3c3b92b","64de82547feb811e63c1455e","","","","","null","","null","key","null","16.629777083333224","499.8697706863306","249.75311451746117","pz","31","39","24","1","1","",""
"","psychophysics","138","924908","0.0-138.0","61720637efa93f56c3c3b92b","64de82547feb811e63c1455e","","","","","null","","null","key","null","16.62993762993763","499.8697706863306","249.75311451746117","pz","55","40","34","1","1","",""
"","psychophysics","139","932916","0.0-139.0","61720637efa93f56c3c3b92b","64de82547feb811e63c1455e","","","","","null","","null","key","null","16.629860706860683","499.8697706863306","249.75311451746117","pz","64","42","49","1","1","",""
"","psychophysics","140","940929","0.0-140.0","61720637efa93f56c3c3b92b","64de82547feb811e63c1455e","","","","","null","","null","key","null","16.629583333333237","499.8697706863306","249.75311451746117","pz","71","39","50","1","1","",""
"","psychophysics","141","948940","0.0-141.0","61720637efa93f56c3c3b92b","64de82547feb811e63c1455e","","","","","null","","null","key","null","16.629771309771396","499.8697706863306","249.75311451746117","pz","63","48","46","1","1","",""
"","psychophysics","142","950473","0.0-142.0","61720637efa93f56c3c3b92b","64de82547feb811e63c1455e","","","","","1523",""," ","key"," ","16.62998901098931","499.8697706863306","249.75311451746117","inst","","","","","","",""
"","psychophysics","143","951961","0.0-143.0","61720637efa93f56c3c3b92b","64de82547feb811e63c1455e","","","","","1481",""," ","key"," ","16.631033707865296","499.8697706863306","249.75311451746117","instPog0","370","370","340","2","","0","0"
"","psychophysics","144","952467","0.0-144.0","61720637efa93f56c3c3b92b","64de82547feb811e63c1455e","","","","","500",""," ","key"," ","16.62958620689761","499.8697706863306","249.75311451746117","instPog1","370","370","340","2","","0","0"
"","psychophysics","145","953759","0.0-145.0","61720637efa93f56c3c3b92b","64de82547feb811e63c1455e","","","","","1279",""," ","key"," ","16.62927272727308","499.8697706863306","249.75311451746117","instPog2","340","340","340","2","","0","0"
"","psychophysics","146","954460","0.0-146.0","61720637efa93f56c3c3b92b","64de82547feb811e63c1455e","","","","","697",""," ","key"," ","16.627414634144614","499.8697706863306","249.75311451746117","inst","","","","","","",""
"","psychophysics","147","962466","0.0-147.0","61720637efa93f56c3c3b92b","64de82547feb811e63c1455e","","","","","null","","null","key","null","16.66485625000011","499.8697706863306","249.75311451746117","pog","363","353","379","2","1","0","0"
"","psychophysics","148","970476","0.0-148.0","61720637efa93f56c3c3b92b","64de82547feb811e63c1455e","","","","","null","","null","key","null","16.630312500000098","499.8697706863306","249.75311451746117","pog","328","396","338","2","1","0","0"
"","psychophysics","149","978482","0.0-149.0","61720637efa93f56c3c3b92b","64de82547feb811e63c1455e","","","","","null","","null","key","null","16.630118503118624","499.8697706863306","249.75311451746117","pog","325","327","337","2","1","0","0"
"","psychophysics","150","986492","0.0-150.0","61720637efa93f56c3c3b92b","64de82547feb811e63c1455e","","","","","null","","null","key","null","16.629649999999916","499.8697706863306","249.75311451746117","pog","366","326","380","2","1","0","0"
"","psychophysics","151","994500","0.0-151.0","61720637efa93f56c3c3b92b","64de82547feb811e63c1455e","","","","","null","","null","key","null","16.62977754677769","499.8697706863306","249.75311451746117","pog","327","325","341","2","1","0","0"
"","psychophysics","152","1002508","0.0-152.0","61720637efa93f56c3c3b92b","64de82547feb811e63c1455e","","","","","null","","null","key","null","16.630306250000043","499.8697706863306","249.75311451746117","pog","353","285","362","2","1","0","0"
"","psychophysics","153","1010514","0.0-153.0","61720637efa93f56c3c3b92b","64de82547feb811e63c1455e","","","","","null","","null","key","null","16.630382536382612","499.8697706863306","249.75311451746117","pog","373","293","374","2","1","0","0"
"","psychophysics","154","1018540","0.0-154.0","61720637efa93f56c3c3b92b","64de82547feb811e63c1455e","","","","","null","","null","key","null","16.62970686070703","499.8697706863306","249.75311451746117","pog","334","328","343","2","1","0","0"
"","psychophysics","155","1026555","0.0-155.0","61720637efa93f56c3c3b92b","64de82547feb811e63c1455e","","","","","null","","null","key","null","16.630070686070713","499.8697706863306","249.75311451746117","pog","308","386","316","2","1","0","0"
"","psychophysics","156","1034563","0.0-156.0","61720637efa93f56c3c3b92b","64de82547feb811e63c1455e","","","","","null","","null","key","null","16.62945114345127","499.8697706863306","249.75311451746117","pog","302","306","316","2","1","0","0"
"","psychophysics","157","1042574","0.0-157.0","61720637efa93f56c3c3b92b","64de82547feb811e63c1455e","","","","","null","","null","key","null","16.664447916666784","499.8697706863306","249.75311451746117","pog","320","388","328","2","1","0","0"
"","psychophysics","158","1050587","0.0-158.0","61720637efa93f56c3c3b92b","64de82547feb811e63c1455e","","","","","null","","null","key","null","16.629795833333386","499.8697706863306","249.75311451746117","pog","297","321","315","2","1","0","0"
"","psychophysics","159","1058595","0.0-159.0","61720637efa93f56c3c3b92b","64de82547feb811e63c1455e","","","","","null","","null","key","null","16.629935550935212","499.8697706863306","249.75311451746117","pog","308","320","321","2","1","0","0"
"","psychophysics","160","1066604","0.0-160.0","61720637efa93f56c3c3b92b","64de82547feb811e63c1455e","","","","","null","","null","key","null","16.629945945945856","499.8697706863306","249.75311451746117","pog","325","369","339","2","1","0","0"
"","psychophysics","161","1074612","0.0-161.0","61720637efa93f56c3c3b92b","64de82547feb811e63c1455e","","","","","null","","null","key","null","16.630447916666647","499.8697706863306","249.75311451746117","pog","326","304","345","2","1","0","0"
"","psychophysics","162","1076366","0.0-162.0","61720637efa93f56c3c3b92b","64de82547feb811e63c1455e","","","","","1744",""," ","key"," ","16.630714285712955","499.8697706863306","249.75311451746117","inst","","","","","","",""
"","psychophysics","163","1081189","0.0-163.0","61720637efa93f56c3c3b92b","64de82547feb811e63c1455e","","","","","4819",""," ","key"," ","16.629242214532955","499.8697706863306","249.75311451746117","instZol1","1.3","-1.3","","","","0","0"
"","psychophysics","164","1086384","0.0-164.0","61720637efa93f56c3c3b92b","64de82547feb811e63c1455e","","","","","5168",""," ","key"," ","16.629948553055005","499.8697706863306","249.75311451746117","instZol2","-2","2","","1","","0","0"
"","psychophysics","165","1087076","0.0-165.0","61720637efa93f56c3c3b92b","64de82547feb811e63c1455e","","","","","687",""," ","key"," ","16.632512195121","499.8697706863306","249.75311451746117","inst","","","","","","",""
"","psychophysics","166","1095088","0.0-166.0","61720637efa93f56c3c3b92b","64de82547feb811e63c1455e","","","","","null","","null","key","null","16.630366666666912","499.8697706863306","249.75311451746117","zol","0.53","-0.23","","1","1","-27","-1"
"","psychophysics","167","1103105","0.0-167.0","61720637efa93f56c3c3b92b","64de82547feb811e63c1455e","","","","","null","","null","key","null","16.630222453222185","499.8697706863306","249.75311451746117","zol","0.9899999999999999","-0.49","","1","1","-29","-14"
"","psychophysics","168","1111118","0.0-168.0","61720637efa93f56c3c3b92b","64de82547feb811e63c1455e","","","","","null","","null","key","null","16.6295405405408","499.8697706863306","249.75311451746117","zol","0.53","-0.03","","1","1","-12","-5"
"","psychophysics","169","1119132","0.0-169.0","61720637efa93f56c3c3b92b","64de82547feb811e63c1455e","","","","","null","","null","key","null","16.629503118503052","499.8697706863306","249.75311451746117","zol","0.8300000000000001","-0.23","","1","1","4","27"
"","psychophysics","170","1127148","0.0-170.0","61720637efa93f56c3c3b92b","64de82547feb811e63c1455e","","","","","null","","null","key","null","16.630311850311713","499.8697706863306","249.75311451746117","zol","0.62","0.38","","1","1","-10","-3"
"","psychophysics","171","1135164","0.0-171.0","61720637efa93f56c3c3b92b","64de82547feb811e63c1455e","","","","","null","","null","key","null","16.630264033263806","499.8697706863306","249.75311451746117","zol","0.7100000000000001","-0.41","","1","1","-25","15"
"","psychophysics","172","1143181","0.0-172.0","61720637efa93f56c3c3b92b","64de82547feb811e63c1455e","","","","","null","","null","key","null","16.62986278586262","499.8697706863306","249.75311451746117","zol","1.07","-0.67","","1","1","0","29"
"","psychophysics","173","1151194","0.0-173.0","61720637efa93f56c3c3b92b","64de82547feb811e63c1455e","","","","","null","","null","key","null","16.630434511434636","499.8697706863306","249.75311451746117","zol","1.4800000000000002","0.02","","1","1","-30","-14"
"","psychophysics","174","1159202","0.0-174.0","61720637efa93f56c3c3b92b","64de82547feb811e63c1455e","","","","","null","","null","key","null","16.630128898128785","499.8697706863306","249.75311451746117","zol","0.5499999999999999","0.55","","1","1","15","-22"
"","psychophysics","175","1167220","0.0-175.0","61720637efa93f56c3c3b92b","64de82547feb811e63c1455e","","","","","null","","null","key","null","16.629875259875202","499.8697706863306","249.75311451746117","zol","1.0699999999999998","-0.47","","1","1","19","-15"
"","psychophysics","176","1175232","0.0-176.0","61720637efa93f56c3c3b92b","64de82547feb811e63c1455e","","","","","null","","null","key","null","16.62998544698554","499.8697706863306","249.75311451746117","zol","0.92","-0.62","","1","1","-30","-20"
"","psychophysics","177","1183244","0.0-177.0","61720637efa93f56c3c3b92b","64de82547feb811e63c1455e","","","","","null","","null","key","null","16.63008958333327","499.8697706863306","249.75311451746117","zol","0.8300000000000001","-0.13","","1","1","-4","16"
"","psychophysics","178","1191259","0.0-178.0","61720637efa93f56c3c3b92b","64de82547feb811e63c1455e","","","","","null","","null","key","null","16.62975051975083","499.8697706863306","249.75311451746117","zol","1.18","-0.08","","1","1","1","-14"
"","psychophysics","179","1199275","0.0-179.0","61720637efa93f56c3c3b92b","64de82547feb811e63c1455e","","","","","null","","null","key","null","16.62980249480261","499.8697706863306","249.75311451746117","zol","0.8400000000000001","-0.64","","1","1","-22","-4"
"","psychophysics","180","1207288","0.0-180.0","61720637efa93f56c3c3b92b","64de82547feb811e63c1455e","","","","","null","","null","key","null","16.629866943866976","499.8697706863306","249.75311451746117","zol","1.37","-0.27","","1","1","-1","2"
"","psychophysics","181","1208843","0.0-181.0","61720637efa93f56c3c3b92b","64de82547feb811e63c1455e","","","","","1542",""," ","key"," ","16.63043010752568","499.8697706863306","249.75311451746117","inst","","","","","","",""
"","psychophysics","182","1209917","0.0-182.0","61720637efa93f56c3c3b92b","64de82547feb811e63c1455e","","","","","1070",""," ","key"," ","16.632365079363808","499.8697706863306","249.75311451746117","instBr3","40","40","300","2","","0","0"
"","psychophysics","183","1210294","0.0-183.0","61720637efa93f56c3c3b92b","64de82547feb811e63c1455e","","","","","366",""," ","key"," ","16.63222727273718","499.8697706863306","249.75311451746117","inst","","","","","","",""
"","psychophysics","184","1218306","0.0-184.0","61720637efa93f56c3c3b92b","64de82547feb811e63c1455e","","","","","null","","null","key","null","16.630139293139433","499.8697706863306","249.75311451746117","br","13","-8","256","2","1","-16","19"
"","psychophysics","185","1226317","0.0-185.0","61720637efa93f56c3c3b92b","64de82547feb811e63c1455e","","","","","null","","null","key","null","16.664479166667054","499.8697706863306","249.75311451746117","br","19","9","280","2","1","-15","-25"
"","psychophysics","186","1234324","0.0-186.0","61720637efa93f56c3c3b92b","64de82547feb811e63c1455e","","","","","null","","null","key","null","16.63010000000019","499.8697706863306","249.75311451746117","br","14","0","227","2","1","16","28"
"","psychophysics","187","1242332","0.0-187.0","61720637efa93f56c3c3b92b","64de82547feb811e63c1455e","","","","","null","","null","key","null","16.630037422037322","499.8697706863306","249.75311451746117","br","12","-28","234","2","1","6","-28"
"","psychophysics","188","1250340","0.0-188.0","61720637efa93f56c3c3b92b","64de82547feb811e63c1455e","","","","","null","","null","key","null","16.630091666666946","499.8697706863306","249.75311451746117","br","22","26","218","2","1","16","-15"
"","psychophysics","189","1258347","0.0-189.0","61720637efa93f56c3c3b92b","64de82547feb811e63c1455e","","","","","null","","null","key","null","16.629659043659366","499.8697706863306","249.75311451746117","br","17","2","267","2","1","19","20"
"","psychophysics","190","1266356","0.0-190.0","61720637efa93f56c3c3b92b","64de82547feb811e63c1455e","","","","","null","","null","key","null","16.630062499999863","499.8697706863306","249.75311451746117","br","16","10","272","2","1","-29","1"
"","psychophysics","191","1274364","0.0-191.0","61720637efa93f56c3c3b92b","64de82547feb811e63c1455e","","","","","null","","null","key","null","16.630182952182988","499.8697706863306","249.75311451746117","br","22","-30","284","2","1","-10","29"
"","psychophysics","192","1282382","0.0-192.0","61720637efa93f56c3c3b92b","64de82547feb811e63c1455e","","","","","null","","null","key","null","16.629723492723244","499.8697706863306","249.75311451746117","br","14","1","203","2","1","-1","11"
"","psychophysics","193","1290398","0.0-193.0","61720637efa93f56c3c3b92b","64de82547feb811e63c1455e","","","","","null","","null","key","null","16.63000415800393","499.8697706863306","249.75311451746117","br","11","-21","241","2","1","15","-26"
"","psychophysics","194","1298410","0.0-194.0","61720637efa93f56c3c3b92b","64de82547feb811e63c1455e","","","","","null","","null","key","null","16.62997505197538","499.8697706863306","249.75311451746117","br","11","-29","271","2","1","19","-4"
"","psychophysics","195","1306420","0.0-195.0","61720637efa93f56c3c3b92b","64de82547feb811e63c1455e","","","","","null","","null","key","null","16.630508333333516","499.8697706863306","249.75311451746117","br","16","-27","228","2","1","-30","4"
"","psychophysics","196","1314429","0.0-196.0","61720637efa93f56c3c3b92b","64de82547feb811e63c1455e","","","","","null","","null","key","null","16.62991268191295","499.8697706863306","249.75311451746117","br","18","-12","238","2","1","3","16"
"","psychophysics","197","1322437","0.0-197.0","61720637efa93f56c3c3b92b","64de82547feb811e63c1455e","","","","","null","","null","key","null","16.629985416666994","499.8697706863306","249.75311451746117","br","20","20","284","2","1","-10","17"
"","psychophysics","198","1330446","0.0-198.0","61720637efa93f56c3c3b92b","64de82547feb811e63c1455e","","","","","null","","null","key","null","16.630041580041677","499.8697706863306","249.75311451746117","br","13","20","244","2","1","10","9"
"","psychophysics","199","1332038","0.0-199.0","61720637efa93f56c3c3b92b","64de82547feb811e63c1455e","","","","","1580",""," ","key"," ","16.630631578948936","499.8697706863306","249.75311451746117","inst","","","","","","",""
"","psychophysics","200","1333212","0.0-200.0","61720637efa93f56c3c3b92b","64de82547feb811e63c1455e","","","","","1167",""," ","key"," ","16.62607246376844","499.8697706863306","249.75311451746117","instEB1","40","40","30","1","","0","0"
"","psychophysics","201","1333554","0.0-201.0","61720637efa93f56c3c3b92b","64de82547feb811e63c1455e","","","","","327",""," ","key"," ","16.626450000004844","499.8697706863306","249.75311451746117","instEB2","30","30","40","1","","0","0"
"","psychophysics","202","1333905","0.0-202.0","61720637efa93f56c3c3b92b","64de82547feb811e63c1455e","","","","","315",""," ","key"," ","16.635250000003726","499.8697706863306","249.75311451746117","instEB3","27","27","45","1","","0","0"
"","psychophysics","203","1334286","0.0-203.0","61720637efa93f56c3c3b92b","64de82547feb811e63c1455e","","","","","362",""," ","key"," ","16.628227272727102","499.8697706863306","249.75311451746117","instEB4","40","40","30","1","","0","0"
"","psychophysics","204","1334979","0.0-204.0","61720637efa93f56c3c3b92b","64de82547feb811e63c1455e","","","","","688",""," ","key"," ","16.63109756097561","499.8697706863306","249.75311451746117","inst","","","","","","",""
"","psychophysics","205","1343000","0.0-205.0","61720637efa93f56c3c3b92b","64de82547feb811e63c1455e","","","","","null","","null","key","null","16.629910602911014","499.8697706863306","249.75311451746117","eb","44","47","51","1","","0","0"
"","psychophysics","206","1351016","0.0-206.0","61720637efa93f56c3c3b92b","64de82547feb811e63c1455e","","","","","null","","null","key","null","16.629679833680175","499.8697706863306","249.75311451746117","eb","27","46","31","1","","0","0"
"","psychophysics","207","1359032","0.0-207.0","61720637efa93f56c3c3b92b","64de82547feb811e63c1455e","","","","","null","","null","key","null","16.630002079001994","499.8697706863306","249.75311451746117","eb","33","47","38","1","","0","0"
"","psychophysics","208","1367048","0.0-208.0","61720637efa93f56c3c3b92b","64de82547feb811e63c1455e","","","","","null","","null","key","null","16.630158004158307","499.8697706863306","249.75311451746117","eb","32","35","36","1","","0","0"
"","psychophysics","209","1375062","0.0-209.0","61720637efa93f56c3c3b92b","64de82547feb811e63c1455e","","","","","null","","null","key","null","16.629927234927468","499.8697706863306","249.75311451746117","eb","27","35","31","1","","0","0"
"","psychophysics","210","1383079","0.0-210.0","61720637efa93f56c3c3b92b","64de82547feb811e63c1455e","","","","","null","","null","key","null","16.629948024947794","499.8697706863306","249.75311451746117","eb","50","52","52","1","","0","0"
"","psychophysics","211","1391094","0.0-211.0","61720637efa93f56c3c3b92b","64de82547feb811e63c1455e","","","","","null","","null","key","null","16.629935550935695","499.8697706863306","249.75311451746117","eb","32","40","37","1","","0","0"
"","psychophysics","212","1399110","0.0-212.0","61720637efa93f56c3c3b92b","64de82547feb811e63c1455e","","","","","null","","null","key","null","16.62993762993763","499.8697706863306","249.75311451746117","eb","32","34","37","1","","0","0"
"","psychophysics","213","1407126","0.0-213.0","61720637efa93f56c3c3b92b","64de82547feb811e63c1455e","","","","","null","","null","key","null","16.63006860706878","499.8697706863306","249.75311451746117","eb","41","43","44","1","","0","0"
"","psychophysics","214","1415141","0.0-214.0","61720637efa93f56c3c3b92b","64de82547feb811e63c1455e","","","","","null","","null","key","null","16.630351351351397","499.8697706863306","249.75311451746117","eb","35","35","52","1","","0","0"
"","psychophysics","215","1423156","0.0-215.0","61720637efa93f56c3c3b92b","64de82547feb811e63c1455e","","","","","null","","null","key","null","16.630076923077006","499.8697706863306","249.75311451746117","eb","42","39","43","1","","0","0"
"","psychophysics","216","1431172","0.0-216.0","61720637efa93f56c3c3b92b","64de82547feb811e63c1455e","","","","","null","","null","key","null","16.629767151767282","499.8697706863306","249.75311451746117","eb","40","52","45","1","","0","0"
"","psychophysics","217","1439187","0.0-217.0","61720637efa93f56c3c3b92b","64de82547feb811e63c1455e","","","","","null","","null","key","null","16.66467499999999","499.8697706863306","249.75311451746117","eb","32","33","36","1","","0","0"
"","psychophysics","218","1447205","0.0-218.0","61720637efa93f56c3c3b92b","64de82547feb811e63c1455e","","","","","null","","null","key","null","16.629835758836002","499.8697706863306","249.75311451746117","eb","26","39","29","1","","0","0"
"","psychophysics","219","1455219","0.0-219.0","61720637efa93f56c3c3b92b","64de82547feb811e63c1455e","","","","","null","","null","key","null","16.63001247401264","499.8697706863306","249.75311451746117","eb","46","25","52","1","","0","0"
