"success","trial_type","trial_index","time_elapsed","internal_node_id","pid","sid","timeout","failed_images","failed_audio","failed_video","rt","stimulus","response","response_type","key_press","avg_frame_time","center_x","center_y","task","resp","start","parA","version","block","jitterX","jitterY"
"true","fullscreen","0","4793","0.0-0.0","63d80a392c05f6a765d9e63a","64de7c4933b62fbd9bc01060","","","","","","","","","","","","","","","","","","","",""
"true","preload","1","4900","0.0-1.0","63d80a392c05f6a765d9e63a","64de7c4933b62fbd9bc01060","false","[]","[]","[]","","","","","","","","","","","","","","","",""
"","html-button-response","2","12133","0.0-2.0","63d80a392c05f6a765d9e63a","64de7c4933b62fbd9bc01060","","","","","7232","Please Make Sure Your Audio Is On.","0","","","","","","","","","","","","",""
"","psychophysics","3","22281","0.0-3.0","63d80a392c05f6a765d9e63a","64de7c4933b62fbd9bc01060","","","","","10144",""," ","key"," ","16.680518092105263","1280","250","","","","","","","",""
"","psychophysics","4","28437","0.0-4.0","63d80a392c05f6a765d9e63a","64de7c4933b62fbd9bc01060","","","","","6155",""," ","key"," ","16.680502717391303","500","250","inst","","","","","","",""
"","psychophysics","5","37860","0.0-5.0","63d80a392c05f6a765d9e63a","64de7c4933b62fbd9bc01060","","","","","9421",""," ","key"," ","16.68053723404256","500","250","sample0","","","","","","",""
"","psychophysics","6","46499","0.0-6.0","63d80a392c05f6a765d9e63a","64de7c4933b62fbd9bc01060","","","","","8639",""," ","key"," ","16.680508704061904","500","250","sample1","","","","","","",""
"","psychophysics","7","73872","0.0-7.0","63d80a392c05f6a765d9e63a","64de7c4933b62fbd9bc01060","","","","","27370",""," ","key"," ","16.69067846247712","500","250","sample2","100","","","","","",""
"","psychophysics","8","88886","0.0-8.0","63d80a392c05f6a765d9e63a","64de7c4933b62fbd9bc01060","","","","","15013",""," ","key"," ","16.68049388209121","500","250","sample3","100","","","","","",""
"","psychophysics","9","103180","0.0-9.0","63d80a392c05f6a765d9e63a","64de7c4933b62fbd9bc01060","","","","","14294",""," ","key"," ","16.699978947368425","500","250","sample4","100","","","","","",""
"","psychophysics","10","117187","0.0-10.0","63d80a392c05f6a765d9e63a","64de7c4933b62fbd9bc01060","","","","","14005",""," ","key"," ","16.70038424821003","500","250","sample5","","","","","","",""
"","psychophysics","11","142679","0.0-11.0","63d80a392c05f6a765d9e63a","64de7c4933b62fbd9bc01060","","","","","25492",""," ","key"," ","16.6914252948886","500","250","sample6","500","","","","","",""
"","psychophysics","12","159109","0.0-12.0","63d80a392c05f6a765d9e63a","64de7c4933b62fbd9bc01060","","","","","16430",""," ","key"," ","16.680508130081297","500","250","inst","","","","","","",""
"","psychophysics","13","165060","0.0-13.0","63d80a392c05f6a765d9e63a","64de7c4933b62fbd9bc01060","","","","","5950",""," ","key"," ","16.680547752808973","500","250","inst","","","","","","",""
"","psychophysics","14","170868","0.0-14.0","63d80a392c05f6a765d9e63a","64de7c4933b62fbd9bc01060","","","","","5807",""," ","key"," ","16.680628242074885","500","250","inst","","","","","","",""
"","psychophysics","15","175111","0.0-15.0","63d80a392c05f6a765d9e63a","64de7c4933b62fbd9bc01060","","","","","4243",""," ","key"," ","16.680531496063033","500","250","inst","","","","","","",""
"","psychophysics","16","179677","0.0-16.0","63d80a392c05f6a765d9e63a","64de7c4933b62fbd9bc01060","","","","","4563",""," ","key"," ","16.680397058823527","500","250","inst","","","","","","",""
"","psychophysics","17","188314","0.0-17.0","63d80a392c05f6a765d9e63a","64de7c4933b62fbd9bc01060","","","","","8637",""," ","key"," ","16.680471953578344","500","250","instPzPre","50","50","50","0","","",""
"","psychophysics","18","198464","0.0-18.0","63d80a392c05f6a765d9e63a","64de7c4933b62fbd9bc01060","","","","","10149",""," ","key"," ","16.68053618421053","500","250","instPz0","49","50","50","2","","",""
"","psychophysics","19","215041","0.0-19.0","63d80a392c05f6a765d9e63a","64de7c4933b62fbd9bc01060","","","","","16576",""," ","key"," ","16.6804616935484","500","250","instPz1","47","25","50","2","","",""
"","psychophysics","20","224890","0.0-20.0","63d80a392c05f6a765d9e63a","64de7c4933b62fbd9bc01060","","","","","9848",""," ","key"," ","16.737260204081668","500","250","instPz2","35","20","35","2","","",""
"","psychophysics","21","239699","0.0-21.0","63d80a392c05f6a765d9e63a","64de7c4933b62fbd9bc01060","","","","","14808",""," ","key"," ","16.68056257046225","500","250","instPz3","86","30","100","2","","",""
"","psychophysics","22","255099","0.0-22.0","63d80a392c05f6a765d9e63a","64de7c4933b62fbd9bc01060","","","","","15399",""," ","key"," ","16.680472885032547","500","250","instPz4","86","30","100","2","","",""
"","psychophysics","23","259029","0.0-23.0","63d80a392c05f6a765d9e63a","64de7c4933b62fbd9bc01060","","","","","3929",""," ","key"," ","16.68038461538458","500","250","inst","","","","","","",""
"","psychophysics","24","267031","0.0-24.0","63d80a392c05f6a765d9e63a","64de7c4933b62fbd9bc01060","","","","","null","","null","key","null","16.680561586638834","500","250","pz","39","20","48","2","0","",""
"","psychophysics","25","275032","0.0-25.0","63d80a392c05f6a765d9e63a","64de7c4933b62fbd9bc01060","","","","","null","","null","key","null","16.71541422594141","500","250","pz","18","27","24","2","0","",""
"","psychophysics","26","283033","0.0-26.0","63d80a392c05f6a765d9e63a","64de7c4933b62fbd9bc01060","","","","","null","","null","key","null","16.680317327766247","500","250","pz","28","50","38","2","0","",""
"","psychophysics","27","286806","0.0-27.0","63d80a392c05f6a765d9e63a","64de7c4933b62fbd9bc01060","","","","","3772",""," ","key"," ","16.680626666666683","500","250","pz","40","37","48","2","0","",""
"","psychophysics","28","294808","0.0-28.0","63d80a392c05f6a765d9e63a","64de7c4933b62fbd9bc01060","","","","","null","","null","key","null","16.680378661087907","500","250","pz","25","59","33","2","0","",""
"","psychophysics","29","299329","0.0-29.0","63d80a392c05f6a765d9e63a","64de7c4933b62fbd9bc01060","","","","","4520",""," ","key"," ","16.68044814814822","500","250","pz","16","52","23","2","0","",""
"","psychophysics","30","307331","0.0-30.0","63d80a392c05f6a765d9e63a","64de7c4933b62fbd9bc01060","","","","","null","","null","key","null","16.680450939457174","500","250","pz","41","24","57","2","0","",""
"","psychophysics","31","311772","0.0-31.0","63d80a392c05f6a765d9e63a","64de7c4933b62fbd9bc01060","","","","","4441",""," ","key"," ","16.680622641509398","500","250","pz","20","36","28","2","0","",""
"","psychophysics","32","319774","0.0-32.0","63d80a392c05f6a765d9e63a","64de7c4933b62fbd9bc01060","","","","","null","","null","key","null","16.680620041753638","500","250","pz","35","58","43","2","0","",""
"","psychophysics","33","327775","0.0-33.0","63d80a392c05f6a765d9e63a","64de7c4933b62fbd9bc01060","","","","","null","","null","key","null","16.715389121338923","500","250","pz","16","44","30","2","0","",""
"","psychophysics","34","335777","0.0-34.0","63d80a392c05f6a765d9e63a","64de7c4933b62fbd9bc01060","","","","","null","","null","key","null","16.715392033543033","500","250","pz","35","56","46","2","0","",""
"","psychophysics","35","343778","0.0-35.0","63d80a392c05f6a765d9e63a","64de7c4933b62fbd9bc01060","","","","","null","","null","key","null","16.680459290187898","500","250","pz","42","46","55","2","0","",""
"","psychophysics","36","351778","0.0-36.0","63d80a392c05f6a765d9e63a","64de7c4933b62fbd9bc01060","","","","","null","","null","key","null","16.680459290187898","500","250","pz","36","22","59","2","0","",""
"","psychophysics","37","359779","0.0-37.0","63d80a392c05f6a765d9e63a","64de7c4933b62fbd9bc01060","","","","","null","","null","key","null","16.750550420168043","500","250","pz","32","35","46","2","0","",""
"","psychophysics","38","367780","0.0-38.0","63d80a392c05f6a765d9e63a","64de7c4933b62fbd9bc01060","","","","","null","","null","key","null","16.68039248434237","500","250","pz","45","22","56","2","0","",""
"","psychophysics","39","369376","0.0-39.0","63d80a392c05f6a765d9e63a","64de7c4933b62fbd9bc01060","","","","","1590",""," ","key"," ","16.68082105263173","500","250","inst","","","","","","",""
"","psychophysics","40","380785","0.0-40.0","63d80a392c05f6a765d9e63a","64de7c4933b62fbd9bc01060","","","","","11408",""," ","key"," ","16.70498093841645","500","250","instPog0","160","190","160","1","","0","0"
"","psychophysics","41","401006","0.0-41.0","63d80a392c05f6a765d9e63a","64de7c4933b62fbd9bc01060","","","","","20221",""," ","key"," ","16.680422791081725","500","250","instPog1","166","190","160","1","","0","0"
"","psychophysics","42","422355","0.0-42.0","63d80a392c05f6a765d9e63a","64de7c4933b62fbd9bc01060","","","","","21348",""," ","key"," ","16.680507427677878","500","250","instPog2","172","160","160","1","","0","0"
"","psychophysics","43","424505","0.0-43.0","63d80a392c05f6a765d9e63a","64de7c4933b62fbd9bc01060","","","","","2149",""," ","key"," ","16.680898437499764","500","250","inst","","","","","","",""
"","psychophysics","44","432506","0.0-44.0","63d80a392c05f6a765d9e63a","64de7c4933b62fbd9bc01060","","","","","null","","null","key","null","16.680635983263564","500","250","pog","210","106","196","1","0","0","0"
"","psychophysics","45","438936","0.0-45.0","63d80a392c05f6a765d9e63a","64de7c4933b62fbd9bc01060","","","","","6429",""," ","key"," ","16.680464935064915","500","250","pog","174","102","161","1","0","0","0"
"","psychophysics","46","442646","0.0-46.0","63d80a392c05f6a765d9e63a","64de7c4933b62fbd9bc01060","","","","","3710",""," ","key"," ","16.680506787330284","500","250","pog","162","110","143","1","0","0","0"
"","psychophysics","47","447271","0.0-47.0","63d80a392c05f6a765d9e63a","64de7c4933b62fbd9bc01060","","","","","4624",""," ","key"," ","16.68025992779794","500","250","pog","151","113","133","1","0","0","0"
"","psychophysics","48","451470","0.0-48.0","63d80a392c05f6a765d9e63a","64de7c4933b62fbd9bc01060","","","","","4197",""," ","key"," ","16.747654618474","500","250","pog","151","159","140","1","0","0","0"
"","psychophysics","49","457045","0.0-49.0","63d80a392c05f6a765d9e63a","64de7c4933b62fbd9bc01060","","","","","5575",""," ","key"," ","16.68054790419166","500","250","pog","197","195","179","1","0","0","0"
"","psychophysics","50","465046","0.0-50.0","63d80a392c05f6a765d9e63a","64de7c4933b62fbd9bc01060","","","","","null","","null","key","null","16.68052928870294","500","250","pog","187","151","173","1","0","0","0"
"","psychophysics","51","468752","0.0-51.0","63d80a392c05f6a765d9e63a","64de7c4933b62fbd9bc01060","","","","","3705",""," ","key"," ","16.680809954751012","500","250","pog","159","103","142","1","0","0","0"
"","psychophysics","52","475531","0.0-52.0","63d80a392c05f6a765d9e63a","64de7c4933b62fbd9bc01060","","","","","6778",""," ","key"," ","16.680475369458094","500","250","pog","209","125","193","1","0","0","0"
"","psychophysics","53","481843","0.0-53.0","63d80a392c05f6a765d9e63a","64de7c4933b62fbd9bc01060","","","","","6311",""," ","key"," ","16.680496021220215","500","250","pog","172","198","157","1","0","0","0"
"","psychophysics","54","486345","0.0-54.0","63d80a392c05f6a765d9e63a","64de7c4933b62fbd9bc01060","","","","","4502",""," ","key"," ","16.68031598513013","500","250","pog","175","183","155","1","0","0","0"
"","psychophysics","55","490967","0.0-55.0","63d80a392c05f6a765d9e63a","64de7c4933b62fbd9bc01060","","","","","4621",""," ","key"," ","16.68057971014481","500","250","pog","157","155","140","1","0","0","0"
"","psychophysics","56","498970","0.0-56.0","63d80a392c05f6a765d9e63a","64de7c4933b62fbd9bc01060","","","","","null","","null","key","null","16.6806492693111","500","250","pog","158","124","146","1","0","0","0"
"","psychophysics","57","506972","0.0-57.0","63d80a392c05f6a765d9e63a","64de7c4933b62fbd9bc01060","","","","","null","","null","key","null","16.680448851774525","500","250","pog","200","136","184","1","0","0","0"
"","psychophysics","58","514973","0.0-58.0","63d80a392c05f6a765d9e63a","64de7c4933b62fbd9bc01060","","","","","null","","null","key","null","16.680487447698717","500","250","pog","198","154","188","1","0","0","0"
"","psychophysics","59","515904","0.0-59.0","63d80a392c05f6a765d9e63a","64de7c4933b62fbd9bc01060","","","","","930",""," ","key"," ","16.679636363636448","500","250","inst","","","","","","",""
"","psychophysics","60","520290","0.0-60.0","63d80a392c05f6a765d9e63a","64de7c4933b62fbd9bc01060","","","","","4385",""," ","key"," ","16.68064503816804","500","250","instBr0","0","0","300","","","0","0"
"","psychophysics","61","536487","0.0-61.0","63d80a392c05f6a765d9e63a","64de7c4933b62fbd9bc01060","","","","","16197",""," ","key"," ","16.680547422680405","500","250","instBr1","0","-40","300","","","0","0"
"","psychophysics","62","548936","0.0-62.0","63d80a392c05f6a765d9e63a","64de7c4933b62fbd9bc01060","","","","","12447",""," ","key"," ","16.68053288590616","500","250","instBr3","20","40","300","2","","0","0"
"","psychophysics","63","550473","0.0-63.0","63d80a392c05f6a765d9e63a","64de7c4933b62fbd9bc01060","","","","","1537",""," ","key"," ","16.680478260868846","500","250","inst","","","","","","",""
"","psychophysics","64","558476","0.0-64.0","63d80a392c05f6a765d9e63a","64de7c4933b62fbd9bc01060","","","","","null","","null","key","null","16.680514644351387","500","250","br","18","-19","276","2","0","-22","-1"
"","psychophysics","65","566478","0.0-65.0","63d80a392c05f6a765d9e63a","64de7c4933b62fbd9bc01060","","","","","null","","null","key","null","16.680461377870547","500","250","br","15","-22","232","2","0","17","14"
"","psychophysics","66","574479","0.0-66.0","63d80a392c05f6a765d9e63a","64de7c4933b62fbd9bc01060","","","","","null","","null","key","null","16.680430062630432","500","250","br","20","18","272","2","0","30","20"
"","psychophysics","67","582480","0.0-67.0","63d80a392c05f6a765d9e63a","64de7c4933b62fbd9bc01060","","","","","null","","null","key","null","16.680449790794988","500","250","br","19","-12","273","2","0","-6","3"
"","psychophysics","68","590482","0.0-68.0","63d80a392c05f6a765d9e63a","64de7c4933b62fbd9bc01060","","","","","null","","null","key","null","16.680419624217063","500","250","br","21","6","205","2","0","-30","-12"
"","psychophysics","69","596493","0.0-69.0","63d80a392c05f6a765d9e63a","64de7c4933b62fbd9bc01060","","","","","6006",""," ","key"," ","16.680508333333353","500","250","br","21","4","264","2","0","19","18"
"","psychophysics","70","604494","0.0-70.0","63d80a392c05f6a765d9e63a","64de7c4933b62fbd9bc01060","","","","","null","","null","key","null","16.680539748953873","500","250","br","17","-14","236","2","0","-22","4"
"","psychophysics","71","612496","0.0-71.0","63d80a392c05f6a765d9e63a","64de7c4933b62fbd9bc01060","","","","","null","","null","key","null","16.71537447698725","500","250","br","17","15","208","2","0","5","6"
"","psychophysics","72","620497","0.0-72.0","63d80a392c05f6a765d9e63a","64de7c4933b62fbd9bc01060","","","","","null","","null","key","null","16.680434237995975","500","250","br","17","29","259","2","0","-9","-2"
"","psychophysics","73","628498","0.0-73.0","63d80a392c05f6a765d9e63a","64de7c4933b62fbd9bc01060","","","","","null","","null","key","null","16.680422594142197","500","250","br","17","5","227","2","0","8","-4"
"","psychophysics","74","636500","0.0-74.0","63d80a392c05f6a765d9e63a","64de7c4933b62fbd9bc01060","","","","","null","","null","key","null","16.680582463465456","500","250","br","12","2","207","2","0","-5","-2"
"","psychophysics","75","640406","0.0-75.0","63d80a392c05f6a765d9e63a","64de7c4933b62fbd9bc01060","","","","","3900",""," ","key"," ","16.680497854077178","500","250","br","20","23","267","2","0","-13","4"
"","psychophysics","76","648407","0.0-76.0","63d80a392c05f6a765d9e63a","64de7c4933b62fbd9bc01060","","","","","null","","null","key","null","16.680594989561595","500","250","br","16","-27","220","2","0","23","15"
"","psychophysics","77","656408","0.0-77.0","63d80a392c05f6a765d9e63a","64de7c4933b62fbd9bc01060","","","","","null","","null","key","null","16.75056932773123","500","250","br","16","26","227","2","0","-21","-1"
"","psychophysics","78","663960","0.0-78.0","63d80a392c05f6a765d9e63a","64de7c4933b62fbd9bc01060","","","","","7551",""," ","key"," ","16.680353982300925","500","250","br","19","-12","225","2","0","3","15"
"","psychophysics","79","665286","0.0-79.0","63d80a392c05f6a765d9e63a","64de7c4933b62fbd9bc01060","","","","","1326",""," ","key"," ","16.680962025316113","500","250","inst","","","","","","",""
"","psychophysics","80","669996","0.0-80.0","63d80a392c05f6a765d9e63a","64de7c4933b62fbd9bc01060","","","","","4709",""," ","key"," ","16.680466192170854","500","250","instZol0","0","0","","","","0","0"
"","psychophysics","81","684711","0.0-81.0","63d80a392c05f6a765d9e63a","64de7c4933b62fbd9bc01060","","","","","14715",""," ","key"," ","16.718365187713278","500","250","instZol1","2.498001805406602e-16","-1.3","","","","0","0"
"","psychophysics","82","707421","0.0-82.0","63d80a392c05f6a765d9e63a","64de7c4933b62fbd9bc01060","","","","","22708",""," ","key"," ","16.68048420279204","500","250","instZol2","-0.8999999999999992","2","","2","","0","0"
"","psychophysics","83","708285","0.0-83.0","63d80a392c05f6a765d9e63a","64de7c4933b62fbd9bc01060","","","","","864",""," ","key"," ","16.67984313725302","500","250","inst","","","","","","",""
"","psychophysics","84","716286","0.0-84.0","63d80a392c05f6a765d9e63a","64de7c4933b62fbd9bc01060","","","","","null","","null","key","null","16.680472803347165","500","250","zol","-0.83","-0.57","","2","0","27","14"
"","psychophysics","85","722101","0.0-85.0","63d80a392c05f6a765d9e63a","64de7c4933b62fbd9bc01060","","","","","5814",""," ","key"," ","16.680442528735615","500","250","zol","-0.59","0.09","","2","0","11","21"
"","psychophysics","86","730102","0.0-86.0","63d80a392c05f6a765d9e63a","64de7c4933b62fbd9bc01060","","","","","null","","null","key","null","16.680459290187773","500","250","zol","-0.6000000000000002","-0.7","","2","0","-16","27"
"","psychophysics","87","738104","0.0-87.0","63d80a392c05f6a765d9e63a","64de7c4933b62fbd9bc01060","","","","","null","","null","key","null","16.680631799163066","500","250","zol","-0.8599999999999999","0.06","","2","0","16","17"
"","psychophysics","88","746106","0.0-88.0","63d80a392c05f6a765d9e63a","64de7c4933b62fbd9bc01060","","","","","null","","null","key","null","16.680444676409103","500","250","zol","-0.8699999999999999","-0.63","","2","0","-22","-30"
"","psychophysics","89","754108","0.0-89.0","63d80a392c05f6a765d9e63a","64de7c4933b62fbd9bc01060","","","","","null","","null","key","null","16.680592901879066","500","250","zol","-0.8500000000000001","0.75","","2","0","-18","10"
"","psychophysics","90","762110","0.0-90.0","63d80a392c05f6a765d9e63a","64de7c4933b62fbd9bc01060","","","","","null","","null","key","null","16.68046234309611","500","250","zol","-0.7799999999999999","-0.12","","2","0","16","8"
"","psychophysics","91","770112","0.0-91.0","63d80a392c05f6a765d9e63a","64de7c4933b62fbd9bc01060","","","","","null","","null","key","null","16.680467640918373","500","250","zol","-0.82","-0.48","","2","0","6","-10"
"","psychophysics","92","778115","0.0-92.0","63d80a392c05f6a765d9e63a","64de7c4933b62fbd9bc01060","","","","","null","","null","key","null","16.680605427974967","500","250","zol","-0.93","0.53","","2","0","-8","4"
"","psychophysics","93","786116","0.0-93.0","63d80a392c05f6a765d9e63a","64de7c4933b62fbd9bc01060","","","","","null","","null","key","null","16.68043841336103","500","250","zol","-0.9899999999999999","-0.01","","2","0","-22","-2"
"","psychophysics","94","794118","0.0-94.0","63d80a392c05f6a765d9e63a","64de7c4933b62fbd9bc01060","","","","","null","","null","key","null","16.680554393305545","500","250","zol","-0.92","-0.18","","2","0","14","15"
"","psychophysics","95","802119","0.0-95.0","63d80a392c05f6a765d9e63a","64de7c4933b62fbd9bc01060","","","","","null","","null","key","null","16.68037369519828","500","250","zol","-0.9400000000000001","0.14","","2","0","16","-15"
"","psychophysics","96","809641","0.0-96.0","63d80a392c05f6a765d9e63a","64de7c4933b62fbd9bc01060","","","","","7517",""," ","key"," ","16.680424444444427","500","250","zol","-0.9599999999999999","-0.54","","2","0","1","-4"
"","psychophysics","97","817643","0.0-97.0","63d80a392c05f6a765d9e63a","64de7c4933b62fbd9bc01060","","","","","null","","null","key","null","16.680471816283916","500","250","zol","-0.8200000000000001","0.22","","2","0","19","-4"
"","psychophysics","98","825645","0.0-98.0","63d80a392c05f6a765d9e63a","64de7c4933b62fbd9bc01060","","","","","null","","null","key","null","16.680449790794988","500","250","zol","-0.9600000000000001","0.56","","2","0","-26","-2"
"","psychophysics","99","826459","0.0-99.0","63d80a392c05f6a765d9e63a","64de7c4933b62fbd9bc01060","","","","","814",""," ","key"," ","16.682666666665074","500","250","inst","","","","","","",""
"","psychophysics","100","828910","0.0-100.0","63d80a392c05f6a765d9e63a","64de7c4933b62fbd9bc01060","","","","","2449",""," ","key"," ","16.680746575343033","500","250","instEB0","40","40","40","2","","0","0"
"","psychophysics","101","852154","0.0-101.0","63d80a392c05f6a765d9e63a","64de7c4933b62fbd9bc01060","","","","","23244",""," ","key"," ","16.68044508255571","500","250","instEB1","40","30","40","2","","0","0"
"","psychophysics","102","866250","0.0-102.0","63d80a392c05f6a765d9e63a","64de7c4933b62fbd9bc01060","","","","","14095",""," ","key"," ","16.68169786729858","500","250","instEB2","30","40","30","2","","0","0"
"","psychophysics","103","881335","0.0-103.0","63d80a392c05f6a765d9e63a","64de7c4933b62fbd9bc01060","","","","","15085",""," ","key"," ","16.698947893569844","500","250","instEB3","30","45","27","2","","0","0"
"","psychophysics","104","895445","0.0-104.0","63d80a392c05f6a765d9e63a","64de7c4933b62fbd9bc01060","","","","","14109",""," ","key"," ","16.700278436018994","500","250","instEB4","43","30","40","2","","0","0"
"","psychophysics","105","896841","0.0-105.0","63d80a392c05f6a765d9e63a","64de7c4933b62fbd9bc01060","","","","","1396",""," ","key"," ","16.68143373493986","500","250","inst","","","","","","",""
"","psychophysics","106","903424","0.0-106.0","63d80a392c05f6a765d9e63a","64de7c4933b62fbd9bc01060","","","","","6583",""," ","key"," ","16.680605597964384","500","250","eb","38","47","35","2","","0","0"
"","psychophysics","107","911426","0.0-107.0","63d80a392c05f6a765d9e63a","64de7c4933b62fbd9bc01060","","","","","null","","null","key","null","16.715405857740418","500","250","eb","53","26","50","2","","0","0"
"","psychophysics","108","916055","0.0-108.0","63d80a392c05f6a765d9e63a","64de7c4933b62fbd9bc01060","","","","","4628",""," ","key"," ","16.68025000000025","500","250","eb","33","43","30","2","","0","0"
"","psychophysics","109","921095","0.0-109.0","63d80a392c05f6a765d9e63a","64de7c4933b62fbd9bc01060","","","","","5039",""," ","key"," ","16.735863787375788","500","250","eb","41","36","38","2","","0","0"
"","psychophysics","110","927118","0.0-110.0","63d80a392c05f6a765d9e63a","64de7c4933b62fbd9bc01060","","","","","6021",""," ","key"," ","16.680438888888844","500","250","eb","52","47","47","2","","0","0"
"","psychophysics","111","935119","0.0-111.0","63d80a392c05f6a765d9e63a","64de7c4933b62fbd9bc01060","","","","","null","","null","key","null","16.75055882352954","500","250","eb","37","26","33","2","","0","0"
"","psychophysics","112","942849","0.0-112.0","63d80a392c05f6a765d9e63a","64de7c4933b62fbd9bc01060","","","","","7729",""," ","key"," ","16.680496760259068","500","250","eb","28","25","26","2","","0","0"
"","psychophysics","113","950851","0.0-113.0","63d80a392c05f6a765d9e63a","64de7c4933b62fbd9bc01060","","","","","null","","null","key","null","16.68050209205027","500","250","eb","43","46","38","2","","0","0"
"","psychophysics","114","958854","0.0-114.0","63d80a392c05f6a765d9e63a","64de7c4933b62fbd9bc01060","","","","","null","","null","key","null","16.68050521920656","500","250","eb","52","51","48","2","","0","0"
"","psychophysics","115","966855","0.0-115.0","63d80a392c05f6a765d9e63a","64de7c4933b62fbd9bc01060","","","","","null","","null","key","null","16.68036743215021","500","250","eb","42","26","36","2","","0","0"
"","psychophysics","116","974856","0.0-116.0","63d80a392c05f6a765d9e63a","64de7c4933b62fbd9bc01060","","","","","null","","null","key","null","16.68034446764094","500","250","eb","25","49","24","2","","0","0"
"","psychophysics","117","982858","0.0-117.0","63d80a392c05f6a765d9e63a","64de7c4933b62fbd9bc01060","","","","","null","","null","key","null","16.680410041841075","500","250","eb","44","33","40","2","","0","0"
"","psychophysics","118","990860","0.0-118.0","63d80a392c05f6a765d9e63a","64de7c4933b62fbd9bc01060","","","","","null","","null","key","null","16.71534937238501","500","250","eb","43","32","39","2","","0","0"
"","psychophysics","119","998861","0.0-119.0","63d80a392c05f6a765d9e63a","64de7c4933b62fbd9bc01060","","","","","null","","null","key","null","16.680398747390562","500","250","eb","27","39","26","2","","0","0"
"","psychophysics","120","1004801","0.0-120.0","63d80a392c05f6a765d9e63a","64de7c4933b62fbd9bc01060","","","","","5934",""," ","key"," ","16.680509859154945","500","250","eb","39","44","36","2","","0","0"
"","psychophysics","121","1005952","0.0-121.0","63d80a392c05f6a765d9e63a","64de7c4933b62fbd9bc01060","","","","","1151",""," ","key"," ","16.68038235294037","500","250","inst","","","","","","",""
"","psychophysics","122","1017309","0.0-122.0","63d80a392c05f6a765d9e63a","64de7c4933b62fbd9bc01060","","","","","11357",""," ","key"," ","16.680451470588313","500","250","instEB1","31","40","30","1","","0","0"
"","psychophysics","123","1024547","0.0-123.0","63d80a392c05f6a765d9e63a","64de7c4933b62fbd9bc01060","","","","","7237",""," ","key"," ","16.680489607390303","500","250","instEB2","41","30","40","1","","0","0"
"","psychophysics","124","1035197","0.0-124.0","63d80a392c05f6a765d9e63a","64de7c4933b62fbd9bc01060","","","","","10649",""," ","key"," ","16.68044113029826","500","250","instEB3","43","27","45","1","","0","0"
"","psychophysics","125","1039039","0.0-125.0","63d80a392c05f6a765d9e63a","64de7c4933b62fbd9bc01060","","","","","3842",""," ","key"," ","16.753666666666202","500","250","instEB4","28","40","30","1","","0","0"
"","psychophysics","126","1039730","0.0-126.0","63d80a392c05f6a765d9e63a","64de7c4933b62fbd9bc01060","","","","","690",""," ","key"," ","16.681682926829815","500","250","inst","","","","","","",""
"","psychophysics","127","1047731","0.0-127.0","63d80a392c05f6a765d9e63a","64de7c4933b62fbd9bc01060","","","","","null","","null","key","null","16.71556813417191","500","250","eb","26","36","27","1","","0","0"
"","psychophysics","128","1055734","0.0-128.0","63d80a392c05f6a765d9e63a","64de7c4933b62fbd9bc01060","","","","","null","","null","key","null","16.786189075630304","500","250","eb","36","43","41","1","","0","0"
"","psychophysics","129","1063735","0.0-129.0","63d80a392c05f6a765d9e63a","64de7c4933b62fbd9bc01060","","","","","null","","null","key","null","16.68044676409163","500","250","eb","38","24","41","1","","0","0"
"","psychophysics","130","1071736","0.0-130.0","63d80a392c05f6a765d9e63a","64de7c4933b62fbd9bc01060","","","","","null","","null","key","null","16.715223849372585","500","250","eb","46","31","49","1","","0","0"
"","psychophysics","131","1079738","0.0-131.0","63d80a392c05f6a765d9e63a","64de7c4933b62fbd9bc01060","","","","","null","","null","key","null","16.680405857740457","500","250","eb","36","28","36","1","","0","0"
"","psychophysics","132","1087740","0.0-132.0","63d80a392c05f6a765d9e63a","64de7c4933b62fbd9bc01060","","","","","null","","null","key","null","16.680509394572343","500","250","eb","35","47","37","1","","0","0"
"","psychophysics","133","1095741","0.0-133.0","63d80a392c05f6a765d9e63a","64de7c4933b62fbd9bc01060","","","","","null","","null","key","null","16.7153472803347","500","250","eb","35","29","36","1","","0","0"
"","psychophysics","134","1103743","0.0-134.0","63d80a392c05f6a765d9e63a","64de7c4933b62fbd9bc01060","","","","","null","","null","key","null","16.680472803346923","500","250","eb","51","42","53","1","","0","0"
"","psychophysics","135","1111744","0.0-135.0","63d80a392c05f6a765d9e63a","64de7c4933b62fbd9bc01060","","","","","null","","null","key","null","16.715366108786746","500","250","eb","31","42","33","1","","0","0"
"","psychophysics","136","1119746","0.0-136.0","63d80a392c05f6a765d9e63a","64de7c4933b62fbd9bc01060","","","","","null","","null","key","null","16.78548949579816","500","250","eb","51","49","54","1","","0","0"
"","psychophysics","137","1127747","0.0-137.0","63d80a392c05f6a765d9e63a","64de7c4933b62fbd9bc01060","","","","","null","","null","key","null","16.680504184100332","500","250","eb","24","25","24","1","","0","0"
"","psychophysics","138","1135748","0.0-138.0","63d80a392c05f6a765d9e63a","64de7c4933b62fbd9bc01060","","","","","null","","null","key","null","16.680467640918373","500","250","eb","43","54","47","1","","0","0"
"","psychophysics","139","1141614","0.0-139.0","63d80a392c05f6a765d9e63a","64de7c4933b62fbd9bc01060","","","","","5861",""," ","key"," ","16.68053561253566","500","250","eb","41","51","42","1","","0","0"
"","psychophysics","140","1146931","0.0-140.0","63d80a392c05f6a765d9e63a","64de7c4933b62fbd9bc01060","","","","","5317",""," ","key"," ","16.680471698112886","500","250","eb","50","41","53","1","","0","0"
"","psychophysics","141","1153408","0.0-141.0","63d80a392c05f6a765d9e63a","64de7c4933b62fbd9bc01060","","","","","6476",""," ","key"," ","16.68048837209284","500","250","eb","25","24","25","1","","0","0"
"","psychophysics","142","1154672","0.0-142.0","63d80a392c05f6a765d9e63a","64de7c4933b62fbd9bc01060","","","","","1263",""," ","key"," ","16.681386666667336","500","250","inst","","","","","","",""
"","psychophysics","143","1170850","0.0-143.0","63d80a392c05f6a765d9e63a","64de7c4933b62fbd9bc01060","","","","","16178",""," ","key"," ","16.697603305785155","500","250","instBr3","-17","40","300","1","","0","0"
"","psychophysics","144","1172969","0.0-144.0","63d80a392c05f6a765d9e63a","64de7c4933b62fbd9bc01060","","","","","2118",""," ","key"," ","16.680015873014263","500","250","inst","","","","","","",""
"","psychophysics","145","1179412","0.0-145.0","63d80a392c05f6a765d9e63a","64de7c4933b62fbd9bc01060","","","","","6442",""," ","key"," ","16.680483116883202","500","250","br","-13","-27","221","1","1","11","-8"
"","psychophysics","146","1187413","0.0-146.0","63d80a392c05f6a765d9e63a","64de7c4933b62fbd9bc01060","","","","","null","","null","key","null","16.680520920502314","500","250","br","-14","-13","215","1","1","-21","-4"
"","psychophysics","147","1193771","0.0-147.0","63d80a392c05f6a765d9e63a","64de7c4933b62fbd9bc01060","","","","","6357",""," ","key"," ","16.68055118110246","500","250","br","-11","23","234","1","1","-28","7"
"","psychophysics","148","1199920","0.0-148.0","63d80a392c05f6a765d9e63a","64de7c4933b62fbd9bc01060","","","","","6148",""," ","key"," ","16.68062125340584","500","250","br","-9","19","217","1","1","2","-2"
"","psychophysics","149","1205798","0.0-149.0","63d80a392c05f6a765d9e63a","64de7c4933b62fbd9bc01060","","","","","5877",""," ","key"," ","16.68050568181868","500","250","br","-14","-15","229","1","1","-10","30"
"","psychophysics","150","1210304","0.0-150.0","63d80a392c05f6a765d9e63a","64de7c4933b62fbd9bc01060","","","","","4505",""," ","key"," ","16.680628252787805","500","250","br","-13","6","217","1","1","-16","-6"
"","psychophysics","151","1218305","0.0-151.0","63d80a392c05f6a765d9e63a","64de7c4933b62fbd9bc01060","","","","","null","","null","key","null","16.680493723849033","500","250","br","-14","0","255","1","1","18","28"
"","psychophysics","152","1226307","0.0-152.0","63d80a392c05f6a765d9e63a","64de7c4933b62fbd9bc01060","","","","","null","","null","key","null","16.68038204592888","500","250","br","-9","-4","213","1","1","3","17"
"","psychophysics","153","1234308","0.0-153.0","63d80a392c05f6a765d9e63a","64de7c4933b62fbd9bc01060","","","","","null","","null","key","null","16.680469728601388","500","250","br","-12","19","250","1","1","-22","-1"
"","psychophysics","154","1242309","0.0-154.0","63d80a392c05f6a765d9e63a","64de7c4933b62fbd9bc01060","","","","","null","","null","key","null","16.680410041841075","500","250","br","-12","-23","249","1","1","-22","29"
"","psychophysics","155","1250311","0.0-155.0","63d80a392c05f6a765d9e63a","64de7c4933b62fbd9bc01060","","","","","null","","null","key","null","16.750350104821592","500","250","br","-14","-22","238","1","1","-3","-2"
"","psychophysics","156","1258312","0.0-156.0","63d80a392c05f6a765d9e63a","64de7c4933b62fbd9bc01060","","","","","null","","null","key","null","16.68054488517727","500","250","br","-18","22","290","1","1","-9","-7"
"","psychophysics","157","1266313","0.0-157.0","63d80a392c05f6a765d9e63a","64de7c4933b62fbd9bc01060","","","","","null","","null","key","null","16.680466527196728","500","250","br","-14","-12","252","1","1","6","13"
"","psychophysics","158","1274315","0.0-158.0","63d80a392c05f6a765d9e63a","64de7c4933b62fbd9bc01060","","","","","null","","null","key","null","16.680486430062587","500","250","br","-12","-7","237","1","1","27","13"
"","psychophysics","159","1282316","0.0-159.0","63d80a392c05f6a765d9e63a","64de7c4933b62fbd9bc01060","","","","","null","","null","key","null","16.715309623431096","500","250","br","-10","-18","279","1","1","22","-3"
"","psychophysics","160","1283375","0.0-160.0","63d80a392c05f6a765d9e63a","64de7c4933b62fbd9bc01060","","","","","1054",""," ","key"," ","16.680935483868986","500","250","inst","","","","","","",""
"","psychophysics","161","1291595","0.0-161.0","63d80a392c05f6a765d9e63a","64de7c4933b62fbd9bc01060","","","","","8219",""," ","key"," ","16.714480651731275","500","250","instPog0","340","370","340","2","","0","0"
"","psychophysics","162","1295702","0.0-162.0","63d80a392c05f6a765d9e63a","64de7c4933b62fbd9bc01060","","","","","4107",""," ","key"," ","16.680359183672852","500","250","instPog1","344","370","340","2","","0","0"
"","psychophysics","163","1306962","0.0-163.0","63d80a392c05f6a765d9e63a","64de7c4933b62fbd9bc01060","","","","","11259",""," ","key"," ","16.680589020771432","500","250","instPog2","346","340","340","2","","0","0"
"","psychophysics","164","1307710","0.0-164.0","63d80a392c05f6a765d9e63a","64de7c4933b62fbd9bc01060","","","","","748",""," ","key"," ","16.681727272728246","500","250","inst","","","","","","",""
"","psychophysics","165","1315712","0.0-165.0","63d80a392c05f6a765d9e63a","64de7c4933b62fbd9bc01060","","","","","null","","null","key","null","16.68054488517727","500","250","pog","315","301","321","2","1","0","0"
"","psychophysics","166","1323714","0.0-166.0","63d80a392c05f6a765d9e63a","64de7c4933b62fbd9bc01060","","","","","null","","null","key","null","16.68051983298547","500","250","pog","351","319","344","2","1","0","0"
"","psychophysics","167","1331715","0.0-167.0","63d80a392c05f6a765d9e63a","64de7c4933b62fbd9bc01060","","","","","null","","null","key","null","16.750529411764905","500","250","pog","311","383","305","2","1","0","0"
"","psychophysics","168","1339717","0.0-168.0","63d80a392c05f6a765d9e63a","64de7c4933b62fbd9bc01060","","","","","null","","null","key","null","16.680480167014515","500","250","pog","319","289","327","2","1","0","0"
"","psychophysics","169","1347719","0.0-169.0","63d80a392c05f6a765d9e63a","64de7c4933b62fbd9bc01060","","","","","null","","null","key","null","16.680423799582847","500","250","pog","321","383","300","2","1","0","0"
"","psychophysics","170","1355719","0.0-170.0","63d80a392c05f6a765d9e63a","64de7c4933b62fbd9bc01060","","","","","null","","null","key","null","16.680395397489157","500","250","pog","369","343","365","2","1","0","0"
"","psychophysics","171","1363721","0.0-171.0","63d80a392c05f6a765d9e63a","64de7c4933b62fbd9bc01060","","","","","null","","null","key","null","16.68047599164946","500","250","pog","372","308","365","2","1","0","0"
"","psychophysics","172","1370112","0.0-172.0","63d80a392c05f6a765d9e63a","64de7c4933b62fbd9bc01060","","","","","6386",""," ","key"," ","16.680492146597096","500","250","pog","367","363","368","2","1","0","0"
"","psychophysics","173","1378112","0.0-173.0","63d80a392c05f6a765d9e63a","64de7c4933b62fbd9bc01060","","","","","null","","null","key","null","16.71538284518824","500","250","pog","337","293","346","2","1","0","0"
"","psychophysics","174","1384143","0.0-174.0","63d80a392c05f6a765d9e63a","64de7c4933b62fbd9bc01060","","","","","6030",""," ","key"," ","16.68036288088652","500","250","pog","354","386","351","2","1","0","0"
"","psychophysics","175","1391390","0.0-175.0","63d80a392c05f6a765d9e63a","64de7c4933b62fbd9bc01060","","","","","7246",""," ","key"," ","16.680563510392897","500","250","pog","326","332","324","2","1","0","0"
"","psychophysics","176","1399390","0.0-176.0","63d80a392c05f6a765d9e63a","64de7c4933b62fbd9bc01060","","","","","null","","null","key","null","16.680486430062587","500","250","pog","350","376","352","2","1","0","0"
"","psychophysics","177","1407392","0.0-177.0","63d80a392c05f6a765d9e63a","64de7c4933b62fbd9bc01060","","","","","null","","null","key","null","16.680441422594484","500","250","pog","368","302","359","2","1","0","0"
"","psychophysics","178","1415393","0.0-178.0","63d80a392c05f6a765d9e63a","64de7c4933b62fbd9bc01060","","","","","null","","null","key","null","16.680551148225828","500","250","pog","316","280","318","2","1","0","0"
"","psychophysics","179","1422816","0.0-179.0","63d80a392c05f6a765d9e63a","64de7c4933b62fbd9bc01060","","","","","7422",""," ","key"," ","16.68037162162154","500","250","pog","306","312","304","2","1","0","0"
"","psychophysics","180","1423705","0.0-180.0","63d80a392c05f6a765d9e63a","64de7c4933b62fbd9bc01060","","","","","888",""," ","key"," ","16.67999999999749","500","250","inst","","","","","","",""
"","psychophysics","181","1430618","0.0-181.0","63d80a392c05f6a765d9e63a","64de7c4933b62fbd9bc01060","","","","","6913",""," ","key"," ","16.721036319612452","500","250","instZol1","0.20000000000000004","-1.3","","","","0","0"
"","psychophysics","182","1439973","0.0-182.0","63d80a392c05f6a765d9e63a","64de7c4933b62fbd9bc01060","","","","","9353",""," ","key"," ","16.680422182468956","500","250","instZol2","0.30000000000000066","2","","1","","0","0"
"","psychophysics","183","1440702","0.0-183.0","63d80a392c05f6a765d9e63a","64de7c4933b62fbd9bc01060","","","","","728",""," ","key"," ","16.68151162790546","500","250","inst","","","","","","",""
"","psychophysics","184","1448703","0.0-184.0","63d80a392c05f6a765d9e63a","64de7c4933b62fbd9bc01060","","","","","null","","null","key","null","16.680427974947904","500","250","zol","0.9099999999999999","-0.61","","1","1","-21","24"
"","psychophysics","185","1456706","0.0-185.0","63d80a392c05f6a765d9e63a","64de7c4933b62fbd9bc01060","","","","","null","","null","key","null","16.715384937238305","500","250","zol","0.8699999999999999","0.23","","1","1","-24","10"
"","psychophysics","186","1464708","0.0-186.0","63d80a392c05f6a765d9e63a","64de7c4933b62fbd9bc01060","","","","","null","","null","key","null","16.715448637316257","500","250","zol","0.8699999999999999","0.03","","1","1","16","-7"
"","psychophysics","187","1472710","0.0-187.0","63d80a392c05f6a765d9e63a","64de7c4933b62fbd9bc01060","","","","","null","","null","key","null","16.68060125260991","500","250","zol","0.8099999999999999","-0.11","","1","1","12","-5"
"","psychophysics","188","1480713","0.0-188.0","63d80a392c05f6a765d9e63a","64de7c4933b62fbd9bc01060","","","","","null","","null","key","null","16.680432150312964","500","250","zol","1.04","-0.74","","1","1","21","-23"
"","psychophysics","189","1488714","0.0-189.0","63d80a392c05f6a765d9e63a","64de7c4933b62fbd9bc01060","","","","","null","","null","key","null","16.6802463465553","500","250","zol","1.3100000000000003","-0.51","","1","1","-10","30"
"","psychophysics","190","1496716","0.0-190.0","63d80a392c05f6a765d9e63a","64de7c4933b62fbd9bc01060","","","","","null","","null","key","null","16.750647058823937","500","250","zol","1.2400000000000002","0.26","","1","1","-3","18"
"","psychophysics","191","1504717","0.0-191.0","63d80a392c05f6a765d9e63a","64de7c4933b62fbd9bc01060","","","","","null","","null","key","null","16.680417536534293","500","250","zol","0.9699999999999999","-0.37","","1","1","22","1"
"","psychophysics","192","1512719","0.0-192.0","63d80a392c05f6a765d9e63a","64de7c4933b62fbd9bc01060","","","","","null","","null","key","null","16.680379958246352","500","250","zol","1.1300000000000001","-0.73","","1","1","-19","-5"
"","psychophysics","193","1520721","0.0-193.0","63d80a392c05f6a765d9e63a","64de7c4933b62fbd9bc01060","","","","","null","","null","key","null","16.680533472803678","500","250","zol","0.7499999999999999","-0.25","","1","1","4","-28"
"","psychophysics","194","1526247","0.0-194.0","63d80a392c05f6a765d9e63a","64de7c4933b62fbd9bc01060","","","","","5521",""," ","key"," ","16.680247734139005","500","250","zol","0.7699999999999999","0.53","","1","1","15","2"
"","psychophysics","195","1534249","0.0-195.0","63d80a392c05f6a765d9e63a","64de7c4933b62fbd9bc01060","","","","","null","","null","key","null","16.750607142857366","500","250","zol","1.11","-0.61","","1","1","-2","12"
"","psychophysics","196","1542250","0.0-196.0","63d80a392c05f6a765d9e63a","64de7c4933b62fbd9bc01060","","","","","null","","null","key","null","16.680392484342494","500","250","zol","0.43000000000000005","0.07","","1","1","-8","-6"
"","psychophysics","197","1545943","0.0-197.0","63d80a392c05f6a765d9e63a","64de7c4933b62fbd9bc01060","","","","","3691",""," ","key"," ","16.680436363636346","500","250","zol","0.44999999999999996","0.15","","1","1","1","-17"
"","psychophysics","198","1548904","0.0-198.0","63d80a392c05f6a765d9e63a","64de7c4933b62fbd9bc01060","","","","","2960",""," ","key"," ","16.77507386363736","500","250","zol","0.6599999999999999","0.14","","1","1","-14","16"
"","psychophysics","199","1549725","0.0-199.0","63d80a392c05f6a765d9e63a","64de7c4933b62fbd9bc01060","","","","","820",""," ","key"," ","16.680833333331975","500","250","inst","","","","","","",""
"","psychophysics","200","1558624","0.0-200.0","63d80a392c05f6a765d9e63a","64de7c4933b62fbd9bc01060","","","","","8899",""," ","key"," ","16.743423728813397","500","250","instPz1","52","25","50","1","","",""
"","psychophysics","201","1564569","0.0-201.0","63d80a392c05f6a765d9e63a","64de7c4933b62fbd9bc01060","","","","","5945",""," ","key"," ","16.72754802259861","500","250","instPz2","22","35","20","1","","",""
"","psychophysics","202","1571225","0.0-202.0","63d80a392c05f6a765d9e63a","64de7c4933b62fbd9bc01060","","","","","6655",""," ","key"," ","16.722579345088313","500","250","instPz3","44","100","30","1","","",""
"","psychophysics","203","1578169","0.0-203.0","63d80a392c05f6a765d9e63a","64de7c4933b62fbd9bc01060","","","","","6943",""," ","key"," ","16.680546987952148","500","250","instPz4","46","100","30","1","","",""
"","psychophysics","204","1579023","0.0-204.0","63d80a392c05f6a765d9e63a","64de7c4933b62fbd9bc01060","","","","","854",""," ","key"," ","16.681568627451163","500","250","inst","","","","","","",""
"","psychophysics","205","1585252","0.0-205.0","63d80a392c05f6a765d9e63a","64de7c4933b62fbd9bc01060","","","","","6228",""," ","key"," ","16.68042473118284","500","250","pz","59","46","43","1","1","",""
"","psychophysics","206","1593253","0.0-206.0","63d80a392c05f6a765d9e63a","64de7c4933b62fbd9bc01060","","","","","null","","null","key","null","16.680478079331987","500","250","pz","47","50","34","1","1","",""
"","psychophysics","207","1601255","0.0-207.0","63d80a392c05f6a765d9e63a","64de7c4933b62fbd9bc01060","","","","","null","","null","key","null","16.715389937106753","500","250","pz","53","44","43","1","1","",""
"","psychophysics","208","1609257","0.0-208.0","63d80a392c05f6a765d9e63a","64de7c4933b62fbd9bc01060","","","","","null","","null","key","null","16.680563674321483","500","250","pz","33","21","25","1","1","",""
"","psychophysics","209","1615917","0.0-209.0","63d80a392c05f6a765d9e63a","64de7c4933b62fbd9bc01060","","","","","6659",""," ","key"," ","16.680462311557847","500","250","pz","35","38","27","1","1","",""
"","psychophysics","210","1621735","0.0-210.0","63d80a392c05f6a765d9e63a","64de7c4933b62fbd9bc01060","","","","","5817",""," ","key"," ","16.680658045976863","500","250","pz","33","49","27","1","1","",""
"","psychophysics","211","1624805","0.0-211.0","63d80a392c05f6a765d9e63a","64de7c4933b62fbd9bc01060","","","","","3069",""," ","key"," ","16.772335164834857","500","250","pz","51","50","43","1","1","",""
"","psychophysics","212","1632806","0.0-212.0","63d80a392c05f6a765d9e63a","64de7c4933b62fbd9bc01060","","","","","null","","null","key","null","16.715435146443763","500","250","pz","57","24","47","1","1","",""
"","psychophysics","213","1640808","0.0-213.0","63d80a392c05f6a765d9e63a","64de7c4933b62fbd9bc01060","","","","","null","","null","key","null","16.750454926624624","500","250","pz","72","45","56","1","1","",""
"","psychophysics","214","1646795","0.0-214.0","63d80a392c05f6a765d9e63a","64de7c4933b62fbd9bc01060","","","","","5986",""," ","key"," ","16.680363128491802","500","250","pz","74","34","56","1","1","",""
"","psychophysics","215","1651995","0.0-215.0","63d80a392c05f6a765d9e63a","64de7c4933b62fbd9bc01060","","","","","5200",""," ","key"," ","16.68051612903214","500","250","pz","35","26","25","1","1","",""
"","psychophysics","216","1659997","0.0-216.0","63d80a392c05f6a765d9e63a","64de7c4933b62fbd9bc01060","","","","","null","","null","key","null","16.68055114822534","500","250","pz","65","23","49","1","1","",""
"","psychophysics","217","1667081","0.0-217.0","63d80a392c05f6a765d9e63a","64de7c4933b62fbd9bc01060","","","","","7083",""," ","key"," ","16.680459905660136","500","250","pz","48","21","36","1","1","",""
"","psychophysics","218","1671816","0.0-218.0","63d80a392c05f6a765d9e63a","64de7c4933b62fbd9bc01060","","","","","4733",""," ","key"," ","16.680303886926044","500","250","pz","42","33","29","1","1","",""
"","psychophysics","219","1679817","0.0-219.0","63d80a392c05f6a765d9e63a","64de7c4933b62fbd9bc01060","","","","","null","","null","key","null","16.680351464435358","500","250","pz","41","24","34","1","1","",""
