"success","trial_type","trial_index","time_elapsed","internal_node_id","pid","sid","timeout","failed_images","failed_audio","failed_video","rt","stimulus","response","response_type","key_press","avg_frame_time","center_x","center_y","task","resp","start","parA","version","block","jitterX","jitterY"
"true","fullscreen","0","3826","0.0-0.0","60d912ea081d95b4faa5ba51","64e50a1bd3849f8e5c5371c9","","","","","","","","","","","","","","","","","","","",""
"true","preload","1","3974","0.0-1.0","60d912ea081d95b4faa5ba51","64e50a1bd3849f8e5c5371c9","false","[]","[]","[]","","","","","","","","","","","","","","","",""
"","html-button-response","2","6352","0.0-2.0","60d912ea081d95b4faa5ba51","64e50a1bd3849f8e5c5371c9","","","","","2376","Please Make Sure Your Audio Is On.","0","","","","","","","","","","","","",""
"","psychophysics","3","25713","0.0-3.0","60d912ea081d95b4faa5ba51","64e50a1bd3849f8e5c5371c9","","","","","19350",""," ","key"," ","17.008813708260107","960","250","","","","","","","",""
"","psychophysics","4","31491","0.0-4.0","60d912ea081d95b4faa5ba51","64e50a1bd3849f8e5c5371c9","","","","","5763",""," ","key"," ","16.67192196531791","500","250","inst","","","","","","",""
"","psychophysics","5","35756","0.0-5.0","60d912ea081d95b4faa5ba51","64e50a1bd3849f8e5c5371c9","","","","","4250",""," ","key"," ","16.67186274509803","500","250","sample0","","","","","","",""
"","psychophysics","6","38700","0.0-6.0","60d912ea081d95b4faa5ba51","64e50a1bd3849f8e5c5371c9","","","","","2942",""," ","key"," ","16.863563218390816","500","250","sample1","","","","","","",""
"","psychophysics","7","47891","0.0-7.0","60d912ea081d95b4faa5ba51","64e50a1bd3849f8e5c5371c9","","","","","9187",""," ","key"," ","16.67184727272728","500","250","sample2","100","","","","","",""
"","psychophysics","8","52483","0.0-8.0","60d912ea081d95b4faa5ba51","64e50a1bd3849f8e5c5371c9","","","","","4588",""," ","key"," ","16.671835766423353","500","250","sample3","100","","","","","",""
"","psychophysics","9","57619","0.0-9.0","60d912ea081d95b4faa5ba51","64e50a1bd3849f8e5c5371c9","","","","","5128",""," ","key"," ","16.67191530944625","500","250","sample4","100","","","","","",""
"","psychophysics","10","61531","0.0-10.0","60d912ea081d95b4faa5ba51","64e50a1bd3849f8e5c5371c9","","","","","3902",""," ","key"," ","16.671871794871798","500","250","sample5","","","","","","",""
"","psychophysics","11","67003","0.0-11.0","60d912ea081d95b4faa5ba51","64e50a1bd3849f8e5c5371c9","","","","","5469",""," ","key"," ","16.67186238532108","500","250","sample6","500","","","","","",""
"","psychophysics","12","71323","0.0-12.0","60d912ea081d95b4faa5ba51","64e50a1bd3849f8e5c5371c9","","","","","4311",""," ","key"," ","16.671922480620154","500","250","inst","","","","","","",""
"","psychophysics","13","75906","0.0-13.0","60d912ea081d95b4faa5ba51","64e50a1bd3849f8e5c5371c9","","","","","4575",""," ","key"," ","16.671697080291963","500","250","inst","","","","","","",""
"","psychophysics","14","79755","0.0-14.0","60d912ea081d95b4faa5ba51","64e50a1bd3849f8e5c5371c9","","","","","3848",""," ","key"," ","16.671986956521742","500","250","inst","","","","","","",""
"","psychophysics","15","82051","0.0-15.0","60d912ea081d95b4faa5ba51","64e50a1bd3849f8e5c5371c9","","","","","2294",""," ","key"," ","16.671781021897807","500","250","inst","","","","","","",""
"","psychophysics","16","83939","0.0-16.0","60d912ea081d95b4faa5ba51","64e50a1bd3849f8e5c5371c9","","","","","1885",""," ","key"," ","16.67199107142863","500","250","inst","","","","","","",""
"","psychophysics","17","87042","0.0-17.0","60d912ea081d95b4faa5ba51","64e50a1bd3849f8e5c5371c9","","","","","3100",""," ","key"," ","16.671783783783777","500","250","instPzPre","50","50","50","0","","",""
"","psychophysics","18","90651","0.0-18.0","60d912ea081d95b4faa5ba51","64e50a1bd3849f8e5c5371c9","","","","","3598",""," ","key"," ","16.671833333333307","500","250","instPz0","46","50","50","1","","",""
"","psychophysics","19","101131","0.0-19.0","60d912ea081d95b4faa5ba51","64e50a1bd3849f8e5c5371c9","","","","","10477",""," ","key"," ","16.671867623604463","500","250","instPz1","50","25","50","1","","",""
"","psychophysics","20","108026","0.0-20.0","60d912ea081d95b4faa5ba51","64e50a1bd3849f8e5c5371c9","","","","","6887",""," ","key"," ","16.752987834549884","500","250","instPz2","22","35","20","1","","",""
"","psychophysics","21","124787","0.0-21.0","60d912ea081d95b4faa5ba51","64e50a1bd3849f8e5c5371c9","","","","","16754",""," ","key"," ","16.805791164658633","500","250","instPz3","38","100","30","1","","",""
"","psychophysics","22","135507","0.0-22.0","60d912ea081d95b4faa5ba51","64e50a1bd3849f8e5c5371c9","","","","","10711",""," ","key"," ","16.67185669781933","500","250","instPz4","38","100","30","1","","",""
"","psychophysics","23","139298","0.0-23.0","60d912ea081d95b4faa5ba51","64e50a1bd3849f8e5c5371c9","","","","","3788",""," ","key"," ","16.671616740088083","500","250","inst","","","","","","",""
"","psychophysics","24","144299","0.0-24.0","60d912ea081d95b4faa5ba51","64e50a1bd3849f8e5c5371c9","","","","","4999",""," ","key"," ","16.728040268456393","500","250","pz","47","23","41","1","0","",""
"","psychophysics","25","151162","0.0-25.0","60d912ea081d95b4faa5ba51","64e50a1bd3849f8e5c5371c9","","","","","6859",""," ","key"," ","16.671824390243913","500","250","pz","42","22","38","1","0","",""
"","psychophysics","26","156778","0.0-26.0","60d912ea081d95b4faa5ba51","64e50a1bd3849f8e5c5371c9","","","","","5607",""," ","key"," ","16.671949404761886","500","250","pz","44","25","38","1","0","",""
"","psychophysics","27","161258","0.0-27.0","60d912ea081d95b4faa5ba51","64e50a1bd3849f8e5c5371c9","","","","","4452",""," ","key"," ","16.671884328358107","500","250","pz","64","20","56","1","0","",""
"","psychophysics","28","168146","0.0-28.0","60d912ea081d95b4faa5ba51","64e50a1bd3849f8e5c5371c9","","","","","6883",""," ","key"," ","16.671985436893223","500","250","pz","36","59","32","1","0","",""
"","psychophysics","29","172171","0.0-29.0","60d912ea081d95b4faa5ba51","64e50a1bd3849f8e5c5371c9","","","","","4019",""," ","key"," ","16.671887499999986","500","250","pz","52","32","46","1","0","",""
"","psychophysics","30","177635","0.0-30.0","60d912ea081d95b4faa5ba51","64e50a1bd3849f8e5c5371c9","","","","","5454",""," ","key"," ","16.671834862385328","500","250","pz","26","47","21","1","0","",""
"","psychophysics","31","181515","0.0-31.0","60d912ea081d95b4faa5ba51","64e50a1bd3849f8e5c5371c9","","","","","3876",""," ","key"," ","16.671922413793098","500","250","pz","29","53","26","1","0","",""
"","psychophysics","32","184683","0.0-32.0","60d912ea081d95b4faa5ba51","64e50a1bd3849f8e5c5371c9","","","","","3163",""," ","key"," ","16.671693121693185","500","250","pz","53","31","43","1","0","",""
"","psychophysics","33","188139","0.0-33.0","60d912ea081d95b4faa5ba51","64e50a1bd3849f8e5c5371c9","","","","","3452",""," ","key"," ","18.365935828876967","500","250","pz","48","40","43","1","0","",""
"","psychophysics","34","192365","0.0-34.0","60d912ea081d95b4faa5ba51","64e50a1bd3849f8e5c5371c9","","","","","4222",""," ","key"," ","16.738051587301594","500","250","pz","40","56","35","1","0","",""
"","psychophysics","35","198196","0.0-35.0","60d912ea081d95b4faa5ba51","64e50a1bd3849f8e5c5371c9","","","","","5826",""," ","key"," ","16.71990489913545","500","250","pz","47","21","41","1","0","",""
"","psychophysics","36","201931","0.0-36.0","60d912ea081d95b4faa5ba51","64e50a1bd3849f8e5c5371c9","","","","","3727",""," ","key"," ","16.671811659192883","500","250","pz","29","32","25","1","0","",""
"","psychophysics","37","204331","0.0-37.0","60d912ea081d95b4faa5ba51","64e50a1bd3849f8e5c5371c9","","","","","2391",""," ","key"," ","16.67192307692302","500","250","pz","41","41","34","1","0","",""
"","psychophysics","38","209379","0.0-38.0","60d912ea081d95b4faa5ba51","64e50a1bd3849f8e5c5371c9","","","","","5040",""," ","key"," ","16.67182781456951","500","250","pz","70","29","56","1","0","",""
"","psychophysics","39","211507","0.0-39.0","60d912ea081d95b4faa5ba51","64e50a1bd3849f8e5c5371c9","","","","","2125",""," ","key"," ","16.804285714285918","500","250","inst","","","","","","",""
"","psychophysics","40","215667","0.0-40.0","60d912ea081d95b4faa5ba51","64e50a1bd3849f8e5c5371c9","","","","","4157",""," ","key"," ","17.01493004115225","500","250","instZol0","-0.1","0","","","","0","0"
"","psychophysics","41","226763","0.0-41.0","60d912ea081d95b4faa5ba51","64e50a1bd3849f8e5c5371c9","","","","","11089",""," ","key"," ","16.67187819548872","500","250","instZol1","2.7755575615628914e-17","-1.3","","","","0","0"
"","psychophysics","42","247242","0.0-42.0","60d912ea081d95b4faa5ba51","64e50a1bd3849f8e5c5371c9","","","","","20472",""," ","key"," ","16.685421696574217","500","250","instZol2","-1.5999999999999996","2","","2","","0","0"
"","psychophysics","43","248938","0.0-43.0","60d912ea081d95b4faa5ba51","64e50a1bd3849f8e5c5371c9","","","","","1695",""," ","key"," ","16.672158415841647","500","250","inst","","","","","","",""
"","psychophysics","44","256946","0.0-44.0","60d912ea081d95b4faa5ba51","64e50a1bd3849f8e5c5371c9","","","","","null","","null","key","null","16.883369978858358","500","250","zol","-0.71","-0.49","","2","0","-28","-9"
"","psychophysics","45","261202","0.0-45.0","60d912ea081d95b4faa5ba51","64e50a1bd3849f8e5c5371c9","","","","","4243",""," ","key"," ","16.803490118577173","500","250","zol","-1.4400000000000004","0.54","","2","0","-26","2"
"","psychophysics","46","264298","0.0-46.0","60d912ea081d95b4faa5ba51","64e50a1bd3849f8e5c5371c9","","","","","3093",""," ","key"," ","16.855412087911915","500","250","zol","-0.63","0.33","","2","0","-5","-15"
"","psychophysics","47","268482","0.0-47.0","60d912ea081d95b4faa5ba51","64e50a1bd3849f8e5c5371c9","","","","","4174",""," ","key"," ","16.738795180722743","500","250","zol","-1.4300000000000004","0.63","","2","0","-23","-17"
"","psychophysics","48","274546","0.0-48.0","60d912ea081d95b4faa5ba51","64e50a1bd3849f8e5c5371c9","","","","","6054",""," ","key"," ","16.67191460055104","500","250","zol","-1.6600000000000004","-0.24","","2","0","3","-17"
"","psychophysics","49","280498","0.0-49.0","60d912ea081d95b4faa5ba51","64e50a1bd3849f8e5c5371c9","","","","","5941",""," ","key"," ","16.671867977528084","500","250","zol","-1.2200000000000002","0.52","","2","0","29","13"
"","psychophysics","50","284794","0.0-50.0","60d912ea081d95b4faa5ba51","64e50a1bd3849f8e5c5371c9","","","","","4283",""," ","key"," ","16.671906614785964","500","250","zol","-1.2200000000000002","0.52","","2","0","18","3"
"","psychophysics","51","291602","0.0-51.0","60d912ea081d95b4faa5ba51","64e50a1bd3849f8e5c5371c9","","","","","6800",""," ","key"," ","16.67188943488937","500","250","zol","-0.6499999999999999","-0.25","","2","0","25","-19"
"","psychophysics","52","297011","0.0-52.0","60d912ea081d95b4faa5ba51","64e50a1bd3849f8e5c5371c9","","","","","5397",""," ","key"," ","16.671826625387","500","250","zol","-0.73","-0.17","","2","0","12","28"
"","psychophysics","53","305027","0.0-53.0","60d912ea081d95b4faa5ba51","64e50a1bd3849f8e5c5371c9","","","","","null","","null","key","null","16.671906250000028","500","250","zol","-2.7755575615628914e-17","0.1","","2","0","-26","12"
"","psychophysics","54","307203","0.0-54.0","60d912ea081d95b4faa5ba51","64e50a1bd3849f8e5c5371c9","","","","","2161",""," ","key"," ","16.671907692307677","500","250","zol","-0.010000000000000009","-0.09","","2","0","0","25"
"","psychophysics","55","313485","0.0-55.0","60d912ea081d95b4faa5ba51","64e50a1bd3849f8e5c5371c9","","","","","6272",""," ","key"," ","16.671893617021233","500","250","zol","-0.049999999999999906","-0.75","","2","0","18","21"
"","psychophysics","56","317715","0.0-56.0","60d912ea081d95b4faa5ba51","64e50a1bd3849f8e5c5371c9","","","","","4222",""," ","key"," ","16.805316000000108","500","250","zol","-0.030000000000000054","0.63","","2","0","14","-10"
"","psychophysics","57","320619","0.0-57.0","60d912ea081d95b4faa5ba51","64e50a1bd3849f8e5c5371c9","","","","","2892",""," ","key"," ","16.76911627906977","500","250","zol","0.01999999999999999","-0.12","","2","0","20","6"
"","psychophysics","58","325883","0.0-58.0","60d912ea081d95b4faa5ba51","64e50a1bd3849f8e5c5371c9","","","","","5254",""," ","key"," ","16.671685714285733","500","250","zol","-0.39","0.39","","2","0","-20","30"
"","psychophysics","59","327091","0.0-59.0","60d912ea081d95b4faa5ba51","64e50a1bd3849f8e5c5371c9","","","","","1206",""," ","key"," ","16.67208333333353","500","250","inst","","","","","","",""
"","psychophysics","60","334475","0.0-60.0","60d912ea081d95b4faa5ba51","64e50a1bd3849f8e5c5371c9","","","","","7381",""," ","key"," ","16.671859728506785","500","250","instPog0","340","370","340","2","","0","0"
"","psychophysics","61","345396","0.0-61.0","60d912ea081d95b4faa5ba51","64e50a1bd3849f8e5c5371c9","","","","","10917",""," ","key"," ","16.67179816513766","500","250","instPog1","346","370","340","2","","0","0"
"","psychophysics","62","354490","0.0-62.0","60d912ea081d95b4faa5ba51","64e50a1bd3849f8e5c5371c9","","","","","9091",""," ","key"," ","16.702657458563547","500","250","instPog2","320","340","340","2","","0","0"
"","psychophysics","63","355586","0.0-63.0","60d912ea081d95b4faa5ba51","64e50a1bd3849f8e5c5371c9","","","","","1094",""," ","key"," ","16.671799999999347","500","250","inst","","","","","","",""
"","psychophysics","64","359547","0.0-64.0","60d912ea081d95b4faa5ba51","64e50a1bd3849f8e5c5371c9","","","","","3956",""," ","key"," ","16.671927966101745","500","250","pog","294","386","319","2","0","0","0"
"","psychophysics","65","362555","0.0-65.0","60d912ea081d95b4faa5ba51","64e50a1bd3849f8e5c5371c9","","","","","3001",""," ","key"," ","16.671833333333293","500","250","pog","317","309","349","2","0","0","0"
"","psychophysics","66","366947","0.0-66.0","60d912ea081d95b4faa5ba51","64e50a1bd3849f8e5c5371c9","","","","","4388",""," ","key"," ","16.735812260536477","500","250","pog","300","362","319","2","0","0","0"
"","psychophysics","67","371331","0.0-67.0","60d912ea081d95b4faa5ba51","64e50a1bd3849f8e5c5371c9","","","","","4377",""," ","key"," ","16.67190458015263","500","250","pog","342","292","378","2","0","0","0"
"","psychophysics","68","374995","0.0-68.0","60d912ea081d95b4faa5ba51","64e50a1bd3849f8e5c5371c9","","","","","3656",""," ","key"," ","16.67189954337903","500","250","pog","305","391","331","2","0","0","0"
"","psychophysics","69","378282","0.0-69.0","60d912ea081d95b4faa5ba51","64e50a1bd3849f8e5c5371c9","","","","","3284",""," ","key"," ","16.6718418367349","500","250","pog","285","351","314","2","0","0","0"
"","psychophysics","70","382115","0.0-70.0","60d912ea081d95b4faa5ba51","64e50a1bd3849f8e5c5371c9","","","","","3828",""," ","key"," ","16.671851528384245","500","250","pog","269","371","304","2","0","0","0"
"","psychophysics","71","384891","0.0-71.0","60d912ea081d95b4faa5ba51","64e50a1bd3849f8e5c5371c9","","","","","2772",""," ","key"," ","16.671831325301408","500","250","pog","281","315","315","2","0","0","0"
"","psychophysics","72","386267","0.0-72.0","60d912ea081d95b4faa5ba51","64e50a1bd3849f8e5c5371c9","","","","","1372",""," ","key"," ","16.671432098765415","500","250","pog","362","362","378","2","0","0","0"
"","psychophysics","73","390163","0.0-73.0","60d912ea081d95b4faa5ba51","64e50a1bd3849f8e5c5371c9","","","","","3893",""," ","key"," ","16.671939914162987","500","250","pog","314","330","332","2","0","0","0"
"","psychophysics","74","394322","0.0-74.0","60d912ea081d95b4faa5ba51","64e50a1bd3849f8e5c5371c9","","","","","4156",""," ","key"," ","16.671870967741743","500","250","pog","300","330","321","2","0","0","0"
"","psychophysics","75","397491","0.0-75.0","60d912ea081d95b4faa5ba51","64e50a1bd3849f8e5c5371c9","","","","","3160",""," ","key"," ","16.671936507936426","500","250","pog","320","354","354","2","0","0","0"
"","psychophysics","76","401251","0.0-76.0","60d912ea081d95b4faa5ba51","64e50a1bd3849f8e5c5371c9","","","","","3754",""," ","key"," ","16.671706666666754","500","250","pog","306","354","324","2","0","0","0"
"","psychophysics","77","403435","0.0-77.0","60d912ea081d95b4faa5ba51","64e50a1bd3849f8e5c5371c9","","","","","2180",""," ","key"," ","16.671992307692282","500","250","pog","317","331","348","2","0","0","0"
"","psychophysics","78","407939","0.0-78.0","60d912ea081d95b4faa5ba51","64e50a1bd3849f8e5c5371c9","","","","","4501",""," ","key"," ","16.67186245353149","500","250","pog","277","387","306","2","0","0","0"
"","psychophysics","79","408818","0.0-79.0","60d912ea081d95b4faa5ba51","64e50a1bd3849f8e5c5371c9","","","","","877",""," ","key"," ","16.672057692307416","500","250","inst","","","","","","",""
"","psychophysics","80","411979","0.0-80.0","60d912ea081d95b4faa5ba51","64e50a1bd3849f8e5c5371c9","","","","","3156",""," ","key"," ","16.76107486631014","500","250","instBr0","0","0","300","","","0","0"
"","psychophysics","81","417290","0.0-81.0","60d912ea081d95b4faa5ba51","64e50a1bd3849f8e5c5371c9","","","","","5303",""," ","key"," ","16.67186792452824","500","250","instBr1","4","-40","300","","","0","0"
"","psychophysics","82","424658","0.0-82.0","60d912ea081d95b4faa5ba51","64e50a1bd3849f8e5c5371c9","","","","","7365",""," ","key"," ","16.671850340135972","500","250","instBr3","-18","40","300","1","","0","0"
"","psychophysics","83","425851","0.0-83.0","60d912ea081d95b4faa5ba51","64e50a1bd3849f8e5c5371c9","","","","","1190",""," ","key"," ","16.67189999999994","500","250","inst","","","","","","",""
"","psychophysics","84","430203","0.0-84.0","60d912ea081d95b4faa5ba51","64e50a1bd3849f8e5c5371c9","","","","","4344",""," ","key"," ","16.671919230769316","500","250","br","-19","4","280","1","0","-22","-6"
"","psychophysics","85","434858","0.0-85.0","60d912ea081d95b4faa5ba51","64e50a1bd3849f8e5c5371c9","","","","","4647",""," ","key"," ","16.671792114695315","500","250","br","-15","14","224","1","0","23","-6"
"","psychophysics","86","438234","0.0-86.0","60d912ea081d95b4faa5ba51","64e50a1bd3849f8e5c5371c9","","","","","3371",""," ","key"," ","16.671890547263622","500","250","br","-19","-19","275","1","0","13","-3"
"","psychophysics","87","441842","0.0-87.0","60d912ea081d95b4faa5ba51","64e50a1bd3849f8e5c5371c9","","","","","3606",""," ","key"," ","16.67189814814817","500","250","br","-19","-4","280","1","0","-26","12"
"","psychophysics","88","446450","0.0-88.0","60d912ea081d95b4faa5ba51","64e50a1bd3849f8e5c5371c9","","","","","4605",""," ","key"," ","16.855709558823627","500","250","br","-13","21","270","1","0","21","-4"
"","psychophysics","89","451098","0.0-89.0","60d912ea081d95b4faa5ba51","64e50a1bd3849f8e5c5371c9","","","","","4647",""," ","key"," ","17.039676470588294","500","250","br","-16","19","201","1","0","-24","10"
"","psychophysics","90","454610","0.0-90.0","60d912ea081d95b4faa5ba51","64e50a1bd3849f8e5c5371c9","","","","","3508",""," ","key"," ","16.751483253588507","500","250","br","-20","-2","272","1","0","27","29"
"","psychophysics","91","457434","0.0-91.0","60d912ea081d95b4faa5ba51","64e50a1bd3849f8e5c5371c9","","","","","2822",""," ","key"," ","16.672107142857083","500","250","br","-17","-19","243","1","0","18","-6"
"","psychophysics","92","462610","0.0-92.0","60d912ea081d95b4faa5ba51","64e50a1bd3849f8e5c5371c9","","","","","5172",""," ","key"," ","16.671886731391623","500","250","br","-14","-2","238","1","0","23","-6"
"","psychophysics","93","465706","0.0-93.0","60d912ea081d95b4faa5ba51","64e50a1bd3849f8e5c5371c9","","","","","3088",""," ","key"," ","16.671870270270123","500","250","br","-16","-8","272","1","0","-14","13"
"","psychophysics","94","467042","0.0-94.0","60d912ea081d95b4faa5ba51","64e50a1bd3849f8e5c5371c9","","","","","1332",""," ","key"," ","16.671784810126535","500","250","br","-27","-27","282","1","0","-15","5"
"","psychophysics","95","470034","0.0-95.0","60d912ea081d95b4faa5ba51","64e50a1bd3849f8e5c5371c9","","","","","2988",""," ","key"," ","16.671977653631203","500","250","br","-19","-25","234","1","0","-29","20"
"","psychophysics","96","472083","0.0-96.0","60d912ea081d95b4faa5ba51","64e50a1bd3849f8e5c5371c9","","","","","2044",""," ","key"," ","16.67187603305754","500","250","br","-19","-25","226","1","0","22","20"
"","psychophysics","97","476290","0.0-97.0","60d912ea081d95b4faa5ba51","64e50a1bd3849f8e5c5371c9","","","","","4201",""," ","key"," ","16.671888888888855","500","250","br","-17","-4","233","1","0","18","-22"
"","psychophysics","98","478970","0.0-98.0","60d912ea081d95b4faa5ba51","64e50a1bd3849f8e5c5371c9","","","","","2676",""," ","key"," ","16.671893750000162","500","250","br","-15","5","201","1","0","-27","9"
"","psychophysics","99","479930","0.0-99.0","60d912ea081d95b4faa5ba51","64e50a1bd3849f8e5c5371c9","","","","","956",""," ","key"," ","16.67182142857096","500","250","inst","","","","","","",""
"","psychophysics","100","482314","0.0-100.0","60d912ea081d95b4faa5ba51","64e50a1bd3849f8e5c5371c9","","","","","2381",""," ","key"," ","16.67208450704216","500","250","instEB0","40","40","40","2","","0","0"
"","psychophysics","101","488546","0.0-101.0","60d912ea081d95b4faa5ba51","64e50a1bd3849f8e5c5371c9","","","","","6229",""," ","key"," ","16.671873994638062","500","250","instEB1","39","30","40","2","","0","0"
"","psychophysics","102","493202","0.0-102.0","60d912ea081d95b4faa5ba51","64e50a1bd3849f8e5c5371c9","","","","","4652",""," ","key"," ","16.671848920863432","500","250","instEB2","32","40","30","2","","0","0"
"","psychophysics","103","501722","0.0-103.0","60d912ea081d95b4faa5ba51","64e50a1bd3849f8e5c5371c9","","","","","8511",""," ","key"," ","16.671890196078525","500","250","instEB3","31","45","27","2","","0","0"
"","psychophysics","104","505827","0.0-104.0","60d912ea081d95b4faa5ba51","64e50a1bd3849f8e5c5371c9","","","","","4096",""," ","key"," ","16.671885714285807","500","250","instEB4","52","30","40","2","","0","0"
"","psychophysics","105","506586","0.0-105.0","60d912ea081d95b4faa5ba51","64e50a1bd3849f8e5c5371c9","","","","","754",""," ","key"," ","16.67171111111141","500","250","inst","","","","","","",""
"","psychophysics","106","510690","0.0-106.0","60d912ea081d95b4faa5ba51","64e50a1bd3849f8e5c5371c9","","","","","4099",""," ","key"," ","16.671885714285807","500","250","eb","38","51","30","2","","0","0"
"","psychophysics","107","516250","0.0-107.0","60d912ea081d95b4faa5ba51","64e50a1bd3849f8e5c5371c9","","","","","5551",""," ","key"," ","16.67186486486495","500","250","eb","44","32","35","2","","0","0"
"","psychophysics","108","520722","0.0-108.0","60d912ea081d95b4faa5ba51","64e50a1bd3849f8e5c5371c9","","","","","4466",""," ","key"," ","16.671853932584305","500","250","eb","46","35","35","2","","0","0"
"","psychophysics","109","523890","0.0-109.0","60d912ea081d95b4faa5ba51","64e50a1bd3849f8e5c5371c9","","","","","3161",""," ","key"," ","16.67183597883574","500","250","eb","34","33","29","2","","0","0"
"","psychophysics","110","530946","0.0-110.0","60d912ea081d95b4faa5ba51","64e50a1bd3849f8e5c5371c9","","","","","7050",""," ","key"," ","16.67188625592436","500","250","eb","45","32","37","2","","0","0"
"","psychophysics","111","534058","0.0-111.0","60d912ea081d95b4faa5ba51","64e50a1bd3849f8e5c5371c9","","","","","3104",""," ","key"," ","16.671892473118014","500","250","eb","42","24","36","2","","0","0"
"","psychophysics","112","538914","0.0-112.0","60d912ea081d95b4faa5ba51","64e50a1bd3849f8e5c5371c9","","","","","4852",""," ","key"," ","16.671744827586146","500","250","eb","54","50","49","2","","0","0"
"","psychophysics","113","542124","0.0-113.0","60d912ea081d95b4faa5ba51","64e50a1bd3849f8e5c5371c9","","","","","3201",""," ","key"," ","16.671885416666555","500","250","eb","30","44","27","2","","0","0"
"","psychophysics","114","545066","0.0-114.0","60d912ea081d95b4faa5ba51","64e50a1bd3849f8e5c5371c9","","","","","2937",""," ","key"," ","16.671817142856973","500","250","eb","54","53","45","2","","0","0"
"","psychophysics","115","548908","0.0-115.0","60d912ea081d95b4faa5ba51","64e50a1bd3849f8e5c5371c9","","","","","3837",""," ","key"," ","16.671895652173756","500","250","eb","25","33","24","2","","0","0"
"","psychophysics","116","552794","0.0-116.0","60d912ea081d95b4faa5ba51","64e50a1bd3849f8e5c5371c9","","","","","3881",""," ","key"," ","16.671922413792846","500","250","eb","52","34","40","2","","0","0"
"","psychophysics","117","557946","0.0-117.0","60d912ea081d95b4faa5ba51","64e50a1bd3849f8e5c5371c9","","","","","5145",""," ","key"," ","16.671853896103837","500","250","eb","62","28","52","2","","0","0"
"","psychophysics","118","561627","0.0-118.0","60d912ea081d95b4faa5ba51","64e50a1bd3849f8e5c5371c9","","","","","3675",""," ","key"," ","16.671872146118787","500","250","eb","59","44","50","2","","0","0"
"","psychophysics","119","564570","0.0-119.0","60d912ea081d95b4faa5ba51","64e50a1bd3849f8e5c5371c9","","","","","2934",""," ","key"," ","16.671886363636244","500","250","eb","61","52","53","2","","0","0"
"","psychophysics","120","568066","0.0-120.0","60d912ea081d95b4faa5ba51","64e50a1bd3849f8e5c5371c9","","","","","3492",""," ","key"," ","16.67202392344488","500","250","eb","31","34","28","2","","0","0"
"","psychophysics","121","569034","0.0-121.0","60d912ea081d95b4faa5ba51","64e50a1bd3849f8e5c5371c9","","","","","965",""," ","key"," ","16.672000000000065","500","250","inst","","","","","","",""
"","psychophysics","122","578858","0.0-122.0","60d912ea081d95b4faa5ba51","64e50a1bd3849f8e5c5371c9","","","","","9821",""," ","key"," ","16.671874149659725","500","250","instEB1","31","40","30","1","","0","0"
"","psychophysics","123","584554","0.0-123.0","60d912ea081d95b4faa5ba51","64e50a1bd3849f8e5c5371c9","","","","","5692",""," ","key"," ","16.671850439882768","500","250","instEB2","41","30","40","1","","0","0"
"","psychophysics","124","589114","0.0-124.0","60d912ea081d95b4faa5ba51","64e50a1bd3849f8e5c5371c9","","","","","4556",""," ","key"," ","16.67185294117628","500","250","instEB3","40","27","45","1","","0","0"
"","psychophysics","125","593218","0.0-125.0","60d912ea081d95b4faa5ba51","64e50a1bd3849f8e5c5371c9","","","","","4096",""," ","key"," ","16.67187755102035","500","250","instEB4","28","40","30","1","","0","0"
"","psychophysics","126","594074","0.0-126.0","60d912ea081d95b4faa5ba51","64e50a1bd3849f8e5c5371c9","","","","","849",""," ","key"," ","16.671980392158158","500","250","inst","","","","","","",""
"","psychophysics","127","597498","0.0-127.0","60d912ea081d95b4faa5ba51","64e50a1bd3849f8e5c5371c9","","","","","3419",""," ","key"," ","16.671975490196","500","250","eb","31","36","33","1","","0","0"
"","psychophysics","128","601162","0.0-128.0","60d912ea081d95b4faa5ba51","64e50a1bd3849f8e5c5371c9","","","","","3660",""," ","key"," ","16.671821917808025","500","250","eb","26","36","28","1","","0","0"
"","psychophysics","129","604876","0.0-129.0","60d912ea081d95b4faa5ba51","64e50a1bd3849f8e5c5371c9","","","","","3709",""," ","key"," ","16.671950450450232","500","250","eb","42","43","49","1","","0","0"
"","psychophysics","130","608234","0.0-130.0","60d912ea081d95b4faa5ba51","64e50a1bd3849f8e5c5371c9","","","","","3353",""," ","key"," ","16.671680000000052","500","250","eb","42","39","50","1","","0","0"
"","psychophysics","131","613987","0.0-131.0","60d912ea081d95b4faa5ba51","64e50a1bd3849f8e5c5371c9","","","","","5750",""," ","key"," ","16.671886627907192","500","250","eb","26","42","27","1","","0","0"
"","psychophysics","132","617706","0.0-132.0","60d912ea081d95b4faa5ba51","64e50a1bd3849f8e5c5371c9","","","","","3715",""," ","key"," ","16.671936936937126","500","250","eb","42","29","49","1","","0","0"
"","psychophysics","133","621826","0.0-133.0","60d912ea081d95b4faa5ba51","64e50a1bd3849f8e5c5371c9","","","","","4110",""," ","key"," ","16.67183333333313","500","250","eb","38","53","41","1","","0","0"
"","psychophysics","134","626562","0.0-134.0","60d912ea081d95b4faa5ba51","64e50a1bd3849f8e5c5371c9","","","","","4727",""," ","key"," ","17.094706521739433","500","250","eb","51","38","53","1","","0","0"
"","psychophysics","135","630834","0.0-135.0","60d912ea081d95b4faa5ba51","64e50a1bd3849f8e5c5371c9","","","","","4262",""," ","key"," ","16.67178515625028","500","250","eb","38","24","45","1","","0","0"
"","psychophysics","136","633226","0.0-136.0","60d912ea081d95b4faa5ba51","64e50a1bd3849f8e5c5371c9","","","","","2387",""," ","key"," ","16.67185915492944","500","250","eb","26","25","26","1","","0","0"
"","psychophysics","137","637610","0.0-137.0","60d912ea081d95b4faa5ba51","64e50a1bd3849f8e5c5371c9","","","","","4380",""," ","key"," ","16.671862595420034","500","250","eb","27","48","29","1","","0","0"
"","psychophysics","138","640290","0.0-138.0","60d912ea081d95b4faa5ba51","64e50a1bd3849f8e5c5371c9","","","","","2675",""," ","key"," ","16.671824999999806","500","250","eb","25","41","27","1","","0","0"
"","psychophysics","139","643114","0.0-139.0","60d912ea081d95b4faa5ba51","64e50a1bd3849f8e5c5371c9","","","","","2821",""," ","key"," ","16.67193452380958","500","250","eb","27","37","29","1","","0","0"
"","psychophysics","140","646834","0.0-140.0","60d912ea081d95b4faa5ba51","64e50a1bd3849f8e5c5371c9","","","","","3712",""," ","key"," ","16.671860360360583","500","250","eb","27","46","26","1","","0","0"
"","psychophysics","141","650882","0.0-141.0","60d912ea081d95b4faa5ba51","64e50a1bd3849f8e5c5371c9","","","","","4036",""," ","key"," ","16.671847107438253","500","250","eb","48","53","54","1","","0","0"
"","psychophysics","142","651714","0.0-142.0","60d912ea081d95b4faa5ba51","64e50a1bd3849f8e5c5371c9","","","","","829",""," ","key"," ","16.67108163265369","500","250","inst","","","","","","",""
"","psychophysics","143","657651","0.0-143.0","60d912ea081d95b4faa5ba51","64e50a1bd3849f8e5c5371c9","","","","","5933",""," ","key"," ","16.76645609065158","500","250","instPog0","160","190","160","1","","0","0"
"","psychophysics","144","659844","0.0-144.0","60d912ea081d95b4faa5ba51","64e50a1bd3849f8e5c5371c9","","","","","2191",""," ","key"," ","16.671587786259565","500","250","instPog1","182","190","160","1","","0","0"
"","psychophysics","145","662707","0.0-145.0","60d912ea081d95b4faa5ba51","64e50a1bd3849f8e5c5371c9","","","","","2860",""," ","key"," ","16.671847058823744","500","250","instPog2","182","160","160","1","","0","0"
"","psychophysics","146","663963","0.0-146.0","60d912ea081d95b4faa5ba51","64e50a1bd3849f8e5c5371c9","","","","","1249",""," ","key"," ","16.672013333334277","500","250","inst","","","","","","",""
"","psychophysics","147","666291","0.0-147.0","60d912ea081d95b4faa5ba51","64e50a1bd3849f8e5c5371c9","","","","","2324",""," ","key"," ","16.67177536231938","500","250","pog","185","183","155","1","1","0","0"
"","psychophysics","148","668883","0.0-148.0","60d912ea081d95b4faa5ba51","64e50a1bd3849f8e5c5371c9","","","","","2584",""," ","key"," ","16.671851612903147","500","250","pog","226","210","200","1","1","0","0"
"","psychophysics","149","671906","0.0-149.0","60d912ea081d95b4faa5ba51","64e50a1bd3849f8e5c5371c9","","","","","3020",""," ","key"," ","16.671866666666595","500","250","pog","200","164","183","1","1","0","0"
"","psychophysics","150","674563","0.0-150.0","60d912ea081d95b4faa5ba51","64e50a1bd3849f8e5c5371c9","","","","","2655",""," ","key"," ","16.671402515723436","500","250","pog","220","192","196","1","1","0","0"
"","psychophysics","151","678810","0.0-151.0","60d912ea081d95b4faa5ba51","64e50a1bd3849f8e5c5371c9","","","","","4245",""," ","key"," ","16.671881422924574","500","250","pog","207","105","182","1","1","0","0"
"","psychophysics","152","680602","0.0-152.0","60d912ea081d95b4faa5ba51","64e50a1bd3849f8e5c5371c9","","","","","1791",""," ","key"," ","16.82912264150932","500","250","pog","164","160","155","1","1","0","0"
"","psychophysics","153","683187","0.0-153.0","60d912ea081d95b4faa5ba51","64e50a1bd3849f8e5c5371c9","","","","","2584",""," ","key"," ","16.67229220779256","500","250","pog","228","156","198","1","1","0","0"
"","psychophysics","154","686259","0.0-154.0","60d912ea081d95b4faa5ba51","64e50a1bd3849f8e5c5371c9","","","","","3068",""," ","key"," ","16.671792349726587","500","250","pog","195","217","169","1","1","0","0"
"","psychophysics","155","689787","0.0-155.0","60d912ea081d95b4faa5ba51","64e50a1bd3849f8e5c5371c9","","","","","3524",""," ","key"," ","16.67190521327013","500","250","pog","201","101","181","1","1","0","0"
"","psychophysics","156","693803","0.0-156.0","60d912ea081d95b4faa5ba51","64e50a1bd3849f8e5c5371c9","","","","","4013",""," ","key"," ","16.671912133890967","500","250","pog","191","215","153","1","1","0","0"
"","psychophysics","157","697811","0.0-157.0","60d912ea081d95b4faa5ba51","64e50a1bd3849f8e5c5371c9","","","","","4002",""," ","key"," ","16.67187083333362","500","250","pog","198","102","175","1","1","0","0"
"","psychophysics","158","700259","0.0-158.0","60d912ea081d95b4faa5ba51","64e50a1bd3849f8e5c5371c9","","","","","2445",""," ","key"," ","16.67183561643828","500","250","pog","181","173","166","1","1","0","0"
"","psychophysics","159","703315","0.0-159.0","60d912ea081d95b4faa5ba51","64e50a1bd3849f8e5c5371c9","","","","","3053",""," ","key"," ","16.67188461538491","500","250","pog","158","122","134","1","1","0","0"
"","psychophysics","160","706171","0.0-160.0","60d912ea081d95b4faa5ba51","64e50a1bd3849f8e5c5371c9","","","","","2853",""," ","key"," ","16.671882352941697","500","250","pog","171","191","135","1","1","0","0"
"","psychophysics","161","709219","0.0-161.0","60d912ea081d95b4faa5ba51","64e50a1bd3849f8e5c5371c9","","","","","3041",""," ","key"," ","16.671796703296664","500","250","pog","182","162","158","1","1","0","0"
"","psychophysics","162","710043","0.0-162.0","60d912ea081d95b4faa5ba51","64e50a1bd3849f8e5c5371c9","","","","","821",""," ","key"," ","16.672260869565196","500","250","inst","","","","","","",""
"","psychophysics","163","717259","0.0-163.0","60d912ea081d95b4faa5ba51","64e50a1bd3849f8e5c5371c9","","","","","7199",""," ","key"," ","16.711143529411842","500","250","instPz1","48","25","50","2","","",""
"","psychophysics","164","723466","0.0-164.0","60d912ea081d95b4faa5ba51","64e50a1bd3849f8e5c5371c9","","","","","6200",""," ","key"," ","16.671822580645017","500","250","instPz2","32","20","35","2","","",""
"","psychophysics","165","728547","0.0-165.0","60d912ea081d95b4faa5ba51","64e50a1bd3849f8e5c5371c9","","","","","5060",""," ","key"," ","16.671904290429232","500","250","instPz3","88","30","100","2","","",""
"","psychophysics","166","734484","0.0-166.0","60d912ea081d95b4faa5ba51","64e50a1bd3849f8e5c5371c9","","","","","5930",""," ","key"," ","16.671853932584412","500","250","instPz4","81","30","100","2","","",""
"","psychophysics","167","735858","0.0-167.0","60d912ea081d95b4faa5ba51","64e50a1bd3849f8e5c5371c9","","","","","1371",""," ","key"," ","16.88023749999993","500","250","inst","","","","","","",""
"","psychophysics","168","739617","0.0-168.0","60d912ea081d95b4faa5ba51","64e50a1bd3849f8e5c5371c9","","","","","3755",""," ","key"," ","16.671653333333218","500","250","pz","23","52","29","2","1","",""
"","psychophysics","169","744810","0.0-169.0","60d912ea081d95b4faa5ba51","64e50a1bd3849f8e5c5371c9","","","","","5191",""," ","key"," ","16.672077419354597","500","250","pz","19","49","22","2","1","",""
"","psychophysics","170","748372","0.0-170.0","60d912ea081d95b4faa5ba51","64e50a1bd3849f8e5c5371c9","","","","","3558",""," ","key"," ","16.671910798122468","500","250","pz","20","44","21","2","1","",""
"","psychophysics","171","752842","0.0-171.0","60d912ea081d95b4faa5ba51","64e50a1bd3849f8e5c5371c9","","","","","4464",""," ","key"," ","16.671902621723014","500","250","pz","18","47","21","2","1","",""
"","psychophysics","172","756042","0.0-172.0","60d912ea081d95b4faa5ba51","64e50a1bd3849f8e5c5371c9","","","","","3194",""," ","key"," ","16.67185340314148","500","250","pz","25","52","27","2","1","",""
"","psychophysics","173","758867","0.0-173.0","60d912ea081d95b4faa5ba51","64e50a1bd3849f8e5c5371c9","","","","","2820",""," ","key"," ","16.671851190475753","500","250","pz","44","36","48","2","1","",""
"","psychophysics","174","763292","0.0-174.0","60d912ea081d95b4faa5ba51","64e50a1bd3849f8e5c5371c9","","","","","4422",""," ","key"," ","16.67189056603765","500","250","pz","26","49","31","2","1","",""
"","psychophysics","175","766922","0.0-175.0","60d912ea081d95b4faa5ba51","64e50a1bd3849f8e5c5371c9","","","","","3625",""," ","key"," ","16.67188425925916","500","250","pz","26","30","29","2","1","",""
"","psychophysics","176","770554","0.0-176.0","60d912ea081d95b4faa5ba51","64e50a1bd3849f8e5c5371c9","","","","","3624",""," ","key"," ","16.671820276497847","500","250","pz","34","60","37","2","1","",""
"","psychophysics","177","772212","0.0-177.0","60d912ea081d95b4faa5ba51","64e50a1bd3849f8e5c5371c9","","","","","1653",""," ","key"," ","16.671646464646635","500","250","pz","44","45","49","2","1","",""
"","psychophysics","178","777218","0.0-178.0","60d912ea081d95b4faa5ba51","64e50a1bd3849f8e5c5371c9","","","","","5001",""," ","key"," ","16.67191638796003","500","250","pz","52","24","60","2","1","",""
"","psychophysics","179","780547","0.0-179.0","60d912ea081d95b4faa5ba51","64e50a1bd3849f8e5c5371c9","","","","","3325",""," ","key"," ","16.67201507537703","500","250","pz","44","32","48","2","1","",""
"","psychophysics","180","783410","0.0-180.0","60d912ea081d95b4faa5ba51","64e50a1bd3849f8e5c5371c9","","","","","2858",""," ","key"," ","16.671747058823787","500","250","pz","45","37","48","2","1","",""
"","psychophysics","181","787818","0.0-181.0","60d912ea081d95b4faa5ba51","64e50a1bd3849f8e5c5371c9","","","","","4400",""," ","key"," ","16.671882575757493","500","250","pz","18","44","22","2","1","",""
"","psychophysics","182","789643","0.0-182.0","60d912ea081d95b4faa5ba51","64e50a1bd3849f8e5c5371c9","","","","","1820",""," ","key"," ","16.67188888888901","500","250","pz","56","56","60","2","1","",""
"","psychophysics","183","790610","0.0-183.0","60d912ea081d95b4faa5ba51","64e50a1bd3849f8e5c5371c9","","","","","965",""," ","key"," ","16.671789473684488","500","250","inst","","","","","","",""
"","psychophysics","184","797522","0.0-184.0","60d912ea081d95b4faa5ba51","64e50a1bd3849f8e5c5371c9","","","","","6909",""," ","key"," ","16.671857487922647","500","250","instZol1","0.4","-1.3","","","","0","0"
"","psychophysics","185","810524","0.0-185.0","60d912ea081d95b4faa5ba51","64e50a1bd3849f8e5c5371c9","","","","","12995",""," ","key"," ","16.671876765083432","500","250","instZol2","0.4000000000000007","2","","1","","0","0"
"","psychophysics","186","811498","0.0-186.0","60d912ea081d95b4faa5ba51","64e50a1bd3849f8e5c5371c9","","","","","971",""," ","key"," ","16.671526315789507","500","250","inst","","","","","","",""
"","psychophysics","187","817714","0.0-187.0","60d912ea081d95b4faa5ba51","64e50a1bd3849f8e5c5371c9","","","","","6205",""," ","key"," ","16.67187634408593","500","250","zol","0.04000000000000006","0.46","","1","1","6","-19"
"","psychophysics","188","825386","0.0-188.0","60d912ea081d95b4faa5ba51","64e50a1bd3849f8e5c5371c9","","","","","7663",""," ","key"," ","16.671799564270216","500","250","zol","0.42000000000000004","-0.02","","1","1","-29","23"
"","psychophysics","189","831164","0.0-189.0","60d912ea081d95b4faa5ba51","64e50a1bd3849f8e5c5371c9","","","","","5767",""," ","key"," ","16.67189306358375","500","250","zol","0.5400000000000001","0.16","","1","1","25","21"
"","psychophysics","190","838915","0.0-190.0","60d912ea081d95b4faa5ba51","64e50a1bd3849f8e5c5371c9","","","","","7743",""," ","key"," ","16.671831896551684","500","250","zol","1.2100000000000002","0.29","","1","1","-20","-4"
"","psychophysics","191","842771","0.0-191.0","60d912ea081d95b4faa5ba51","64e50a1bd3849f8e5c5371c9","","","","","3852",""," ","key"," ","16.672026086956485","500","250","zol","1.12","-0.62","","1","1","-13","0"
"","psychophysics","192","846587","0.0-192.0","60d912ea081d95b4faa5ba51","64e50a1bd3849f8e5c5371c9","","","","","3810",""," ","key"," ","16.671899122807396","500","250","zol","0.7100000000000001","-0.31","","1","1","-18","-24"
"","psychophysics","193","850037","0.0-193.0","60d912ea081d95b4faa5ba51","64e50a1bd3849f8e5c5371c9","","","","","3443",""," ","key"," ","16.671810679611845","500","250","zol","1.25","-0.25","","1","1","27","5"
"","psychophysics","194","854251","0.0-194.0","60d912ea081d95b4faa5ba51","64e50a1bd3849f8e5c5371c9","","","","","4206",""," ","key"," ","16.67189243027896","500","250","zol","0.7999999999999999","-0.5","","1","1","10","-23"
"","psychophysics","195","858763","0.0-195.0","60d912ea081d95b4faa5ba51","64e50a1bd3849f8e5c5371c9","","","","","4500",""," ","key"," ","16.67188888888901","500","250","zol","0.44999999999999996","-0.05","","1","1","26","24"
"","psychophysics","196","865363","0.0-196.0","60d912ea081d95b4faa5ba51","64e50a1bd3849f8e5c5371c9","","","","","6593",""," ","key"," ","16.67186582278478","500","250","zol","0.45999999999999996","0.14","","1","1","-6","13"
"","psychophysics","197","869708","0.0-197.0","60d912ea081d95b4faa5ba51","64e50a1bd3849f8e5c5371c9","","","","","4337",""," ","key"," ","16.671899613899605","500","250","zol","0.44000000000000006","-0.04","","1","1","20","-20"
"","psychophysics","198","871411","0.0-198.0","60d912ea081d95b4faa5ba51","64e50a1bd3849f8e5c5371c9","","","","","1693",""," ","key"," ","16.671999999999944","500","250","zol","0.77","-0.67","","1","1","8","4"
"","psychophysics","199","873003","0.0-199.0","60d912ea081d95b4faa5ba51","64e50a1bd3849f8e5c5371c9","","","","","1586",""," ","key"," ","16.671808510638545","500","250","zol","0.76","-0.66","","1","1","26","13"
"","psychophysics","200","878196","0.0-200.0","60d912ea081d95b4faa5ba51","64e50a1bd3849f8e5c5371c9","","","","","5183",""," ","key"," ","16.671864951768715","500","250","zol","0.4","-0.4","","1","1","8","-13"
"","psychophysics","201","881707","0.0-201.0","60d912ea081d95b4faa5ba51","64e50a1bd3849f8e5c5371c9","","","","","3501",""," ","key"," ","16.672071770334874","500","250","zol","0.44999999999999996","0.05","","1","1","-23","0"
"","psychophysics","202","882891","0.0-202.0","60d912ea081d95b4faa5ba51","64e50a1bd3849f8e5c5371c9","","","","","1181",""," ","key"," ","16.67137142857204","500","250","inst","","","","","","",""
"","psychophysics","203","886523","0.0-203.0","60d912ea081d95b4faa5ba51","64e50a1bd3849f8e5c5371c9","","","","","3624",""," ","key"," ","16.671898617511637","500","250","instBr3","27","40","300","2","","0","0"
"","psychophysics","204","888099","0.0-204.0","60d912ea081d95b4faa5ba51","64e50a1bd3849f8e5c5371c9","","","","","1573",""," ","key"," ","16.672117021276634","500","250","inst","","","","","","",""
"","psychophysics","205","891171","0.0-205.0","60d912ea081d95b4faa5ba51","64e50a1bd3849f8e5c5371c9","","","","","3067",""," ","key"," ","16.671896174863043","500","250","br","31","-3","272","2","1","6","-8"
"","psychophysics","206","893474","0.0-206.0","60d912ea081d95b4faa5ba51","64e50a1bd3849f8e5c5371c9","","","","","2300",""," ","key"," ","16.6718905109489","500","250","br","30","11","295","2","1","-13","-10"
"","psychophysics","207","896546","0.0-207.0","60d912ea081d95b4faa5ba51","64e50a1bd3849f8e5c5371c9","","","","","3068",""," ","key"," ","16.671830601092616","500","250","br","27","-13","289","2","1","18","25"
"","psychophysics","208","899210","0.0-208.0","60d912ea081d95b4faa5ba51","64e50a1bd3849f8e5c5371c9","","","","","2656",""," ","key"," ","16.67190566037799","500","250","br","24","-11","285","2","1","-29","-6"
"","psychophysics","209","902635","0.0-209.0","60d912ea081d95b4faa5ba51","64e50a1bd3849f8e5c5371c9","","","","","3415",""," ","key"," ","16.671882926829433","500","250","br","23","-12","222","2","1","-29","25"
"","psychophysics","210","905603","0.0-210.0","60d912ea081d95b4faa5ba51","64e50a1bd3849f8e5c5371c9","","","","","2962",""," ","key"," ","16.671870056497024","500","250","br","19","19","223","2","1","-6","-8"
"","psychophysics","211","907626","0.0-211.0","60d912ea081d95b4faa5ba51","64e50a1bd3849f8e5c5371c9","","","","","2019",""," ","key"," ","16.671908333332976","500","250","br","24","25","263","2","1","1","-16"
"","psychophysics","212","911602","0.0-212.0","60d912ea081d95b4faa5ba51","64e50a1bd3849f8e5c5371c9","","","","","3971",""," ","key"," ","16.671886075949217","500","250","br","17","-26","203","2","1","-10","-11"
"","psychophysics","213","914715","0.0-213.0","60d912ea081d95b4faa5ba51","64e50a1bd3849f8e5c5371c9","","","","","3104",""," ","key"," ","16.67186559139756","500","250","br","17","-12","214","2","1","28","14"
"","psychophysics","214","916018","0.0-214.0","60d912ea081d95b4faa5ba51","64e50a1bd3849f8e5c5371c9","","","","","1299",""," ","key"," ","16.67180519480585","500","250","br","18","16","208","2","1","-18","0"
"","psychophysics","215","919540","0.0-215.0","60d912ea081d95b4faa5ba51","64e50a1bd3849f8e5c5371c9","","","","","3520",""," ","key"," ","16.671890476190796","500","250","br","20","-26","229","2","1","-28","15"
"","psychophysics","216","922114","0.0-216.0","60d912ea081d95b4faa5ba51","64e50a1bd3849f8e5c5371c9","","","","","2567",""," ","key"," ","16.671889610389737","500","250","br","21","9","294","2","1","7","3"
"","psychophysics","217","926260","0.0-217.0","60d912ea081d95b4faa5ba51","64e50a1bd3849f8e5c5371c9","","","","","4141",""," ","key"," ","16.67171370967727","500","250","br","25","-12","297","2","1","11","9"
"","psychophysics","218","928275","0.0-218.0","60d912ea081d95b4faa5ba51","64e50a1bd3849f8e5c5371c9","","","","","2009",""," ","key"," ","16.672310924369786","500","250","br","24","27","237","2","1","30","-15"
"","psychophysics","219","931722","0.0-219.0","60d912ea081d95b4faa5ba51","64e50a1bd3849f8e5c5371c9","","","","","3441",""," ","key"," ","16.67194174757302","500","250","br","20","-22","290","2","1","-13","-3"
