"success","trial_type","trial_index","time_elapsed","internal_node_id","pid","sid","timeout","failed_images","failed_audio","failed_video","rt","stimulus","response","response_type","key_press","avg_frame_time","center_x","center_y","task","resp","version","block","start","jitterX","jitterY","parA"
"true","fullscreen","0","2881","0.0-0.0","61140514150f4cdab3ba1f21","64dd6cd407b6d08f4c6f7395","","","","","","","","","","","","","","","","","","","",""
"true","preload","1","3427","0.0-1.0","61140514150f4cdab3ba1f21","64dd6cd407b6d08f4c6f7395","false","[]","[]","[]","","","","","","","","","","","","","","","",""
"","html-button-response","2","4842","0.0-2.0","61140514150f4cdab3ba1f21","64dd6cd407b6d08f4c6f7395","","","","","1414","Please Make Sure Your Audio Is On.","0","","","","","","","","","","","","",""
"","psychophysics","3","12174","0.0-3.0","61140514150f4cdab3ba1f21","64dd6cd407b6d08f4c6f7395","","","","","7317",""," ","key"," ","6.064968569065343","960","250","","","","","","","",""
"","psychophysics","4","35446","0.0-4.0","61140514150f4cdab3ba1f21","64dd6cd407b6d08f4c6f7395","","","","","23269",""," ","key"," ","8.569255248618784","500","250","inst","","","","","","",""
"","psychophysics","5","41105","0.0-5.0","61140514150f4cdab3ba1f21","64dd6cd407b6d08f4c6f7395","","","","","5658",""," ","key"," ","6.060346195069668","500","250","sample0","","","","","","",""
"","psychophysics","6","43102","0.0-6.0","61140514150f4cdab3ba1f21","64dd6cd407b6d08f4c6f7395","","","","","1996",""," ","key"," ","6.060289634146346","500","250","sample1","","","","","","",""
"","psychophysics","7","59676","0.0-7.0","61140514150f4cdab3ba1f21","64dd6cd407b6d08f4c6f7395","","","","","16570",""," ","key"," ","6.0625250640322","500","250","sample2","100","","","","","",""
"","psychophysics","8","69100","0.0-8.0","61140514150f4cdab3ba1f21","64dd6cd407b6d08f4c6f7395","","","","","9420",""," ","key"," ","6.060314671814671","500","250","sample3","100","","","","","",""
"","psychophysics","9","77836","0.0-9.0","61140514150f4cdab3ba1f21","64dd6cd407b6d08f4c6f7395","","","","","8733",""," ","key"," ","6.060306037473975","500","250","sample4","100","","","","","",""
"","psychophysics","10","84743","0.0-10.0","61140514150f4cdab3ba1f21","64dd6cd407b6d08f4c6f7395","","","","","6904",""," ","key"," ","6.060308435852368","500","250","sample5","","","","","","",""
"","psychophysics","11","95327","0.0-11.0","61140514150f4cdab3ba1f21","64dd6cd407b6d08f4c6f7395","","","","","10581",""," ","key"," ","6.06030813287514","500","250","sample6","498","","","","","",""
"","psychophysics","12","99874","0.0-12.0","61140514150f4cdab3ba1f21","64dd6cd407b6d08f4c6f7395","","","","","4545",""," ","key"," ","6.060309746328445","500","250","inst","","","","","","",""
"","psychophysics","13","107228","0.0-13.0","61140514150f4cdab3ba1f21","64dd6cd407b6d08f4c6f7395","","","","","7353",""," ","key"," ","6.060310799670244","500","250","inst","","","","","","",""
"","psychophysics","14","112284","0.0-14.0","61140514150f4cdab3ba1f21","64dd6cd407b6d08f4c6f7395","","","","","5054",""," ","key"," ","6.060272509003613","500","250","inst","","","","","","",""
"","psychophysics","15","115296","0.0-15.0","61140514150f4cdab3ba1f21","64dd6cd407b6d08f4c6f7395","","","","","3010",""," ","key"," ","6.060310483870947","500","250","inst","","","","","","",""
"","psychophysics","16","117496","0.0-16.0","61140514150f4cdab3ba1f21","64dd6cd407b6d08f4c6f7395","","","","","2199",""," ","key"," ","6.060331491712698","500","250","inst","","","","","","",""
"","psychophysics","17","138992","0.0-17.0","61140514150f4cdab3ba1f21","64dd6cd407b6d08f4c6f7395","","","","","21493",""," ","key"," ","6.060305696559507","500","250","instPog0","160","1","","190","0","0","160"
"","psychophysics","18","147653","0.0-18.0","61140514150f4cdab3ba1f21","64dd6cd407b6d08f4c6f7395","","","","","8659",""," ","key"," ","6.060318627450966","500","250","instPog1","164","1","","190","0","0","160"
"","psychophysics","19","158031","0.0-19.0","61140514150f4cdab3ba1f21","64dd6cd407b6d08f4c6f7395","","","","","10376",""," ","key"," ","6.0638555555555556","500","250","instPog2","180","1","","160","0","0","160"
"","psychophysics","20","160426","0.0-20.0","61140514150f4cdab3ba1f21","64dd6cd407b6d08f4c6f7395","","","","","2393",""," ","key"," ","6.060298734177214","500","250","inst","","","","","","",""
"","psychophysics","21","168211","0.0-21.0","61140514150f4cdab3ba1f21","64dd6cd407b6d08f4c6f7395","","","","","7782",""," ","key"," ","6.074528951486692","500","250","pog","166","1","0","206","0","0","160"
"","psychophysics","22","174095","0.0-22.0","61140514150f4cdab3ba1f21","64dd6cd407b6d08f4c6f7395","","","","","5879",""," ","key"," ","6.079083591331252","500","250","pog","161","1","0","145","0","0","144"
"","psychophysics","23","181801","0.0-23.0","61140514150f4cdab3ba1f21","64dd6cd407b6d08f4c6f7395","","","","","7703",""," ","key"," ","6.060309992132187","500","250","pog","212","1","0","130","0","0","199"
"","psychophysics","24","188080","0.0-24.0","61140514150f4cdab3ba1f21","64dd6cd407b6d08f4c6f7395","","","","","6276",""," ","key"," ","6.060307246376817","500","250","pog","130","1","0","178","0","0","121"
"","psychophysics","25","191858","0.0-25.0","61140514150f4cdab3ba1f21","64dd6cd407b6d08f4c6f7395","","","","","3776",""," ","key"," ","6.060295819935716","500","250","pog","201","1","0","147","0","0","196"
"","psychophysics","26","194625","0.0-26.0","61140514150f4cdab3ba1f21","64dd6cd407b6d08f4c6f7395","","","","","2763",""," ","key"," ","6.060331140350874","500","250","pog","199","1","0","199","0","0","194"
"","psychophysics","27","198038","0.0-27.0","61140514150f4cdab3ba1f21","64dd6cd407b6d08f4c6f7395","","","","","3410",""," ","key"," ","6.060293594306066","500","250","pog","135","1","0","159","0","0","133"
"","psychophysics","28","202425","0.0-28.0","61140514150f4cdab3ba1f21","64dd6cd407b6d08f4c6f7395","","","","","4385",""," ","key"," ","6.060312586445367","500","250","pog","130","1","0","188","0","0","127"
"","psychophysics","29","205756","0.0-29.0","61140514150f4cdab3ba1f21","64dd6cd407b6d08f4c6f7395","","","","","3330",""," ","key"," ","6.060240437158496","500","250","pog","171","1","0","121","0","0","157"
"","psychophysics","30","209007","0.0-30.0","61140514150f4cdab3ba1f21","64dd6cd407b6d08f4c6f7395","","","","","3249",""," ","key"," ","6.060317757009381","500","250","pog","202","1","0","176","0","0","188"
"","psychophysics","31","211877","0.0-31.0","61140514150f4cdab3ba1f21","64dd6cd407b6d08f4c6f7395","","","","","2868",""," ","key"," ","6.060310782240958","500","250","pog","212","1","0","212","0","0","196"
"","psychophysics","32","219882","0.0-32.0","61140514150f4cdab3ba1f21","64dd6cd407b6d08f4c6f7395","","","","","null","","null","key","null","6.155314857582745","500","250","pog","143","1","0","129","0","0","140"
"","psychophysics","33","221976","0.0-33.0","61140514150f4cdab3ba1f21","64dd6cd407b6d08f4c6f7395","","","","","2093",""," ","key"," ","7.199793103448284","500","250","pog","148","1","0","146","0","0","145"
"","psychophysics","34","224594","0.0-34.0","61140514150f4cdab3ba1f21","64dd6cd407b6d08f4c6f7395","","","","","2615",""," ","key"," ","7.362580281690183","500","250","pog","202","1","0","200","0","0","188"
"","psychophysics","35","227981","0.0-35.0","61140514150f4cdab3ba1f21","64dd6cd407b6d08f4c6f7395","","","","","3385",""," ","key"," ","6.406520833333354","500","250","pog","165","1","0","143","0","0","157"
"","psychophysics","36","230025","0.0-36.0","61140514150f4cdab3ba1f21","64dd6cd407b6d08f4c6f7395","","","","","2042",""," ","key"," ","6.0594404761904155","500","250","inst","","","","","","",""
"","psychophysics","37","236150","0.0-37.0","61140514150f4cdab3ba1f21","64dd6cd407b6d08f4c6f7395","","","","","6121",""," ","key"," ","6.126406406406406","500","250","instBr0","0","","","0","0","0","300"
"","psychophysics","38","241852","0.0-38.0","61140514150f4cdab3ba1f21","64dd6cd407b6d08f4c6f7395","","","","","5701",""," ","key"," ","6.060296808510643","500","250","instBr1","3","","","-40","0","0","300"
"","psychophysics","39","253743","0.0-39.0","61140514150f4cdab3ba1f21","64dd6cd407b6d08f4c6f7395","","","","","11889",""," ","key"," ","6.060312595614491","500","250","instBr3","-18","1","","40","0","0","300"
"","psychophysics","40","258112","0.0-40.0","61140514150f4cdab3ba1f21","64dd6cd407b6d08f4c6f7395","","","","","4367",""," ","key"," ","6.060309722222236","500","250","inst","","","","","","",""
"","psychophysics","41","263373","0.0-41.0","61140514150f4cdab3ba1f21","64dd6cd407b6d08f4c6f7395","","","","","5250",""," ","key"," ","6.060307958477488","500","250","br","-14","1","0","27","-11","5","287"
"","psychophysics","42","269775","0.0-42.0","61140514150f4cdab3ba1f21","64dd6cd407b6d08f4c6f7395","","","","","6398",""," ","key"," ","6.060304265402829","500","250","br","-15","1","0","23","0","-19","229"
"","psychophysics","43","275774","0.0-43.0","61140514150f4cdab3ba1f21","64dd6cd407b6d08f4c6f7395","","","","","5995",""," ","key"," ","6.060318503538957","500","250","br","-16","1","0","21","-10","0","279"
"","psychophysics","44","276941","0.0-44.0","61140514150f4cdab3ba1f21","64dd6cd407b6d08f4c6f7395","","","","","1163",""," ","key"," ","6.060260416666703","500","250","br","-29","1","0","-29","17","27","279"
"","psychophysics","45","281018","0.0-45.0","61140514150f4cdab3ba1f21","64dd6cd407b6d08f4c6f7395","","","","","4075",""," ","key"," ","6.060307004470961","500","250","br","-20","1","0","21","-5","7","286"
"","psychophysics","46","283057","0.0-46.0","61140514150f4cdab3ba1f21","64dd6cd407b6d08f4c6f7395","","","","","2028",""," ","key"," ","6.078420895522411","500","250","br","-20","1","0","-18","23","8","234"
"","psychophysics","47","289165","0.0-47.0","61140514150f4cdab3ba1f21","64dd6cd407b6d08f4c6f7395","","","","","6106",""," ","key"," ","6.060298907646494","500","250","br","-22","1","0","30","17","-3","275"
"","psychophysics","48","290617","0.0-48.0","61140514150f4cdab3ba1f21","64dd6cd407b6d08f4c6f7395","","","","","1450",""," ","key"," ","6.060298319327588","500","250","br","-23","1","0","-22","-24","16","283"
"","psychophysics","49","292142","0.0-49.0","61140514150f4cdab3ba1f21","64dd6cd407b6d08f4c6f7395","","","","","1522",""," ","key"," ","6.060438247012119","500","250","br","-25","1","0","-24","15","-15","225"
"","psychophysics","50","299316","0.0-50.0","61140514150f4cdab3ba1f21","64dd6cd407b6d08f4c6f7395","","","","","7171",""," ","key"," ","6.060306001690621","500","250","br","-17","1","0","-2","1","2","204"
"","psychophysics","51","304621","0.0-51.0","61140514150f4cdab3ba1f21","64dd6cd407b6d08f4c6f7395","","","","","5303",""," ","key"," ","6.060314645308887","500","250","br","-16","1","0","8","-13","-17","225"
"","psychophysics","52","309379","0.0-52.0","61140514150f4cdab3ba1f21","64dd6cd407b6d08f4c6f7395","","","","","4756",""," ","key"," ","6.060308673469396","500","250","br","-20","1","0","2","7","8","290"
"","psychophysics","53","314052","0.0-53.0","61140514150f4cdab3ba1f21","64dd6cd407b6d08f4c6f7395","","","","","4669",""," ","key"," ","6.0603194805194756","500","250","br","-15","1","0","13","19","5","239"
"","psychophysics","54","318010","0.0-54.0","61140514150f4cdab3ba1f21","64dd6cd407b6d08f4c6f7395","","","","","3955",""," ","key"," ","6.060296012269886","500","250","br","-18","1","0","-2","29","12","272"
"","psychophysics","55","319116","0.0-55.0","61140514150f4cdab3ba1f21","64dd6cd407b6d08f4c6f7395","","","","","1103",""," ","key"," ","6.060346153845875","500","250","br","-25","1","0","-25","25","12","215"
"","psychophysics","56","321160","0.0-56.0","61140514150f4cdab3ba1f21","64dd6cd407b6d08f4c6f7395","","","","","2041",""," ","key"," ","6.060306547619153","500","250","inst","","","","","","",""
"","psychophysics","57","328396","0.0-57.0","61140514150f4cdab3ba1f21","64dd6cd407b6d08f4c6f7395","","","","","7235",""," ","key"," ","6.060310142497914","500","250","instPzPre","50","0","","50","","","50"
"","psychophysics","58","337448","0.0-58.0","61140514150f4cdab3ba1f21","64dd6cd407b6d08f4c6f7395","","","","","9048",""," ","key"," ","6.060304755525769","500","250","instPz0","51","1","","50","","","50"
"","psychophysics","59","343314","0.0-59.0","61140514150f4cdab3ba1f21","64dd6cd407b6d08f4c6f7395","","","","","5864",""," ","key"," ","6.06030403309205","500","250","instPz1","53","1","","25","","","50"
"","psychophysics","60","353787","0.0-60.0","61140514150f4cdab3ba1f21","64dd6cd407b6d08f4c6f7395","","","","","10471",""," ","key"," ","6.077890824622547","500","250","instPz2","20","1","","35","","","20"
"","psychophysics","61","363535","0.0-61.0","61140514150f4cdab3ba1f21","64dd6cd407b6d08f4c6f7395","","","","","9742",""," ","key"," ","6.060323584318607","500","250","instPz3","29","1","","100","","","30"
"","psychophysics","62","371348","0.0-62.0","61140514150f4cdab3ba1f21","64dd6cd407b6d08f4c6f7395","","","","","7810",""," ","key"," ","6.060287044220342","500","250","instPz4","31","1","","100","","","30"
"","psychophysics","63","373503","0.0-63.0","61140514150f4cdab3ba1f21","64dd6cd407b6d08f4c6f7395","","","","","2153",""," ","key"," ","6.060262711864526","500","250","inst","","","","","","",""
"","psychophysics","64","376476","0.0-64.0","61140514150f4cdab3ba1f21","64dd6cd407b6d08f4c6f7395","","","","","2969",""," ","key"," ","6.060308163265261","500","250","pz","32","1","0","38","","","33"
"","psychophysics","65","380825","0.0-65.0","61140514150f4cdab3ba1f21","64dd6cd407b6d08f4c6f7395","","","","","4347",""," ","key"," ","6.060315642458082","500","250","pz","27","1","0","39","","","27"
"","psychophysics","66","383536","0.0-66.0","61140514150f4cdab3ba1f21","64dd6cd407b6d08f4c6f7395","","","","","2707",""," ","key"," ","6.060234899328833","500","250","pz","45","1","0","46","","","43"
"","psychophysics","67","390908","0.0-67.0","61140514150f4cdab3ba1f21","64dd6cd407b6d08f4c6f7395","","","","","7370",""," ","key"," ","6.065299011532114","500","250","pz","27","1","0","54","","","27"
"","psychophysics","68","394153","0.0-68.0","61140514150f4cdab3ba1f21","64dd6cd407b6d08f4c6f7395","","","","","3242",""," ","key"," ","6.0603046728971535","500","250","pz","26","1","0","43","","","25"
"","psychophysics","69","397490","0.0-69.0","61140514150f4cdab3ba1f21","64dd6cd407b6d08f4c6f7395","","","","","3334",""," ","key"," ","6.060315118397107","500","250","pz","39","1","0","25","","","38"
"","psychophysics","70","403238","0.0-70.0","61140514150f4cdab3ba1f21","64dd6cd407b6d08f4c6f7395","","","","","5743",""," ","key"," ","6.060311181434587","500","250","pz","25","1","0","26","","","25"
"","psychophysics","71","407064","0.0-71.0","61140514150f4cdab3ba1f21","64dd6cd407b6d08f4c6f7395","","","","","3824",""," ","key"," ","6.060304761904805","500","250","pz","49","1","0","42","","","51"
"","psychophysics","72","413514","0.0-72.0","61140514150f4cdab3ba1f21","64dd6cd407b6d08f4c6f7395","","","","","6447",""," ","key"," ","6.083227788279767","500","250","pz","34","1","0","49","","","35"
"","psychophysics","73","418151","0.0-73.0","61140514150f4cdab3ba1f21","64dd6cd407b6d08f4c6f7395","","","","","4634",""," ","key"," ","6.060248041775488","500","250","pz","29","1","0","41","","","29"
"","psychophysics","74","422479","0.0-74.0","61140514150f4cdab3ba1f21","64dd6cd407b6d08f4c6f7395","","","","","4324",""," ","key"," ","6.060312762973388","500","250","pz","29","1","0","32","","","25"
"","psychophysics","75","430482","0.0-75.0","61140514150f4cdab3ba1f21","64dd6cd407b6d08f4c6f7395","","","","","null","","null","key","null","6.074126899696032","500","250","pz","55","1","0","32","","","51"
"","psychophysics","76","431232","0.0-76.0","61140514150f4cdab3ba1f21","64dd6cd407b6d08f4c6f7395","","","","","747",""," ","key"," ","6.060268292682931","500","250","pz","57","1","0","57","","","57"
"","psychophysics","77","435500","0.0-77.0","61140514150f4cdab3ba1f21","64dd6cd407b6d08f4c6f7395","","","","","4266",""," ","key"," ","6.060301564722606","500","250","pz","55","1","0","55","","","58"
"","psychophysics","78","439596","0.0-78.0","61140514150f4cdab3ba1f21","64dd6cd407b6d08f4c6f7395","","","","","4091",""," ","key"," ","6.060320000000022","500","250","pz","23","1","0","49","","","24"
"","psychophysics","79","441638","0.0-79.0","61140514150f4cdab3ba1f21","64dd6cd407b6d08f4c6f7395","","","","","2040",""," ","key"," ","6.060315476190486","500","250","inst","","","","","","",""
"","psychophysics","80","451423","0.0-80.0","61140514150f4cdab3ba1f21","64dd6cd407b6d08f4c6f7395","","","","","9782",""," ","key"," ","6.060306691449791","500","250","instZol0","0","","","0","0","0",""
"","psychophysics","81","475048","0.0-81.0","61140514150f4cdab3ba1f21","64dd6cd407b6d08f4c6f7395","","","","","23623",""," ","key"," ","6.0603081857839385","500","250","instZol1","-2.7755575615628914e-17","","","-1.3","0","0",""
"","psychophysics","82","489653","0.0-82.0","61140514150f4cdab3ba1f21","64dd6cd407b6d08f4c6f7395","","","","","14604",""," ","key"," ","6.06030676629306","500","250","instZol2","-0.9999999999999992","2","","2","0","0",""
"","psychophysics","83","491050","0.0-83.0","61140514150f4cdab3ba1f21","64dd6cd407b6d08f4c6f7395","","","","","1394",""," ","key"," ","6.060305676855885","500","250","inst","","","","","","",""
"","psychophysics","84","499055","0.0-84.0","61140514150f4cdab3ba1f21","64dd6cd407b6d08f4c6f7395","","","","","null","","null","key","null","6.088022831050237","500","250","zol","-0.22000000000000006","2","0","-0.18","-24","15",""
"","psychophysics","85","507058","0.0-85.0","61140514150f4cdab3ba1f21","64dd6cd407b6d08f4c6f7395","","","","","null","","null","key","null","6.064896133434418","500","250","zol","-0.6","2","0","-0.7","15","8",""
"","psychophysics","86","515063","0.0-86.0","61140514150f4cdab3ba1f21","64dd6cd407b6d08f4c6f7395","","","","","null","","null","key","null","6.060310606060639","500","250","zol","-0.44999999999999996","2","0","-0.75","-11","-5",""
"","psychophysics","87","519480","0.0-87.0","61140514150f4cdab3ba1f21","64dd6cd407b6d08f4c6f7395","","","","","4414",""," ","key"," ","6.060309065934105","500","250","zol","-0.7","2","0","0.3","29","-24",""
"","psychophysics","88","526475","0.0-88.0","61140514150f4cdab3ba1f21","64dd6cd407b6d08f4c6f7395","","","","","6991",""," ","key"," ","6.060305290546406","500","250","zol","-0.06999999999999995","2","0","-0.33","7","-24",""
"","psychophysics","89","534456","0.0-89.0","61140514150f4cdab3ba1f21","64dd6cd407b6d08f4c6f7395","","","","","7979",""," ","key"," ","6.064916349809879","500","250","zol","-0.04999999999999996","2","0","-0.15","30","-11",""
"","psychophysics","90","542459","0.0-90.0","61140514150f4cdab3ba1f21","64dd6cd407b6d08f4c6f7395","","","","","null","","null","key","null","6.060302501895367","500","250","zol","0.41000000000000003","2","0","-0.11","23","29",""
"","psychophysics","91","547475","0.0-91.0","61140514150f4cdab3ba1f21","64dd6cd407b6d08f4c6f7395","","","","","5012",""," ","key"," ","6.0603216444981145","500","250","zol","-0.3800000000000001","2","0","0.68","11","-12",""
"","psychophysics","92","550596","0.0-92.0","61140514150f4cdab3ba1f21","64dd6cd407b6d08f4c6f7395","","","","","3118",""," ","key"," ","6.060303501945609","500","250","zol","-0.66","2","0","0.56","6","-15",""
"","psychophysics","93","558598","0.0-93.0","61140514150f4cdab3ba1f21","64dd6cd407b6d08f4c6f7395","","","","","null","","null","key","null","6.0603047763457285","500","250","zol","-0.11999999999999988","2","0","-0.68","30","25",""
"","psychophysics","94","562522","0.0-94.0","61140514150f4cdab3ba1f21","64dd6cd407b6d08f4c6f7395","","","","","3920",""," ","key"," ","6.0603137557960505","500","250","zol","-0.14","2","0","-0.46","-19","-19",""
"","psychophysics","95","567903","0.0-95.0","61140514150f4cdab3ba1f21","64dd6cd407b6d08f4c6f7395","","","","","5379",""," ","key"," ","6.060312288613274","500","250","zol","-0.049999999999999906","2","0","-0.45","30","16",""
"","psychophysics","96","573037","0.0-96.0","61140514150f4cdab3ba1f21","64dd6cd407b6d08f4c6f7395","","","","","5131",""," ","key"," ","6.060310874704407","500","250","zol","-0.37","2","0","0.57","22","16",""
"","psychophysics","97","578236","0.0-97.0","61140514150f4cdab3ba1f21","64dd6cd407b6d08f4c6f7395","","","","","5196",""," ","key"," ","6.060309218202963","500","250","zol","0.01999999999999999","2","0","0.28","-15","17",""
"","psychophysics","98","583497","0.0-98.0","61140514150f4cdab3ba1f21","64dd6cd407b6d08f4c6f7395","","","","","5258",""," ","key"," ","6.060312572087756","500","250","zol","0.08000000000000002","2","0","-0.48","0","-14",""
"","psychophysics","99","584709","0.0-99.0","61140514150f4cdab3ba1f21","64dd6cd407b6d08f4c6f7395","","","","","1210",""," ","key"," ","6.0602814070348066","500","250","inst","","","","","","",""
"","psychophysics","100","588488","0.0-100.0","61140514150f4cdab3ba1f21","64dd6cd407b6d08f4c6f7395","","","","","3776",""," ","key"," ","6.060308681672006","500","250","instEB0","75","2","","75","0","0","75"
"","psychophysics","101","595616","0.0-101.0","61140514150f4cdab3ba1f21","64dd6cd407b6d08f4c6f7395","","","","","7125",""," ","key"," ","6.060309523809523","500","250","instEB1","76","2","","70","0","0","80"
"","psychophysics","102","607901","0.0-102.0","61140514150f4cdab3ba1f21","64dd6cd407b6d08f4c6f7395","","","","","12283",""," ","key"," ","6.06032724580454","500","250","instEB2","79","2","","65","0","0","80"
"","psychophysics","103","616980","0.0-103.0","61140514150f4cdab3ba1f21","64dd6cd407b6d08f4c6f7395","","","","","9077",""," ","key"," ","6.060309953239803","500","250","instEB3","70","2","","80","0","0","65"
"","psychophysics","104","628704","0.0-104.0","61140514150f4cdab3ba1f21","64dd6cd407b6d08f4c6f7395","","","","","11722",""," ","key"," ","6.63016638370123","500","250","instEB4","72","2","","65","0","0","70"
"","psychophysics","105","629871","0.0-105.0","61140514150f4cdab3ba1f21","64dd6cd407b6d08f4c6f7395","","","","","1164",""," ","key"," ","6.058151041666861","500","250","inst","","","","","","",""
"","psychophysics","106","635413","0.0-106.0","61140514150f4cdab3ba1f21","64dd6cd407b6d08f4c6f7395","","","","","5537",""," ","key"," ","6.060104052573932","500","250","eb","68","2","0","90","0","0","64"
"","psychophysics","107","643416","0.0-107.0","61140514150f4cdab3ba1f21","64dd6cd407b6d08f4c6f7395","","","","","null","","null","key","null","6.09725457317073","500","250","eb","89","2","0","70","0","0","86"
"","psychophysics","108","649695","0.0-108.0","61140514150f4cdab3ba1f21","64dd6cd407b6d08f4c6f7395","","","","","6275",""," ","key"," ","6.060305314009631","500","250","eb","92","2","0","74","0","0","90"
"","psychophysics","109","653045","0.0-109.0","61140514150f4cdab3ba1f21","64dd6cd407b6d08f4c6f7395","","","","","3336",""," ","key"," ","6.071303085299351","500","250","eb","89","2","0","78","0","0","82"
"","psychophysics","110","657891","0.0-110.0","61140514150f4cdab3ba1f21","64dd6cd407b6d08f4c6f7395","","","","","4841",""," ","key"," ","6.060306633291539","500","250","eb","84","2","0","75","0","0","78"
"","psychophysics","111","660857","0.0-111.0","61140514150f4cdab3ba1f21","64dd6cd407b6d08f4c6f7395","","","","","2964",""," ","key"," ","6.060301229508248","500","250","eb","80","2","0","67","0","0","70"
"","psychophysics","112","668719","0.0-112.0","61140514150f4cdab3ba1f21","64dd6cd407b6d08f4c6f7395","","","","","7860",""," ","key"," ","6.060307098765474","500","250","eb","95","2","0","86","0","0","90"
"","psychophysics","113","673770","0.0-113.0","61140514150f4cdab3ba1f21","64dd6cd407b6d08f4c6f7395","","","","","5046",""," ","key"," ","6.060319327731144","500","250","eb","73","2","0","86","0","0","67"
"","psychophysics","114","676969","0.0-114.0","61140514150f4cdab3ba1f21","64dd6cd407b6d08f4c6f7395","","","","","3194",""," ","key"," ","6.060307400379519","500","250","eb","98","2","0","84","0","0","86"
"","psychophysics","115","682063","0.0-115.0","61140514150f4cdab3ba1f21","64dd6cd407b6d08f4c6f7395","","","","","5090",""," ","key"," ","6.060317044100153","500","250","eb","100","2","0","87","0","0","90"
"","psychophysics","116","686127","0.0-116.0","61140514150f4cdab3ba1f21","64dd6cd407b6d08f4c6f7395","","","","","4060",""," ","key"," ","6.0602955223881265","500","250","eb","66","2","0","82","0","0","66"
"","psychophysics","117","688448","0.0-117.0","61140514150f4cdab3ba1f21","64dd6cd407b6d08f4c6f7395","","","","","2319",""," ","key"," ","6.060308900523713","500","250","eb","81","2","0","74","0","0","76"
"","psychophysics","118","692006","0.0-118.0","61140514150f4cdab3ba1f21","64dd6cd407b6d08f4c6f7395","","","","","3557",""," ","key"," ","6.060303754266193","500","250","eb","90","2","0","90","0","0","77"
"","psychophysics","119","695303","0.0-119.0","61140514150f4cdab3ba1f21","64dd6cd407b6d08f4c6f7395","","","","","3294",""," ","key"," ","6.060311233885732","500","250","eb","72","2","0","89","0","0","65"
"","psychophysics","120","698842","0.0-120.0","61140514150f4cdab3ba1f21","64dd6cd407b6d08f4c6f7395","","","","","3537",""," ","key"," ","6.060305317324079","500","250","eb","80","2","0","80","0","0","73"
"","psychophysics","121","699728","0.0-121.0","61140514150f4cdab3ba1f21","64dd6cd407b6d08f4c6f7395","","","","","884",""," ","key"," ","6.060317241379606","500","250","inst","","","","","","",""
"","psychophysics","122","708097","0.0-122.0","61140514150f4cdab3ba1f21","64dd6cd407b6d08f4c6f7395","","","","","8368",""," ","key"," ","6.060313768115948","500","250","instPz1","47","2","","25","","","50"
"","psychophysics","123","714718","0.0-123.0","61140514150f4cdab3ba1f21","64dd6cd407b6d08f4c6f7395","","","","","6617",""," ","key"," ","6.060304029303988","500","250","instPz2","33","2","","20","","","35"
"","psychophysics","124","721786","0.0-124.0","61140514150f4cdab3ba1f21","64dd6cd407b6d08f4c6f7395","","","","","7065",""," ","key"," ","6.060315021459221","500","250","instPz3","110","2","","30","","","100"
"","psychophysics","125","727115","0.0-125.0","61140514150f4cdab3ba1f21","64dd6cd407b6d08f4c6f7395","","","","","5327",""," ","key"," ","6.060301822323536","500","250","instPz4","111","2","","30","","","100"
"","psychophysics","126","727957","0.0-126.0","61140514150f4cdab3ba1f21","64dd6cd407b6d08f4c6f7395","","","","","840",""," ","key"," ","6.060282608695781","500","250","inst","","","","","","",""
"","psychophysics","127","733052","0.0-127.0","61140514150f4cdab3ba1f21","64dd6cd407b6d08f4c6f7395","","","","","5093",""," ","key"," ","6.0603107142858095","500","250","pz","49","2","1","26","","","48"
"","psychophysics","128","736931","0.0-128.0","61140514150f4cdab3ba1f21","64dd6cd407b6d08f4c6f7395","","","","","3876",""," ","key"," ","6.060302034428879","500","250","pz","44","2","1","58","","","42"
"","psychophysics","129","741745","0.0-129.0","61140514150f4cdab3ba1f21","64dd6cd407b6d08f4c6f7395","","","","","4812",""," ","key"," ","6.060279949558669","500","250","pz","59","2","1","40","","","56"
"","psychophysics","130","744854","0.0-130.0","61140514150f4cdab3ba1f21","64dd6cd407b6d08f4c6f7395","","","","","3105",""," ","key"," ","6.060314453125102","500","250","pz","31","2","1","45","","","32"
"","psychophysics","131","748391","0.0-131.0","61140514150f4cdab3ba1f21","64dd6cd407b6d08f4c6f7395","","","","","3532",""," ","key"," ","6.060293310463243","500","250","pz","54","2","1","35","","","59"
"","psychophysics","132","751647","0.0-132.0","61140514150f4cdab3ba1f21","64dd6cd407b6d08f4c6f7395","","","","","3254",""," ","key"," ","6.060292910447834","500","250","pz","55","2","1","45","","","57"
"","psychophysics","133","754242","0.0-133.0","61140514150f4cdab3ba1f21","64dd6cd407b6d08f4c6f7395","","","","","2591",""," ","key"," ","6.060325526931995","500","250","pz","56","2","1","42","","","54"
"","psychophysics","134","758344","0.0-134.0","61140514150f4cdab3ba1f21","64dd6cd407b6d08f4c6f7395","","","","","4096",""," ","key"," ","6.06029881656803","500","250","pz","19","2","1","31","","","21"
"","psychophysics","135","761986","0.0-135.0","61140514150f4cdab3ba1f21","64dd6cd407b6d08f4c6f7395","","","","","3640",""," ","key"," ","6.060316666666574","500","250","pz","36","2","1","57","","","37"
"","psychophysics","136","765160","0.0-136.0","61140514150f4cdab3ba1f21","64dd6cd407b6d08f4c6f7395","","","","","3172",""," ","key"," ","6.0603097514340645","500","250","pz","27","2","1","49","","","27"
"","psychophysics","137","770748","0.0-137.0","61140514150f4cdab3ba1f21","64dd6cd407b6d08f4c6f7395","","","","","5586",""," ","key"," ","6.060304017372462","500","250","pz","50","2","1","35","","","53"
"","psychophysics","138","776877","0.0-138.0","61140514150f4cdab3ba1f21","64dd6cd407b6d08f4c6f7395","","","","","6127",""," ","key"," ","6.0603039603960465","500","250","pz","31","2","1","59","","","35"
"","psychophysics","139","779154","0.0-139.0","61140514150f4cdab3ba1f21","64dd6cd407b6d08f4c6f7395","","","","","2272",""," ","key"," ","6.060298666666572","500","250","pz","37","2","1","42","","","40"
"","psychophysics","140","781704","0.0-140.0","61140514150f4cdab3ba1f21","64dd6cd407b6d08f4c6f7395","","","","","2548",""," ","key"," ","6.060311904761918","500","250","pz","30","2","1","54","","","29"
"","psychophysics","141","783595","0.0-141.0","61140514150f4cdab3ba1f21","64dd6cd407b6d08f4c6f7395","","","","","1889",""," ","key"," ","6.060324758842252","500","250","pz","30","2","1","36","","","30"
"","psychophysics","142","784761","0.0-142.0","61140514150f4cdab3ba1f21","64dd6cd407b6d08f4c6f7395","","","","","1165",""," ","key"," ","6.060287958115256","500","250","inst","","","","","","",""
"","psychophysics","143","795006","0.0-143.0","61140514150f4cdab3ba1f21","64dd6cd407b6d08f4c6f7395","","","","","10243",""," ","key"," ","6.060307692307717","500","250","instBr3","24","2","","40","0","0","300"
"","psychophysics","144","795607","0.0-144.0","61140514150f4cdab3ba1f21","64dd6cd407b6d08f4c6f7395","","","","","600",""," ","key"," ","6.060346938775406","500","250","inst","","","","","","",""
"","psychophysics","145","800596","0.0-145.0","61140514150f4cdab3ba1f21","64dd6cd407b6d08f4c6f7395","","","","","4986",""," ","key"," ","6.060307785888047","500","250","br","17","2","1","-30","-14","27","236"
"","psychophysics","146","804181","0.0-146.0","61140514150f4cdab3ba1f21","64dd6cd407b6d08f4c6f7395","","","","","3582",""," ","key"," ","6.060304568527942","500","250","br","24","2","1","9","28","-15","251"
"","psychophysics","147","807061","0.0-147.0","61140514150f4cdab3ba1f21","64dd6cd407b6d08f4c6f7395","","","","","2878",""," ","key"," ","6.0603206751053715","500","250","br","13","2","1","-12","-23","-24","277"
"","psychophysics","148","810043","0.0-148.0","61140514150f4cdab3ba1f21","64dd6cd407b6d08f4c6f7395","","","","","2980",""," ","key"," ","6.060299389002192","500","250","br","18","2","1","5","3","9","279"
"","psychophysics","149","813083","0.0-149.0","61140514150f4cdab3ba1f21","64dd6cd407b6d08f4c6f7395","","","","","3038",""," ","key"," ","6.060335999999894","500","250","br","20","2","1","10","26","14","278"
"","psychophysics","150","820065","0.0-150.0","61140514150f4cdab3ba1f21","64dd6cd407b6d08f4c6f7395","","","","","6979",""," ","key"," ","6.060302951388924","500","250","br","13","2","1","-10","25","-20","211"
"","psychophysics","151","826877","0.0-151.0","61140514150f4cdab3ba1f21","64dd6cd407b6d08f4c6f7395","","","","","6810",""," ","key"," ","6.060306322350783","500","250","br","11","2","1","-14","2","9","252"
"","psychophysics","152","834880","0.0-152.0","61140514150f4cdab3ba1f21","64dd6cd407b6d08f4c6f7395","","","","","null","","null","key","null","6.078745247148236","500","250","br","13","2","1","-16","-2","4","212"
"","psychophysics","153","841878","0.0-153.0","61140514150f4cdab3ba1f21","64dd6cd407b6d08f4c6f7395","","","","","6994",""," ","key"," ","6.065555941023426","500","250","br","20","2","1","11","-18","30","300"
"","psychophysics","154","847063","0.0-154.0","61140514150f4cdab3ba1f21","64dd6cd407b6d08f4c6f7395","","","","","5177",""," ","key"," ","6.0603149882903535","500","250","br","16","2","1","-7","27","-17","265"
"","psychophysics","155","850780","0.0-155.0","61140514150f4cdab3ba1f21","64dd6cd407b6d08f4c6f7395","","","","","3713",""," ","key"," ","6.060306688417608","500","250","br","20","2","1","16","19","17","269"
"","psychophysics","156","853817","0.0-156.0","61140514150f4cdab3ba1f21","64dd6cd407b6d08f4c6f7395","","","","","3035",""," ","key"," ","6.060297999999952","500","250","br","21","2","1","20","-29","6","238"
"","psychophysics","157","858870","0.0-157.0","61140514150f4cdab3ba1f21","64dd6cd407b6d08f4c6f7395","","","","","5051",""," ","key"," ","6.060313325330178","500","250","br","8","2","1","-19","-4","29","205"
"","psychophysics","158","864069","0.0-158.0","61140514150f4cdab3ba1f21","64dd6cd407b6d08f4c6f7395","","","","","5196",""," ","key"," ","6.060265186915955","500","250","br","12","2","1","29","-18","17","204"
"","psychophysics","159","872071","0.0-159.0","61140514150f4cdab3ba1f21","64dd6cd407b6d08f4c6f7395","","","","","null","","null","key","null","6.083355133079821","500","250","br","15","2","1","29","-27","-16","222"
"","psychophysics","160","873715","0.0-160.0","61140514150f4cdab3ba1f21","64dd6cd407b6d08f4c6f7395","","","","","1643",""," ","key"," ","6.0603148148149355","500","250","inst","","","","","","",""
"","psychophysics","161","891046","0.0-161.0","61140514150f4cdab3ba1f21","64dd6cd407b6d08f4c6f7395","","","","","17328",""," ","key"," ","6.0603088492479715","500","250","instZol1","0.20000000000000004","","","-1.3","0","0",""
"","psychophysics","162","903592","0.0-162.0","61140514150f4cdab3ba1f21","64dd6cd407b6d08f4c6f7395","","","","","12543",""," ","key"," ","6.060306911551486","500","250","instZol2","0.5000000000000007","1","","2","0","0",""
"","psychophysics","163","904641","0.0-163.0","61140514150f4cdab3ba1f21","64dd6cd407b6d08f4c6f7395","","","","","1045",""," ","key"," ","6.060337209302477","500","250","inst","","","","","","",""
"","psychophysics","164","910261","0.0-164.0","61140514150f4cdab3ba1f21","64dd6cd407b6d08f4c6f7395","","","","","5609",""," ","key"," ","6.060303455723558","500","250","zol","0.54","1","1","0.46","-13","-25",""
"","psychophysics","165","913899","0.0-165.0","61140514150f4cdab3ba1f21","64dd6cd407b6d08f4c6f7395","","","","","3634",""," ","key"," ","6.060316666666574","500","250","zol","0.49","1","1","0.31","-23","3",""
"","psychophysics","166","917522","0.0-166.0","61140514150f4cdab3ba1f21","64dd6cd407b6d08f4c6f7395","","","","","3619",""," ","key"," ","6.0602998324957325","500","250","zol","0.48","1","1","0.22","8","10",""
"","psychophysics","167","925525","0.0-167.0","61140514150f4cdab3ba1f21","64dd6cd407b6d08f4c6f7395","","","","","null","","null","key","null","6.097291380625476","500","250","zol","0.45000000000000007","1","1","0.45","-13","-28",""
"","psychophysics","168","933529","0.0-168.0","61140514150f4cdab3ba1f21","64dd6cd407b6d08f4c6f7395","","","","","null","","null","key","null","6.064899166034929","500","250","zol","0.14000000000000007","1","1","-0.14","7","-27",""
"","psychophysics","169","941112","0.0-169.0","61140514150f4cdab3ba1f21","64dd6cd407b6d08f4c6f7395","","","","","7580",""," ","key"," ","6.060317599999998","500","250","zol","0.15000000000000005","1","1","-0.25","-13","27",""
"","psychophysics","170","946896","0.0-170.0","61140514150f4cdab3ba1f21","64dd6cd407b6d08f4c6f7395","","","","","5780",""," ","key"," ","6.060352201257863","500","250","zol","0.48","1","1","0.22","-24","28",""
"","psychophysics","171","953315","0.0-171.0","61140514150f4cdab3ba1f21","64dd6cd407b6d08f4c6f7395","","","","","6416",""," ","key"," ","6.060312854442332","500","250","zol","-0.020000000000000046","1","1","0.32","11","14",""
"","psychophysics","172","958504","0.0-172.0","61140514150f4cdab3ba1f21","64dd6cd407b6d08f4c6f7395","","","","","5186",""," ","key"," ","6.060305263157879","500","250","zol","0.44999999999999996","1","1","0.75","11","8",""
"","psychophysics","173","964168","0.0-173.0","61140514150f4cdab3ba1f21","64dd6cd407b6d08f4c6f7395","","","","","5661",""," ","key"," ","6.060305139186245","500","250","zol","0.009999999999999981","1","1","-0.21","29","10",""
"","psychophysics","174","966724","0.0-174.0","61140514150f4cdab3ba1f21","64dd6cd407b6d08f4c6f7395","","","","","2554",""," ","key"," ","6.060294536817288","500","250","zol","-0.03999999999999998","1","1","0.24","19","-2",""
"","psychophysics","175","969834","0.0-175.0","61140514150f4cdab3ba1f21","64dd6cd407b6d08f4c6f7395","","","","","3107",""," ","key"," ","6.060324218750111","500","250","zol","-0.04999999999999999","1","1","0.15","-12","-5",""
"","psychophysics","176","971526","0.0-176.0","61140514150f4cdab3ba1f21","64dd6cd407b6d08f4c6f7395","","","","","1689",""," ","key"," ","6.060305755395734","500","250","zol","0.76","1","1","-0.56","3","4",""
"","psychophysics","177","972860","0.0-177.0","61140514150f4cdab3ba1f21","64dd6cd407b6d08f4c6f7395","","","","","1331",""," ","key"," ","6.060310502283032","500","250","zol","0.7899999999999999","1","1","-0.59","-19","10",""
"","psychophysics","178","975714","0.0-178.0","61140514150f4cdab3ba1f21","64dd6cd407b6d08f4c6f7395","","","","","2849",""," ","key"," ","6.060306382978563","500","250","zol","0.6699999999999999","1","1","-0.47","15","-8",""
"","psychophysics","179","976471","0.0-179.0","61140514150f4cdab3ba1f21","64dd6cd407b6d08f4c6f7395","","","","","756",""," ","key"," ","6.060322580645011","500","250","inst","","","","","","",""
"","psychophysics","180","980576","0.0-180.0","61140514150f4cdab3ba1f21","64dd6cd407b6d08f4c6f7395","","","","","4103",""," ","key"," ","6.060309171597763","500","250","instPog0","340","2","","370","0","0","340"
"","psychophysics","181","987242","0.0-181.0","61140514150f4cdab3ba1f21","64dd6cd407b6d08f4c6f7395","","","","","6663",""," ","key"," ","6.060308462238381","500","250","instPog1","346","2","","370","0","0","340"
"","psychophysics","182","989403","0.0-182.0","61140514150f4cdab3ba1f21","64dd6cd407b6d08f4c6f7395","","","","","2158",""," ","key"," ","6.060283707865198","500","250","instPog2","338","2","","340","0","0","340"
"","psychophysics","183","990264","0.0-183.0","61140514150f4cdab3ba1f21","64dd6cd407b6d08f4c6f7395","","","","","859",""," ","key"," ","6.0603687943261555","500","250","inst","","","","","","",""
"","psychophysics","184","995172","0.0-184.0","61140514150f4cdab3ba1f21","64dd6cd407b6d08f4c6f7395","","","","","4906",""," ","key"," ","6.060313967861551","500","250","pog","348","2","1","336","0","0","358"
"","psychophysics","185","998250","0.0-185.0","61140514150f4cdab3ba1f21","64dd6cd407b6d08f4c6f7395","","","","","3077",""," ","key"," ","6.060287968441798","500","250","pog","365","2","1","341","0","0","372"
"","psychophysics","186","1006254","0.0-186.0","61140514150f4cdab3ba1f21","64dd6cd407b6d08f4c6f7395","","","","","null","","null","key","null","6.074123860182387","500","250","pog","310","2","1","398","0","0","316"
"","psychophysics","187","1014260","0.0-187.0","61140514150f4cdab3ba1f21","64dd6cd407b6d08f4c6f7395","","","","","null","","null","key","null","6.069505311077395","500","250","pog","339","2","1","395","0","0","337"
"","psychophysics","188","1018019","0.0-188.0","61140514150f4cdab3ba1f21","64dd6cd407b6d08f4c6f7395","","","","","3756",""," ","key"," ","6.060316129032177","500","250","pog","356","2","1","314","0","0","357"
"","psychophysics","189","1024086","0.0-189.0","61140514150f4cdab3ba1f21","64dd6cd407b6d08f4c6f7395","","","","","6065",""," ","key"," ","6.436632306057431","500","250","pog","362","2","1","330","0","0","359"
"","psychophysics","190","1029100","0.0-190.0","61140514150f4cdab3ba1f21","64dd6cd407b6d08f4c6f7395","","","","","5012",""," ","key"," ","6.995082402234544","500","250","pog","379","2","1","307","0","0","375"
"","psychophysics","191","1035178","0.0-191.0","61140514150f4cdab3ba1f21","64dd6cd407b6d08f4c6f7395","","","","","6076",""," ","key"," ","6.058394211576787","500","250","pog","329","2","1","311","0","0","342"
"","psychophysics","192","1040128","0.0-192.0","61140514150f4cdab3ba1f21","64dd6cd407b6d08f4c6f7395","","","","","4948",""," ","key"," ","6.060253676470608","500","250","pog","316","2","1","338","0","0","318"
"","psychophysics","193","1041639","0.0-193.0","61140514150f4cdab3ba1f21","64dd6cd407b6d08f4c6f7395","","","","","1509",""," ","key"," ","6.0603588709679075","500","250","pog","377","2","1","377","0","0","376"
"","psychophysics","194","1043127","0.0-194.0","61140514150f4cdab3ba1f21","64dd6cd407b6d08f4c6f7395","","","","","1484",""," ","key"," ","6.060265306122506","500","250","pog","343","2","1","347","0","0","352"
"","psychophysics","195","1046958","0.0-195.0","61140514150f4cdab3ba1f21","64dd6cd407b6d08f4c6f7395","","","","","3829",""," ","key"," ","6.06031537242492","500","250","pog","347","2","1","381","0","0","347"
"","psychophysics","196","1049135","0.0-196.0","61140514150f4cdab3ba1f21","64dd6cd407b6d08f4c6f7395","","","","","2174",""," ","key"," ","6.0603324022350895","500","250","pog","363","2","1","383","0","0","361"
"","psychophysics","197","1053124","0.0-197.0","61140514150f4cdab3ba1f21","64dd6cd407b6d08f4c6f7395","","","","","3987",""," ","key"," ","6.060295281583044","500","250","pog","332","2","1","364","0","0","339"
"","psychophysics","198","1058297","0.0-198.0","61140514150f4cdab3ba1f21","64dd6cd407b6d08f4c6f7395","","","","","5170",""," ","key"," ","6.060305978897861","500","250","pog","380","2","1","306","0","0","374"
"","psychophysics","199","1059242","0.0-199.0","61140514150f4cdab3ba1f21","64dd6cd407b6d08f4c6f7395","","","","","943",""," ","key"," ","6.0603161290318015","500","250","inst","","","","","","",""
"","psychophysics","200","1065669","0.0-200.0","61140514150f4cdab3ba1f21","64dd6cd407b6d08f4c6f7395","","","","","6425",""," ","key"," ","6.060305004721557","500","250","instEB1","70","1","","80","0","0","70"
"","psychophysics","201","1069906","0.0-201.0","61140514150f4cdab3ba1f21","64dd6cd407b6d08f4c6f7395","","","","","4226",""," ","key"," ","6.060309455587587","500","250","instEB2","63","1","","80","0","0","65"
"","psychophysics","202","1072520","0.0-202.0","61140514150f4cdab3ba1f21","64dd6cd407b6d08f4c6f7395","","","","","2610",""," ","key"," ","6.060322505800624","500","250","instEB3","80","1","","65","0","0","80"
"","psychophysics","203","1079535","0.0-203.0","61140514150f4cdab3ba1f21","64dd6cd407b6d08f4c6f7395","","","","","7013",""," ","key"," ","6.060309688581208","500","250","instEB4","64","1","","70","0","0","65"
"","psychophysics","204","1080504","0.0-204.0","61140514150f4cdab3ba1f21","64dd6cd407b6d08f4c6f7395","","","","","966",""," ","key"," ","6.060327044024818","500","250","inst","","","","","","",""
"","psychophysics","205","1084071","0.0-205.0","61140514150f4cdab3ba1f21","64dd6cd407b6d08f4c6f7395","","","","","3563",""," ","key"," ","6.060321428571498","500","250","eb","73","1","1","90","0","0","74"
"","psychophysics","206","1086429","0.0-206.0","61140514150f4cdab3ba1f21","64dd6cd407b6d08f4c6f7395","","","","","2356",""," ","key"," ","6.060286082473785","500","250","eb","58","1","1","63","0","0","61"
"","psychophysics","207","1090358","0.0-207.0","61140514150f4cdab3ba1f21","64dd6cd407b6d08f4c6f7395","","","","","3926",""," ","key"," ","6.0603075734159","500","250","eb","79","1","1","82","0","0","81"
"","psychophysics","208","1092960","0.0-208.0","61140514150f4cdab3ba1f21","64dd6cd407b6d08f4c6f7395","","","","","2597",""," ","key"," ","6.060322429907017","500","250","eb","76","1","1","71","0","0","81"
"","psychophysics","209","1095090","0.0-209.0","61140514150f4cdab3ba1f21","64dd6cd407b6d08f4c6f7395","","","","","2127",""," ","key"," ","6.060282051282009","500","250","eb","79","1","1","81","0","0","82"
"","psychophysics","210","1098604","0.0-210.0","61140514150f4cdab3ba1f21","64dd6cd407b6d08f4c6f7395","","","","","3511",""," ","key"," ","6.060321243523277","500","250","eb","68","1","1","80","0","0","64"
"","psychophysics","211","1102536","0.0-211.0","61140514150f4cdab3ba1f21","64dd6cd407b6d08f4c6f7395","","","","","3924",""," ","key"," ","6.060282407407534","500","250","eb","94","1","1","64","0","0","87"
"","psychophysics","212","1104224","0.0-212.0","61140514150f4cdab3ba1f21","64dd6cd407b6d08f4c6f7395","","","","","1685",""," ","key"," ","6.060267148014084","500","250","eb","90","1","1","87","0","0","88"
"","psychophysics","213","1108245","0.0-213.0","61140514150f4cdab3ba1f21","64dd6cd407b6d08f4c6f7395","","","","","4018",""," ","key"," ","6.0603212669683515","500","250","eb","82","1","1","76","0","0","79"
"","psychophysics","214","1110769","0.0-214.0","61140514150f4cdab3ba1f21","64dd6cd407b6d08f4c6f7395","","","","","2521",""," ","key"," ","6.060298795180665","500","250","eb","64","1","1","64","0","0","61"
"","psychophysics","215","1113004","0.0-215.0","61140514150f4cdab3ba1f21","64dd6cd407b6d08f4c6f7395","","","","","2231",""," ","key"," ","6.0603070652173106","500","250","eb","94","1","1","87","0","0","88"
"","psychophysics","216","1116532","0.0-216.0","61140514150f4cdab3ba1f21","64dd6cd407b6d08f4c6f7395","","","","","3526",""," ","key"," ","6.060311531841598","500","250","eb","68","1","1","88","0","0","66"
"","psychophysics","217","1117427","0.0-217.0","61140514150f4cdab3ba1f21","64dd6cd407b6d08f4c6f7395","","","","","891",""," ","key"," ","6.060285714285474","500","250","eb","66","1","1","66","0","0","66"
"","psychophysics","218","1119097","0.0-218.0","61140514150f4cdab3ba1f21","64dd6cd407b6d08f4c6f7395","","","","","1667",""," ","key"," ","6.060459854014143","500","250","eb","65","1","1","67","0","0","64"
"","psychophysics","219","1122162","0.0-219.0","61140514150f4cdab3ba1f21","64dd6cd407b6d08f4c6f7395","","","","","3061",""," ","key"," ","6.060316831683094","500","250","eb","98","1","1","77","0","0","90"
