"success","trial_type","trial_index","time_elapsed","internal_node_id","pid","sid","timeout","failed_images","failed_audio","failed_video","rt","stimulus","response","response_type","key_press","avg_frame_time","center_x","center_y","task","resp","version","block","start","jitterX","jitterY","parA"
"true","fullscreen","0","4070","0.0-0.0","63d80e0449b458dd5f8140be","64e50ef39eec043feff0acc8","","","","","","","","","","","","","","","","","","","",""
"true","preload","1","4188","0.0-1.0","63d80e0449b458dd5f8140be","64e50ef39eec043feff0acc8","false","[]","[]","[]","","","","","","","","","","","","","","","",""
"","html-button-response","2","5508","0.0-2.0","63d80e0449b458dd5f8140be","64e50ef39eec043feff0acc8","","","","","1320","Please Make Sure Your Audio Is On.","0","","","","","","","","","","","","",""
"","psychophysics","3","9596","0.0-3.0","63d80e0449b458dd5f8140be","64e50ef39eec043feff0acc8","","","","","4085",""," ","key"," ","16.666881632653062","960","250","","","","","","","",""
"","psychophysics","4","11556","0.0-4.0","63d80e0449b458dd5f8140be","64e50ef39eec043feff0acc8","","","","","1959",""," ","key"," ","16.66605128205128","500","250","inst","","","","","","",""
"","psychophysics","5","13996","0.0-5.0","63d80e0449b458dd5f8140be","64e50ef39eec043feff0acc8","","","","","2439",""," ","key"," ","16.666965517241387","500","250","sample0","","","","","","",""
"","psychophysics","6","15828","0.0-6.0","63d80e0449b458dd5f8140be","64e50ef39eec043feff0acc8","","","","","1831",""," ","key"," ","16.666990825688067","500","250","sample1","","","","","","",""
"","psychophysics","7","26716","0.0-7.0","63d80e0449b458dd5f8140be","64e50ef39eec043feff0acc8","","","","","10887",""," ","key"," ","16.666723926380364","500","250","sample2","100","","","","","",""
"","psychophysics","8","31068","0.0-8.0","63d80e0449b458dd5f8140be","64e50ef39eec043feff0acc8","","","","","4350",""," ","key"," ","16.666661538461547","500","250","sample3","102","","","","","",""
"","psychophysics","9","35548","0.0-9.0","63d80e0449b458dd5f8140be","64e50ef39eec043feff0acc8","","","","","4478",""," ","key"," ","16.66709701492537","500","250","sample4","102","","","","","",""
"","psychophysics","10","38604","0.0-10.0","63d80e0449b458dd5f8140be","64e50ef39eec043feff0acc8","","","","","3055",""," ","key"," ","16.666836065573744","500","250","sample5","","","","","","",""
"","psychophysics","11","44259","0.0-11.0","63d80e0449b458dd5f8140be","64e50ef39eec043feff0acc8","","","","","5655",""," ","key"," ","16.66684319526628","500","250","sample6","500","","","","","",""
"","psychophysics","12","49027","0.0-12.0","63d80e0449b458dd5f8140be","64e50ef39eec043feff0acc8","","","","","4767",""," ","key"," ","16.666740350877195","500","250","inst","","","","","","",""
"","psychophysics","13","56587","0.0-13.0","63d80e0449b458dd5f8140be","64e50ef39eec043feff0acc8","","","","","7559",""," ","key"," ","16.666898454746143","500","250","inst","","","","","","",""
"","psychophysics","14","58195","0.0-14.0","63d80e0449b458dd5f8140be","64e50ef39eec043feff0acc8","","","","","1607",""," ","key"," ","16.66616842105263","500","250","inst","","","","","","",""
"","psychophysics","15","58771","0.0-15.0","63d80e0449b458dd5f8140be","64e50ef39eec043feff0acc8","","","","","575",""," ","key"," ","16.669117647058822","500","250","inst","","","","","","",""
"","psychophysics","16","60331","0.0-16.0","63d80e0449b458dd5f8140be","64e50ef39eec043feff0acc8","","","","","1559",""," ","key"," ","16.6668913043479","500","250","inst","","","","","","",""
"","psychophysics","17","62499","0.0-17.0","63d80e0449b458dd5f8140be","64e50ef39eec043feff0acc8","","","","","2167",""," ","key"," ","16.666767441860458","500","250","instEB0","40","2","","40","0","0","40"
"","psychophysics","18","65971","0.0-18.0","63d80e0449b458dd5f8140be","64e50ef39eec043feff0acc8","","","","","3471",""," ","key"," ","16.666927884615372","500","250","instEB1","41","2","","30","0","0","40"
"","psychophysics","19","70587","0.0-19.0","63d80e0449b458dd5f8140be","64e50ef39eec043feff0acc8","","","","","4615",""," ","key"," ","16.788514598540146","500","250","instEB2","33","2","","40","0","0","30"
"","psychophysics","20","76067","0.0-20.0","63d80e0449b458dd5f8140be","64e50ef39eec043feff0acc8","","","","","5479",""," ","key"," ","16.66705504587158","500","250","instEB3","33","2","","45","0","0","27"
"","psychophysics","21","79931","0.0-21.0","63d80e0449b458dd5f8140be","64e50ef39eec043feff0acc8","","","","","3862",""," ","key"," ","16.666740259740227","500","250","instEB4","47","2","","30","0","0","40"
"","psychophysics","22","83691","0.0-22.0","63d80e0449b458dd5f8140be","64e50ef39eec043feff0acc8","","","","","3759",""," ","key"," ","16.666737777777794","500","250","inst","","","","","","",""
"","psychophysics","23","87923","0.0-23.0","63d80e0449b458dd5f8140be","64e50ef39eec043feff0acc8","","","","","4231",""," ","key"," ","16.666798418972377","500","250","eb","52","2","","50","0","0","45"
"","psychophysics","24","90971","0.0-24.0","63d80e0449b458dd5f8140be","64e50ef39eec043feff0acc8","","","","","3047",""," ","key"," ","16.666615384615426","500","250","eb","46","2","","34","0","0","40"
"","psychophysics","25","94459","0.0-25.0","63d80e0449b458dd5f8140be","64e50ef39eec043feff0acc8","","","","","3487",""," ","key"," ","16.666807692307746","500","250","eb","27","2","","47","0","0","25"
"","psychophysics","26","96395","0.0-26.0","63d80e0449b458dd5f8140be","64e50ef39eec043feff0acc8","","","","","1935",""," ","key"," ","16.66654782608688","500","250","eb","31","2","","30","0","0","28"
"","psychophysics","27","98620","0.0-27.0","63d80e0449b458dd5f8140be","64e50ef39eec043feff0acc8","","","","","2223",""," ","key"," ","16.667248120300798","500","250","eb","32","2","","29","0","0","28"
"","psychophysics","28","103636","0.0-28.0","63d80e0449b458dd5f8140be","64e50ef39eec043feff0acc8","","","","","5014",""," ","key"," ","16.666959866220743","500","250","eb","26","2","","54","0","0","24"
"","psychophysics","29","105267","0.0-29.0","63d80e0449b458dd5f8140be","64e50ef39eec043feff0acc8","","","","","1629",""," ","key"," ","16.667206185566982","500","250","eb","33","2","","25","0","0","28"
"","psychophysics","30","109275","0.0-30.0","63d80e0449b458dd5f8140be","64e50ef39eec043feff0acc8","","","","","4007",""," ","key"," ","16.666833333333308","500","250","eb","50","2","","33","0","0","43"
"","psychophysics","31","112587","0.0-31.0","63d80e0449b458dd5f8140be","64e50ef39eec043feff0acc8","","","","","3311",""," ","key"," ","16.666984848484823","500","250","eb","42","2","","40","0","0","35"
"","psychophysics","32","115188","0.0-32.0","63d80e0449b458dd5f8140be","64e50ef39eec043feff0acc8","","","","","2598",""," ","key"," ","16.666954838709753","500","250","eb","59","2","","54","0","0","50"
"","psychophysics","33","117915","0.0-33.0","63d80e0449b458dd5f8140be","64e50ef39eec043feff0acc8","","","","","2726",""," ","key"," ","16.66659259259258","500","250","eb","45","2","","34","0","0","45"
"","psychophysics","34","121763","0.0-34.0","63d80e0449b458dd5f8140be","64e50ef39eec043feff0acc8","","","","","3847",""," ","key"," ","16.666821739130462","500","250","eb","26","2","","54","0","0","24"
"","psychophysics","35","124667","0.0-35.0","63d80e0449b458dd5f8140be","64e50ef39eec043feff0acc8","","","","","2903",""," ","key"," ","16.66675722543354","500","250","eb","55","2","","52","0","0","50"
"","psychophysics","36","127947","0.0-36.0","63d80e0449b458dd5f8140be","64e50ef39eec043feff0acc8","","","","","3279",""," ","key"," ","16.667209183673474","500","250","eb","53","2","","25","0","0","50"
"","psychophysics","37","131443","0.0-37.0","63d80e0449b458dd5f8140be","64e50ef39eec043feff0acc8","","","","","3495",""," ","key"," ","16.66677990430624","500","250","eb","50","2","","27","0","0","45"
"","psychophysics","38","133891","0.0-38.0","63d80e0449b458dd5f8140be","64e50ef39eec043feff0acc8","","","","","2447",""," ","key"," ","16.666808219178026","500","250","inst","","","","","","",""
"","psychophysics","39","140027","0.0-39.0","63d80e0449b458dd5f8140be","64e50ef39eec043feff0acc8","","","","","6135",""," ","key"," ","16.66694277929158","500","250","instPog0","160","1","","190","0","0","160"
"","psychophysics","40","144067","0.0-40.0","63d80e0449b458dd5f8140be","64e50ef39eec043feff0acc8","","","","","4039",""," ","key"," ","16.666838174273792","500","250","instPog1","168","1","","190","0","0","160"
"","psychophysics","41","148747","0.0-41.0","63d80e0449b458dd5f8140be","64e50ef39eec043feff0acc8","","","","","4679",""," ","key"," ","16.666953571428582","500","250","instPog2","174","1","","160","0","0","160"
"","psychophysics","42","149755","0.0-42.0","63d80e0449b458dd5f8140be","64e50ef39eec043feff0acc8","","","","","1007",""," ","key"," ","16.667216666666597","500","250","inst","","","","","","",""
"","psychophysics","43","153003","0.0-43.0","63d80e0449b458dd5f8140be","64e50ef39eec043feff0acc8","","","","","3247",""," ","key"," ","16.66684536082483","500","250","pog","157","1","0","115","0","0","137"
"","psychophysics","44","155291","0.0-44.0","63d80e0449b458dd5f8140be","64e50ef39eec043feff0acc8","","","","","2286",""," ","key"," ","16.666897058823558","500","250","pog","170","1","0","184","0","0","138"
"","psychophysics","45","159643","0.0-45.0","63d80e0449b458dd5f8140be","64e50ef39eec043feff0acc8","","","","","4351",""," ","key"," ","16.666630769230743","500","250","pog","214","1","0","170","0","0","188"
"","psychophysics","46","162379","0.0-46.0","63d80e0449b458dd5f8140be","64e50ef39eec043feff0acc8","","","","","2735",""," ","key"," ","16.667417177914228","500","250","pog","171","1","0","171","0","0","146"
"","psychophysics","47","165043","0.0-47.0","63d80e0449b458dd5f8140be","64e50ef39eec043feff0acc8","","","","","2663",""," ","key"," ","16.666704402515684","500","250","pog","193","1","0","195","0","0","167"
"","psychophysics","48","167939","0.0-48.0","63d80e0449b458dd5f8140be","64e50ef39eec043feff0acc8","","","","","2895",""," ","key"," ","16.666988439306333","500","250","pog","199","1","0","189","0","0","177"
"","psychophysics","49","172299","0.0-49.0","63d80e0449b458dd5f8140be","64e50ef39eec043feff0acc8","","","","","4359",""," ","key"," ","16.66685384615378","500","250","pog","182","1","0","134","0","0","154"
"","psychophysics","50","176835","0.0-50.0","63d80e0449b458dd5f8140be","64e50ef39eec043feff0acc8","","","","","4535",""," ","key"," ","16.66654981549819","500","250","pog","210","1","0","120","0","0","182"
"","psychophysics","51","180859","0.0-51.0","63d80e0449b458dd5f8140be","64e50ef39eec043feff0acc8","","","","","4022",""," ","key"," ","16.666838174273913","500","250","pog","194","1","0","168","0","0","178"
"","psychophysics","52","183507","0.0-52.0","63d80e0449b458dd5f8140be","64e50ef39eec043feff0acc8","","","","","2647",""," ","key"," ","16.666879746835434","500","250","pog","181","1","0","199","0","0","159"
"","psychophysics","53","186764","0.0-53.0","63d80e0449b458dd5f8140be","64e50ef39eec043feff0acc8","","","","","3255",""," ","key"," ","16.666603092783486","500","250","pog","191","1","0","109","0","0","173"
"","psychophysics","54","189516","0.0-54.0","63d80e0449b458dd5f8140be","64e50ef39eec043feff0acc8","","","","","2751",""," ","key"," ","16.667000000000037","500","250","pog","168","1","0","136","0","0","151"
"","psychophysics","55","191523","0.0-55.0","63d80e0449b458dd5f8140be","64e50ef39eec043feff0acc8","","","","","2007",""," ","key"," ","16.6672583333333","500","250","pog","162","1","0","182","0","0","130"
"","psychophysics","56","193651","0.0-56.0","63d80e0449b458dd5f8140be","64e50ef39eec043feff0acc8","","","","","2127",""," ","key"," ","16.66655555555559","500","250","pog","157","1","0","121","0","0","147"
"","psychophysics","57","196219","0.0-57.0","63d80e0449b458dd5f8140be","64e50ef39eec043feff0acc8","","","","","2567",""," ","key"," ","16.66641176470595","500","250","pog","171","1","0","125","0","0","152"
"","psychophysics","58","196899","0.0-58.0","63d80e0449b458dd5f8140be","64e50ef39eec043feff0acc8","","","","","678",""," ","key"," ","16.66854999999996","500","250","inst","","","","","","",""
"","psychophysics","59","198443","0.0-59.0","63d80e0449b458dd5f8140be","64e50ef39eec043feff0acc8","","","","","1543",""," ","key"," ","16.666065217391207","500","250","instZol0","0","","","0","0","0",""
"","psychophysics","60","201515","0.0-60.0","63d80e0449b458dd5f8140be","64e50ef39eec043feff0acc8","","","","","3071",""," ","key"," ","16.66686885245908","500","250","instZol1","1.2","","","-1.3","0","0",""
"","psychophysics","61","204868","0.0-61.0","63d80e0449b458dd5f8140be","64e50ef39eec043feff0acc8","","","","","3351",""," ","key"," ","16.667149999999964","500","250","instZol2","-0.49999999999999933","1","","2","0","0",""
"","psychophysics","62","205843","0.0-62.0","63d80e0449b458dd5f8140be","64e50ef39eec043feff0acc8","","","","","975",""," ","key"," ","16.667620689655326","500","250","inst","","","","","","",""
"","psychophysics","63","211299","0.0-63.0","63d80e0449b458dd5f8140be","64e50ef39eec043feff0acc8","","","","","5454",""," ","key"," ","16.66677914110428","500","250","zol","1.18","1","0","-0.08","-21","-19",""
"","psychophysics","64","216396","0.0-64.0","63d80e0449b458dd5f8140be","64e50ef39eec043feff0acc8","","","","","5095",""," ","key"," ","16.66715081967213","500","250","zol","0.9899999999999999","1","0","0.11","5","4",""
"","psychophysics","65","224399","0.0-65.0","63d80e0449b458dd5f8140be","64e50ef39eec043feff0acc8","","","","","null","","null","key","null","16.666864300626273","500","250","zol","0.7999999999999999","1","0","0.3","-14","13",""
"","psychophysics","66","224436","0.0-66.0","63d80e0449b458dd5f8140be","64e50ef39eec043feff0acc8","","","","","35",""," ","key"," ","16.593000000022585","500","250","zol","-0.06","1","0","0.06","26","20",""
"","psychophysics","67","227524","0.0-67.0","63d80e0449b458dd5f8140be","64e50ef39eec043feff0acc8","","","","","3086",""," ","key"," ","16.66684864864864","500","250","zol","0.7599999999999999","1","0","0.74","-12","4",""
"","psychophysics","68","232228","0.0-68.0","63d80e0449b458dd5f8140be","64e50ef39eec043feff0acc8","","","","","4702",""," ","key"," ","16.66687544483983","500","250","zol","0.37","1","0","0.33","27","18",""
"","psychophysics","69","235516","0.0-69.0","63d80e0449b458dd5f8140be","64e50ef39eec043feff0acc8","","","","","3286",""," ","key"," ","16.66676530612253","500","250","zol","0.6799999999999999","1","0","0.72","13","-14",""
"","psychophysics","70","238828","0.0-70.0","63d80e0449b458dd5f8140be","64e50ef39eec043feff0acc8","","","","","3310",""," ","key"," ","16.666914141414136","500","250","zol","0.72","1","0","0.48","-11","-4",""
"","psychophysics","71","241708","0.0-71.0","63d80e0449b458dd5f8140be","64e50ef39eec043feff0acc8","","","","","2878",""," ","key"," ","16.66709302325576","500","250","zol","0.49","1","0","0.21","-1","-5",""
"","psychophysics","72","243692","0.0-72.0","63d80e0449b458dd5f8140be","64e50ef39eec043feff0acc8","","","","","1983",""," ","key"," ","16.666711864406707","500","250","zol","0.49","1","0","-0.09","6","5",""
"","psychophysics","73","245484","0.0-73.0","63d80e0449b458dd5f8140be","64e50ef39eec043feff0acc8","","","","","1790",""," ","key"," ","16.66754716981141","500","250","zol","0.30000000000000004","1","0","0.2","7","13",""
"","psychophysics","74","247636","0.0-74.0","63d80e0449b458dd5f8140be","64e50ef39eec043feff0acc8","","","","","2151",""," ","key"," ","16.66732812500004","500","250","zol","1.0399999999999998","1","0","-0.24","-21","8",""
"","psychophysics","75","249508","0.0-75.0","63d80e0449b458dd5f8140be","64e50ef39eec043feff0acc8","","","","","1871",""," ","key"," ","16.666758928571394","500","250","zol","0.2399999999999999","1","0","0.56","-18","-3",""
"","psychophysics","76","252789","0.0-76.0","63d80e0449b458dd5f8140be","64e50ef39eec043feff0acc8","","","","","3279",""," ","key"," ","16.666545918367405","500","250","zol","0.8200000000000001","1","0","-0.72","-18","25",""
"","psychophysics","77","255252","0.0-77.0","63d80e0449b458dd5f8140be","64e50ef39eec043feff0acc8","","","","","2462",""," ","key"," ","16.666650684931547","500","250","zol","0.57","1","0","0.23","-20","14",""
"","psychophysics","78","256124","0.0-78.0","63d80e0449b458dd5f8140be","64e50ef39eec043feff0acc8","","","","","871",""," ","key"," ","16.66751923076943","500","250","inst","","","","","","",""
"","psychophysics","79","257228","0.0-79.0","63d80e0449b458dd5f8140be","64e50ef39eec043feff0acc8","","","","","1103",""," ","key"," ","16.66798461538453","500","250","instPzPre","50","0","","50","","","50"
"","psychophysics","80","258956","0.0-80.0","63d80e0449b458dd5f8140be","64e50ef39eec043feff0acc8","","","","","1727",""," ","key"," ","16.66692233009708","500","250","instPz0","51","1","","50","","","50"
"","psychophysics","81","264508","0.0-81.0","63d80e0449b458dd5f8140be","64e50ef39eec043feff0acc8","","","","","5551",""," ","key"," ","16.666653614457914","500","250","instPz1","61","1","","25","","","50"
"","psychophysics","82","267780","0.0-82.0","63d80e0449b458dd5f8140be","64e50ef39eec043feff0acc8","","","","","3270",""," ","key"," ","16.66725128205129","500","250","instPz2","19","1","","35","","","20"
"","psychophysics","83","271940","0.0-83.0","63d80e0449b458dd5f8140be","64e50ef39eec043feff0acc8","","","","","4158",""," ","key"," ","17.00854918032791","500","250","instPz3","34","1","","100","","","30"
"","psychophysics","84","276180","0.0-84.0","63d80e0449b458dd5f8140be","64e50ef39eec043feff0acc8","","","","","4239",""," ","key"," ","16.666766798418898","500","250","instPz4","28","1","","100","","","30"
"","psychophysics","85","276916","0.0-85.0","63d80e0449b458dd5f8140be","64e50ef39eec043feff0acc8","","","","","735",""," ","key"," ","16.665697674418606","500","250","inst","","","","","","",""
"","psychophysics","86","279612","0.0-86.0","63d80e0449b458dd5f8140be","64e50ef39eec043feff0acc8","","","","","2695",""," ","key"," ","16.66614906832298","500","250","pz","44","1","0","53","","","44"
"","psychophysics","87","283140","0.0-87.0","63d80e0449b458dd5f8140be","64e50ef39eec043feff0acc8","","","","","3527",""," ","key"," ","16.666568720379185","500","250","pz","54","1","0","41","","","54"
"","psychophysics","88","286012","0.0-88.0","63d80e0449b458dd5f8140be","64e50ef39eec043feff0acc8","","","","","2870",""," ","key"," ","16.66687134502909","500","250","pz","22","1","0","30","","","21"
"","psychophysics","89","289380","0.0-89.0","63d80e0449b458dd5f8140be","64e50ef39eec043feff0acc8","","","","","3367",""," ","key"," ","16.666328358209103","500","250","pz","34","1","0","49","","","31"
"","psychophysics","90","291908","0.0-90.0","63d80e0449b458dd5f8140be","64e50ef39eec043feff0acc8","","","","","2527",""," ","key"," ","16.666701986754717","500","250","pz","33","1","0","46","","","30"
"","psychophysics","91","294076","0.0-91.0","63d80e0449b458dd5f8140be","64e50ef39eec043feff0acc8","","","","","2166",""," ","key"," ","16.66690697674432","500","250","pz","21","1","0","30","","","21"
"","psychophysics","92","296604","0.0-92.0","63d80e0449b458dd5f8140be","64e50ef39eec043feff0acc8","","","","","2526",""," ","key"," ","16.667273333333434","500","250","pz","57","1","0","42","","","60"
"","psychophysics","93","300036","0.0-93.0","63d80e0449b458dd5f8140be","64e50ef39eec043feff0acc8","","","","","3430",""," ","key"," ","16.66671707317057","500","250","pz","28","1","0","52","","","22"
"","psychophysics","94","303052","0.0-94.0","63d80e0449b458dd5f8140be","64e50ef39eec043feff0acc8","","","","","3009",""," ","key"," ","16.666855555555472","500","250","pz","32","1","0","58","","","28"
"","psychophysics","95","305684","0.0-95.0","63d80e0449b458dd5f8140be","64e50ef39eec043feff0acc8","","","","","2631",""," ","key"," ","16.6665286624205","500","250","pz","26","1","0","35","","","24"
"","psychophysics","96","308276","0.0-96.0","63d80e0449b458dd5f8140be","64e50ef39eec043feff0acc8","","","","","2591",""," ","key"," ","16.66672258064519","500","250","pz","29","1","0","53","","","25"
"","psychophysics","97","310260","0.0-97.0","63d80e0449b458dd5f8140be","64e50ef39eec043feff0acc8","","","","","1983",""," ","key"," ","16.66736440677975","500","250","pz","31","1","0","23","","","24"
"","psychophysics","98","312500","0.0-98.0","63d80e0449b458dd5f8140be","64e50ef39eec043feff0acc8","","","","","2239",""," ","key"," ","16.666443609022465","500","250","pz","35","1","0","28","","","32"
"","psychophysics","99","314020","0.0-99.0","63d80e0449b458dd5f8140be","64e50ef39eec043feff0acc8","","","","","1519",""," ","key"," ","16.666688888889297","500","250","pz","26","1","0","25","","","22"
"","psychophysics","100","315980","0.0-100.0","63d80e0449b458dd5f8140be","64e50ef39eec043feff0acc8","","","","","1959",""," ","key"," ","16.66653846153884","500","250","pz","41","1","0","31","","","42"
"","psychophysics","101","316828","0.0-101.0","63d80e0449b458dd5f8140be","64e50ef39eec043feff0acc8","","","","","847",""," ","key"," ","16.666620000000112","500","250","inst","","","","","","",""
"","psychophysics","102","317988","0.0-102.0","63d80e0449b458dd5f8140be","64e50ef39eec043feff0acc8","","","","","1159",""," ","key"," ","16.667191176470677","500","250","instBr0","0","","","0","0","0","300"
"","psychophysics","103","318836","0.0-103.0","63d80e0449b458dd5f8140be","64e50ef39eec043feff0acc8","","","","","846",""," ","key"," ","16.667280000000027","500","250","instBr1","-40","","","-40","0","0","300"
"","psychophysics","104","319388","0.0-104.0","63d80e0449b458dd5f8140be","64e50ef39eec043feff0acc8","","","","","551",""," ","key"," ","16.66503124999872","500","250","instBr3","40","2","","40","0","0","300"
"","psychophysics","105","320276","0.0-105.0","63d80e0449b458dd5f8140be","64e50ef39eec043feff0acc8","","","","","886",""," ","key"," ","16.666471698112733","500","250","inst","","","","","","",""
"","psychophysics","106","324300","0.0-106.0","63d80e0449b458dd5f8140be","64e50ef39eec043feff0acc8","","","","","4023",""," ","key"," ","16.667041666666773","500","250","br","12","2","0","-10","-5","-16","200"
"","psychophysics","107","326756","0.0-107.0","63d80e0449b458dd5f8140be","64e50ef39eec043feff0acc8","","","","","2455",""," ","key"," ","16.667122448979462","500","250","br","9","2","0","-19","-5","-3","293"
"","psychophysics","108","328980","0.0-108.0","63d80e0449b458dd5f8140be","64e50ef39eec043feff0acc8","","","","","2222",""," ","key"," ","16.6675530303028","500","250","br","13","2","0","-27","29","-4","273"
"","psychophysics","109","330684","0.0-109.0","63d80e0449b458dd5f8140be","64e50ef39eec043feff0acc8","","","","","1703",""," ","key"," ","16.666861386138642","500","250","br","15","2","0","8","20","7","274"
"","psychophysics","110","332004","0.0-110.0","63d80e0449b458dd5f8140be","64e50ef39eec043feff0acc8","","","","","1319",""," ","key"," ","16.667884615384256","500","250","br","15","2","0","4","21","6","260"
"","psychophysics","111","333636","0.0-111.0","63d80e0449b458dd5f8140be","64e50ef39eec043feff0acc8","","","","","1631",""," ","key"," ","16.666876288659548","500","250","br","14","2","0","23","2","-28","206"
"","psychophysics","112","336604","0.0-112.0","63d80e0449b458dd5f8140be","64e50ef39eec043feff0acc8","","","","","2967",""," ","key"," ","16.66682485875701","500","250","br","16","2","0","-27","-8","6","273"
"","psychophysics","113","338012","0.0-113.0","63d80e0449b458dd5f8140be","64e50ef39eec043feff0acc8","","","","","1407",""," ","key"," ","16.667107142857276","500","250","br","13","2","0","18","-22","-27","229"
"","psychophysics","114","340116","0.0-114.0","63d80e0449b458dd5f8140be","64e50ef39eec043feff0acc8","","","","","2103",""," ","key"," ","16.666248000000138","500","250","br","13","2","0","18","-15","0","229"
"","psychophysics","115","341571","0.0-115.0","63d80e0449b458dd5f8140be","64e50ef39eec043feff0acc8","","","","","1454",""," ","key"," ","16.667709302325694","500","250","br","9","2","0","-1","-17","-8","229"
"","psychophysics","116","343675","0.0-116.0","63d80e0449b458dd5f8140be","64e50ef39eec043feff0acc8","","","","","2102",""," ","key"," ","16.667230158730128","500","250","br","14","2","0","-17","25","19","275"
"","psychophysics","117","346795","0.0-117.0","63d80e0449b458dd5f8140be","64e50ef39eec043feff0acc8","","","","","3119",""," ","key"," ","16.66638172043003","500","250","br","13","2","0","-21","16","18","238"
"","psychophysics","118","349459","0.0-118.0","63d80e0449b458dd5f8140be","64e50ef39eec043feff0acc8","","","","","2663",""," ","key"," ","16.66703773584911","500","250","br","19","2","0","-17","2","-24","237"
"","psychophysics","119","351075","0.0-119.0","63d80e0449b458dd5f8140be","64e50ef39eec043feff0acc8","","","","","1611",""," ","key"," ","16.667697916666537","500","250","br","13","2","0","12","27","18","284"
"","psychophysics","120","353035","0.0-120.0","63d80e0449b458dd5f8140be","64e50ef39eec043feff0acc8","","","","","1959",""," ","key"," ","16.6670172413794","500","250","br","20","2","0","0","16","14","236"
"","psychophysics","121","353651","0.0-121.0","63d80e0449b458dd5f8140be","64e50ef39eec043feff0acc8","","","","","615",""," ","key"," ","16.668527777777246","500","250","inst","","","","","","",""
"","psychophysics","122","356323","0.0-122.0","63d80e0449b458dd5f8140be","64e50ef39eec043feff0acc8","","","","","2671",""," ","key"," ","16.66656249999978","500","250","instBr3","40","1","","40","0","0","300"
"","psychophysics","123","357211","0.0-123.0","63d80e0449b458dd5f8140be","64e50ef39eec043feff0acc8","","","","","887",""," ","key"," ","16.66707692307738","500","250","inst","","","","","","",""
"","psychophysics","124","359627","0.0-124.0","63d80e0449b458dd5f8140be","64e50ef39eec043feff0acc8","","","","","2415",""," ","key"," ","16.666319444444525","500","250","br","-9","1","1","-5","23","0","230"
"","psychophysics","125","361819","0.0-125.0","63d80e0449b458dd5f8140be","64e50ef39eec043feff0acc8","","","","","2191",""," ","key"," ","16.6667076923074","500","250","br","-4","1","1","-27","-7","-24","202"
"","psychophysics","126","364131","0.0-126.0","63d80e0449b458dd5f8140be","64e50ef39eec043feff0acc8","","","","","2311",""," ","key"," ","16.66687681159406","500","250","br","-8","1","1","-16","2","17","237"
"","psychophysics","127","366627","0.0-127.0","63d80e0449b458dd5f8140be","64e50ef39eec043feff0acc8","","","","","2495",""," ","key"," ","16.666845637583798","500","250","br","-8","1","1","29","7","9","250"
"","psychophysics","128","369003","0.0-128.0","63d80e0449b458dd5f8140be","64e50ef39eec043feff0acc8","","","","","2375",""," ","key"," ","16.66698581560272","500","250","br","-9","1","1","28","-2","-18","245"
"","psychophysics","129","370491","0.0-129.0","63d80e0449b458dd5f8140be","64e50ef39eec043feff0acc8","","","","","1486",""," ","key"," ","16.66697752808961","500","250","br","-15","1","1","0","2","-17","207"
"","psychophysics","130","372459","0.0-130.0","63d80e0449b458dd5f8140be","64e50ef39eec043feff0acc8","","","","","1967",""," ","key"," ","16.66696581196609","500","250","br","-10","1","1","-22","-17","-23","292"
"","psychophysics","131","374156","0.0-131.0","63d80e0449b458dd5f8140be","64e50ef39eec043feff0acc8","","","","","1695",""," ","key"," ","16.666683168316464","500","250","br","-9","1","1","-20","-10","-15","284"
"","psychophysics","132","375771","0.0-132.0","63d80e0449b458dd5f8140be","64e50ef39eec043feff0acc8","","","","","1614",""," ","key"," ","16.666400000000202","500","250","br","-7","1","1","-23","-16","-28","246"
"","psychophysics","133","377699","0.0-133.0","63d80e0449b458dd5f8140be","64e50ef39eec043feff0acc8","","","","","1925",""," ","key"," ","16.66650434782597","500","250","br","-8","1","1","17","5","15","206"
"","psychophysics","134","379691","0.0-134.0","63d80e0449b458dd5f8140be","64e50ef39eec043feff0acc8","","","","","1991",""," ","key"," ","16.667579831932613","500","250","br","-21","1","1","8","11","14","278"
"","psychophysics","135","381315","0.0-135.0","63d80e0449b458dd5f8140be","64e50ef39eec043feff0acc8","","","","","1623",""," ","key"," ","16.667145833333052","500","250","br","-17","1","1","-6","-29","-19","244"
"","psychophysics","136","383403","0.0-136.0","63d80e0449b458dd5f8140be","64e50ef39eec043feff0acc8","","","","","2087",""," ","key"," ","16.667153225806562","500","250","br","-16","1","1","1","-26","-18","300"
"","psychophysics","137","384859","0.0-137.0","63d80e0449b458dd5f8140be","64e50ef39eec043feff0acc8","","","","","1455",""," ","key"," ","16.666655172413915","500","250","br","-15","1","1","-15","-25","-18","203"
"","psychophysics","138","387123","0.0-138.0","63d80e0449b458dd5f8140be","64e50ef39eec043feff0acc8","","","","","2263",""," ","key"," ","16.666422222222252","500","250","br","-12","1","1","-19","24","19","298"
"","psychophysics","139","387724","0.0-139.0","63d80e0449b458dd5f8140be","64e50ef39eec043feff0acc8","","","","","599",""," ","key"," ","16.665142857143657","500","250","inst","","","","","","",""
"","psychophysics","140","388707","0.0-140.0","63d80e0449b458dd5f8140be","64e50ef39eec043feff0acc8","","","","","982",""," ","key"," ","16.66689655172502","500","250","instPz1","25","2","","25","","","50"
"","psychophysics","141","394011","0.0-141.0","63d80e0449b458dd5f8140be","64e50ef39eec043feff0acc8","","","","","5303",""," ","key"," ","16.666735015772996","500","250","instPz2","34","2","","20","","","35"
"","psychophysics","142","397171","0.0-142.0","63d80e0449b458dd5f8140be","64e50ef39eec043feff0acc8","","","","","3159",""," ","key"," ","16.666968085106458","500","250","instPz3","82","2","","30","","","100"
"","psychophysics","143","400220","0.0-143.0","63d80e0449b458dd5f8140be","64e50ef39eec043feff0acc8","","","","","3046",""," ","key"," ","16.666802197802237","500","250","instPz4","78","2","","30","","","100"
"","psychophysics","144","400899","0.0-144.0","63d80e0449b458dd5f8140be","64e50ef39eec043feff0acc8","","","","","679",""," ","key"," ","16.668150000000605","500","250","inst","","","","","","",""
"","psychophysics","145","403811","0.0-145.0","63d80e0449b458dd5f8140be","64e50ef39eec043feff0acc8","","","","","2911",""," ","key"," ","16.666626436781705","500","250","pz","41","2","1","46","","","44"
"","psychophysics","146","406035","0.0-146.0","63d80e0449b458dd5f8140be","64e50ef39eec043feff0acc8","","","","","2223",""," ","key"," ","16.66684090909081","500","250","pz","42","2","1","56","","","40"
"","psychophysics","147","408083","0.0-147.0","63d80e0449b458dd5f8140be","64e50ef39eec043feff0acc8","","","","","2047",""," ","key"," ","16.66668852459025","500","250","pz","28","2","1","21","","","27"
"","psychophysics","148","411419","0.0-148.0","63d80e0449b458dd5f8140be","64e50ef39eec043feff0acc8","","","","","3335",""," ","key"," ","16.666798994974723","500","250","pz","40","2","1","26","","","43"
"","psychophysics","149","413267","0.0-149.0","63d80e0449b458dd5f8140be","64e50ef39eec043feff0acc8","","","","","1847",""," ","key"," ","16.666863636363466","500","250","pz","39","2","1","28","","","41"
"","psychophysics","150","416195","0.0-150.0","63d80e0449b458dd5f8140be","64e50ef39eec043feff0acc8","","","","","2927",""," ","key"," ","16.666777142857068","500","250","pz","49","2","1","47","","","47"
"","psychophysics","151","421579","0.0-151.0","63d80e0449b458dd5f8140be","64e50ef39eec043feff0acc8","","","","","5383",""," ","key"," ","16.66686956521727","500","250","pz","35","2","1","21","","","46"
"","psychophysics","152","425524","0.0-152.0","63d80e0449b458dd5f8140be","64e50ef39eec043feff0acc8","","","","","3943",""," ","key"," ","16.666966101695078","500","250","pz","22","2","1","57","","","28"
"","psychophysics","153","429924","0.0-153.0","63d80e0449b458dd5f8140be","64e50ef39eec043feff0acc8","","","","","4399",""," ","key"," ","16.66653992395433","500","250","pz","40","2","1","55","","","55"
"","psychophysics","154","433636","0.0-154.0","63d80e0449b458dd5f8140be","64e50ef39eec043feff0acc8","","","","","3711",""," ","key"," ","16.666814479637917","500","250","pz","23","2","1","33","","","33"
"","psychophysics","155","434299","0.0-155.0","63d80e0449b458dd5f8140be","64e50ef39eec043feff0acc8","","","","","662",""," ","key"," ","16.6665641025652","500","250","pz","21","2","1","21","","","33"
"","psychophysics","156","436771","0.0-156.0","63d80e0449b458dd5f8140be","64e50ef39eec043feff0acc8","","","","","2471",""," ","key"," ","16.66678911564653","500","250","pz","15","2","1","25","","","20"
"","psychophysics","157","439460","0.0-157.0","63d80e0449b458dd5f8140be","64e50ef39eec043feff0acc8","","","","","2687",""," ","key"," ","16.66735403726719","500","250","pz","54","2","1","43","","","60"
"","psychophysics","158","443995","0.0-158.0","63d80e0449b458dd5f8140be","64e50ef39eec043feff0acc8","","","","","4535",""," ","key"," ","16.667062730627432","500","250","pz","29","2","1","51","","","34"
"","psychophysics","159","445988","0.0-159.0","63d80e0449b458dd5f8140be","64e50ef39eec043feff0acc8","","","","","1991",""," ","key"," ","16.6660423728813","500","250","pz","21","2","1","29","","","28"
"","psychophysics","160","446651","0.0-160.0","63d80e0449b458dd5f8140be","64e50ef39eec043feff0acc8","","","","","663",""," ","key"," ","16.66764102564104","500","250","inst","","","","","","",""
"","psychophysics","161","450563","0.0-161.0","63d80e0449b458dd5f8140be","64e50ef39eec043feff0acc8","","","","","3911",""," ","key"," ","16.66654273504257","500","250","instEB1","30","1","","40","0","0","30"
"","psychophysics","162","451507","0.0-162.0","63d80e0449b458dd5f8140be","64e50ef39eec043feff0acc8","","","","","943",""," ","key"," ","16.6683571428574","500","250","instEB2","30","1","","30","0","0","40"
"","psychophysics","163","452307","0.0-163.0","63d80e0449b458dd5f8140be","64e50ef39eec043feff0acc8","","","","","799",""," ","key"," ","16.667021276596486","500","250","instEB3","27","1","","27","0","0","45"
"","psychophysics","164","453699","0.0-164.0","63d80e0449b458dd5f8140be","64e50ef39eec043feff0acc8","","","","","1391",""," ","key"," ","16.667817073170713","500","250","instEB4","40","1","","40","0","0","30"
"","psychophysics","165","454491","0.0-165.0","63d80e0449b458dd5f8140be","64e50ef39eec043feff0acc8","","","","","791",""," ","key"," ","16.668702127659653","500","250","inst","","","","","","",""
"","psychophysics","166","457371","0.0-166.0","63d80e0449b458dd5f8140be","64e50ef39eec043feff0acc8","","","","","2879",""," ","key"," ","16.666883040935737","500","250","eb","43","1","","32","0","0","43"
"","psychophysics","167","459451","0.0-167.0","63d80e0449b458dd5f8140be","64e50ef39eec043feff0acc8","","","","","2079",""," ","key"," ","16.66749999999968","500","250","eb","38","1","","34","0","0","40"
"","psychophysics","168","461195","0.0-168.0","63d80e0449b458dd5f8140be","64e50ef39eec043feff0acc8","","","","","1743",""," ","key"," ","16.66756730769255","500","250","eb","37","1","","44","0","0","41"
"","psychophysics","169","462899","0.0-169.0","63d80e0449b458dd5f8140be","64e50ef39eec043feff0acc8","","","","","1703",""," ","key"," ","16.666920792079175","500","250","eb","39","1","","30","0","0","44"
"","psychophysics","170","465067","0.0-170.0","63d80e0449b458dd5f8140be","64e50ef39eec043feff0acc8","","","","","2166",""," ","key"," ","16.667023255814197","500","250","eb","33","1","","38","0","0","40"
"","psychophysics","171","466467","0.0-171.0","63d80e0449b458dd5f8140be","64e50ef39eec043feff0acc8","","","","","1398",""," ","key"," ","16.6673132530119","500","250","eb","39","1","","32","0","0","43"
"","psychophysics","172","469227","0.0-172.0","63d80e0449b458dd5f8140be","64e50ef39eec043feff0acc8","","","","","2759",""," ","key"," ","16.666969696969627","500","250","eb","46","1","","54","0","0","51"
"","psychophysics","173","472291","0.0-173.0","63d80e0449b458dd5f8140be","64e50ef39eec043feff0acc8","","","","","3063",""," ","key"," ","16.667180327869076","500","250","eb","44","1","","30","0","0","48"
"","psychophysics","174","475443","0.0-174.0","63d80e0449b458dd5f8140be","64e50ef39eec043feff0acc8","","","","","3150",""," ","key"," ","16.66701595744699","500","250","eb","24","1","","31","0","0","24"
"","psychophysics","175","477027","0.0-175.0","63d80e0449b458dd5f8140be","64e50ef39eec043feff0acc8","","","","","1583",""," ","key"," ","16.665893617021712","500","250","eb","42","1","","35","0","0","43"
"","psychophysics","176","478635","0.0-176.0","63d80e0449b458dd5f8140be","64e50ef39eec043feff0acc8","","","","","1607",""," ","key"," ","16.66688421052623","500","250","eb","34","1","","34","0","0","35"
"","psychophysics","177","481683","0.0-177.0","63d80e0449b458dd5f8140be","64e50ef39eec043feff0acc8","","","","","3047",""," ","key"," ","16.666445054945083","500","250","eb","43","1","","30","0","0","48"
"","psychophysics","178","482947","0.0-178.0","63d80e0449b458dd5f8140be","64e50ef39eec043feff0acc8","","","","","1263",""," ","key"," ","16.666560000000366","500","250","eb","45","1","","45","0","0","51"
"","psychophysics","179","485884","0.0-179.0","63d80e0449b458dd5f8140be","64e50ef39eec043feff0acc8","","","","","2935",""," ","key"," ","16.66683999999992","500","250","eb","45","1","","33","0","0","49"
"","psychophysics","180","489187","0.0-180.0","63d80e0449b458dd5f8140be","64e50ef39eec043feff0acc8","","","","","3303",""," ","key"," ","16.66658375634508","500","250","eb","31","1","","38","0","0","31"
"","psychophysics","181","489875","0.0-181.0","63d80e0449b458dd5f8140be","64e50ef39eec043feff0acc8","","","","","687",""," ","key"," ","16.667609756096926","500","250","inst","","","","","","",""
"","psychophysics","182","490724","0.0-182.0","63d80e0449b458dd5f8140be","64e50ef39eec043feff0acc8","","","","","847",""," ","key"," ","16.667219999999507","500","250","instZol1","1.3","","","-1.3","0","0",""
"","psychophysics","183","491171","0.0-183.0","63d80e0449b458dd5f8140be","64e50ef39eec043feff0acc8","","","","","444",""," ","key"," ","16.667839999999853","500","250","instZol2","-2","2","","2","0","0",""
"","psychophysics","184","491763","0.0-184.0","63d80e0449b458dd5f8140be","64e50ef39eec043feff0acc8","","","","","591",""," ","key"," ","16.6689999999994","500","250","inst","","","","","","",""
"","psychophysics","185","498027","0.0-185.0","63d80e0449b458dd5f8140be","64e50ef39eec043feff0acc8","","","","","6262",""," ","key"," ","16.66683733333337","500","250","zol","-0.83","2","1","-0.47","-16","-10",""
"","psychophysics","186","500716","0.0-186.0","63d80e0449b458dd5f8140be","64e50ef39eec043feff0acc8","","","","","2686",""," ","key"," ","16.66725624999999","500","250","zol","-0.7699999999999999","2","1","-0.73","-1","-30",""
"","psychophysics","187","503508","0.0-187.0","63d80e0449b458dd5f8140be","64e50ef39eec043feff0acc8","","","","","2790",""," ","key"," ","16.66691616766467","500","250","zol","-1.12","2","1","0.72","-1","-17",""
"","psychophysics","188","506267","0.0-188.0","63d80e0449b458dd5f8140be","64e50ef39eec043feff0acc8","","","","","2758",""," ","key"," ","16.666743902439144","500","250","zol","-1.3","2","1","0.7","-3","-19",""
"","psychophysics","189","509883","0.0-189.0","63d80e0449b458dd5f8140be","64e50ef39eec043feff0acc8","","","","","3614",""," ","key"," ","16.666791666666676","500","250","zol","-0.7599999999999999","2","1","-0.64","-20","-19",""
"","psychophysics","190","513124","0.0-190.0","63d80e0449b458dd5f8140be","64e50ef39eec043feff0acc8","","","","","3239",""," ","key"," ","16.666979274611467","500","250","zol","-1.2100000000000002","2","1","-0.19","24","25",""
"","psychophysics","191","516315","0.0-191.0","63d80e0449b458dd5f8140be","64e50ef39eec043feff0acc8","","","","","3189",""," ","key"," ","16.66742408376965","500","250","zol","-1.1600000000000001","2","1","0.66","-4","-27",""
"","psychophysics","192","518539","0.0-192.0","63d80e0449b458dd5f8140be","64e50ef39eec043feff0acc8","","","","","2222",""," ","key"," ","16.666863636363292","500","250","zol","-1.12","2","1","0.52","19","2",""
"","psychophysics","193","520739","0.0-193.0","63d80e0449b458dd5f8140be","64e50ef39eec043feff0acc8","","","","","2198",""," ","key"," ","16.66699236641213","500","250","zol","-1.3200000000000003","2","1","0.42","23","-15",""
"","psychophysics","194","523995","0.0-194.0","63d80e0449b458dd5f8140be","64e50ef39eec043feff0acc8","","","","","3253",""," ","key"," ","16.66710256410297","500","250","zol","-1.2400000000000002","2","1","-0.06","28","-17",""
"","psychophysics","195","526115","0.0-195.0","63d80e0449b458dd5f8140be","64e50ef39eec043feff0acc8","","","","","2118",""," ","key"," ","16.66707142857125","500","250","zol","-1.3400000000000003","2","1","0.44","-2","13",""
"","psychophysics","196","527843","0.0-196.0","63d80e0449b458dd5f8140be","64e50ef39eec043feff0acc8","","","","","1726",""," ","key"," ","16.666932038835125","500","250","zol","-1.2400000000000002","2","1","0.44","1","11",""
"","psychophysics","197","529779","0.0-197.0","63d80e0449b458dd5f8140be","64e50ef39eec043feff0acc8","","","","","1935",""," ","key"," ","16.666834782608582","500","250","zol","-1.0699999999999998","2","1","-0.63","-5","25",""
"","psychophysics","198","532171","0.0-198.0","63d80e0449b458dd5f8140be","64e50ef39eec043feff0acc8","","","","","2390",""," ","key"," ","16.666859154929703","500","250","zol","-1.5700000000000003","2","1","0.47","-15","-11",""
"","psychophysics","199","534531","0.0-199.0","63d80e0449b458dd5f8140be","64e50ef39eec043feff0acc8","","","","","2359",""," ","key"," ","16.666120567375543","500","250","zol","-1.12","2","1","0.02","6","-30",""
"","psychophysics","200","535339","0.0-200.0","63d80e0449b458dd5f8140be","64e50ef39eec043feff0acc8","","","","","807",""," ","key"," ","16.666744680852293","500","250","inst","","","","","","",""
"","psychophysics","201","536308","0.0-201.0","63d80e0449b458dd5f8140be","64e50ef39eec043feff0acc8","","","","","967",""," ","key"," ","16.66775862069134","500","250","instPog0","370","2","","370","0","0","340"
"","psychophysics","202","536708","0.0-202.0","63d80e0449b458dd5f8140be","64e50ef39eec043feff0acc8","","","","","399",""," ","key"," ","16.664590909092855","500","250","instPog1","370","2","","370","0","0","340"
"","psychophysics","203","537347","0.0-203.0","63d80e0449b458dd5f8140be","64e50ef39eec043feff0acc8","","","","","637",""," ","key"," ","16.66731578947388","500","250","instPog2","340","2","","340","0","0","340"
"","psychophysics","204","537908","0.0-204.0","63d80e0449b458dd5f8140be","64e50ef39eec043feff0acc8","","","","","560",""," ","key"," ","16.667939393939875","500","250","inst","","","","","","",""
"","psychophysics","205","540787","0.0-205.0","63d80e0449b458dd5f8140be","64e50ef39eec043feff0acc8","","","","","2878",""," ","key"," ","16.66678362573042","500","250","pog","312","2","1","364","0","0","315"
"","psychophysics","206","544051","0.0-206.0","63d80e0449b458dd5f8140be","64e50ef39eec043feff0acc8","","","","","3263",""," ","key"," ","16.66632820512825","500","250","pog","342","2","1","282","0","0","362"
"","psychophysics","207","545563","0.0-207.0","63d80e0449b458dd5f8140be","64e50ef39eec043feff0acc8","","","","","1511",""," ","key"," ","16.668200000000393","500","250","pog","341","2","1","355","0","0","350"
"","psychophysics","208","546435","0.0-208.0","63d80e0449b458dd5f8140be","64e50ef39eec043feff0acc8","","","","","871",""," ","key"," ","16.666843137254155","500","250","pog","299","2","1","299","0","0","319"
"","psychophysics","209","548803","0.0-209.0","63d80e0449b458dd5f8140be","64e50ef39eec043feff0acc8","","","","","2367",""," ","key"," ","16.666836879432452","500","250","pog","329","2","1","339","0","0","336"
"","psychophysics","210","551795","0.0-210.0","63d80e0449b458dd5f8140be","64e50ef39eec043feff0acc8","","","","","2991",""," ","key"," ","16.666681564245867","500","250","pog","330","2","1","384","0","0","346"
"","psychophysics","211","552908","0.0-211.0","63d80e0449b458dd5f8140be","64e50ef39eec043feff0acc8","","","","","1112",""," ","key"," ","16.66701515151583","500","250","pog","331","2","1","331","0","0","346"
"","psychophysics","212","556547","0.0-212.0","63d80e0449b458dd5f8140be","64e50ef39eec043feff0acc8","","","","","3638",""," ","key"," ","16.666820276497482","500","250","pog","305","2","1","347","0","0","318"
"","psychophysics","213","558067","0.0-213.0","63d80e0449b458dd5f8140be","64e50ef39eec043feff0acc8","","","","","1519",""," ","key"," ","16.666233333333448","500","250","pog","308","2","1","290","0","0","318"
"","psychophysics","214","559835","0.0-214.0","63d80e0449b458dd5f8140be","64e50ef39eec043feff0acc8","","","","","1767",""," ","key"," ","16.667333333333954","500","250","pog","326","2","1","306","0","0","334"
"","psychophysics","215","562691","0.0-215.0","63d80e0449b458dd5f8140be","64e50ef39eec043feff0acc8","","","","","2856",""," ","key"," ","16.66616959064349","500","250","pog","321","2","1","285","0","0","334"
"","psychophysics","216","565779","0.0-216.0","63d80e0449b458dd5f8140be","64e50ef39eec043feff0acc8","","","","","3086",""," ","key"," ","16.666722826087092","500","250","pog","361","2","1","365","0","0","366"
"","psychophysics","217","568339","0.0-217.0","63d80e0449b458dd5f8140be","64e50ef39eec043feff0acc8","","","","","2559",""," ","key"," ","16.666763157894724","500","250","pog","326","2","1","292","0","0","340"
"","psychophysics","218","570387","0.0-218.0","63d80e0449b458dd5f8140be","64e50ef39eec043feff0acc8","","","","","2047",""," ","key"," ","16.666901639344925","500","250","pog","304","2","1","320","0","0","321"
"","psychophysics","219","573931","0.0-219.0","63d80e0449b458dd5f8140be","64e50ef39eec043feff0acc8","","","","","3543",""," ","key"," ","16.666933962264217","500","250","pog","342","2","1","296","0","0","355"
