"success","trial_type","trial_index","time_elapsed","internal_node_id","pid","sid","timeout","failed_images","failed_audio","failed_video","rt","stimulus","response","response_type","key_press","avg_frame_time","center_x","center_y","task","resp","version","block","jitterX","jitterY","start","parA"
"true","fullscreen","0","4428","0.0-0.0","5ddb41e0ed3649a9c1fc68e6","64de8311b2813f87286b0ba4","","","","","","","","","","","","","","","","","","","",""
"true","preload","1","4580","0.0-1.0","5ddb41e0ed3649a9c1fc68e6","64de8311b2813f87286b0ba4","false","[]","[]","[]","","","","","","","","","","","","","","","",""
"","html-button-response","2","16044","0.0-2.0","5ddb41e0ed3649a9c1fc68e6","64de8311b2813f87286b0ba4","","","","","11462","Please Make Sure Your Audio Is On.","0","","","","","","","","","","","","",""
"","psychophysics","3","23585","0.0-3.0","5ddb41e0ed3649a9c1fc68e6","64de8311b2813f87286b0ba4","","","","","7532",""," ","key"," ","17.009977426636564","640","250","","","","","","","",""
"","psychophysics","4","50041","0.0-4.0","5ddb41e0ed3649a9c1fc68e6","64de8311b2813f87286b0ba4","","","","","26451",""," ","key"," ","16.724351676154335","500","250","inst","","","","","","",""
"","psychophysics","5","53521","0.0-5.0","5ddb41e0ed3649a9c1fc68e6","64de8311b2813f87286b0ba4","","","","","3478",""," ","key"," ","16.661057692307693","500","250","sample0","","","","","","",""
"","psychophysics","6","56017","0.0-6.0","5ddb41e0ed3649a9c1fc68e6","64de8311b2813f87286b0ba4","","","","","2495",""," ","key"," ","16.66121621621622","500","250","sample1","","","","","","",""
"","psychophysics","7","74401","0.0-7.0","5ddb41e0ed3649a9c1fc68e6","64de8311b2813f87286b0ba4","","","","","18380",""," ","key"," ","16.661106074342698","500","250","sample2","102","","","","","",""
"","psychophysics","8","78272","0.0-8.0","5ddb41e0ed3649a9c1fc68e6","64de8311b2813f87286b0ba4","","","","","3866",""," ","key"," ","16.661125541125546","500","250","sample3","100","","","","","",""
"","psychophysics","9","98761","0.0-9.0","5ddb41e0ed3649a9c1fc68e6","64de8311b2813f87286b0ba4","","","","","20486",""," ","key"," ","16.66112286411717","500","250","sample4","100","","","","","",""
"","psychophysics","10","104697","0.0-10.0","5ddb41e0ed3649a9c1fc68e6","64de8311b2813f87286b0ba4","","","","","5933",""," ","key"," ","16.661070422535232","500","250","sample5","","","","","","",""
"","psychophysics","11","118265","0.0-11.0","5ddb41e0ed3649a9c1fc68e6","64de8311b2813f87286b0ba4","","","","","13565",""," ","key"," ","16.661130221130207","500","250","sample6","498","","","","","",""
"","psychophysics","12","129177","0.0-12.0","5ddb41e0ed3649a9c1fc68e6","64de8311b2813f87286b0ba4","","","","","10911",""," ","key"," ","16.661102603369063","500","250","inst","","","","","","",""
"","psychophysics","13","135626","0.0-13.0","5ddb41e0ed3649a9c1fc68e6","64de8311b2813f87286b0ba4","","","","","6444",""," ","key"," ","16.661139896373086","500","250","inst","","","","","","",""
"","psychophysics","14","139889","0.0-14.0","5ddb41e0ed3649a9c1fc68e6","64de8311b2813f87286b0ba4","","","","","4258",""," ","key"," ","16.661098039215638","500","250","inst","","","","","","",""
"","psychophysics","15","148505","0.0-15.0","5ddb41e0ed3649a9c1fc68e6","64de8311b2813f87286b0ba4","","","","","8612",""," ","key"," ","16.661121856866515","500","250","inst","","","","","","",""
"","psychophysics","16","151081","0.0-16.0","5ddb41e0ed3649a9c1fc68e6","64de8311b2813f87286b0ba4","","","","","2574",""," ","key"," ","16.661045751634077","500","250","inst","","","","","","",""
"","psychophysics","17","156305","0.0-17.0","5ddb41e0ed3649a9c1fc68e6","64de8311b2813f87286b0ba4","","","","","5220",""," ","key"," ","16.661150159744324","500","250","instBr0","0","","","0","0","0","300"
"","psychophysics","18","164441","0.0-18.0","5ddb41e0ed3649a9c1fc68e6","64de8311b2813f87286b0ba4","","","","","8133",""," ","key"," ","16.661108829568832","500","250","instBr1","3","","","0","0","-40","300"
"","psychophysics","19","174593","0.0-19.0","5ddb41e0ed3649a9c1fc68e6","64de8311b2813f87286b0ba4","","","","","10149",""," ","key"," ","16.661118421052667","500","250","instBr3","19","2","","0","0","40","300"
"","psychophysics","20","180665","0.0-20.0","5ddb41e0ed3649a9c1fc68e6","64de8311b2813f87286b0ba4","","","","","6070",""," ","key"," ","16.66109890109886","500","250","inst","","","","","","",""
"","psychophysics","21","186264","0.0-21.0","5ddb41e0ed3649a9c1fc68e6","64de8311b2813f87286b0ba4","","","","","5596",""," ","key"," ","16.66113432835824","500","250","br","17","2","0","8","19","-28","208"
"","psychophysics","22","188465","0.0-22.0","5ddb41e0ed3649a9c1fc68e6","64de8311b2813f87286b0ba4","","","","","2197",""," ","key"," ","16.6610687022899","500","250","br","21","2","0","-13","-3","21","265"
"","psychophysics","23","190281","0.0-23.0","5ddb41e0ed3649a9c1fc68e6","64de8311b2813f87286b0ba4","","","","","1813",""," ","key"," ","16.661111111111058","500","250","br","18","2","0","-17","22","18","286"
"","psychophysics","24","196193","0.0-24.0","5ddb41e0ed3649a9c1fc68e6","64de8311b2813f87286b0ba4","","","","","5908",""," ","key"," ","16.661129943502846","500","250","br","23","2","0","-19","-18","-30","300"
"","psychophysics","25","199961","0.0-25.0","5ddb41e0ed3649a9c1fc68e6","64de8311b2813f87286b0ba4","","","","","3764",""," ","key"," ","16.661155555555595","500","250","br","18","2","0","-6","24","13","268"
"","psychophysics","26","203857","0.0-26.0","5ddb41e0ed3649a9c1fc68e6","64de8311b2813f87286b0ba4","","","","","3893",""," ","key"," ","16.661115879828362","500","250","br","21","2","0","-20","29","7","268"
"","psychophysics","27","207481","0.0-27.0","5ddb41e0ed3649a9c1fc68e6","64de8311b2813f87286b0ba4","","","","","3623",""," ","key"," ","16.661111111111058","500","250","br","14","2","0","-12","-30","12","240"
"","psychophysics","28","214681","0.0-28.0","5ddb41e0ed3649a9c1fc68e6","64de8311b2813f87286b0ba4","","","","","7198",""," ","key"," ","16.66111368909513","500","250","br","20","2","0","-17","6","-3","266"
"","psychophysics","29","216337","0.0-29.0","5ddb41e0ed3649a9c1fc68e6","64de8311b2813f87286b0ba4","","","","","1652",""," ","key"," ","16.661010101010124","500","250","br","22","2","0","-20","-21","22","253"
"","psychophysics","30","220617","0.0-30.0","5ddb41e0ed3649a9c1fc68e6","64de8311b2813f87286b0ba4","","","","","4276",""," ","key"," ","16.661093750000077","500","250","br","16","2","0","-2","-30","-17","214"
"","psychophysics","31","226616","0.0-31.0","5ddb41e0ed3649a9c1fc68e6","64de8311b2813f87286b0ba4","","","","","5998",""," ","key"," ","16.661114206128126","500","250","br","20","2","0","-12","-22","5","297"
"","psychophysics","32","230857","0.0-32.0","5ddb41e0ed3649a9c1fc68e6","64de8311b2813f87286b0ba4","","","","","4238",""," ","key"," ","16.66110671936751","500","250","br","20","2","0","25","-15","-15","290"
"","psychophysics","33","234265","0.0-33.0","5ddb41e0ed3649a9c1fc68e6","64de8311b2813f87286b0ba4","","","","","3406",""," ","key"," ","16.661078431372623","500","250","br","18","2","0","14","18","-5","271"
"","psychophysics","34","240720","0.0-34.0","5ddb41e0ed3649a9c1fc68e6","64de8311b2813f87286b0ba4","","","","","6454",""," ","key"," ","16.661139896373086","500","250","br","18","2","0","28","16","-25","207"
"","psychophysics","35","243305","0.0-35.0","5ddb41e0ed3649a9c1fc68e6","64de8311b2813f87286b0ba4","","","","","2582",""," ","key"," ","16.661168831168876","500","250","br","16","2","0","0","16","15","257"
"","psychophysics","36","247929","0.0-36.0","5ddb41e0ed3649a9c1fc68e6","64de8311b2813f87286b0ba4","","","","","4620",""," ","key"," ","16.661083032490957","500","250","inst","","","","","","",""
"","psychophysics","37","252362","0.0-37.0","5ddb41e0ed3649a9c1fc68e6","64de8311b2813f87286b0ba4","","","","","4430",""," ","key"," ","16.66113207547163","500","250","instPzPre","50","0","","","","50","50"
"","psychophysics","38","256593","0.0-38.0","5ddb41e0ed3649a9c1fc68e6","64de8311b2813f87286b0ba4","","","","","4224",""," ","key"," ","16.661106719367627","500","250","instPz0","50","2","","","","50","50"
"","psychophysics","39","264784","0.0-39.0","5ddb41e0ed3649a9c1fc68e6","64de8311b2813f87286b0ba4","","","","","8189",""," ","key"," ","16.661099796334085","500","250","instPz1","44","2","","","","25","50"
"","psychophysics","40","271193","0.0-40.0","5ddb41e0ed3649a9c1fc68e6","64de8311b2813f87286b0ba4","","","","","6407",""," ","key"," ","16.661148825065354","500","250","instPz2","31","2","","","","20","35"
"","psychophysics","41","284329","0.0-41.0","5ddb41e0ed3649a9c1fc68e6","64de8311b2813f87286b0ba4","","","","","13132",""," ","key"," ","16.661116751269063","500","250","instPz3","30","2","","","","30","100"
"","psychophysics","42","311768","0.0-42.0","5ddb41e0ed3649a9c1fc68e6","64de8311b2813f87286b0ba4","","","","","27437",""," ","key"," ","16.66110571081409","500","250","instPz4","81","2","","","","30","100"
"","psychophysics","43","313914","0.0-43.0","5ddb41e0ed3649a9c1fc68e6","64de8311b2813f87286b0ba4","","","","","2140",""," ","key"," ","16.66110236220443","500","250","inst","","","","","","",""
"","psychophysics","44","321841","0.0-44.0","5ddb41e0ed3649a9c1fc68e6","64de8311b2813f87286b0ba4","","","","","7923",""," ","key"," ","16.66113684210522","500","250","pz","28","2","0","","","44","51"
"","psychophysics","45","326609","0.0-45.0","5ddb41e0ed3649a9c1fc68e6","64de8311b2813f87286b0ba4","","","","","4765",""," ","key"," ","16.661122807017488","500","250","pz","29","2","0","","","51","35"
"","psychophysics","46","329521","0.0-46.0","5ddb41e0ed3649a9c1fc68e6","64de8311b2813f87286b0ba4","","","","","2909",""," ","key"," ","16.66114942528757","500","250","pz","16","2","0","","","24","25"
"","psychophysics","47","333633","0.0-47.0","5ddb41e0ed3649a9c1fc68e6","64de8311b2813f87286b0ba4","","","","","4110",""," ","key"," ","16.661056910569087","500","250","pz","32","2","0","","","24","58"
"","psychophysics","48","339793","0.0-48.0","5ddb41e0ed3649a9c1fc68e6","64de8311b2813f87286b0ba4","","","","","6157",""," ","key"," ","16.661138211382013","500","250","pz","14","2","0","","","26","21"
"","psychophysics","49","345122","0.0-49.0","5ddb41e0ed3649a9c1fc68e6","64de8311b2813f87286b0ba4","","","","","5325",""," ","key"," ","16.66113207547167","500","250","pz","24","2","0","","","38","50"
"","psychophysics","50","351761","0.0-50.0","5ddb41e0ed3649a9c1fc68e6","64de8311b2813f87286b0ba4","","","","","6636",""," ","key"," ","16.661105527638178","500","250","pz","26","2","0","","","52","41"
"","psychophysics","51","356417","0.0-51.0","5ddb41e0ed3649a9c1fc68e6","64de8311b2813f87286b0ba4","","","","","4653",""," ","key"," ","16.66107913669054","500","250","pz","20","2","0","","","39","28"
"","psychophysics","52","359305","0.0-52.0","5ddb41e0ed3649a9c1fc68e6","64de8311b2813f87286b0ba4","","","","","2886",""," ","key"," ","16.661040462428","500","250","pz","35","2","0","","","36","55"
"","psychophysics","53","363753","0.0-53.0","5ddb41e0ed3649a9c1fc68e6","64de8311b2813f87286b0ba4","","","","","4445",""," ","key"," ","16.66112781954882","500","250","pz","15","2","0","","","33","21"
"","psychophysics","54","371393","0.0-54.0","5ddb41e0ed3649a9c1fc68e6","64de8311b2813f87286b0ba4","","","","","7638",""," ","key"," ","16.6611378555799","500","250","pz","38","2","0","","","52","55"
"","psychophysics","55","377072","0.0-55.0","5ddb41e0ed3649a9c1fc68e6","64de8311b2813f87286b0ba4","","","","","5677",""," ","key"," ","16.661117647058735","500","250","pz","35","2","0","","","30","48"
"","psychophysics","56","382160","0.0-56.0","5ddb41e0ed3649a9c1fc68e6","64de8311b2813f87286b0ba4","","","","","5085",""," ","key"," ","16.661052631579015","500","250","pz","35","2","0","","","35","53"
"","psychophysics","57","388489","0.0-57.0","5ddb41e0ed3649a9c1fc68e6","64de8311b2813f87286b0ba4","","","","","6325",""," ","key"," ","16.661108179419518","500","250","pz","37","2","0","","","55","52"
"","psychophysics","58","390785","0.0-58.0","5ddb41e0ed3649a9c1fc68e6","64de8311b2813f87286b0ba4","","","","","2293",""," ","key"," ","16.6610218978102","500","250","pz","30","2","0","","","30","51"
"","psychophysics","59","394625","0.0-59.0","5ddb41e0ed3649a9c1fc68e6","64de8311b2813f87286b0ba4","","","","","3838",""," ","key"," ","16.6611304347826","500","250","inst","","","","","","",""
"","psychophysics","60","405840","0.0-60.0","5ddb41e0ed3649a9c1fc68e6","64de8311b2813f87286b0ba4","","","","","11213",""," ","key"," ","16.661130952380994","500","250","instPog0","160","1","","0","0","190","160"
"","psychophysics","61","419920","0.0-61.0","5ddb41e0ed3649a9c1fc68e6","64de8311b2813f87286b0ba4","","","","","14079",""," ","key"," ","16.661113744075806","500","250","instPog1","166","1","","0","0","190","160"
"","psychophysics","62","429665","0.0-62.0","5ddb41e0ed3649a9c1fc68e6","64de8311b2813f87286b0ba4","","","","","9742",""," ","key"," ","16.661095890410987","500","250","instPog2","168","1","","0","0","160","160"
"","psychophysics","63","431665","0.0-63.0","5ddb41e0ed3649a9c1fc68e6","64de8311b2813f87286b0ba4","","","","","1998",""," ","key"," ","16.661176470588178","500","250","inst","","","","","","",""
"","psychophysics","64","438465","0.0-64.0","5ddb41e0ed3649a9c1fc68e6","64de8311b2813f87286b0ba4","","","","","6798",""," ","key"," ","16.66113022113012","500","250","pog","146","1","0","0","0","216","134"
"","psychophysics","65","442713","0.0-65.0","5ddb41e0ed3649a9c1fc68e6","64de8311b2813f87286b0ba4","","","","","4245",""," ","key"," ","16.66110236220466","500","250","pog","165","1","0","0","0","179","149"
"","psychophysics","66","446977","0.0-66.0","5ddb41e0ed3649a9c1fc68e6","64de8311b2813f87286b0ba4","","","","","4262",""," ","key"," ","16.792806324110735","500","250","pog","191","1","0","0","0","147","174"
"","psychophysics","67","451505","0.0-67.0","5ddb41e0ed3649a9c1fc68e6","64de8311b2813f87286b0ba4","","","","","4521",""," ","key"," ","16.66111111111111","500","250","pog","173","1","0","0","0","131","156"
"","psychophysics","68","456153","0.0-68.0","5ddb41e0ed3649a9c1fc68e6","64de8311b2813f87286b0ba4","","","","","4644",""," ","key"," ","16.661151079136648","500","250","pog","167","1","0","0","0","121","154"
"","psychophysics","69","461985","0.0-69.0","5ddb41e0ed3649a9c1fc68e6","64de8311b2813f87286b0ba4","","","","","5827",""," ","key"," ","16.66108882521482","500","250","pog","195","1","0","0","0","159","173"
"","psychophysics","70","465233","0.0-70.0","5ddb41e0ed3649a9c1fc68e6","64de8311b2813f87286b0ba4","","","","","3245",""," ","key"," ","16.661134020618306","500","250","pog","145","1","0","0","0","139","123"
"","psychophysics","71","468961","0.0-71.0","5ddb41e0ed3649a9c1fc68e6","64de8311b2813f87286b0ba4","","","","","3724",""," ","key"," ","16.66116591928252","500","250","pog","155","1","0","0","0","139","133"
"","psychophysics","72","475465","0.0-72.0","5ddb41e0ed3649a9c1fc68e6","64de8311b2813f87286b0ba4","","","","","6501",""," ","key"," ","16.66107692307694","500","250","pog","139","1","0","0","0","219","120"
"","psychophysics","73","481513","0.0-73.0","5ddb41e0ed3649a9c1fc68e6","64de8311b2813f87286b0ba4","","","","","6046",""," ","key"," ","16.661160220994386","500","250","pog","182","1","0","0","0","134","167"
"","psychophysics","74","487553","0.0-74.0","5ddb41e0ed3649a9c1fc68e6","64de8311b2813f87286b0ba4","","","","","6038",""," ","key"," ","16.661108033240925","500","250","pog","164","1","0","0","0","212","150"
"","psychophysics","75","491521","0.0-75.0","5ddb41e0ed3649a9c1fc68e6","64de8311b2813f87286b0ba4","","","","","3966",""," ","key"," ","16.66109704641372","500","250","pog","154","1","0","0","0","220","139"
"","psychophysics","76","495602","0.0-76.0","5ddb41e0ed3649a9c1fc68e6","64de8311b2813f87286b0ba4","","","","","4079",""," ","key"," ","16.661147540983634","500","250","pog","172","1","0","0","0","122","157"
"","psychophysics","77","496928","0.0-77.0","5ddb41e0ed3649a9c1fc68e6","64de8311b2813f87286b0ba4","","","","","1325",""," ","key"," ","16.66101265822823","500","250","pog","210","1","0","0","0","210","197"
"","psychophysics","78","502489","0.0-78.0","5ddb41e0ed3649a9c1fc68e6","64de8311b2813f87286b0ba4","","","","","5559",""," ","key"," ","16.66114114114124","500","250","pog","190","1","0","0","0","104","174"
"","psychophysics","79","504234","0.0-79.0","5ddb41e0ed3649a9c1fc68e6","64de8311b2813f87286b0ba4","","","","","1741",""," ","key"," ","16.660970873786567","500","250","inst","","","","","","",""
"","psychophysics","80","506873","0.0-80.0","5ddb41e0ed3649a9c1fc68e6","64de8311b2813f87286b0ba4","","","","","2631",""," ","key"," ","16.661012658227865","500","250","instZol0","0","","","0","0","0",""
"","psychophysics","81","523489","0.0-81.0","5ddb41e0ed3649a9c1fc68e6","64de8311b2813f87286b0ba4","","","","","16612",""," ","key"," ","16.66112449799195","500","250","instZol1","-2.7755575615628914e-17","","","0","0","-1.3",""
"","psychophysics","82","534377","0.0-82.0","5ddb41e0ed3649a9c1fc68e6","64de8311b2813f87286b0ba4","","","","","10884",""," ","key"," ","16.661104294478584","500","250","instZol2","0.8000000000000006","1","","0","0","2",""
"","psychophysics","83","539745","0.0-83.0","5ddb41e0ed3649a9c1fc68e6","64de8311b2813f87286b0ba4","","","","","5364",""," ","key"," ","17.091401273885573","500","250","inst","","","","","","",""
"","psychophysics","84","545473","0.0-84.0","5ddb41e0ed3649a9c1fc68e6","64de8311b2813f87286b0ba4","","","","","5725",""," ","key"," ","16.66116959064326","500","250","zol","0.42000000000000015","1","0","-6","-21","0.48",""
"","psychophysics","85","548697","0.0-85.0","5ddb41e0ed3649a9c1fc68e6","64de8311b2813f87286b0ba4","","","","","3218",""," ","key"," ","16.835497382199343","500","250","zol","0.59","1","0","4","12","-0.59",""
"","psychophysics","86","556121","0.0-86.0","5ddb41e0ed3649a9c1fc68e6","64de8311b2813f87286b0ba4","","","","","7421",""," ","key"," ","16.66112612612621","500","250","zol","0.61","1","0","27","26","0.19",""
"","psychophysics","87","559817","0.0-87.0","5ddb41e0ed3649a9c1fc68e6","64de8311b2813f87286b0ba4","","","","","3690",""," ","key"," ","16.661085972850575","500","250","zol","0.73","1","0","-22","27","0.07",""
"","psychophysics","88","563481","0.0-88.0","5ddb41e0ed3649a9c1fc68e6","64de8311b2813f87286b0ba4","","","","","3661",""," ","key"," ","16.661095890410554","500","250","zol","0.9799999999999999","1","0","13","11","-0.48",""
"","psychophysics","89","568193","0.0-89.0","5ddb41e0ed3649a9c1fc68e6","64de8311b2813f87286b0ba4","","","","","4709",""," ","key"," ","16.661063829787384","500","250","zol","0.62","1","0","4","-4","0.48",""
"","psychophysics","90","571977","0.0-90.0","5ddb41e0ed3649a9c1fc68e6","64de8311b2813f87286b0ba4","","","","","3780",""," ","key"," ","16.66106194690276","500","250","zol","0.71","1","0","18","0","-0.61",""
"","psychophysics","91","576785","0.0-91.0","5ddb41e0ed3649a9c1fc68e6","64de8311b2813f87286b0ba4","","","","","4805",""," ","key"," ","16.661111111111193","500","250","zol","0.8400000000000001","1","0","15","23","-0.14",""
"","psychophysics","92","580760","0.0-92.0","5ddb41e0ed3649a9c1fc68e6","64de8311b2813f87286b0ba4","","","","","3973",""," ","key"," ","16.66109704641372","500","250","zol","0.71","1","0","-30","5","-0.21",""
"","psychophysics","93","583489","0.0-93.0","5ddb41e0ed3649a9c1fc68e6","64de8311b2813f87286b0ba4","","","","","2722",""," ","key"," ","16.661104294478584","500","250","zol","0.8999999999999999","1","0","-13","-1","-0.7",""
"","psychophysics","94","587064","0.0-94.0","5ddb41e0ed3649a9c1fc68e6","64de8311b2813f87286b0ba4","","","","","3573",""," ","key"," ","16.661121495327016","500","250","zol","0.54","1","0","-24","-4","0.36",""
"","psychophysics","95","591881","0.0-95.0","5ddb41e0ed3649a9c1fc68e6","64de8311b2813f87286b0ba4","","","","","4814",""," ","key"," ","16.661111111111193","500","250","zol","0.89","1","0","-7","-8","0.41",""
"","psychophysics","96","595664","0.0-96.0","5ddb41e0ed3649a9c1fc68e6","64de8311b2813f87286b0ba4","","","","","3779",""," ","key"," ","16.66106194690276","500","250","zol","0.7799999999999999","1","0","7","-22","0.32",""
"","psychophysics","97","600377","0.0-97.0","5ddb41e0ed3649a9c1fc68e6","64de8311b2813f87286b0ba4","","","","","4710",""," ","key"," ","16.661134751772853","500","250","zol","0.62","1","0","-29","-19","0.18",""
"","psychophysics","98","604553","0.0-98.0","5ddb41e0ed3649a9c1fc68e6","64de8311b2813f87286b0ba4","","","","","4174",""," ","key"," ","16.66112449799195","500","250","zol","0.6399999999999999","1","0","6","-27","0.66",""
"","psychophysics","99","605593","0.0-99.0","5ddb41e0ed3649a9c1fc68e6","64de8311b2813f87286b0ba4","","","","","1038",""," ","key"," ","16.661290322580644","500","250","inst","","","","","","",""
"","psychophysics","100","607865","0.0-100.0","5ddb41e0ed3649a9c1fc68e6","64de8311b2813f87286b0ba4","","","","","2270",""," ","key"," ","16.66103703703697","500","250","instEB0","40","2","","0","0","40","40"
"","psychophysics","101","614025","0.0-101.0","5ddb41e0ed3649a9c1fc68e6","64de8311b2813f87286b0ba4","","","","","6158",""," ","key"," ","16.66113821138233","500","250","instEB1","41","2","","0","0","30","40"
"","psychophysics","102","622497","0.0-102.0","5ddb41e0ed3649a9c1fc68e6","64de8311b2813f87286b0ba4","","","","","8465",""," ","key"," ","16.661104536489024","500","250","instEB2","36","2","","0","0","40","30"
"","psychophysics","103","637280","0.0-103.0","5ddb41e0ed3649a9c1fc68e6","64de8311b2813f87286b0ba4","","","","","14779",""," ","key"," ","16.661104847801603","500","250","instEB3","31","2","","0","0","45","27"
"","psychophysics","104","642849","0.0-104.0","5ddb41e0ed3649a9c1fc68e6","64de8311b2813f87286b0ba4","","","","","5564",""," ","key"," ","16.66114114114124","500","250","instEB4","47","2","","0","0","30","40"
"","psychophysics","105","643721","0.0-105.0","5ddb41e0ed3649a9c1fc68e6","64de8311b2813f87286b0ba4","","","","","870",""," ","key"," ","16.661176470587687","500","250","inst","","","","","","",""
"","psychophysics","106","648993","0.0-106.0","5ddb41e0ed3649a9c1fc68e6","64de8311b2813f87286b0ba4","","","","","5268",""," ","key"," ","16.661139240506092","500","250","eb","38","2","","0","0","48","31"
"","psychophysics","107","656977","0.0-107.0","5ddb41e0ed3649a9c1fc68e6","64de8311b2813f87286b0ba4","","","","","7983",""," ","key"," ","16.661087866108787","500","250","eb","53","2","","0","0","41","47"
"","psychophysics","108","661961","0.0-108.0","5ddb41e0ed3649a9c1fc68e6","64de8311b2813f87286b0ba4","","","","","4981",""," ","key"," ","16.661140939597377","500","250","eb","56","2","","0","0","31","49"
"","psychophysics","109","665441","0.0-109.0","5ddb41e0ed3649a9c1fc68e6","64de8311b2813f87286b0ba4","","","","","3477",""," ","key"," ","16.661153846153937","500","250","eb","52","2","","0","0","34","43"
"","psychophysics","110","669849","0.0-110.0","5ddb41e0ed3649a9c1fc68e6","64de8311b2813f87286b0ba4","","","","","4405",""," ","key"," ","16.661064638783216","500","250","eb","32","2","","0","0","25","27"
"","psychophysics","111","673281","0.0-111.0","5ddb41e0ed3649a9c1fc68e6","64de8311b2813f87286b0ba4","","","","","3423",""," ","key"," ","16.66117073170693","500","250","eb","66","2","","0","0","44","54"
"","psychophysics","112","678449","0.0-112.0","5ddb41e0ed3649a9c1fc68e6","64de8311b2813f87286b0ba4","","","","","5162",""," ","key"," ","16.661096774193744","500","250","eb","31","2","","0","0","39","30"
"","psychophysics","113","684337","0.0-113.0","5ddb41e0ed3649a9c1fc68e6","64de8311b2813f87286b0ba4","","","","","5885",""," ","key"," ","16.661136363636615","500","250","eb","29","2","","0","0","46","25"
"","psychophysics","114","691704","0.0-114.0","5ddb41e0ed3649a9c1fc68e6","64de8311b2813f87286b0ba4","","","","","7365",""," ","key"," ","16.661088435374236","500","250","eb","54","2","","0","0","30","50"
"","psychophysics","115","698600","0.0-115.0","5ddb41e0ed3649a9c1fc68e6","64de8311b2813f87286b0ba4","","","","","6893",""," ","key"," ","16.661113801452593","500","250","eb","29","2","","0","0","47","26"
"","psychophysics","116","704601","0.0-116.0","5ddb41e0ed3649a9c1fc68e6","64de8311b2813f87286b0ba4","","","","","5999",""," ","key"," ","16.661114206128044","500","250","eb","26","2","","0","0","46","24"
"","psychophysics","117","711009","0.0-117.0","5ddb41e0ed3649a9c1fc68e6","64de8311b2813f87286b0ba4","","","","","6405",""," ","key"," ","16.661145833333347","500","250","eb","47","2","","0","0","41","42"
"","psychophysics","118","715273","0.0-118.0","5ddb41e0ed3649a9c1fc68e6","64de8311b2813f87286b0ba4","","","","","4261",""," ","key"," ","16.66109803921552","500","250","eb","44","2","","0","0","26","39"
"","psychophysics","119","718881","0.0-119.0","5ddb41e0ed3649a9c1fc68e6","64de8311b2813f87286b0ba4","","","","","3606",""," ","key"," ","16.661116279069834","500","250","eb","43","2","","0","0","48","40"
"","psychophysics","120","724168","0.0-120.0","5ddb41e0ed3649a9c1fc68e6","64de8311b2813f87286b0ba4","","","","","5286",""," ","key"," ","16.66113564668793","500","250","eb","55","2","","0","0","29","53"
"","psychophysics","121","725260","0.0-121.0","5ddb41e0ed3649a9c1fc68e6","64de8311b2813f87286b0ba4","","","","","1090",""," ","key"," ","16.66093749999891","500","250","inst","","","","","","",""
"","psychophysics","122","733928","0.0-122.0","5ddb41e0ed3649a9c1fc68e6","64de8311b2813f87286b0ba4","","","","","8667",""," ","key"," ","16.66111753371868","500","250","instEB1","31","1","","0","0","40","30"
"","psychophysics","123","739825","0.0-123.0","5ddb41e0ed3649a9c1fc68e6","64de8311b2813f87286b0ba4","","","","","5892",""," ","key"," ","16.661133144475933","500","250","instEB2","38","1","","0","0","30","40"
"","psychophysics","124","743320","0.0-124.0","5ddb41e0ed3649a9c1fc68e6","64de8311b2813f87286b0ba4","","","","","3493",""," ","key"," ","16.661148325359097","500","250","instEB3","41","1","","0","0","27","45"
"","psychophysics","125","747393","0.0-125.0","5ddb41e0ed3649a9c1fc68e6","64de8311b2813f87286b0ba4","","","","","4070",""," ","key"," ","16.661065573770205","500","250","instEB4","28","1","","0","0","40","30"
"","psychophysics","126","749209","0.0-126.0","5ddb41e0ed3649a9c1fc68e6","64de8311b2813f87286b0ba4","","","","","1813",""," ","key"," ","16.661296296296683","500","250","inst","","","","","","",""
"","psychophysics","127","756065","0.0-127.0","5ddb41e0ed3649a9c1fc68e6","64de8311b2813f87286b0ba4","","","","","6853",""," ","key"," ","16.661073170731797","500","250","eb","31","1","","0","0","34","37"
"","psychophysics","128","759393","0.0-128.0","5ddb41e0ed3649a9c1fc68e6","64de8311b2813f87286b0ba4","","","","","3326",""," ","key"," ","16.66120603015054","500","250","eb","39","1","","0","0","50","46"
"","psychophysics","129","762009","0.0-129.0","5ddb41e0ed3649a9c1fc68e6","64de8311b2813f87286b0ba4","","","","","2614",""," ","key"," ","16.66102564102561","500","250","eb","47","1","","0","0","46","52"
"","psychophysics","130","766825","0.0-130.0","5ddb41e0ed3649a9c1fc68e6","64de8311b2813f87286b0ba4","","","","","4814",""," ","key"," ","16.661111111110788","500","250","eb","34","1","","0","0","25","34"
"","psychophysics","131","771809","0.0-131.0","5ddb41e0ed3649a9c1fc68e6","64de8311b2813f87286b0ba4","","","","","4981",""," ","key"," ","16.661140939597377","500","250","eb","41","1","","0","0","46","47"
"","psychophysics","132","775561","0.0-132.0","5ddb41e0ed3649a9c1fc68e6","64de8311b2813f87286b0ba4","","","","","3749",""," ","key"," ","16.66116071428561","500","250","eb","29","1","","0","0","29","35"
"","psychophysics","133","781241","0.0-133.0","5ddb41e0ed3649a9c1fc68e6","64de8311b2813f87286b0ba4","","","","","5679",""," ","key"," ","16.661117647058564","500","250","eb","34","1","","0","0","43","37"
"","psychophysics","134","787057","0.0-134.0","5ddb41e0ed3649a9c1fc68e6","64de8311b2813f87286b0ba4","","","","","5815",""," ","key"," ","16.66109195402315","500","250","eb","46","1","","0","0","36","47"
"","psychophysics","135","792001","0.0-135.0","5ddb41e0ed3649a9c1fc68e6","64de8311b2813f87286b0ba4","","","","","4942",""," ","key"," ","16.661148648648883","500","250","eb","38","1","","0","0","33","42"
"","psychophysics","136","795473","0.0-136.0","5ddb41e0ed3649a9c1fc68e6","64de8311b2813f87286b0ba4","","","","","3469",""," ","key"," ","16.661062801932772","500","250","eb","37","1","","0","0","50","41"
"","psychophysics","137","800505","0.0-137.0","5ddb41e0ed3649a9c1fc68e6","64de8311b2813f87286b0ba4","","","","","5030",""," ","key"," ","16.66112956810631","500","250","eb","30","1","","0","0","44","33"
"","psychophysics","138","804793","0.0-138.0","5ddb41e0ed3649a9c1fc68e6","64de8311b2813f87286b0ba4","","","","","4286",""," ","key"," ","16.661089494163516","500","250","eb","42","1","","0","0","49","48"
"","psychophysics","139","809665","0.0-139.0","5ddb41e0ed3649a9c1fc68e6","64de8311b2813f87286b0ba4","","","","","4871",""," ","key"," ","16.661168384879407","500","250","eb","26","1","","0","0","51","26"
"","psychophysics","140","814569","0.0-140.0","5ddb41e0ed3649a9c1fc68e6","64de8311b2813f87286b0ba4","","","","","4901",""," ","key"," ","16.661092150170887","500","250","eb","34","1","","0","0","40","37"
"","psychophysics","141","817953","0.0-141.0","5ddb41e0ed3649a9c1fc68e6","64de8311b2813f87286b0ba4","","","","","3381",""," ","key"," ","16.66108374384271","500","250","eb","28","1","","0","0","33","30"
"","psychophysics","142","819760","0.0-142.0","5ddb41e0ed3649a9c1fc68e6","64de8311b2813f87286b0ba4","","","","","1806",""," ","key"," ","16.661121495327016","500","250","inst","","","","","","",""
"","psychophysics","143","826505","0.0-143.0","5ddb41e0ed3649a9c1fc68e6","64de8311b2813f87286b0ba4","","","","","6742",""," ","key"," ","16.66113861386133","500","250","instBr3","-5","1","","0","0","40","300"
"","psychophysics","144","827537","0.0-144.0","5ddb41e0ed3649a9c1fc68e6","64de8311b2813f87286b0ba4","","","","","1029",""," ","key"," ","16.660983606558446","500","250","inst","","","","","","",""
"","psychophysics","145","831065","0.0-145.0","5ddb41e0ed3649a9c1fc68e6","64de8311b2813f87286b0ba4","","","","","3526",""," ","key"," ","16.661137440758292","500","250","br","-15","1","1","3","-7","-4","243"
"","psychophysics","146","838665","0.0-146.0","5ddb41e0ed3649a9c1fc68e6","64de8311b2813f87286b0ba4","","","","","7598",""," ","key"," ","16.661098901099002","500","250","br","-12","1","1","30","20","10","211"
"","psychophysics","147","843953","0.0-147.0","5ddb41e0ed3649a9c1fc68e6","64de8311b2813f87286b0ba4","","","","","5286",""," ","key"," ","16.667025316455785","500","250","br","-16","1","1","-3","8","-30","209"
"","psychophysics","148","848049","0.0-148.0","5ddb41e0ed3649a9c1fc68e6","64de8311b2813f87286b0ba4","","","","","4093",""," ","key"," ","16.66114285714278","500","250","br","-18","1","1","25","0","13","264"
"","psychophysics","149","850081","0.0-149.0","5ddb41e0ed3649a9c1fc68e6","64de8311b2813f87286b0ba4","","","","","2030",""," ","key"," ","16.660991735537998","500","250","br","-19","1","1","-8","-13","-13","264"
"","psychophysics","150","853480","0.0-150.0","5ddb41e0ed3649a9c1fc68e6","64de8311b2813f87286b0ba4","","","","","3398",""," ","key"," ","16.66118226601029","500","250","br","-14","1","1","30","-2","25","218"
"","psychophysics","151","856513","0.0-151.0","5ddb41e0ed3649a9c1fc68e6","64de8311b2813f87286b0ba4","","","","","3030",""," ","key"," ","16.66110497237587","500","250","br","-21","1","1","6","7","-5","289"
"","psychophysics","152","860520","0.0-152.0","5ddb41e0ed3649a9c1fc68e6","64de8311b2813f87286b0ba4","","","","","4005",""," ","key"," ","16.661087866108787","500","250","br","-15","1","1","28","-28","-21","209"
"","psychophysics","153","864817","0.0-153.0","5ddb41e0ed3649a9c1fc68e6","64de8311b2813f87286b0ba4","","","","","4293",""," ","key"," ","16.66116731517526","500","250","br","-18","1","1","-27","23","-14","242"
"","psychophysics","154","867449","0.0-154.0","5ddb41e0ed3649a9c1fc68e6","64de8311b2813f87286b0ba4","","","","","2630",""," ","key"," ","16.66101910828043","500","250","br","-16","1","1","8","-19","-5","226"
"","psychophysics","155","871448","0.0-155.0","5ddb41e0ed3649a9c1fc68e6","64de8311b2813f87286b0ba4","","","","","3998",""," ","key"," ","16.66117154811723","500","250","br","-14","1","1","-3","-6","6","249"
"","psychophysics","156","877561","0.0-156.0","5ddb41e0ed3649a9c1fc68e6","64de8311b2813f87286b0ba4","","","","","6111",""," ","key"," ","16.66109289617476","500","250","br","-18","1","1","-23","-11","-5","277"
"","psychophysics","157","879777","0.0-157.0","5ddb41e0ed3649a9c1fc68e6","64de8311b2813f87286b0ba4","","","","","2214",""," ","key"," ","16.661212121212333","500","250","br","-15","1","1","-23","30","-14","209"
"","psychophysics","158","884081","0.0-158.0","5ddb41e0ed3649a9c1fc68e6","64de8311b2813f87286b0ba4","","","","","4302",""," ","key"," ","16.661085271318047","500","250","br","-19","1","1","25","-5","30","294"
"","psychophysics","159","887769","0.0-159.0","5ddb41e0ed3649a9c1fc68e6","64de8311b2813f87286b0ba4","","","","","3685",""," ","key"," ","16.661090909090657","500","250","br","-22","1","1","30","-8","7","251"
"","psychophysics","160","914049","0.0-160.0","5ddb41e0ed3649a9c1fc68e6","64de8311b2813f87286b0ba4","","","","","26279",""," ","key"," ","16.661116751268988","500","250","inst","","","","","","",""
"","psychophysics","161","923986","0.0-161.0","5ddb41e0ed3649a9c1fc68e6","64de8311b2813f87286b0ba4","","","","","9933",""," ","key"," ","16.661107382550366","500","250","instPz1","53","1","","","","25","50"
"","psychophysics","162","930176","0.0-162.0","5ddb41e0ed3649a9c1fc68e6","64de8311b2813f87286b0ba4","","","","","6189",""," ","key"," ","16.661135135135122","500","250","instPz2","20","1","","","","35","20"
"","psychophysics","163","948482","0.0-163.0","5ddb41e0ed3649a9c1fc68e6","64de8311b2813f87286b0ba4","","","","","18301",""," ","key"," ","16.69151459854006","500","250","instPz3","42","1","","","","100","30"
"","psychophysics","164","956041","0.0-164.0","5ddb41e0ed3649a9c1fc68e6","64de8311b2813f87286b0ba4","","","","","7552",""," ","key"," ","16.661147902869757","500","250","instPz4","48","1","","","","100","30"
"","psychophysics","165","957041","0.0-165.0","5ddb41e0ed3649a9c1fc68e6","64de8311b2813f87286b0ba4","","","","","997",""," ","key"," ","16.661016949152543","500","250","inst","","","","","","",""
"","psychophysics","166","958561","0.0-166.0","5ddb41e0ed3649a9c1fc68e6","64de8311b2813f87286b0ba4","","","","","1516",""," ","key"," ","16.66111111111111","500","250","pz","52","1","1","","","52","32"
"","psychophysics","167","966571","0.0-167.0","5ddb41e0ed3649a9c1fc68e6","64de8311b2813f87286b0ba4","","","","","null","","null","key","null","16.66112499999993","500","250","pz","70","1","1","","","29","46"
"","psychophysics","168","971008","0.0-168.0","5ddb41e0ed3649a9c1fc68e6","64de8311b2813f87286b0ba4","","","","","4434",""," ","key"," ","16.66113207547196","500","250","pz","45","1","1","","","23","31"
"","psychophysics","169","977073","0.0-169.0","5ddb41e0ed3649a9c1fc68e6","64de8311b2813f87286b0ba4","","","","","6062",""," ","key"," ","16.661101928374606","500","250","pz","41","1","1","","","60","35"
"","psychophysics","170","979905","0.0-170.0","5ddb41e0ed3649a9c1fc68e6","64de8311b2813f87286b0ba4","","","","","2829",""," ","key"," ","16.66106508875723","500","250","pz","48","1","1","","","48","34"
"","psychophysics","171","987473","0.0-171.0","5ddb41e0ed3649a9c1fc68e6","64de8311b2813f87286b0ba4","","","","","7565",""," ","key"," ","16.661147902869757","500","250","pz","57","1","1","","","25","50"
"","psychophysics","172","994114","0.0-172.0","5ddb41e0ed3649a9c1fc68e6","64de8311b2813f87286b0ba4","","","","","6637",""," ","key"," ","16.661105527638178","500","250","pz","33","1","1","","","58","24"
"","psychophysics","173","996841","0.0-173.0","5ddb41e0ed3649a9c1fc68e6","64de8311b2813f87286b0ba4","","","","","2720",""," ","key"," ","16.661111111110966","500","250","pz","48","1","1","","","48","30"
"","psychophysics","174","1002873","0.0-174.0","5ddb41e0ed3649a9c1fc68e6","64de8311b2813f87286b0ba4","","","","","6026",""," ","key"," ","16.661108033240765","500","250","pz","54","1","1","","","29","42"
"","psychophysics","175","1008241","0.0-175.0","5ddb41e0ed3649a9c1fc68e6","64de8311b2813f87286b0ba4","","","","","5363",""," ","key"," ","16.661118012422374","500","250","pz","66","1","1","","","22","56"
"","psychophysics","176","1015905","0.0-176.0","5ddb41e0ed3649a9c1fc68e6","64de8311b2813f87286b0ba4","","","","","7662",""," ","key"," ","16.661132897603405","500","250","pz","78","1","1","","","35","57"
"","psychophysics","177","1022496","0.0-177.0","5ddb41e0ed3649a9c1fc68e6","64de8311b2813f87286b0ba4","","","","","6588",""," ","key"," ","16.661116751268988","500","250","pz","32","1","1","","","43","27"
"","psychophysics","178","1024081","0.0-178.0","5ddb41e0ed3649a9c1fc68e6","64de8311b2813f87286b0ba4","","","","","1582",""," ","key"," ","16.661063829786144","500","250","pz","42","1","1","","","42","32"
"","psychophysics","179","1028169","0.0-179.0","5ddb41e0ed3649a9c1fc68e6","64de8311b2813f87286b0ba4","","","","","4085",""," ","key"," ","16.66114285714278","500","250","pz","36","1","1","","","28","29"
"","psychophysics","180","1033408","0.0-180.0","5ddb41e0ed3649a9c1fc68e6","64de8311b2813f87286b0ba4","","","","","5238",""," ","key"," ","16.661086261980966","500","250","pz","29","1","1","","","32","23"
"","psychophysics","181","1034577","0.0-181.0","5ddb41e0ed3649a9c1fc68e6","64de8311b2813f87286b0ba4","","","","","1166",""," ","key"," ","16.66115942028979","500","250","inst","","","","","","",""
"","psychophysics","182","1042913","0.0-182.0","5ddb41e0ed3649a9c1fc68e6","64de8311b2813f87286b0ba4","","","","","8333",""," ","key"," ","16.66112000000011","500","250","instPog0","340","2","","0","0","370","340"
"","psychophysics","183","1049945","0.0-183.0","5ddb41e0ed3649a9c1fc68e6","64de8311b2813f87286b0ba4","","","","","7031",""," ","key"," ","16.66109263657945","500","250","instPog1","342","2","","0","0","370","340"
"","psychophysics","184","1054537","0.0-184.0","5ddb41e0ed3649a9c1fc68e6","64de8311b2813f87286b0ba4","","","","","4588",""," ","key"," ","16.661167883211373","500","250","instPog2","334","2","","0","0","340","340"
"","psychophysics","185","1055449","0.0-185.0","5ddb41e0ed3649a9c1fc68e6","64de8311b2813f87286b0ba4","","","","","904",""," ","key"," ","16.661111111110248","500","250","inst","","","","","","",""
"","psychophysics","186","1061880","0.0-186.0","5ddb41e0ed3649a9c1fc68e6","64de8311b2813f87286b0ba4","","","","","6427",""," ","key"," ","16.66109090909096","500","250","pog","323","2","1","0","0","299","338"
"","psychophysics","187","1066697","0.0-187.0","5ddb41e0ed3649a9c1fc68e6","64de8311b2813f87286b0ba4","","","","","4814",""," ","key"," ","16.661111111111595","500","250","pog","357","2","1","0","0","335","375"
"","psychophysics","188","1069056","0.0-188.0","5ddb41e0ed3649a9c1fc68e6","64de8311b2813f87286b0ba4","","","","","2353",""," ","key"," ","16.661134751772853","500","250","pog","343","2","1","0","0","347","356"
"","psychophysics","189","1075104","0.0-189.0","5ddb41e0ed3649a9c1fc68e6","64de8311b2813f87286b0ba4","","","","","6046",""," ","key"," ","16.661104972375227","500","250","pog","351","2","1","0","0","387","361"
"","psychophysics","190","1079681","0.0-190.0","5ddb41e0ed3649a9c1fc68e6","64de8311b2813f87286b0ba4","","","","","4574",""," ","key"," ","16.661098901098832","500","250","pog","308","2","1","0","0","398","315"
"","psychophysics","191","1083713","0.0-191.0","5ddb41e0ed3649a9c1fc68e6","64de8311b2813f87286b0ba4","","","","","4027",""," ","key"," ","16.661078838174543","500","250","pog","316","2","1","0","0","368","324"
"","psychophysics","192","1086137","0.0-192.0","5ddb41e0ed3649a9c1fc68e6","64de8311b2813f87286b0ba4","","","","","2420",""," ","key"," ","16.66110344827657","500","250","pog","340","2","1","0","0","340","352"
"","psychophysics","193","1089352","0.0-193.0","5ddb41e0ed3649a9c1fc68e6","64de8311b2813f87286b0ba4","","","","","3213",""," ","key"," ","16.66114583333304","500","250","pog","328","2","1","0","0","400","336"
"","psychophysics","194","1092417","0.0-194.0","5ddb41e0ed3649a9c1fc68e6","64de8311b2813f87286b0ba4","","","","","3062",""," ","key"," ","16.66109289617476","500","250","pog","322","2","1","0","0","374","329"
"","psychophysics","195","1097536","0.0-195.0","5ddb41e0ed3649a9c1fc68e6","64de8311b2813f87286b0ba4","","","","","5117",""," ","key"," ","16.661111111111264","500","250","pog","335","2","1","0","0","391","340"
"","psychophysics","196","1102464","0.0-196.0","5ddb41e0ed3649a9c1fc68e6","64de8311b2813f87286b0ba4","","","","","4926",""," ","key"," ","16.661084745762775","500","250","pog","296","2","1","0","0","394","301"
"","psychophysics","197","1103537","0.0-197.0","5ddb41e0ed3649a9c1fc68e6","64de8311b2813f87286b0ba4","","","","","1069",""," ","key"," ","16.660952380954452","500","250","pog","299","2","1","0","0","299","306"
"","psychophysics","198","1108537","0.0-198.0","5ddb41e0ed3649a9c1fc68e6","64de8311b2813f87286b0ba4","","","","","4999",""," ","key"," ","16.66107023411421","500","250","pog","325","2","1","0","0","295","335"
"","psychophysics","199","1113465","0.0-199.0","5ddb41e0ed3649a9c1fc68e6","64de8311b2813f87286b0ba4","","","","","4926",""," ","key"," ","16.661152542373006","500","250","pog","316","2","1","0","0","378","323"
"","psychophysics","200","1116744","0.0-200.0","5ddb41e0ed3649a9c1fc68e6","64de8311b2813f87286b0ba4","","","","","3277",""," ","key"," ","16.66112244897997","500","250","pog","296","2","1","0","0","348","303"
"","psychophysics","201","1118280","0.0-201.0","5ddb41e0ed3649a9c1fc68e6","64de8311b2813f87286b0ba4","","","","","1534",""," ","key"," ","16.66109890109798","500","250","inst","","","","","","",""
"","psychophysics","202","1120281","0.0-202.0","5ddb41e0ed3649a9c1fc68e6","64de8311b2813f87286b0ba4","","","","","1997",""," ","key"," ","16.66100840336064","500","250","instZol1","1.3","","","0","0","-1.3",""
"","psychophysics","203","1122784","0.0-203.0","5ddb41e0ed3649a9c1fc68e6","64de8311b2813f87286b0ba4","","","","","2502",""," ","key"," ","16.661073825503355","500","250","instZol2","-2","2","","0","0","2",""
"","psychophysics","204","1124289","0.0-204.0","5ddb41e0ed3649a9c1fc68e6","64de8311b2813f87286b0ba4","","","","","1500",""," ","key"," ","16.66111111111111","500","250","inst","","","","","","",""
"","psychophysics","205","1126961","0.0-205.0","5ddb41e0ed3649a9c1fc68e6","64de8311b2813f87286b0ba4","","","","","2670",""," ","key"," ","16.661132075472402","500","250","zol","-0.45999999999999996","2","1","-5","2","-0.04",""
"","psychophysics","206","1131537","0.0-206.0","5ddb41e0ed3649a9c1fc68e6","64de8311b2813f87286b0ba4","","","","","4574",""," ","key"," ","16.661094890511425","500","250","zol","-0.73","2","1","9","-1","0.63",""
"","psychophysics","207","1135657","0.0-207.0","5ddb41e0ed3649a9c1fc68e6","64de8311b2813f87286b0ba4","","","","","4117",""," ","key"," ","16.668861788618038","500","250","zol","-0.6499999999999999","2","1","-5","-23","-0.05",""
"","psychophysics","208","1141776","0.0-208.0","5ddb41e0ed3649a9c1fc68e6","64de8311b2813f87286b0ba4","","","","","6117",""," ","key"," ","16.66109289617476","500","250","zol","-0.54","2","1","7","-12","0.34",""
"","psychophysics","209","1148209","0.0-209.0","5ddb41e0ed3649a9c1fc68e6","64de8311b2813f87286b0ba4","","","","","6430",""," ","key"," ","16.661142857142348","500","250","zol","-0.43000000000000005","2","1","-12","-4","-0.47",""
"","psychophysics","210","1150801","0.0-210.0","5ddb41e0ed3649a9c1fc68e6","64de8311b2813f87286b0ba4","","","","","2587",""," ","key"," ","16.661032258064274","500","250","zol","-0.93","2","1","8","17","0.43",""
"","psychophysics","211","1152441","0.0-211.0","5ddb41e0ed3649a9c1fc68e6","64de8311b2813f87286b0ba4","","","","","1637",""," ","key"," ","16.661237113403406","500","250","zol","-0.71","2","1","28","15","0.71",""
"","psychophysics","212","1156489","0.0-212.0","5ddb41e0ed3649a9c1fc68e6","64de8311b2813f87286b0ba4","","","","","4043",""," ","key"," ","16.66107438016521","500","250","zol","-0.6399999999999999","2","1","-10","12","0.44",""
"","psychophysics","213","1161097","0.0-213.0","5ddb41e0ed3649a9c1fc68e6","64de8311b2813f87286b0ba4","","","","","4602",""," ","key"," ","16.66115942028979","500","250","zol","-0.26999999999999996","2","1","16","-16","-0.53",""
"","psychophysics","214","1163649","0.0-214.0","5ddb41e0ed3649a9c1fc68e6","64de8311b2813f87286b0ba4","","","","","2549",""," ","key"," ","16.661052631578826","500","250","zol","-0.8999999999999999","2","1","-17","-11","0.6",""
"","psychophysics","215","1170089","0.0-215.0","5ddb41e0ed3649a9c1fc68e6","64de8311b2813f87286b0ba4","","","","","6437",""," ","key"," ","16.66113989637354","500","250","zol","-0.72","2","1","-12","1","-0.08",""
"","psychophysics","216","1172065","0.0-216.0","5ddb41e0ed3649a9c1fc68e6","64de8311b2813f87286b0ba4","","","","","1973",""," ","key"," ","16.661025641026356","500","250","zol","-0.57","2","1","10","-4","0.57",""
"","psychophysics","217","1177777","0.0-217.0","5ddb41e0ed3649a9c1fc68e6","64de8311b2813f87286b0ba4","","","","","5710",""," ","key"," ","16.661111111111385","500","250","zol","-0.64","2","1","-25","0","0.54",""
"","psychophysics","218","1183953","0.0-218.0","5ddb41e0ed3649a9c1fc68e6","64de8311b2813f87286b0ba4","","","","","6173",""," ","key"," ","16.661081081080702","500","250","zol","-0.47","2","1","25","-21","-0.73",""
"","psychophysics","219","1188888","0.0-219.0","5ddb41e0ed3649a9c1fc68e6","64de8311b2813f87286b0ba4","","","","","4934",""," ","key"," ","16.661152542373006","500","250","zol","-0.69","2","1","-2","8","0.49",""
