"success","trial_type","trial_index","time_elapsed","internal_node_id","pid","sid","timeout","failed_images","failed_audio","failed_video","rt","stimulus","response","response_type","key_press","avg_frame_time","center_x","center_y","task","resp","version","block","jitterX","jitterY","start","parA"
"true","fullscreen","0","4021","0.0-0.0","5e0565b6deea2bf9ae411b13","64de83c91be8798828627197","","","","","","","","","","","","","","","","","","","",""
"true","preload","1","4124","0.0-1.0","5e0565b6deea2bf9ae411b13","64de83c91be8798828627197","false","[]","[]","[]","","","","","","","","","","","","","","","",""
"","html-button-response","2","6438","0.0-2.0","5e0565b6deea2bf9ae411b13","64de83c91be8798828627197","","","","","2313","Please Make Sure Your Audio Is On.","0","","","","","","","","","","","","",""
"","psychophysics","3","16751","0.0-3.0","5e0565b6deea2bf9ae411b13","64de83c91be8798828627197","","","","","10309",""," ","key"," ","16.665184466019415","960","250","","","","","","","",""
"","psychophysics","4","19990","0.0-4.0","5e0565b6deea2bf9ae411b13","64de83c91be8798828627197","","","","","3238",""," ","key"," ","16.66469072164949","500","250","inst","","","","","","",""
"","psychophysics","5","23454","0.0-5.0","5e0565b6deea2bf9ae411b13","64de83c91be8798828627197","","","","","3463",""," ","key"," ","16.665420289855064","500","250","sample0","","","","","","",""
"","psychophysics","6","25862","0.0-6.0","5e0565b6deea2bf9ae411b13","64de83c91be8798828627197","","","","","2407",""," ","key"," ","16.66534265734266","500","250","sample1","","","","","","",""
"","psychophysics","7","42150","0.0-7.0","5e0565b6deea2bf9ae411b13","64de83c91be8798828627197","","","","","16286",""," ","key"," ","16.6650768442623","500","250","sample2","102","","","","","",""
"","psychophysics","8","58958","0.0-8.0","5e0565b6deea2bf9ae411b13","64de83c91be8798828627197","","","","","16806",""," ","key"," ","16.66505952380952","500","250","sample3","102","","","","","",""
"","psychophysics","9","63038","0.0-9.0","5e0565b6deea2bf9ae411b13","64de83c91be8798828627197","","","","","4078",""," ","key"," ","16.665356557377056","500","250","sample4","100","","","","","",""
"","psychophysics","10","68550","0.0-10.0","5e0565b6deea2bf9ae411b13","64de83c91be8798828627197","","","","","5510",""," ","key"," ","16.664587878787874","500","250","sample5","","","","","","",""
"","psychophysics","11","77637","0.0-11.0","5e0565b6deea2bf9ae411b13","64de83c91be8798828627197","","","","","9086",""," ","key"," ","16.665213235294125","500","250","sample6","500","","","","","",""
"","psychophysics","12","96208","0.0-12.0","5e0565b6deea2bf9ae411b13","64de83c91be8798828627197","","","","","18569",""," ","key"," ","16.66530458221024","500","250","inst","","","","","","",""
"","psychophysics","13","110181","0.0-13.0","5e0565b6deea2bf9ae411b13","64de83c91be8798828627197","","","","","13972",""," ","key"," ","16.664805489260146","500","250","inst","","","","","","",""
"","psychophysics","14","115029","0.0-14.0","5e0565b6deea2bf9ae411b13","64de83c91be8798828627197","","","","","4847",""," ","key"," ","16.66518275862071","500","250","inst","","","","","","",""
"","psychophysics","15","119549","0.0-15.0","5e0565b6deea2bf9ae411b13","64de83c91be8798828627197","","","","","4519",""," ","key"," ","16.664851851851886","500","250","inst","","","","","","",""
"","psychophysics","16","121845","0.0-16.0","5e0565b6deea2bf9ae411b13","64de83c91be8798828627197","","","","","2294",""," ","key"," ","16.664014598540156","500","250","inst","","","","","","",""
"","psychophysics","17","124077","0.0-17.0","5e0565b6deea2bf9ae411b13","64de83c91be8798828627197","","","","","2231",""," ","key"," ","16.664962406015054","500","250","instZol0","0","","","0","0","0",""
"","psychophysics","18","131933","0.0-18.0","5e0565b6deea2bf9ae411b13","64de83c91be8798828627197","","","","","7854",""," ","key"," ","16.66535957446811","500","250","instZol1","0.10000000000000003","","","0","0","-1.3",""
"","psychophysics","19","140230","0.0-19.0","5e0565b6deea2bf9ae411b13","64de83c91be8798828627197","","","","","8295",""," ","key"," ","16.665354124748514","500","250","instZol2","-2.7000000000000006","2","","0","0","2",""
"","psychophysics","20","142166","0.0-20.0","5e0565b6deea2bf9ae411b13","64de83c91be8798828627197","","","","","1935",""," ","key"," ","16.665800000000086","500","250","inst","","","","","","",""
"","psychophysics","21","147445","0.0-21.0","5e0565b6deea2bf9ae411b13","64de83c91be8798828627197","","","","","5277",""," ","key"," ","16.665490506329153","500","250","zol","-1.9600000000000006","2","0","-18","-12","0.16",""
"","psychophysics","22","151558","0.0-22.0","5e0565b6deea2bf9ae411b13","64de83c91be8798828627197","","","","","4111",""," ","key"," ","16.66523170731718","500","250","zol","-0.8499999999999999","2","0","4","0","-0.75",""
"","psychophysics","23","153574","0.0-23.0","5e0565b6deea2bf9ae411b13","64de83c91be8798828627197","","","","","2014",""," ","key"," ","16.66527500000011","500","250","zol","-0.97","2","0","5","9","-0.43",""
"","psychophysics","24","155246","0.0-24.0","5e0565b6deea2bf9ae411b13","64de83c91be8798828627197","","","","","1670",""," ","key"," ","16.664666666666626","500","250","zol","-0.8699999999999999","2","0","13","6","-0.03",""
"","psychophysics","25","157845","0.0-25.0","5e0565b6deea2bf9ae411b13","64de83c91be8798828627197","","","","","2597",""," ","key"," ","16.66561935483872","500","250","zol","-1.3100000000000003","2","0","30","-7","-0.19",""
"","psychophysics","26","160180","0.0-26.0","5e0565b6deea2bf9ae411b13","64de83c91be8798828627197","","","","","2334",""," ","key"," ","16.663870503597266","500","250","zol","-1.11","2","0","7","20","-0.49",""
"","psychophysics","27","161917","0.0-27.0","5e0565b6deea2bf9ae411b13","64de83c91be8798828627197","","","","","1736",""," ","key"," ","16.66596116504866","500","250","zol","-1.19","2","0","-2","24","-0.11",""
"","psychophysics","28","163494","0.0-28.0","5e0565b6deea2bf9ae411b13","64de83c91be8798828627197","","","","","1576",""," ","key"," ","16.66725531914903","500","250","zol","-1.5800000000000003","2","0","19","9","0.08",""
"","psychophysics","29","165117","0.0-29.0","5e0565b6deea2bf9ae411b13","64de83c91be8798828627197","","","","","1621",""," ","key"," ","16.663406250000055","500","250","zol","-0.45999999999999996","2","0","-30","23","-0.74",""
"","psychophysics","30","166638","0.0-30.0","5e0565b6deea2bf9ae411b13","64de83c91be8798828627197","","","","","1519",""," ","key"," ","16.665622222222414","500","250","zol","-1.1300000000000001","2","0","29","21","-0.57",""
"","psychophysics","31","168134","0.0-31.0","5e0565b6deea2bf9ae411b13","64de83c91be8798828627197","","","","","1494",""," ","key"," ","16.66710112359554","500","250","zol","-1.8200000000000007","2","0","30","1","-0.18",""
"","psychophysics","32","170270","0.0-32.0","5e0565b6deea2bf9ae411b13","64de83c91be8798828627197","","","","","2135",""," ","key"," ","16.666811023622028","500","250","zol","-1.2300000000000002","2","0","-16","-29","-0.37",""
"","psychophysics","33","171923","0.0-33.0","5e0565b6deea2bf9ae411b13","64de83c91be8798828627197","","","","","1651",""," ","key"," ","16.66483838383827","500","250","zol","-1.1300000000000001","2","0","-5","-19","0.33",""
"","psychophysics","34","173477","0.0-34.0","5e0565b6deea2bf9ae411b13","64de83c91be8798828627197","","","","","1552",""," ","key"," ","16.665250000000093","500","250","zol","-1.6400000000000006","2","0","-8","4","0.34",""
"","psychophysics","35","175799","0.0-35.0","5e0565b6deea2bf9ae411b13","64de83c91be8798828627197","","","","","2320",""," ","key"," ","16.665847826086868","500","250","zol","-1.7300000000000006","2","0","6","1","0.43",""
"","psychophysics","36","178782","0.0-36.0","5e0565b6deea2bf9ae411b13","64de83c91be8798828627197","","","","","2982",""," ","key"," ","16.665842696629156","500","250","inst","","","","","","",""
"","psychophysics","37","186430","0.0-37.0","5e0565b6deea2bf9ae411b13","64de83c91be8798828627197","","","","","7647",""," ","key"," ","16.665093886462845","500","250","instPog0","340","2","","0","0","370","340"
"","psychophysics","38","190998","0.0-38.0","5e0565b6deea2bf9ae411b13","64de83c91be8798828627197","","","","","4567",""," ","key"," ","16.665051282051206","500","250","instPog1","352","2","","0","0","370","340"
"","psychophysics","39","192255","0.0-39.0","5e0565b6deea2bf9ae411b13","64de83c91be8798828627197","","","","","1257",""," ","key"," ","16.664639999999974","500","250","instPog2","336","2","","0","0","340","340"
"","psychophysics","40","211718","0.0-40.0","5e0565b6deea2bf9ae411b13","64de83c91be8798828627197","","","","","19461",""," ","key"," ","16.664950299914313","500","250","inst","","","","","","",""
"","psychophysics","41","213629","0.0-41.0","5e0565b6deea2bf9ae411b13","64de83c91be8798828627197","","","","","1909",""," ","key"," ","16.662743362831723","500","250","pog","325","2","0","0","0","359","324"
"","psychophysics","42","221038","0.0-42.0","5e0565b6deea2bf9ae411b13","64de83c91be8798828627197","","","","","7408",""," ","key"," ","16.665295045045053","500","250","pog","307","2","0","0","0","281","333"
"","psychophysics","43","226494","0.0-43.0","5e0565b6deea2bf9ae411b13","64de83c91be8798828627197","","","","","5455",""," ","key"," ","16.665334355828236","500","250","pog","341","2","0","0","0","355","343"
"","psychophysics","44","231669","0.0-44.0","5e0565b6deea2bf9ae411b13","64de83c91be8798828627197","","","","","5174",""," ","key"," ","16.664677419354895","500","250","pog","309","2","0","0","0","321","314"
"","psychophysics","45","233133","0.0-45.0","5e0565b6deea2bf9ae411b13","64de83c91be8798828627197","","","","","1463",""," ","key"," ","16.66599999999978","500","250","pog","363","2","0","0","0","371","370"
"","psychophysics","46","234286","0.0-46.0","5e0565b6deea2bf9ae411b13","64de83c91be8798828627197","","","","","1151",""," ","key"," ","16.666485294117592","500","250","pog","304","2","0","0","0","312","303"
"","psychophysics","47","237382","0.0-47.0","5e0565b6deea2bf9ae411b13","64de83c91be8798828627197","","","","","3095",""," ","key"," ","16.665427027026983","500","250","pog","337","2","0","0","0","363","350"
"","psychophysics","48","242846","0.0-48.0","5e0565b6deea2bf9ae411b13","64de83c91be8798828627197","","","","","5458",""," ","key"," ","16.664708588957076","500","250","pog","288","2","0","0","0","322","301"
"","psychophysics","49","245541","0.0-49.0","5e0565b6deea2bf9ae411b13","64de83c91be8798828627197","","","","","2693",""," ","key"," ","16.6658447204969","500","250","pog","323","2","0","0","0","299","356"
"","psychophysics","50","247806","0.0-50.0","5e0565b6deea2bf9ae411b13","64de83c91be8798828627197","","","","","2263",""," ","key"," ","16.665288888888984","500","250","pog","351","2","0","0","0","391","364"
"","psychophysics","51","250510","0.0-51.0","5e0565b6deea2bf9ae411b13","64de83c91be8798828627197","","","","","2703",""," ","key"," ","16.664031055900708","500","250","pog","287","2","0","0","0","289","301"
"","psychophysics","52","256598","0.0-52.0","5e0565b6deea2bf9ae411b13","64de83c91be8798828627197","","","","","6087",""," ","key"," ","16.664917808219197","500","250","pog","335","2","0","0","0","383","332"
"","psychophysics","53","258966","0.0-53.0","5e0565b6deea2bf9ae411b13","64de83c91be8798828627197","","","","","2366",""," ","key"," ","16.663950354609916","500","250","pog","321","2","0","0","0","395","309"
"","psychophysics","54","265382","0.0-54.0","5e0565b6deea2bf9ae411b13","64de83c91be8798828627197","","","","","6415",""," ","key"," ","16.66547135416666","500","250","pog","311","2","0","0","0","397","319"
"","psychophysics","55","273383","0.0-55.0","5e0565b6deea2bf9ae411b13","64de83c91be8798828627197","","","","","null","","null","key","null","16.66507306889354","500","250","pog","344","2","0","0","0","306","374"
"","psychophysics","56","403790","0.0-56.0","5e0565b6deea2bf9ae411b13","64de83c91be8798828627197","","","","","130406",""," ","key"," ","16.664958077709617","500","250","inst","","","","","","",""
"","psychophysics","57","405742","0.0-57.0","5e0565b6deea2bf9ae411b13","64de83c91be8798828627197","","","","","1951",""," ","key"," ","16.667965517241353","500","250","instPzPre","50","0","","","","50","50"
"","psychophysics","58","408110","0.0-58.0","5e0565b6deea2bf9ae411b13","64de83c91be8798828627197","","","","","2366",""," ","key"," ","16.666141843971886","500","250","instPz0","32","1","","","","50","50"
"","psychophysics","59","411678","0.0-59.0","5e0565b6deea2bf9ae411b13","64de83c91be8798828627197","","","","","3567",""," ","key"," ","16.665145539906273","500","250","instPz1","53","1","","","","25","50"
"","psychophysics","60","421462","0.0-60.0","5e0565b6deea2bf9ae411b13","64de83c91be8798828627197","","","","","9782",""," ","key"," ","16.665005119453973","500","250","instPz2","20","1","","","","35","20"
"","psychophysics","61","426742","0.0-61.0","5e0565b6deea2bf9ae411b13","64de83c91be8798828627197","","","","","5276",""," ","key"," ","16.665110759493633","500","250","instPz3","32","1","","","","100","30"
"","psychophysics","62","430655","0.0-62.0","5e0565b6deea2bf9ae411b13","64de83c91be8798828627197","","","","","3911",""," ","key"," ","16.665055555555647","500","250","instPz4","36","1","","","","100","30"
"","psychophysics","63","471125","0.0-63.0","5e0565b6deea2bf9ae411b13","64de83c91be8798828627197","","","","","40469",""," ","key"," ","16.665082784184513","500","250","inst","","","","","","",""
"","psychophysics","64","474222","0.0-64.0","5e0565b6deea2bf9ae411b13","64de83c91be8798828627197","","","","","3094",""," ","key"," ","16.66502173913044","500","250","pz","55","1","0","","","35","55"
"","psychophysics","65","475558","0.0-65.0","5e0565b6deea2bf9ae411b13","64de83c91be8798828627197","","","","","1333",""," ","key"," ","16.664312500000232","500","250","pz","39","1","0","","","29","37"
"","psychophysics","66","477606","0.0-66.0","5e0565b6deea2bf9ae411b13","64de83c91be8798828627197","","","","","2046",""," ","key"," ","16.665595041322405","500","250","pz","46","1","0","","","27","50"
"","psychophysics","67","480710","0.0-67.0","5e0565b6deea2bf9ae411b13","64de83c91be8798828627197","","","","","3098",""," ","key"," ","16.66552688172043","500","250","pz","28","1","0","","","45","22"
"","psychophysics","68","483230","0.0-68.0","5e0565b6deea2bf9ae411b13","64de83c91be8798828627197","","","","","2518",""," ","key"," ","16.664413333333407","500","250","pz","55","1","0","","","31","59"
"","psychophysics","69","485375","0.0-69.0","5e0565b6deea2bf9ae411b13","64de83c91be8798828627197","","","","","2143",""," ","key"," ","16.665632812500007","500","250","pz","37","1","0","","","59","32"
"","psychophysics","70","486998","0.0-70.0","5e0565b6deea2bf9ae411b13","64de83c91be8798828627197","","","","","1622",""," ","key"," ","16.663624999999836","500","250","pz","60","1","0","","","41","53"
"","psychophysics","71","488328","0.0-71.0","5e0565b6deea2bf9ae411b13","64de83c91be8798828627197","","","","","1329",""," ","key"," ","16.66784810126594","500","250","pz","49","1","0","","","48","41"
"","psychophysics","72","490918","0.0-72.0","5e0565b6deea2bf9ae411b13","64de83c91be8798828627197","","","","","2589",""," ","key"," ","16.66685714285712","500","250","pz","50","1","0","","","36","44"
"","psychophysics","73","493726","0.0-73.0","5e0565b6deea2bf9ae411b13","64de83c91be8798828627197","","","","","2805",""," ","key"," ","16.66418452380943","500","250","pz","46","1","0","","","25","45"
"","psychophysics","74","495087","0.0-74.0","5e0565b6deea2bf9ae411b13","64de83c91be8798828627197","","","","","1359",""," ","key"," ","16.66668750000026","500","250","pz","57","1","0","","","55","56"
"","psychophysics","75","496167","0.0-75.0","5e0565b6deea2bf9ae411b13","64de83c91be8798828627197","","","","","1077",""," ","key"," ","16.663718750000044","500","250","pz","54","1","0","","","51","47"
"","psychophysics","76","498310","0.0-76.0","5e0565b6deea2bf9ae411b13","64de83c91be8798828627197","","","","","2142",""," ","key"," ","16.664992187500047","500","250","pz","54","1","0","","","36","55"
"","psychophysics","77","503174","0.0-77.0","5e0565b6deea2bf9ae411b13","64de83c91be8798828627197","","","","","4862",""," ","key"," ","16.664735395189084","500","250","pz","31","1","0","","","57","23"
"","psychophysics","78","504855","0.0-78.0","5e0565b6deea2bf9ae411b13","64de83c91be8798828627197","","","","","1679",""," ","key"," ","16.66427999999956","500","250","pz","30","1","0","","","30","23"
"","psychophysics","79","508000","0.0-79.0","5e0565b6deea2bf9ae411b13","64de83c91be8798828627197","","","","","3142",""," ","key"," ","16.663759358288885","500","250","inst","","","","","","",""
"","psychophysics","80","509479","0.0-80.0","5e0565b6deea2bf9ae411b13","64de83c91be8798828627197","","","","","1478",""," ","key"," ","16.666761363636894","500","250","instEB0","40","1","","0","0","40","40"
"","psychophysics","81","513390","0.0-81.0","5e0565b6deea2bf9ae411b13","64de83c91be8798828627197","","","","","3911",""," ","key"," ","16.664491452991367","500","250","instEB1","29","1","","0","0","40","30"
"","psychophysics","82","518142","0.0-82.0","5e0565b6deea2bf9ae411b13","64de83c91be8798828627197","","","","","4751",""," ","key"," ","16.664404929577437","500","250","instEB2","36","1","","0","0","30","40"
"","psychophysics","83","521190","0.0-83.0","5e0565b6deea2bf9ae411b13","64de83c91be8798828627197","","","","","3047",""," ","key"," ","16.66523076923101","500","250","instEB3","35","1","","0","0","27","45"
"","psychophysics","84","525214","0.0-84.0","5e0565b6deea2bf9ae411b13","64de83c91be8798828627197","","","","","4023",""," ","key"," ","16.665524999999857","500","250","instEB4","29","1","","0","0","40","30"
"","psychophysics","85","526182","0.0-85.0","5e0565b6deea2bf9ae411b13","64de83c91be8798828627197","","","","","967",""," ","key"," ","16.66622807017503","500","250","inst","","","","","","",""
"","psychophysics","86","529216","0.0-86.0","5e0565b6deea2bf9ae411b13","64de83c91be8798828627197","","","","","3033",""," ","key"," ","16.664806629834022","500","250","eb","25","1","","0","0","38","28"
"","psychophysics","87","533294","0.0-87.0","5e0565b6deea2bf9ae411b13","64de83c91be8798828627197","","","","","4077",""," ","key"," ","16.666159836065834","500","250","eb","40","1","","0","0","28","53"
"","psychophysics","88","535519","0.0-88.0","5e0565b6deea2bf9ae411b13","64de83c91be8798828627197","","","","","2223",""," ","key"," ","16.665263157894596","500","250","eb","28","1","","0","0","32","27"
"","psychophysics","89","538606","0.0-89.0","5e0565b6deea2bf9ae411b13","64de83c91be8798828627197","","","","","3085",""," ","key"," ","16.66495108695602","500","250","eb","33","1","","0","0","48","37"
"","psychophysics","90","541382","0.0-90.0","5e0565b6deea2bf9ae411b13","64de83c91be8798828627197","","","","","2775",""," ","key"," ","16.665006060606206","500","250","eb","37","1","","0","0","50","41"
"","psychophysics","91","543718","0.0-91.0","5e0565b6deea2bf9ae411b13","64de83c91be8798828627197","","","","","2332",""," ","key"," ","16.666585714286025","500","250","eb","34","1","","0","0","28","36"
"","psychophysics","92","545566","0.0-92.0","5e0565b6deea2bf9ae411b13","64de83c91be8798828627197","","","","","1847",""," ","key"," ","16.665275229357928","500","250","eb","28","1","","0","0","28","25"
"","psychophysics","93","546517","0.0-93.0","5e0565b6deea2bf9ae411b13","64de83c91be8798828627197","","","","","948",""," ","key"," ","16.663842105261754","500","250","eb","28","1","","0","0","28","26"
"","psychophysics","94","548118","0.0-94.0","5e0565b6deea2bf9ae411b13","64de83c91be8798828627197","","","","","1600",""," ","key"," ","16.665336842105823","500","250","eb","28","1","","0","0","26","30"
"","psychophysics","95","549415","0.0-95.0","5e0565b6deea2bf9ae411b13","64de83c91be8798828627197","","","","","1295",""," ","key"," ","16.666802631579277","500","250","eb","37","1","","0","0","37","47"
"","psychophysics","96","552405","0.0-96.0","5e0565b6deea2bf9ae411b13","64de83c91be8798828627197","","","","","2987",""," ","key"," ","16.66516201117326","500","250","eb","25","1","","0","0","49","24"
"","psychophysics","97","554630","0.0-97.0","5e0565b6deea2bf9ae411b13","64de83c91be8798828627197","","","","","2222",""," ","key"," ","16.66360606060621","500","250","eb","32","1","","0","0","45","40"
"","psychophysics","98","557358","0.0-98.0","5e0565b6deea2bf9ae411b13","64de83c91be8798828627197","","","","","2727",""," ","key"," ","16.66533128834298","500","250","eb","40","1","","0","0","50","48"
"","psychophysics","99","559486","0.0-99.0","5e0565b6deea2bf9ae411b13","64de83c91be8798828627197","","","","","2126",""," ","key"," ","16.66430708661393","500","250","eb","34","1","","0","0","38","30"
"","psychophysics","100","562342","0.0-100.0","5e0565b6deea2bf9ae411b13","64de83c91be8798828627197","","","","","2855",""," ","key"," ","16.665929411764612","500","250","eb","35","1","","0","0","44","37"
"","psychophysics","101","563367","0.0-101.0","5e0565b6deea2bf9ae411b13","64de83c91be8798828627197","","","","","1023",""," ","key"," ","16.66644262294972","500","250","inst","","","","","","",""
"","psychophysics","102","568613","0.0-102.0","5e0565b6deea2bf9ae411b13","64de83c91be8798828627197","","","","","5245",""," ","key"," ","16.664568690095876","500","250","instBr0","0","","","0","0","0","300"
"","psychophysics","103","574637","0.0-103.0","5e0565b6deea2bf9ae411b13","64de83c91be8798828627197","","","","","6021",""," ","key"," ","16.665168975069385","500","250","instBr1","-3","","","0","0","-40","300"
"","psychophysics","104","577437","0.0-104.0","5e0565b6deea2bf9ae411b13","64de83c91be8798828627197","","","","","2799",""," ","key"," ","16.664676646706173","500","250","instBr3","30","2","","0","0","40","300"
"","psychophysics","105","578390","0.0-105.0","5e0565b6deea2bf9ae411b13","64de83c91be8798828627197","","","","","952",""," ","key"," ","16.668035714286297","500","250","inst","","","","","","",""
"","psychophysics","106","580664","0.0-106.0","5e0565b6deea2bf9ae411b13","64de83c91be8798828627197","","","","","2272",""," ","key"," ","16.665029411764834","500","250","br","26","2","0","0","-20","-2","284"
"","psychophysics","107","582591","0.0-107.0","5e0565b6deea2bf9ae411b13","64de83c91be8798828627197","","","","","1924",""," ","key"," ","16.66537719298248","500","250","br","11","2","0","29","-1","-12","292"
"","psychophysics","108","584789","0.0-108.0","5e0565b6deea2bf9ae411b13","64de83c91be8798828627197","","","","","2198",""," ","key"," ","16.665526717557317","500","250","br","15","2","0","-14","-28","-19","271"
"","psychophysics","109","587533","0.0-109.0","5e0565b6deea2bf9ae411b13","64de83c91be8798828627197","","","","","2743",""," ","key"," ","16.66518292682907","500","250","br","19","2","0","-5","30","-27","268"
"","psychophysics","110","589630","0.0-110.0","5e0565b6deea2bf9ae411b13","64de83c91be8798828627197","","","","","2095",""," ","key"," ","16.665592000000178","500","250","br","9","2","0","-29","13","-22","216"
"","psychophysics","111","591005","0.0-111.0","5e0565b6deea2bf9ae411b13","64de83c91be8798828627197","","","","","1374",""," ","key"," ","16.666061728395075","500","250","br","22","2","0","23","8","7","212"
"","psychophysics","112","592295","0.0-112.0","5e0565b6deea2bf9ae411b13","64de83c91be8798828627197","","","","","1289",""," ","key"," ","16.66585526315765","500","250","br","22","2","0","-18","7","11","216"
"","psychophysics","113","594447","0.0-113.0","5e0565b6deea2bf9ae411b13","64de83c91be8798828627197","","","","","2149",""," ","key"," ","16.665465116278853","500","250","br","20","2","0","-18","-21","-19","287"
"","psychophysics","114","596526","0.0-114.0","5e0565b6deea2bf9ae411b13","64de83c91be8798828627197","","","","","2077",""," ","key"," ","16.664414634146326","500","250","br","20","2","0","15","13","-19","272"
"","psychophysics","115","597989","0.0-115.0","5e0565b6deea2bf9ae411b13","64de83c91be8798828627197","","","","","1463",""," ","key"," ","16.66706896551628","500","250","br","23","2","0","-13","-23","2","276"
"","psychophysics","116","599927","0.0-116.0","5e0565b6deea2bf9ae411b13","64de83c91be8798828627197","","","","","1936",""," ","key"," ","16.665678260869186","500","250","br","24","2","0","-5","-18","10","222"
"","psychophysics","117","601661","0.0-117.0","5e0565b6deea2bf9ae411b13","64de83c91be8798828627197","","","","","1730",""," ","key"," ","16.663932692307682","500","250","br","19","2","0","29","30","4","262"
"","psychophysics","118","603302","0.0-118.0","5e0565b6deea2bf9ae411b13","64de83c91be8798828627197","","","","","1639",""," ","key"," ","16.66493814433061","500","250","br","14","2","0","26","13","-16","267"
"","psychophysics","119","604950","0.0-119.0","5e0565b6deea2bf9ae411b13","64de83c91be8798828627197","","","","","1647",""," ","key"," ","16.666408163264908","500","250","br","20","2","0","7","15","-7","226"
"","psychophysics","120","607207","0.0-120.0","5e0565b6deea2bf9ae411b13","64de83c91be8798828627197","","","","","2256",""," ","key"," ","16.666447761194057","500","250","br","22","2","0","-11","2","-24","214"
"","psychophysics","121","608021","0.0-121.0","5e0565b6deea2bf9ae411b13","64de83c91be8798828627197","","","","","813",""," ","key"," ","16.66439583333219","500","250","inst","","","","","","",""
"","psychophysics","122","611613","0.0-122.0","5e0565b6deea2bf9ae411b13","64de83c91be8798828627197","","","","","3591",""," ","key"," ","16.66571627907011","500","250","instBr3","-18","1","","0","0","40","300"
"","psychophysics","123","612486","0.0-123.0","5e0565b6deea2bf9ae411b13","64de83c91be8798828627197","","","","","872",""," ","key"," ","16.663215686272665","500","250","inst","","","","","","",""
"","psychophysics","124","614405","0.0-124.0","5e0565b6deea2bf9ae411b13","64de83c91be8798828627197","","","","","1918",""," ","key"," ","16.663526315789408","500","250","br","-8","1","1","0","-16","-30","206"
"","psychophysics","125","616422","0.0-125.0","5e0565b6deea2bf9ae411b13","64de83c91be8798828627197","","","","","2016",""," ","key"," ","16.666599999999743","500","250","br","-14","1","1","-27","1","14","228"
"","psychophysics","126","617318","0.0-126.0","5e0565b6deea2bf9ae411b13","64de83c91be8798828627197","","","","","895",""," ","key"," ","16.668113207547783","500","250","br","-18","1","1","18","-24","-20","268"
"","psychophysics","127","619286","0.0-127.0","5e0565b6deea2bf9ae411b13","64de83c91be8798828627197","","","","","1966",""," ","key"," ","16.664615384615463","500","250","br","-2","1","1","-4","2","26","257"
"","psychophysics","128","620192","0.0-128.0","5e0565b6deea2bf9ae411b13","64de83c91be8798828627197","","","","","905",""," ","key"," ","16.666471698112733","500","250","br","-14","1","1","-10","-2","-13","280"
"","psychophysics","129","622654","0.0-129.0","5e0565b6deea2bf9ae411b13","64de83c91be8798828627197","","","","","2460",""," ","key"," ","16.66697278911514","500","250","br","-12","1","1","15","-4","-22","202"
"","psychophysics","130","624701","0.0-130.0","5e0565b6deea2bf9ae411b13","64de83c91be8798828627197","","","","","2046",""," ","key"," ","16.6653196721311","500","250","br","-15","1","1","-14","-22","-24","224"
"","psychophysics","131","626190","0.0-131.0","5e0565b6deea2bf9ae411b13","64de83c91be8798828627197","","","","","1487",""," ","key"," ","16.665784090909504","500","250","br","-7","1","1","-13","-30","-6","257"
"","psychophysics","132","627941","0.0-132.0","5e0565b6deea2bf9ae411b13","64de83c91be8798828627197","","","","","1751",""," ","key"," ","16.66667307692226","500","250","br","-14","1","1","16","25","-3","272"
"","psychophysics","133","629173","0.0-133.0","5e0565b6deea2bf9ae411b13","64de83c91be8798828627197","","","","","1229",""," ","key"," ","16.66686301369998","500","250","br","-16","1","1","-21","15","-28","252"
"","psychophysics","134","630550","0.0-134.0","5e0565b6deea2bf9ae411b13","64de83c91be8798828627197","","","","","1374",""," ","key"," ","16.66747560975619","500","250","br","-8","1","1","-7","-7","4","220"
"","psychophysics","135","631527","0.0-135.0","5e0565b6deea2bf9ae411b13","64de83c91be8798828627197","","","","","975",""," ","key"," ","16.669758620689993","500","250","br","-7","1","1","-26","-4","-8","265"
"","psychophysics","136","633182","0.0-136.0","5e0565b6deea2bf9ae411b13","64de83c91be8798828627197","","","","","1653",""," ","key"," ","16.662693877551202","500","250","br","-17","1","1","-23","25","-22","225"
"","psychophysics","137","634638","0.0-137.0","5e0565b6deea2bf9ae411b13","64de83c91be8798828627197","","","","","1455",""," ","key"," ","16.667453488371564","500","250","br","-15","1","1","6","-4","-27","272"
"","psychophysics","138","636078","0.0-138.0","5e0565b6deea2bf9ae411b13","64de83c91be8798828627197","","","","","1438",""," ","key"," ","16.665779069767247","500","250","br","-13","1","1","8","29","-2","202"
"","psychophysics","139","636895","0.0-139.0","5e0565b6deea2bf9ae411b13","64de83c91be8798828627197","","","","","817",""," ","key"," ","16.667854166667286","500","250","inst","","","","","","",""
"","psychophysics","140","640317","0.0-140.0","5e0565b6deea2bf9ae411b13","64de83c91be8798828627197","","","","","3421",""," ","key"," ","16.66467156862742","500","250","instPog0","160","1","","0","0","190","160"
"","psychophysics","141","642214","0.0-141.0","5e0565b6deea2bf9ae411b13","64de83c91be8798828627197","","","","","1896",""," ","key"," ","16.66407964601845","500","250","instPog1","176","1","","0","0","190","160"
"","psychophysics","142","643845","0.0-142.0","5e0565b6deea2bf9ae411b13","64de83c91be8798828627197","","","","","1630",""," ","key"," ","16.665783505154696","500","250","instPog2","168","1","","0","0","160","160"
"","psychophysics","143","644509","0.0-143.0","5e0565b6deea2bf9ae411b13","64de83c91be8798828627197","","","","","663",""," ","key"," ","16.66148717948594","500","250","inst","","","","","","",""
"","psychophysics","144","645742","0.0-144.0","5e0565b6deea2bf9ae411b13","64de83c91be8798828627197","","","","","1231",""," ","key"," ","16.665068493151324","500","250","pog","155","1","1","0","0","151","142"
"","psychophysics","145","646725","0.0-145.0","5e0565b6deea2bf9ae411b13","64de83c91be8798828627197","","","","","982",""," ","key"," ","16.665741379310553","500","250","pog","176","1","1","0","0","174","174"
"","psychophysics","146","650456","0.0-146.0","5e0565b6deea2bf9ae411b13","64de83c91be8798828627197","","","","","3730",""," ","key"," ","16.664531531531328","500","250","pog","175","1","1","0","0","147","172"
"","psychophysics","147","654446","0.0-147.0","5e0565b6deea2bf9ae411b13","64de83c91be8798828627197","","","","","3987",""," ","key"," ","16.665589958159","500","250","pog","134","1","1","0","0","192","121"
"","psychophysics","148","655326","0.0-148.0","5e0565b6deea2bf9ae411b13","64de83c91be8798828627197","","","","","878",""," ","key"," ","16.663326923075008","500","250","pog","172","1","1","0","0","172","170"
"","psychophysics","149","658148","0.0-149.0","5e0565b6deea2bf9ae411b13","64de83c91be8798828627197","","","","","2822",""," ","key"," ","16.66577380952367","500","250","pog","196","1","1","0","0","100","190"
"","psychophysics","150","660613","0.0-150.0","5e0565b6deea2bf9ae411b13","64de83c91be8798828627197","","","","","2464",""," ","key"," ","16.665925170068444","500","250","pog","147","1","1","0","0","213","145"
"","psychophysics","151","663702","0.0-151.0","5e0565b6deea2bf9ae411b13","64de83c91be8798828627197","","","","","3088",""," ","key"," ","16.664358695652005","500","250","pog","197","1","1","0","0","173","192"
"","psychophysics","152","664837","0.0-152.0","5e0565b6deea2bf9ae411b13","64de83c91be8798828627197","","","","","1132",""," ","key"," ","16.666328358208524","500","250","pog","198","1","1","0","0","198","185"
"","psychophysics","153","667622","0.0-153.0","5e0565b6deea2bf9ae411b13","64de83c91be8798828627197","","","","","2782",""," ","key"," ","16.665365269461308","500","250","pog","162","1","1","0","0","112","158"
"","psychophysics","154","670158","0.0-154.0","5e0565b6deea2bf9ae411b13","64de83c91be8798828627197","","","","","2535",""," ","key"," ","16.665178807947278","500","250","pog","184","1","1","0","0","210","183"
"","psychophysics","155","672576","0.0-155.0","5e0565b6deea2bf9ae411b13","64de83c91be8798828627197","","","","","2416",""," ","key"," ","16.66637499999989","500","250","pog","146","1","1","0","0","190","142"
"","psychophysics","156","674759","0.0-156.0","5e0565b6deea2bf9ae411b13","64de83c91be8798828627197","","","","","2182",""," ","key"," ","16.666330769230935","500","250","pog","141","1","1","0","0","183","137"
"","psychophysics","157","677733","0.0-157.0","5e0565b6deea2bf9ae411b13","64de83c91be8798828627197","","","","","2973",""," ","key"," ","16.664276836158464","500","250","pog","178","1","1","0","0","110","174"
"","psychophysics","158","679406","0.0-158.0","5e0565b6deea2bf9ae411b13","64de83c91be8798828627197","","","","","1672",""," ","key"," ","16.666110000000334","500","250","pog","170","1","1","0","0","204","166"
"","psychophysics","159","680583","0.0-159.0","5e0565b6deea2bf9ae411b13","64de83c91be8798828627197","","","","","1177",""," ","key"," ","16.663014492753934","500","250","inst","","","","","","",""
"","psychophysics","160","684445","0.0-160.0","5e0565b6deea2bf9ae411b13","64de83c91be8798828627197","","","","","3861",""," ","key"," ","16.665541125541086","500","250","instEB1","35","2","","0","0","30","40"
"","psychophysics","161","685854","0.0-161.0","5e0565b6deea2bf9ae411b13","64de83c91be8798828627197","","","","","1408",""," ","key"," ","16.667059523810167","500","250","instEB2","37","2","","0","0","40","30"
"","psychophysics","162","688189","0.0-162.0","5e0565b6deea2bf9ae411b13","64de83c91be8798828627197","","","","","2334",""," ","key"," ","16.664582733812797","500","250","instEB3","37","2","","0","0","45","27"
"","psychophysics","163","691021","0.0-163.0","5e0565b6deea2bf9ae411b13","64de83c91be8798828627197","","","","","2832",""," ","key"," ","16.666159763313644","500","250","instEB4","42","2","","0","0","30","40"
"","psychophysics","164","692341","0.0-164.0","5e0565b6deea2bf9ae411b13","64de83c91be8798828627197","","","","","1319",""," ","key"," ","16.66525641025659","500","250","inst","","","","","","",""
"","psychophysics","165","694437","0.0-165.0","5e0565b6deea2bf9ae411b13","64de83c91be8798828627197","","","","","2094",""," ","key"," ","16.664464000000617","500","250","eb","45","2","","0","0","50","33"
"","psychophysics","166","696181","0.0-166.0","5e0565b6deea2bf9ae411b13","64de83c91be8798828627197","","","","","1743",""," ","key"," ","16.664660194175525","500","250","eb","50","2","","0","0","42","48"
"","psychophysics","167","697350","0.0-167.0","5e0565b6deea2bf9ae411b13","64de83c91be8798828627197","","","","","1167",""," ","key"," ","16.66760869565305","500","250","eb","55","2","","0","0","54","42"
"","psychophysics","168","700750","0.0-168.0","5e0565b6deea2bf9ae411b13","64de83c91be8798828627197","","","","","3397",""," ","key"," ","16.66534975369454","500","250","eb","37","2","","0","0","54","26"
"","psychophysics","169","703445","0.0-169.0","5e0565b6deea2bf9ae411b13","64de83c91be8798828627197","","","","","2693",""," ","key"," ","16.66473291925464","500","250","eb","32","2","","0","0","50","28"
"","psychophysics","170","705741","0.0-170.0","5e0565b6deea2bf9ae411b13","64de83c91be8798828627197","","","","","2294",""," ","key"," ","16.665671532847036","500","250","eb","47","2","","0","0","49","41"
"","psychophysics","171","711389","0.0-171.0","5e0565b6deea2bf9ae411b13","64de83c91be8798828627197","","","","","5647",""," ","key"," ","16.665411242603508","500","250","eb","52","2","","0","0","36","48"
"","psychophysics","172","713605","0.0-172.0","5e0565b6deea2bf9ae411b13","64de83c91be8798828627197","","","","","2215",""," ","key"," ","16.665568181818042","500","250","eb","57","2","","0","0","53","45"
"","psychophysics","173","716485","0.0-173.0","5e0565b6deea2bf9ae411b13","64de83c91be8798828627197","","","","","2879",""," ","key"," ","16.665517441860704","500","250","eb","55","2","","0","0","34","43"
"","psychophysics","174","718294","0.0-174.0","5e0565b6deea2bf9ae411b13","64de83c91be8798828627197","","","","","1806",""," ","key"," ","16.6650093457951","500","250","eb","36","2","","0","0","26","29"
"","psychophysics","175","719870","0.0-175.0","5e0565b6deea2bf9ae411b13","64de83c91be8798828627197","","","","","1575",""," ","key"," ","16.666861702128255","500","250","eb","36","2","","0","0","27","28"
"","psychophysics","176","721215","0.0-176.0","5e0565b6deea2bf9ae411b13","64de83c91be8798828627197","","","","","1344",""," ","key"," ","16.665582278481082","500","250","eb","49","2","","0","0","48","41"
"","psychophysics","177","724030","0.0-177.0","5e0565b6deea2bf9ae411b13","64de83c91be8798828627197","","","","","2813",""," ","key"," ","16.667666666667042","500","250","eb","55","2","","0","0","27","52"
"","psychophysics","178","727848","0.0-178.0","5e0565b6deea2bf9ae411b13","64de83c91be8798828627197","","","","","3815",""," ","key"," ","16.66489035087707","500","250","eb","32","2","","0","0","39","29"
"","psychophysics","179","730816","0.0-179.0","5e0565b6deea2bf9ae411b13","64de83c91be8798828627197","","","","","2965",""," ","key"," ","16.665140449437654","500","250","eb","34","2","","0","0","49","30"
"","psychophysics","180","731798","0.0-180.0","5e0565b6deea2bf9ae411b13","64de83c91be8798828627197","","","","","981",""," ","key"," ","16.666894736842725","500","250","inst","","","","","","",""
"","psychophysics","181","741632","0.0-181.0","5e0565b6deea2bf9ae411b13","64de83c91be8798828627197","","","","","9831",""," ","key"," ","16.6649593220339","500","250","instPz1","43","2","","","","25","50"
"","psychophysics","182","743550","0.0-182.0","5e0565b6deea2bf9ae411b13","64de83c91be8798828627197","","","","","1917",""," ","key"," ","16.6648947368427","500","250","instPz2","30","2","","","","20","35"
"","psychophysics","183","749719","0.0-183.0","5e0565b6deea2bf9ae411b13","64de83c91be8798828627197","","","","","6167",""," ","key"," ","16.66491869918694","500","250","instPz3","73","2","","","","30","100"
"","psychophysics","184","753414","0.0-184.0","5e0565b6deea2bf9ae411b13","64de83c91be8798828627197","","","","","3694",""," ","key"," ","16.664977375565442","500","250","instPz4","69","2","","","","30","100"
"","psychophysics","185","754334","0.0-185.0","5e0565b6deea2bf9ae411b13","64de83c91be8798828627197","","","","","919",""," ","key"," ","16.667685185186134","500","250","inst","","","","","","",""
"","psychophysics","186","757681","0.0-186.0","5e0565b6deea2bf9ae411b13","64de83c91be8798828627197","","","","","3345",""," ","key"," ","16.664935000000405","500","250","pz","24","2","1","","","48","25"
"","psychophysics","187","758943","0.0-187.0","5e0565b6deea2bf9ae411b13","64de83c91be8798828627197","","","","","1260",""," ","key"," ","16.664959459460178","500","250","pz","33","2","1","","","31","42"
"","psychophysics","188","760735","0.0-188.0","5e0565b6deea2bf9ae411b13","64de83c91be8798828627197","","","","","1791",""," ","key"," ","16.6650747663546","500","250","pz","41","2","1","","","52","44"
"","psychophysics","189","762463","0.0-189.0","5e0565b6deea2bf9ae411b13","64de83c91be8798828627197","","","","","1726",""," ","key"," ","16.66453398058182","500","250","pz","27","2","1","","","32","23"
"","psychophysics","190","764934","0.0-190.0","5e0565b6deea2bf9ae411b13","64de83c91be8798828627197","","","","","2469",""," ","key"," ","16.666224489795507","500","250","pz","28","2","1","","","45","34"
"","psychophysics","191","769999","0.0-191.0","5e0565b6deea2bf9ae411b13","64de83c91be8798828627197","","","","","5063",""," ","key"," ","16.665042904290146","500","250","pz","45","2","1","","","28","56"
"","psychophysics","192","773047","0.0-192.0","5e0565b6deea2bf9ae411b13","64de83c91be8798828627197","","","","","3047",""," ","key"," ","16.66467582417593","500","250","pz","30","2","1","","","32","36"
"","psychophysics","193","777991","0.0-193.0","5e0565b6deea2bf9ae411b13","64de83c91be8798828627197","","","","","4943",""," ","key"," ","16.665355932203486","500","250","pz","23","2","1","","","29","25"
"","psychophysics","194","780327","0.0-194.0","5e0565b6deea2bf9ae411b13","64de83c91be8798828627197","","","","","2332",""," ","key"," ","16.664628571428224","500","250","pz","21","2","1","","","50","24"
"","psychophysics","195","781760","0.0-195.0","5e0565b6deea2bf9ae411b13","64de83c91be8798828627197","","","","","1432",""," ","key"," ","16.66262352941147","500","250","pz","38","2","1","","","53","49"
"","psychophysics","196","783269","0.0-196.0","5e0565b6deea2bf9ae411b13","64de83c91be8798828627197","","","","","1507",""," ","key"," ","16.66584269662932","500","250","pz","32","2","1","","","56","40"
"","psychophysics","197","784910","0.0-197.0","5e0565b6deea2bf9ae411b13","64de83c91be8798828627197","","","","","1639",""," ","key"," ","16.66464285714295","500","250","pz","31","2","1","","","59","45"
"","psychophysics","198","786237","0.0-198.0","5e0565b6deea2bf9ae411b13","64de83c91be8798828627197","","","","","1326",""," ","key"," ","16.665782051281823","500","250","pz","37","2","1","","","37","38"
"","psychophysics","199","787629","0.0-199.0","5e0565b6deea2bf9ae411b13","64de83c91be8798828627197","","","","","1390",""," ","key"," ","16.66519277108446","500","250","pz","35","2","1","","","53","44"
"","psychophysics","200","789055","0.0-200.0","5e0565b6deea2bf9ae411b13","64de83c91be8798828627197","","","","","1425",""," ","key"," ","16.66592857142816","500","250","pz","32","2","1","","","44","37"
"","psychophysics","201","790014","0.0-201.0","5e0565b6deea2bf9ae411b13","64de83c91be8798828627197","","","","","958",""," ","key"," ","16.6672982456134","500","250","inst","","","","","","",""
"","psychophysics","202","795478","0.0-202.0","5e0565b6deea2bf9ae411b13","64de83c91be8798828627197","","","","","5462",""," ","key"," ","16.66516819571868","500","250","instZol1","1.2999999999999998","","","0","0","-1.3",""
"","psychophysics","203","799496","0.0-203.0","5e0565b6deea2bf9ae411b13","64de83c91be8798828627197","","","","","4016",""," ","key"," ","16.665233333333163","500","250","instZol2","0.5000000000000007","1","","0","0","2",""
"","psychophysics","204","800222","0.0-204.0","5e0565b6deea2bf9ae411b13","64de83c91be8798828627197","","","","","726",""," ","key"," ","16.663499999999267","500","250","inst","","","","","","",""
"","psychophysics","205","802077","0.0-205.0","5e0565b6deea2bf9ae411b13","64de83c91be8798828627197","","","","","1850",""," ","key"," ","16.666261261260885","500","250","zol","1.8500000000000005","1","1","-22","25","-0.15",""
"","psychophysics","206","803767","0.0-206.0","5e0565b6deea2bf9ae411b13","64de83c91be8798828627197","","","","","1688",""," ","key"," ","16.66533999999985","500","250","zol","1.6600000000000004","1","1","15","-6","-0.16",""
"","psychophysics","207","805703","0.0-207.0","5e0565b6deea2bf9ae411b13","64de83c91be8798828627197","","","","","1934",""," ","key"," ","16.666373913043746","500","250","zol","1.3100000000000003","1","1","-12","15","0.49",""
"","psychophysics","208","807477","0.0-208.0","5e0565b6deea2bf9ae411b13","64de83c91be8798828627197","","","","","1772",""," ","key"," ","16.665207547169697","500","250","zol","1.9700000000000006","1","1","-28","7","-0.37",""
"","psychophysics","209","809262","0.0-209.0","5e0565b6deea2bf9ae411b13","64de83c91be8798828627197","","","","","1783",""," ","key"," ","16.66614150943428","500","250","zol","1.7100000000000006","1","1","-12","22","-0.31",""
"","psychophysics","210","811014","0.0-210.0","5e0565b6deea2bf9ae411b13","64de83c91be8798828627197","","","","","1748",""," ","key"," ","16.66470192307651","500","250","zol","1.6500000000000004","1","1","13","0","-0.15",""
"","psychophysics","211","812718","0.0-211.0","5e0565b6deea2bf9ae411b13","64de83c91be8798828627197","","","","","1702",""," ","key"," ","16.66327722772315","500","250","zol","1.4200000000000004","1","1","11","4","0.48",""
"","psychophysics","212","814390","0.0-212.0","5e0565b6deea2bf9ae411b13","64de83c91be8798828627197","","","","","1671",""," ","key"," ","16.664599999999627","500","250","zol","1.4300000000000004","1","1","-10","20","-0.03",""
"","psychophysics","213","816613","0.0-213.0","5e0565b6deea2bf9ae411b13","64de83c91be8798828627197","","","","","2221",""," ","key"," ","16.665098484848084","500","250","zol","1.28","1","1","0","2","0.02",""
"","psychophysics","214","818677","0.0-214.0","5e0565b6deea2bf9ae411b13","64de83c91be8798828627197","","","","","2062",""," ","key"," ","16.665252032520332","500","250","zol","1.12","1","1","30","30","0.08",""
"","psychophysics","215","820807","0.0-215.0","5e0565b6deea2bf9ae411b13","64de83c91be8798828627197","","","","","2129",""," ","key"," ","16.667338582676997","500","250","zol","1.2200000000000002","1","1","-15","12","-0.52",""
"","psychophysics","216","823062","0.0-216.0","5e0565b6deea2bf9ae411b13","64de83c91be8798828627197","","","","","2253",""," ","key"," ","16.66477611940267","500","250","zol","0.61","1","1","1","27","0.29",""
"","psychophysics","217","824925","0.0-217.0","5e0565b6deea2bf9ae411b13","64de83c91be8798828627197","","","","","1861",""," ","key"," ","16.667441441441532","500","250","zol","1.15","1","1","29","16","-0.05",""
"","psychophysics","218","826822","0.0-218.0","5e0565b6deea2bf9ae411b13","64de83c91be8798828627197","","","","","1896",""," ","key"," ","16.66577876106201","500","250","zol","1.1400000000000001","1","1","17","10","0.36",""
"","psychophysics","219","828261","0.0-219.0","5e0565b6deea2bf9ae411b13","64de83c91be8798828627197","","","","","1437",""," ","key"," ","16.664564705882494","500","250","zol","1.5500000000000005","1","1","8","21","-0.45",""
