"success","trial_type","trial_index","time_elapsed","internal_node_id","pid","sid","timeout","failed_images","failed_audio","failed_video","rt","stimulus","response","response_type","key_press","avg_frame_time","center_x","center_y","task","resp","version","block","jitterX","jitterY","start","parA"
"true","fullscreen","0","3315","0.0-0.0","63e548d24319702eba4fc949","64de814dcbcf155a79f44d20","","","","","","","","","","","","","","","","","","","",""
"true","preload","1","3488","0.0-1.0","63e548d24319702eba4fc949","64de814dcbcf155a79f44d20","false","[]","[]","[]","","","","","","","","","","","","","","","",""
"","html-button-response","2","4750","0.0-2.0","63e548d24319702eba4fc949","64de814dcbcf155a79f44d20","","","","","1262","Please Make Sure Your Audio Is On.","0","","","","","","","","","","","","",""
"","psychophysics","3","8911","0.0-3.0","63e548d24319702eba4fc949","64de814dcbcf155a79f44d20","","","","","4156",""," ","key"," ","16.664815261044176","768","250","","","","","","","",""
"","psychophysics","4","12596","0.0-4.0","63e548d24319702eba4fc949","64de814dcbcf155a79f44d20","","","","","3673",""," ","key"," ","16.66482272727272","500","250","inst","","","","","","",""
"","psychophysics","5","15684","0.0-5.0","63e548d24319702eba4fc949","64de814dcbcf155a79f44d20","","","","","3080",""," ","key"," ","16.66426486486486","500","250","sample0","","","","","","",""
"","psychophysics","6","17838","0.0-6.0","63e548d24319702eba4fc949","64de814dcbcf155a79f44d20","","","","","2152",""," ","key"," ","16.664960937500013","500","250","sample1","","","","","","",""
"","psychophysics","7","31796","0.0-7.0","63e548d24319702eba4fc949","64de814dcbcf155a79f44d20","","","","","13956",""," ","key"," ","16.664244922341698","500","250","sample2","102","","","","","",""
"","psychophysics","8","36902","0.0-8.0","63e548d24319702eba4fc949","64de814dcbcf155a79f44d20","","","","","5104",""," ","key"," ","16.664957377049173","500","250","sample3","102","","","","","",""
"","psychophysics","9","45598","0.0-9.0","63e548d24319702eba4fc949","64de814dcbcf155a79f44d20","","","","","8694",""," ","key"," ","16.66411900191939","500","250","sample4","102","","","","","",""
"","psychophysics","10","53276","0.0-10.0","63e548d24319702eba4fc949","64de814dcbcf155a79f44d20","","","","","7678",""," ","key"," ","16.664606521739124","500","250","sample5","","","","","","",""
"","psychophysics","11","64629","0.0-11.0","63e548d24319702eba4fc949","64de814dcbcf155a79f44d20","","","","","11351",""," ","key"," ","16.664349999999992","500","250","sample6","500","","","","","",""
"","psychophysics","12","68714","0.0-12.0","63e548d24319702eba4fc949","64de814dcbcf155a79f44d20","","","","","4083",""," ","key"," ","16.665016393442606","500","250","inst","","","","","","",""
"","psychophysics","13","73190","0.0-13.0","63e548d24319702eba4fc949","64de814dcbcf155a79f44d20","","","","","4474",""," ","key"," ","16.664604477611945","500","250","inst","","","","","","",""
"","psychophysics","14","75078","0.0-14.0","63e548d24319702eba4fc949","64de814dcbcf155a79f44d20","","","","","1886",""," ","key"," ","16.666696428571413","500","250","inst","","","","","","",""
"","psychophysics","15","77280","0.0-15.0","63e548d24319702eba4fc949","64de814dcbcf155a79f44d20","","","","","2200",""," ","key"," ","16.666358778625995","500","250","inst","","","","","","",""
"","psychophysics","16","78582","0.0-16.0","63e548d24319702eba4fc949","64de814dcbcf155a79f44d20","","","","","1300",""," ","key"," ","16.663324675324688","500","250","inst","","","","","","",""
"","psychophysics","17","81125","0.0-17.0","63e548d24319702eba4fc949","64de814dcbcf155a79f44d20","","","","","2540",""," ","key"," ","16.665756578947413","500","250","instZol0","0","","","0","0","0",""
"","psychophysics","18","95202","0.0-18.0","63e548d24319702eba4fc949","64de814dcbcf155a79f44d20","","","","","14075",""," ","key"," ","16.664633886255924","500","250","instZol1","2.7755575615628914e-17","","","0","0","-1.3",""
"","psychophysics","19","119460","0.0-19.0","63e548d24319702eba4fc949","64de814dcbcf155a79f44d20","","","","","24258",""," ","key"," ","16.664650859106537","500","250","instZol2","-1.6999999999999997","2","","0","0","2",""
"","psychophysics","20","121130","0.0-20.0","63e548d24319702eba4fc949","64de814dcbcf155a79f44d20","","","","","1667",""," ","key"," ","16.662383838383846","500","250","inst","","","","","","",""
"","psychophysics","21","127524","0.0-21.0","63e548d24319702eba4fc949","64de814dcbcf155a79f44d20","","","","","6386",""," ","key"," ","16.6644554973822","500","250","zol","-1.03","2","0","1","29","-0.27",""
"","psychophysics","22","135532","0.0-22.0","63e548d24319702eba4fc949","64de814dcbcf155a79f44d20","","","","","null","","null","key","null","16.665170833333345","500","250","zol","-1.7100000000000006","2","0","27","7","0.71",""
"","psychophysics","23","142001","0.0-23.0","63e548d24319702eba4fc949","64de814dcbcf155a79f44d20","","","","","6465",""," ","key"," ","16.664475452196314","500","250","zol","-1.4300000000000004","2","0","0","-5","0.43",""
"","psychophysics","24","148348","0.0-24.0","63e548d24319702eba4fc949","64de814dcbcf155a79f44d20","","","","","6342",""," ","key"," ","16.664818421052615","500","250","zol","-0.7199999999999999","2","0","23","26","-0.68",""
"","psychophysics","25","156355","0.0-25.0","63e548d24319702eba4fc949","64de814dcbcf155a79f44d20","","","","","null","","null","key","null","16.664641666666647","500","250","zol","-1.17","2","0","-6","20","0.47",""
"","psychophysics","26","161424","0.0-26.0","63e548d24319702eba4fc949","64de814dcbcf155a79f44d20","","","","","5064",""," ","key"," ","16.664722772277205","500","250","zol","-0.7999999999999999","2","0","-6","-18","-0.6",""
"","psychophysics","27","166550","0.0-27.0","63e548d24319702eba4fc949","64de814dcbcf155a79f44d20","","","","","5122",""," ","key"," ","16.664127450980388","500","250","zol","-0.7899999999999999","2","0","-4","-4","-0.31",""
"","psychophysics","28","170947","0.0-28.0","63e548d24319702eba4fc949","64de814dcbcf155a79f44d20","","","","","4389",""," ","key"," ","16.664714828897363","500","250","zol","-1.16","2","0","-30","26","0.06",""
"","psychophysics","29","176017","0.0-29.0","63e548d24319702eba4fc949","64de814dcbcf155a79f44d20","","","","","5065",""," ","key"," ","16.664877887788727","500","250","zol","-0.85","2","0","12","5","-0.45",""
"","psychophysics","30","181203","0.0-30.0","63e548d24319702eba4fc949","64de814dcbcf155a79f44d20","","","","","5180",""," ","key"," ","16.66473633440517","500","250","zol","-1.6600000000000006","2","0","19","-26","0.56",""
"","psychophysics","31","186694","0.0-31.0","63e548d24319702eba4fc949","64de814dcbcf155a79f44d20","","","","","5487",""," ","key"," ","16.6652103658537","500","250","zol","-0.9999999999999999","2","0","-27","-19","-0.2",""
"","psychophysics","32","190085","0.0-32.0","63e548d24319702eba4fc949","64de814dcbcf155a79f44d20","","","","","3386",""," ","key"," ","16.663192118226586","500","250","zol","-0.8899999999999999","2","0","27","-23","0.29",""
"","psychophysics","33","194435","0.0-33.0","63e548d24319702eba4fc949","64de814dcbcf155a79f44d20","","","","","4343",""," ","key"," ","16.66443846153841","500","250","zol","-0.57","2","0","-28","-15","-0.53",""
"","psychophysics","34","197247","0.0-34.0","63e548d24319702eba4fc949","64de814dcbcf155a79f44d20","","","","","2808",""," ","key"," ","16.66461676646712","500","250","zol","-0.9099999999999999","2","0","11","23","0.31",""
"","psychophysics","35","201627","0.0-35.0","63e548d24319702eba4fc949","64de814dcbcf155a79f44d20","","","","","4375",""," ","key"," ","16.664637404580187","500","250","zol","-0.9799999999999999","2","0","27","15","0.08",""
"","psychophysics","36","203315","0.0-36.0","63e548d24319702eba4fc949","64de814dcbcf155a79f44d20","","","","","1686",""," ","key"," ","16.663669999999982","500","250","inst","","","","","","",""
"","psychophysics","37","205262","0.0-37.0","63e548d24319702eba4fc949","64de814dcbcf155a79f44d20","","","","","1943",""," ","key"," ","16.664715517241536","500","250","instPzPre","50","0","","","","50","50"
"","psychophysics","38","209922","0.0-38.0","63e548d24319702eba4fc949","64de814dcbcf155a79f44d20","","","","","4658",""," ","key"," ","16.664810035842358","500","250","instPz0","50","2","","","","50","50"
"","psychophysics","39","218594","0.0-39.0","63e548d24319702eba4fc949","64de814dcbcf155a79f44d20","","","","","8669",""," ","key"," ","16.66463391136797","500","250","instPz1","49","2","","","","25","50"
"","psychophysics","40","225961","0.0-40.0","63e548d24319702eba4fc949","64de814dcbcf155a79f44d20","","","","","7365",""," ","key"," ","16.664306122448984","500","250","instPz2","35","2","","","","20","35"
"","psychophysics","41","234334","0.0-41.0","63e548d24319702eba4fc949","64de814dcbcf155a79f44d20","","","","","8362",""," ","key"," ","16.664533864541813","500","250","instPz3","58","2","","","","30","100"
"","psychophysics","42","239816","0.0-42.0","63e548d24319702eba4fc949","64de814dcbcf155a79f44d20","","","","","5479",""," ","key"," ","16.665064024390254","500","250","instPz4","59","2","","","","30","100"
"","psychophysics","43","241128","0.0-43.0","63e548d24319702eba4fc949","64de814dcbcf155a79f44d20","","","","","1309",""," ","key"," ","16.66354545454537","500","250","inst","","","","","","",""
"","psychophysics","44","245749","0.0-44.0","63e548d24319702eba4fc949","64de814dcbcf155a79f44d20","","","","","4617",""," ","key"," ","16.664249097472936","500","250","pz","35","2","0","","","47","55"
"","psychophysics","45","250919","0.0-45.0","63e548d24319702eba4fc949","64de814dcbcf155a79f44d20","","","","","5166",""," ","key"," ","16.66524919093853","500","250","pz","29","2","0","","","43","35"
"","psychophysics","46","253217","0.0-46.0","63e548d24319702eba4fc949","64de814dcbcf155a79f44d20","","","","","2295",""," ","key"," ","16.662802919708056","500","250","pz","17","2","0","","","20","21"
"","psychophysics","47","258048","0.0-47.0","63e548d24319702eba4fc949","64de814dcbcf155a79f44d20","","","","","4828",""," ","key"," ","16.66367820069199","500","250","pz","32","2","0","","","49","49"
"","psychophysics","48","262584","0.0-48.0","63e548d24319702eba4fc949","64de814dcbcf155a79f44d20","","","","","4532",""," ","key"," ","16.663678966789735","500","250","pz","44","2","0","","","58","57"
"","psychophysics","49","265972","0.0-49.0","63e548d24319702eba4fc949","64de814dcbcf155a79f44d20","","","","","3385",""," ","key"," ","16.66374257425743","500","250","pz","32","2","0","","","27","43"
"","psychophysics","50","268075","0.0-50.0","63e548d24319702eba4fc949","64de814dcbcf155a79f44d20","","","","","2100",""," ","key"," ","16.66091200000001","500","250","pz","39","2","0","","","42","57"
"","psychophysics","51","271368","0.0-51.0","63e548d24319702eba4fc949","64de814dcbcf155a79f44d20","","","","","3291",""," ","key"," ","16.665568527918627","500","250","pz","44","2","0","","","37","58"
"","psychophysics","52","274948","0.0-52.0","63e548d24319702eba4fc949","64de814dcbcf155a79f44d20","","","","","3577",""," ","key"," ","16.663584112149454","500","250","pz","41","2","0","","","37","54"
"","psychophysics","53","280680","0.0-53.0","63e548d24319702eba4fc949","64de814dcbcf155a79f44d20","","","","","5729",""," ","key"," ","16.664717201166074","500","250","pz","35","2","0","","","50","39"
"","psychophysics","54","288688","0.0-54.0","63e548d24319702eba4fc949","64de814dcbcf155a79f44d20","","","","","null","","null","key","null","16.664313152400727","500","250","pz","26","2","0","","","58","33"
"","psychophysics","55","292313","0.0-55.0","63e548d24319702eba4fc949","64de814dcbcf155a79f44d20","","","","","3623",""," ","key"," ","16.66523963133649","500","250","pz","24","2","0","","","49","34"
"","psychophysics","56","295602","0.0-56.0","63e548d24319702eba4fc949","64de814dcbcf155a79f44d20","","","","","3286",""," ","key"," ","16.66382653061247","500","250","pz","34","2","0","","","49","48"
"","psychophysics","57","299942","0.0-57.0","63e548d24319702eba4fc949","64de814dcbcf155a79f44d20","","","","","4337",""," ","key"," ","16.66338846153835","500","250","pz","42","2","0","","","22","60"
"","psychophysics","58","303341","0.0-58.0","63e548d24319702eba4fc949","64de814dcbcf155a79f44d20","","","","","3396",""," ","key"," ","16.663945812807967","500","250","pz","37","2","0","","","27","46"
"","psychophysics","59","304301","0.0-59.0","63e548d24319702eba4fc949","64de814dcbcf155a79f44d20","","","","","956",""," ","key"," ","16.666892857143207","500","250","inst","","","","","","",""
"","psychophysics","60","306964","0.0-60.0","63e548d24319702eba4fc949","64de814dcbcf155a79f44d20","","","","","2661",""," ","key"," ","16.662704402515693","500","250","instBr0","0","","","0","0","0","300"
"","psychophysics","61","312726","0.0-61.0","63e548d24319702eba4fc949","64de814dcbcf155a79f44d20","","","","","5748",""," ","key"," ","16.66533043478258","500","250","instBr1","-4","","","0","0","-40","300"
"","psychophysics","62","319918","0.0-62.0","63e548d24319702eba4fc949","64de814dcbcf155a79f44d20","","","","","7189",""," ","key"," ","16.664302325581314","500","250","instBr3","-20","1","","0","0","40","300"
"","psychophysics","63","320824","0.0-63.0","63e548d24319702eba4fc949","64de814dcbcf155a79f44d20","","","","","904",""," ","key"," ","16.66792592592645","500","250","inst","","","","","","",""
"","psychophysics","64","323868","0.0-64.0","63e548d24319702eba4fc949","64de814dcbcf155a79f44d20","","","","","3040",""," ","key"," ","16.665165745856456","500","250","br","-14","1","0","0","15","7","208"
"","psychophysics","65","327987","0.0-65.0","63e548d24319702eba4fc949","64de814dcbcf155a79f44d20","","","","","4117",""," ","key"," ","16.665365853658507","500","250","br","-9","1","0","-21","0","28","203"
"","psychophysics","66","332723","0.0-66.0","63e548d24319702eba4fc949","64de814dcbcf155a79f44d20","","","","","4731",""," ","key"," ","16.664711267605806","500","250","br","-10","1","0","-21","3","20","298"
"","psychophysics","67","334955","0.0-67.0","63e548d24319702eba4fc949","64de814dcbcf155a79f44d20","","","","","2228",""," ","key"," ","16.662030075187882","500","250","br","-14","1","0","1","23","-12","286"
"","psychophysics","68","339265","0.0-68.0","63e548d24319702eba4fc949","64de814dcbcf155a79f44d20","","","","","4305",""," ","key"," ","16.663766536964935","500","250","br","-18","1","0","-2","14","-30","242"
"","psychophysics","69","343405","0.0-69.0","63e548d24319702eba4fc949","64de814dcbcf155a79f44d20","","","","","4137",""," ","key"," ","16.664451612903164","500","250","br","-8","1","0","-9","14","-27","206"
"","psychophysics","70","346268","0.0-70.0","63e548d24319702eba4fc949","64de814dcbcf155a79f44d20","","","","","2860",""," ","key"," ","16.662652941176546","500","250","br","-9","1","0","1","6","14","255"
"","psychophysics","71","348685","0.0-71.0","63e548d24319702eba4fc949","64de814dcbcf155a79f44d20","","","","","2412",""," ","key"," ","16.665076388888945","500","250","br","-11","1","0","-22","8","0","277"
"","psychophysics","72","351603","0.0-72.0","63e548d24319702eba4fc949","64de814dcbcf155a79f44d20","","","","","2914",""," ","key"," ","16.66600571428592","500","250","br","-6","1","0","-19","-1","21","239"
"","psychophysics","73","355729","0.0-73.0","63e548d24319702eba4fc949","64de814dcbcf155a79f44d20","","","","","4123",""," ","key"," ","16.664231707317125","500","250","br","-12","1","0","12","-26","-23","234"
"","psychophysics","74","361439","0.0-74.0","63e548d24319702eba4fc949","64de814dcbcf155a79f44d20","","","","","5707",""," ","key"," ","16.66455555555553","500","250","br","-9","1","0","14","1","30","259"
"","psychophysics","75","365294","0.0-75.0","63e548d24319702eba4fc949","64de814dcbcf155a79f44d20","","","","","3852",""," ","key"," ","16.664734782608804","500","250","br","-16","1","0","11","-13","-30","300"
"","psychophysics","76","369588","0.0-76.0","63e548d24319702eba4fc949","64de814dcbcf155a79f44d20","","","","","4292",""," ","key"," ","16.664128404669192","500","250","br","-16","1","0","-27","17","28","273"
"","psychophysics","77","374329","0.0-77.0","63e548d24319702eba4fc949","64de814dcbcf155a79f44d20","","","","","4737",""," ","key"," ","16.664494699646525","500","250","br","-15","1","0","21","-15","21","272"
"","psychophysics","78","378113","0.0-78.0","63e548d24319702eba4fc949","64de814dcbcf155a79f44d20","","","","","3779",""," ","key"," ","16.664849557522096","500","250","br","-12","1","0","23","10","17","201"
"","psychophysics","79","379030","0.0-79.0","63e548d24319702eba4fc949","64de814dcbcf155a79f44d20","","","","","912",""," ","key"," ","16.666018518517916","500","250","inst","","","","","","",""
"","psychophysics","80","388440","0.0-80.0","63e548d24319702eba4fc949","64de814dcbcf155a79f44d20","","","","","9406",""," ","key"," ","16.664505319148862","500","250","instPog0","160","1","","0","0","190","160"
"","psychophysics","81","398871","0.0-81.0","63e548d24319702eba4fc949","64de814dcbcf155a79f44d20","","","","","10428",""," ","key"," ","16.664910399999936","500","250","instPog1","172","1","","0","0","190","160"
"","psychophysics","82","406755","0.0-82.0","63e548d24319702eba4fc949","64de814dcbcf155a79f44d20","","","","","7881",""," ","key"," ","16.664968220339087","500","250","instPog2","176","1","","0","0","160","160"
"","psychophysics","83","407641","0.0-83.0","63e548d24319702eba4fc949","64de814dcbcf155a79f44d20","","","","","884",""," ","key"," ","16.66334615384627","500","250","inst","","","","","","",""
"","psychophysics","84","413968","0.0-84.0","63e548d24319702eba4fc949","64de814dcbcf155a79f44d20","","","","","6322",""," ","key"," ","16.665356200527814","500","250","pog","161","1","0","0","0","119","139"
"","psychophysics","85","419776","0.0-85.0","63e548d24319702eba4fc949","64de814dcbcf155a79f44d20","","","","","5806",""," ","key"," ","16.66399999999996","500","250","pog","168","1","0","0","0","206","131"
"","psychophysics","86","423753","0.0-86.0","63e548d24319702eba4fc949","64de814dcbcf155a79f44d20","","","","","3973",""," ","key"," ","16.665308016877454","500","250","pog","186","1","0","0","0","126","149"
"","psychophysics","87","430260","0.0-87.0","63e548d24319702eba4fc949","64de814dcbcf155a79f44d20","","","","","6504",""," ","key"," ","16.665502564102646","500","250","pog","166","1","0","0","0","210","131"
"","psychophysics","88","431547","0.0-88.0","63e548d24319702eba4fc949","64de814dcbcf155a79f44d20","","","","","1284",""," ","key"," ","16.66357894736805","500","250","pog","182","1","0","0","0","182","150"
"","psychophysics","89","437249","0.0-89.0","63e548d24319702eba4fc949","64de814dcbcf155a79f44d20","","","","","5699",""," ","key"," ","16.665152492668565","500","250","pog","184","1","0","0","0","214","148"
"","psychophysics","90","444701","0.0-90.0","63e548d24319702eba4fc949","64de814dcbcf155a79f44d20","","","","","7448",""," ","key"," ","16.66471076233186","500","250","pog","173","1","0","0","0","119","150"
"","psychophysics","91","448811","0.0-91.0","63e548d24319702eba4fc949","64de814dcbcf155a79f44d20","","","","","4107",""," ","key"," ","16.66496341463417","500","250","pog","216","1","0","0","0","204","188"
"","psychophysics","92","453985","0.0-92.0","63e548d24319702eba4fc949","64de814dcbcf155a79f44d20","","","","","5172",""," ","key"," ","16.664728155339848","500","250","pog","219","1","0","0","0","175","191"
"","psychophysics","93","457224","0.0-93.0","63e548d24319702eba4fc949","64de814dcbcf155a79f44d20","","","","","3234",""," ","key"," ","16.6660412371134","500","250","pog","197","1","0","0","0","209","163"
"","psychophysics","94","462925","0.0-94.0","63e548d24319702eba4fc949","64de814dcbcf155a79f44d20","","","","","5698",""," ","key"," ","16.66453372434026","500","250","pog","219","1","0","0","0","157","185"
"","psychophysics","95","468656","0.0-95.0","63e548d24319702eba4fc949","64de814dcbcf155a79f44d20","","","","","5729",""," ","key"," ","16.664376093294443","500","250","pog","180","1","0","0","0","144","161"
"","psychophysics","96","471499","0.0-96.0","63e548d24319702eba4fc949","64de814dcbcf155a79f44d20","","","","","2841",""," ","key"," ","16.66472189349106","500","250","pog","213","1","0","0","0","205","195"
"","psychophysics","97","476114","0.0-97.0","63e548d24319702eba4fc949","64de814dcbcf155a79f44d20","","","","","4611",""," ","key"," ","16.665134057970977","500","250","pog","190","1","0","0","0","150","160"
"","psychophysics","98","481089","0.0-98.0","63e548d24319702eba4fc949","64de814dcbcf155a79f44d20","","","","","4973",""," ","key"," ","16.66518456375831","500","250","pog","207","1","0","0","0","139","170"
"","psychophysics","99","482346","0.0-99.0","63e548d24319702eba4fc949","64de814dcbcf155a79f44d20","","","","","1255",""," ","key"," ","16.66289189189194","500","250","inst","","","","","","",""
"","psychophysics","100","488707","0.0-100.0","63e548d24319702eba4fc949","64de814dcbcf155a79f44d20","","","","","6359",""," ","key"," ","16.66376902887141","500","250","instEB0","41","2","","0","0","40","40"
"","psychophysics","101","492741","0.0-101.0","63e548d24319702eba4fc949","64de814dcbcf155a79f44d20","","","","","4032",""," ","key"," ","16.665128630705524","500","250","instEB1","41","2","","0","0","30","40"
"","psychophysics","102","499213","0.0-102.0","63e548d24319702eba4fc949","64de814dcbcf155a79f44d20","","","","","6469",""," ","key"," ","16.664002583979283","500","250","instEB2","36","2","","0","0","40","30"
"","psychophysics","103","506918","0.0-103.0","63e548d24319702eba4fc949","64de814dcbcf155a79f44d20","","","","","7699",""," ","key"," ","16.664480519480627","500","250","instEB3","36","2","","0","0","45","27"
"","psychophysics","104","511953","0.0-104.0","63e548d24319702eba4fc949","64de814dcbcf155a79f44d20","","","","","5032",""," ","key"," ","16.66486046511635","500","250","instEB4","55","2","","0","0","30","40"
"","psychophysics","105","512799","0.0-105.0","63e548d24319702eba4fc949","64de814dcbcf155a79f44d20","","","","","843",""," ","key"," ","16.663560000000288","500","250","inst","","","","","","",""
"","psychophysics","106","518164","0.0-106.0","63e548d24319702eba4fc949","64de814dcbcf155a79f44d20","","","","","5360",""," ","key"," ","16.66537071651082","500","250","eb","68","2","","0","0","39","54"
"","psychophysics","107","523190","0.0-107.0","63e548d24319702eba4fc949","64de814dcbcf155a79f44d20","","","","","5021",""," ","key"," ","16.66536000000022","500","250","eb","62","2","","0","0","43","47"
"","psychophysics","108","527159","0.0-108.0","63e548d24319702eba4fc949","64de814dcbcf155a79f44d20","","","","","3965",""," ","key"," ","16.665232067510686","500","250","eb","34","2","","0","0","24","24"
"","psychophysics","109","533715","0.0-109.0","63e548d24319702eba4fc949","64de814dcbcf155a79f44d20","","","","","6556",""," ","key"," ","16.665033078880427","500","250","eb","42","2","","0","0","35","30"
"","psychophysics","110","536503","0.0-110.0","63e548d24319702eba4fc949","64de814dcbcf155a79f44d20","","","","","2785",""," ","key"," ","16.664204819277295","500","250","eb","40","2","","0","0","43","26"
"","psychophysics","111","540552","0.0-111.0","63e548d24319702eba4fc949","64de814dcbcf155a79f44d20","","","","","4047",""," ","key"," ","16.6641074380162","500","250","eb","49","2","","0","0","43","38"
"","psychophysics","112","544162","0.0-112.0","63e548d24319702eba4fc949","64de814dcbcf155a79f44d20","","","","","3606",""," ","key"," ","16.66476851851837","500","250","eb","36","2","","0","0","47","26"
"","psychophysics","113","547075","0.0-113.0","63e548d24319702eba4fc949","64de814dcbcf155a79f44d20","","","","","2910",""," ","key"," ","16.664568965516626","500","250","eb","46","2","","0","0","38","33"
"","psychophysics","114","551679","0.0-114.0","63e548d24319702eba4fc949","64de814dcbcf155a79f44d20","","","","","4599",""," ","key"," ","16.663658181817947","500","250","eb","42","2","","0","0","40","29"
"","psychophysics","115","557066","0.0-115.0","63e548d24319702eba4fc949","64de814dcbcf155a79f44d20","","","","","5383",""," ","key"," ","16.66504658385099","500","250","eb","38","2","","0","0","51","27"
"","psychophysics","116","562386","0.0-116.0","63e548d24319702eba4fc949","64de814dcbcf155a79f44d20","","","","","5318",""," ","key"," ","16.66522327044015","500","250","eb","55","2","","0","0","39","45"
"","psychophysics","117","568517","0.0-117.0","63e548d24319702eba4fc949","64de814dcbcf155a79f44d20","","","","","6126",""," ","key"," ","16.664468664850098","500","250","eb","31","2","","0","0","52","24"
"","psychophysics","118","573108","0.0-118.0","63e548d24319702eba4fc949","64de814dcbcf155a79f44d20","","","","","4589",""," ","key"," ","16.665298181817953","500","250","eb","40","2","","0","0","27","28"
"","psychophysics","119","577297","0.0-119.0","63e548d24319702eba4fc949","64de814dcbcf155a79f44d20","","","","","4185",""," ","key"," ","16.664459999999963","500","250","eb","62","2","","0","0","33","53"
"","psychophysics","120","579465","0.0-120.0","63e548d24319702eba4fc949","64de814dcbcf155a79f44d20","","","","","2164",""," ","key"," ","16.66448062015499","500","250","eb","55","2","","0","0","53","47"
"","psychophysics","121","580815","0.0-121.0","63e548d24319702eba4fc949","64de814dcbcf155a79f44d20","","","","","1348",""," ","key"," ","16.66442500000121","500","250","inst","","","","","","",""
"","psychophysics","122","587049","0.0-122.0","63e548d24319702eba4fc949","64de814dcbcf155a79f44d20","","","","","6232",""," ","key"," ","16.66525737265432","500","250","instPog0","340","2","","0","0","370","340"
"","psychophysics","123","591468","0.0-123.0","63e548d24319702eba4fc949","64de814dcbcf155a79f44d20","","","","","4417",""," ","key"," ","16.665382575757878","500","250","instPog1","340","2","","0","0","370","340"
"","psychophysics","124","594526","0.0-124.0","63e548d24319702eba4fc949","64de814dcbcf155a79f44d20","","","","","3055",""," ","key"," ","16.66481967213121","500","250","instPog2","332","2","","0","0","340","340"
"","psychophysics","125","595407","0.0-125.0","63e548d24319702eba4fc949","64de814dcbcf155a79f44d20","","","","","879",""," ","key"," ","16.66421153846134","500","250","inst","","","","","","",""
"","psychophysics","126","601774","0.0-126.0","63e548d24319702eba4fc949","64de814dcbcf155a79f44d20","","","","","6363",""," ","key"," ","16.664296587926685","500","250","pog","350","2","1","0","0","318","372"
"","psychophysics","127","606714","0.0-127.0","63e548d24319702eba4fc949","64de814dcbcf155a79f44d20","","","","","4938",""," ","key"," ","16.66397966101679","500","250","pog","289","2","1","0","0","365","306"
"","psychophysics","128","609272","0.0-128.0","63e548d24319702eba4fc949","64de814dcbcf155a79f44d20","","","","","2554",""," ","key"," ","16.66681045751632","500","250","pog","305","2","1","0","0","295","328"
"","psychophysics","129","610924","0.0-129.0","63e548d24319702eba4fc949","64de814dcbcf155a79f44d20","","","","","1650",""," ","key"," ","16.66355102040867","500","250","pog","349","2","1","0","0","351","370"
"","psychophysics","130","613782","0.0-130.0","63e548d24319702eba4fc949","64de814dcbcf155a79f44d20","","","","","2855",""," ","key"," ","16.66313529411769","500","250","pog","328","2","1","0","0","316","354"
"","psychophysics","131","619429","0.0-131.0","63e548d24319702eba4fc949","64de814dcbcf155a79f44d20","","","","","5643",""," ","key"," ","16.66542899408295","500","250","pog","315","2","1","0","0","371","328"
"","psychophysics","132","621992","0.0-132.0","63e548d24319702eba4fc949","64de814dcbcf155a79f44d20","","","","","2559",""," ","key"," ","16.664692810457353","500","250","pog","325","2","1","0","0","305","338"
"","psychophysics","133","624574","0.0-133.0","63e548d24319702eba4fc949","64de814dcbcf155a79f44d20","","","","","2581",""," ","key"," ","16.66522727272694","500","250","pog","288","2","1","0","0","306","304"
"","psychophysics","134","626882","0.0-134.0","63e548d24319702eba4fc949","64de814dcbcf155a79f44d20","","","","","2306",""," ","key"," ","16.66768115942039","500","250","pog","351","2","1","0","0","367","377"
"","psychophysics","135","628854","0.0-135.0","63e548d24319702eba4fc949","64de814dcbcf155a79f44d20","","","","","1969",""," ","key"," ","16.665564102563472","500","250","pog","358","2","1","0","0","368","367"
"","psychophysics","136","631167","0.0-136.0","63e548d24319702eba4fc949","64de814dcbcf155a79f44d20","","","","","2311",""," ","key"," ","16.664065217391748","500","250","pog","359","2","1","0","0","375","373"
"","psychophysics","137","634130","0.0-137.0","63e548d24319702eba4fc949","64de814dcbcf155a79f44d20","","","","","2961",""," ","key"," ","16.66454802259887","500","250","pog","354","2","1","0","0","372","367"
"","psychophysics","138","636029","0.0-138.0","63e548d24319702eba4fc949","64de814dcbcf155a79f44d20","","","","","1894",""," ","key"," ","16.66372321428519","500","250","pog","305","2","1","0","0","303","326"
"","psychophysics","139","639907","0.0-139.0","63e548d24319702eba4fc949","64de814dcbcf155a79f44d20","","","","","3874",""," ","key"," ","16.66521982758623","500","250","pog","328","2","1","0","0","308","353"
"","psychophysics","140","642900","0.0-140.0","63e548d24319702eba4fc949","64de814dcbcf155a79f44d20","","","","","2991",""," ","key"," ","16.666335195530593","500","250","pog","300","2","1","0","0","310","319"
"","psychophysics","141","643687","0.0-141.0","63e548d24319702eba4fc949","64de814dcbcf155a79f44d20","","","","","784",""," ","key"," ","16.664586956521656","500","250","inst","","","","","","",""
"","psychophysics","142","648898","0.0-142.0","63e548d24319702eba4fc949","64de814dcbcf155a79f44d20","","","","","5209",""," ","key"," ","16.664342948718023","500","250","instZol1","0.3999999999999998","","","0","0","-1.3",""
"","psychophysics","143","656237","0.0-143.0","63e548d24319702eba4fc949","64de814dcbcf155a79f44d20","","","","","7336",""," ","key"," ","16.66526651480617","500","250","instZol2","0.8000000000000006","1","","0","0","2",""
"","psychophysics","144","657512","0.0-144.0","63e548d24319702eba4fc949","64de814dcbcf155a79f44d20","","","","","1273",""," ","key"," ","16.664197368421714","500","250","inst","","","","","","",""
"","psychophysics","145","662494","0.0-145.0","63e548d24319702eba4fc949","64de814dcbcf155a79f44d20","","","","","4977",""," ","key"," ","16.665583892617587","500","250","zol","1.3200000000000003","1","1","-1","-26","-0.02",""
"","psychophysics","146","666418","0.0-146.0","63e548d24319702eba4fc949","64de814dcbcf155a79f44d20","","","","","3918",""," ","key"," ","16.663564102564","500","250","zol","1.35","1","1","7","-5","0.25",""
"","psychophysics","147","669608","0.0-147.0","63e548d24319702eba4fc949","64de814dcbcf155a79f44d20","","","","","3185",""," ","key"," ","16.665852631578883","500","250","zol","1.6600000000000004","1","1","18","2","0.04",""
"","psychophysics","148","672030","0.0-148.0","63e548d24319702eba4fc949","64de814dcbcf155a79f44d20","","","","","2416",""," ","key"," ","16.66488275862106","500","250","zol","1.5500000000000003","1","1","-16","27","-0.05",""
"","psychophysics","149","674413","0.0-149.0","63e548d24319702eba4fc949","64de814dcbcf155a79f44d20","","","","","2378",""," ","key"," ","16.66496478873272","500","250","zol","1.5100000000000005","1","1","-22","21","-0.31",""
"","psychophysics","150","676842","0.0-150.0","63e548d24319702eba4fc949","64de814dcbcf155a79f44d20","","","","","2425",""," ","key"," ","16.66479999999965","500","250","zol","1.4900000000000002","1","1","12","21","-0.69",""
"","psychophysics","151","680641","0.0-151.0","63e548d24319702eba4fc949","64de814dcbcf155a79f44d20","","","","","3795",""," ","key"," ","16.6644713656386","500","250","zol","1.6900000000000004","1","1","-15","-23","0.71",""
"","psychophysics","152","684826","0.0-152.0","63e548d24319702eba4fc949","64de814dcbcf155a79f44d20","","","","","4180",""," ","key"," ","16.665659999999683","500","250","zol","1.8900000000000006","1","1","-5","13","-0.59",""
"","psychophysics","153","688375","0.0-153.0","63e548d24319702eba4fc949","64de814dcbcf155a79f44d20","","","","","3545",""," ","key"," ","16.66533490566082","500","250","zol","1.6600000000000006","1","1","19","16","0.44",""
"","psychophysics","154","695634","0.0-154.0","63e548d24319702eba4fc949","64de814dcbcf155a79f44d20","","","","","7254",""," ","key"," ","16.66393087557592","500","250","zol","1.4600000000000004","1","1","19","25","-0.56",""
"","psychophysics","155","698718","0.0-155.0","63e548d24319702eba4fc949","64de814dcbcf155a79f44d20","","","","","3079",""," ","key"," ","16.66599999999997","500","250","zol","1.5900000000000003","1","1","7","-30","-0.29",""
"","psychophysics","156","703508","0.0-156.0","63e548d24319702eba4fc949","64de814dcbcf155a79f44d20","","","","","4784",""," ","key"," ","16.66505574912907","500","250","zol","1.29","1","1","-28","-16","-0.29",""
"","psychophysics","157","705967","0.0-157.0","63e548d24319702eba4fc949","64de814dcbcf155a79f44d20","","","","","2454",""," ","key"," ","16.666226027397858","500","250","zol","1.4500000000000002","1","1","22","10","-0.25",""
"","psychophysics","158","709806","0.0-158.0","63e548d24319702eba4fc949","64de814dcbcf155a79f44d20","","","","","3833",""," ","key"," ","16.664482608695675","500","250","zol","1.37","1","1","15","10","0.53",""
"","psychophysics","159","712185","0.0-159.0","63e548d24319702eba4fc949","64de814dcbcf155a79f44d20","","","","","2374",""," ","key"," ","16.664751773049513","500","250","zol","1.5300000000000005","1","1","-21","-26","0.07",""
"","psychophysics","160","712915","0.0-160.0","63e548d24319702eba4fc949","64de814dcbcf155a79f44d20","","","","","726",""," ","key"," ","16.668744186047725","500","250","inst","","","","","","",""
"","psychophysics","161","725475","0.0-161.0","63e548d24319702eba4fc949","64de814dcbcf155a79f44d20","","","","","12558",""," ","key"," ","16.66417795484734","500","250","instPz1","50","1","","","","25","50"
"","psychophysics","162","729826","0.0-162.0","63e548d24319702eba4fc949","64de814dcbcf155a79f44d20","","","","","4347",""," ","key"," ","16.665399999999835","500","250","instPz2","20","1","","","","35","20"
"","psychophysics","163","735031","0.0-163.0","63e548d24319702eba4fc949","64de814dcbcf155a79f44d20","","","","","5203",""," ","key"," ","16.664479099678616","500","250","instPz3","61","1","","","","100","30"
"","psychophysics","164","740087","0.0-164.0","63e548d24319702eba4fc949","64de814dcbcf155a79f44d20","","","","","5050",""," ","key"," ","16.665363036303567","500","250","instPz4","53","1","","","","100","30"
"","psychophysics","165","741009","0.0-165.0","63e548d24319702eba4fc949","64de814dcbcf155a79f44d20","","","","","920",""," ","key"," ","16.663148148147027","500","250","inst","","","","","","",""
"","psychophysics","166","744837","0.0-166.0","63e548d24319702eba4fc949","64de814dcbcf155a79f44d20","","","","","3825",""," ","key"," ","16.66375982532721","500","250","pz","88","1","1","","","58","49"
"","psychophysics","167","747201","0.0-167.0","63e548d24319702eba4fc949","64de814dcbcf155a79f44d20","","","","","2360",""," ","key"," ","16.665546099290395","500","250","pz","75","1","1","","","54","40"
"","psychophysics","168","751781","0.0-168.0","63e548d24319702eba4fc949","64de814dcbcf155a79f44d20","","","","","4577",""," ","key"," ","16.66388644688616","500","250","pz","85","1","1","","","47","60"
"","psychophysics","169","753718","0.0-169.0","63e548d24319702eba4fc949","64de814dcbcf155a79f44d20","","","","","1931",""," ","key"," ","16.666344827585974","500","250","pz","55","1","1","","","56","36"
"","psychophysics","170","757502","0.0-170.0","63e548d24319702eba4fc949","64de814dcbcf155a79f44d20","","","","","3782",""," ","key"," ","16.663455752212354","500","250","pz","56","1","1","","","44","34"
"","psychophysics","171","759890","0.0-171.0","63e548d24319702eba4fc949","64de814dcbcf155a79f44d20","","","","","2385",""," ","key"," ","16.664288732394557","500","250","pz","44","1","1","","","39","26"
"","psychophysics","172","763484","0.0-172.0","63e548d24319702eba4fc949","64de814dcbcf155a79f44d20","","","","","3591",""," ","key"," ","16.66458139534888","500","250","pz","57","1","1","","","30","40"
"","psychophysics","173","765241","0.0-173.0","63e548d24319702eba4fc949","64de814dcbcf155a79f44d20","","","","","1755",""," ","key"," ","16.662692307692712","500","250","pz","43","1","1","","","32","25"
"","psychophysics","174","766722","0.0-174.0","63e548d24319702eba4fc949","64de814dcbcf155a79f44d20","","","","","1479",""," ","key"," ","16.667556818181765","500","250","pz","57","1","1","","","54","36"
"","psychophysics","175","770339","0.0-175.0","63e548d24319702eba4fc949","64de814dcbcf155a79f44d20","","","","","3616",""," ","key"," ","16.66450000000003","500","250","pz","57","1","1","","","32","45"
"","psychophysics","176","773754","0.0-176.0","63e548d24319702eba4fc949","64de814dcbcf155a79f44d20","","","","","3411",""," ","key"," ","16.665794117647273","500","250","pz","68","1","1","","","22","44"
"","psychophysics","177","775916","0.0-177.0","63e548d24319702eba4fc949","64de814dcbcf155a79f44d20","","","","","2160",""," ","key"," ","16.663147286822397","500","250","pz","38","1","1","","","41","24"
"","psychophysics","178","778634","0.0-178.0","63e548d24319702eba4fc949","64de814dcbcf155a79f44d20","","","","","2714",""," ","key"," ","16.665969135802396","500","250","pz","68","1","1","","","58","46"
"","psychophysics","179","781517","0.0-179.0","63e548d24319702eba4fc949","64de814dcbcf155a79f44d20","","","","","2881",""," ","key"," ","16.665162790697313","500","250","pz","56","1","1","","","28","39"
"","psychophysics","180","785332","0.0-180.0","63e548d24319702eba4fc949","64de814dcbcf155a79f44d20","","","","","3812",""," ","key"," ","16.663960526315925","500","250","pz","38","1","1","","","59","24"
"","psychophysics","181","791824","0.0-181.0","63e548d24319702eba4fc949","64de814dcbcf155a79f44d20","","","","","6490",""," ","key"," ","16.66510051546394","500","250","inst","","","","","","",""
"","psychophysics","182","796098","0.0-182.0","63e548d24319702eba4fc949","64de814dcbcf155a79f44d20","","","","","4269",""," ","key"," ","16.664515624999694","500","250","instEB1","30","1","","0","0","40","30"
"","psychophysics","183","798942","0.0-183.0","63e548d24319702eba4fc949","64de814dcbcf155a79f44d20","","","","","2839",""," ","key"," ","16.665576470587812","500","250","instEB2","35","1","","0","0","30","40"
"","psychophysics","184","803092","0.0-184.0","63e548d24319702eba4fc949","64de814dcbcf155a79f44d20","","","","","4147",""," ","key"," ","16.66449999999989","500","250","instEB3","38","1","","0","0","27","45"
"","psychophysics","185","806726","0.0-185.0","63e548d24319702eba4fc949","64de814dcbcf155a79f44d20","","","","","3631",""," ","key"," ","16.66435483870931","500","250","instEB4","24","1","","0","0","40","30"
"","psychophysics","186","807386","0.0-186.0","63e548d24319702eba4fc949","64de814dcbcf155a79f44d20","","","","","658",""," ","key"," ","16.66997368421136","500","250","inst","","","","","","",""
"","psychophysics","187","810780","0.0-187.0","63e548d24319702eba4fc949","64de814dcbcf155a79f44d20","","","","","3388",""," ","key"," ","16.66396059113293","500","250","eb","23","1","","0","0","50","28"
"","psychophysics","188","813220","0.0-188.0","63e548d24319702eba4fc949","64de814dcbcf155a79f44d20","","","","","2437",""," ","key"," ","16.666413793102677","500","250","eb","21","1","","0","0","47","28"
"","psychophysics","189","815852","0.0-189.0","63e548d24319702eba4fc949","64de814dcbcf155a79f44d20","","","","","2627",""," ","key"," ","16.66454777070084","500","250","eb","31","1","","0","0","46","38"
"","psychophysics","190","818409","0.0-190.0","63e548d24319702eba4fc949","64de814dcbcf155a79f44d20","","","","","2552",""," ","key"," ","16.666516339869748","500","250","eb","42","1","","0","0","37","45"
"","psychophysics","191","820331","0.0-191.0","63e548d24319702eba4fc949","64de814dcbcf155a79f44d20","","","","","1919",""," ","key"," ","16.66498245614103","500","250","eb","34","1","","0","0","41","36"
"","psychophysics","192","823189","0.0-192.0","63e548d24319702eba4fc949","64de814dcbcf155a79f44d20","","","","","2855",""," ","key"," ","16.664590643274963","500","250","eb","34","1","","0","0","25","40"
"","psychophysics","193","825377","0.0-193.0","63e548d24319702eba4fc949","64de814dcbcf155a79f44d20","","","","","2185",""," ","key"," ","16.66599230769162","500","250","eb","39","1","","0","0","46","45"
"","psychophysics","194","828555","0.0-194.0","63e548d24319702eba4fc949","64de814dcbcf155a79f44d20","","","","","3175",""," ","key"," ","16.664047368421024","500","250","eb","22","1","","0","0","30","27"
"","psychophysics","195","830771","0.0-195.0","63e548d24319702eba4fc949","64de814dcbcf155a79f44d20","","","","","2208",""," ","key"," ","16.663328244275313","500","250","eb","44","1","","0","0","50","48"
"","psychophysics","196","834706","0.0-196.0","63e548d24319702eba4fc949","64de814dcbcf155a79f44d20","","","","","3930",""," ","key"," ","16.66607203389818","500","250","eb","30","1","","0","0","51","35"
"","psychophysics","197","838634","0.0-197.0","63e548d24319702eba4fc949","64de814dcbcf155a79f44d20","","","","","3925",""," ","key"," ","16.663465811966017","500","250","eb","25","1","","0","0","42","31"
"","psychophysics","198","841472","0.0-198.0","63e548d24319702eba4fc949","64de814dcbcf155a79f44d20","","","","","2832",""," ","key"," ","16.664905882353537","500","250","eb","24","1","","0","0","44","27"
"","psychophysics","199","843089","0.0-199.0","63e548d24319702eba4fc949","64de814dcbcf155a79f44d20","","","","","1613",""," ","key"," ","16.66503124999993","500","250","eb","32","1","","0","0","35","43"
"","psychophysics","200","844882","0.0-200.0","63e548d24319702eba4fc949","64de814dcbcf155a79f44d20","","","","","1789",""," ","key"," ","16.665386792452445","500","250","eb","40","1","","0","0","37","46"
"","psychophysics","201","849090","0.0-201.0","63e548d24319702eba4fc949","64de814dcbcf155a79f44d20","","","","","4206",""," ","key"," ","16.663126984127015","500","250","eb","28","1","","0","0","41","34"
"","psychophysics","202","849827","0.0-202.0","63e548d24319702eba4fc949","64de814dcbcf155a79f44d20","","","","","735",""," ","key"," ","16.665441860463794","500","250","inst","","","","","","",""
"","psychophysics","203","854382","0.0-203.0","63e548d24319702eba4fc949","64de814dcbcf155a79f44d20","","","","","4553",""," ","key"," ","16.665209558823655","500","250","instBr3","18","2","","0","0","40","300"
"","psychophysics","204","855077","0.0-204.0","63e548d24319702eba4fc949","64de814dcbcf155a79f44d20","","","","","694",""," ","key"," ","16.65785365853538","500","250","inst","","","","","","",""
"","psychophysics","205","857009","0.0-205.0","63e548d24319702eba4fc949","64de814dcbcf155a79f44d20","","","","","1929",""," ","key"," ","16.66436521739132","500","250","br","15","2","1","-9","27","22","225"
"","psychophysics","206","858371","0.0-206.0","63e548d24319702eba4fc949","64de814dcbcf155a79f44d20","","","","","1359",""," ","key"," ","16.666740740741385","500","250","br","22","2","1","-7","-27","29","208"
"","psychophysics","207","863617","0.0-207.0","63e548d24319702eba4fc949","64de814dcbcf155a79f44d20","","","","","5244",""," ","key"," ","16.66453354632573","500","250","br","18","2","1","27","-10","-17","287"
"","psychophysics","208","868606","0.0-208.0","63e548d24319702eba4fc949","64de814dcbcf155a79f44d20","","","","","4985",""," ","key"," ","16.664287625417973","500","250","br","20","2","1","26","-28","-27","286"
"","psychophysics","209","871285","0.0-209.0","63e548d24319702eba4fc949","64de814dcbcf155a79f44d20","","","","","2676",""," ","key"," ","16.665056249999907","500","250","br","12","2","1","-6","-21","-15","218"
"","psychophysics","210","874192","0.0-210.0","63e548d24319702eba4fc949","64de814dcbcf155a79f44d20","","","","","2904",""," ","key"," ","16.662231213872783","500","250","br","17","2","1","9","-28","-28","230"
"","psychophysics","211","876004","0.0-211.0","63e548d24319702eba4fc949","64de814dcbcf155a79f44d20","","","","","1811",""," ","key"," ","16.66351851851882","500","250","br","20","2","1","17","-30","9","214"
"","psychophysics","212","877261","0.0-212.0","63e548d24319702eba4fc949","64de814dcbcf155a79f44d20","","","","","1254",""," ","key"," ","16.667243243243885","500","250","br","19","2","1","-11","-13","18","200"
"","psychophysics","213","880129","0.0-213.0","63e548d24319702eba4fc949","64de814dcbcf155a79f44d20","","","","","2866",""," ","key"," ","16.66472514619852","500","250","br","16","2","1","4","23","-15","220"
"","psychophysics","214","882146","0.0-214.0","63e548d24319702eba4fc949","64de814dcbcf155a79f44d20","","","","","2013",""," ","key"," ","16.663991666666696","500","250","br","16","2","1","29","-24","-10","272"
"","psychophysics","215","883538","0.0-215.0","63e548d24319702eba4fc949","64de814dcbcf155a79f44d20","","","","","1386",""," ","key"," ","16.66808433734941","500","250","br","19","2","1","-4","-29","14","287"
"","psychophysics","216","885655","0.0-216.0","63e548d24319702eba4fc949","64de814dcbcf155a79f44d20","","","","","2115",""," ","key"," ","16.66413492063478","500","250","br","13","2","1","-10","-18","-4","204"
"","psychophysics","217","887812","0.0-217.0","63e548d24319702eba4fc949","64de814dcbcf155a79f44d20","","","","","2155",""," ","key"," ","16.666601562499636","500","250","br","17","2","1","-1","19","-2","247"
"","psychophysics","218","889634","0.0-218.0","63e548d24319702eba4fc949","64de814dcbcf155a79f44d20","","","","","1817",""," ","key"," ","16.66711926605518","500","250","br","20","2","1","1","-4","16","230"
"","psychophysics","219","891114","0.0-219.0","63e548d24319702eba4fc949","64de814dcbcf155a79f44d20","","","","","1479",""," ","key"," ","16.664704545453954","500","250","br","24","2","1","2","16","21","267"
