"success","trial_type","trial_index","time_elapsed","internal_node_id","pid","sid","timeout","failed_images","failed_audio","failed_video","rt","stimulus","response","response_type","key_press","avg_frame_time","center_x","center_y","task","resp","version","block","jitterX","jitterY","start","parA"
"true","fullscreen","0","14530","0.0-0.0","5eb070eb793af1113c01e244","64de8058210e70a94b84de2f","","","","","","","","","","","","","","","","","","","",""
"true","preload","1","14970","0.0-1.0","5eb070eb793af1113c01e244","64de8058210e70a94b84de2f","false","[]","[]","[]","","","","","","","","","","","","","","","",""
"","html-button-response","2","16829","0.0-2.0","5eb070eb793af1113c01e244","64de8058210e70a94b84de2f","","","","","1858","Please Make Sure Your Audio Is On.","0","","","","","","","","","","","","",""
"","psychophysics","3","29750","0.0-3.0","5eb070eb793af1113c01e244","64de8058210e70a94b84de2f","","","","","12915",""," ","key"," ","16.666374193548386","960","250","","","","","","","",""
"","psychophysics","4","33068","0.0-4.0","5eb070eb793af1113c01e244","64de8058210e70a94b84de2f","","","","","3316",""," ","key"," ","16.666666666666668","500","250","inst","","","","","","",""
"","psychophysics","5","35312","0.0-5.0","5eb070eb793af1113c01e244","64de8058210e70a94b84de2f","","","","","2242",""," ","key"," ","16.666766917293234","500","250","sample0","","","","","","",""
"","psychophysics","6","37722","0.0-6.0","5eb070eb793af1113c01e244","64de8058210e70a94b84de2f","","","","","2406",""," ","key"," ","16.666666666666668","500","250","sample1","","","","","","",""
"","psychophysics","7","49316","0.0-7.0","5eb070eb793af1113c01e244","64de8058210e70a94b84de2f","","","","","11592",""," ","key"," ","16.66658992805755","500","250","sample2","100","","","","","",""
"","psychophysics","8","57754","0.0-8.0","5eb070eb793af1113c01e244","64de8058210e70a94b84de2f","","","","","8437",""," ","key"," ","16.666653465346528","500","250","sample3","100","","","","","",""
"","psychophysics","9","68034","0.0-9.0","5eb070eb793af1113c01e244","64de8058210e70a94b84de2f","","","","","10279",""," ","key"," ","16.6666883116883","500","250","sample4","102","","","","","",""
"","psychophysics","10","71504","0.0-10.0","5eb070eb793af1113c01e244","64de8058210e70a94b84de2f","","","","","3469",""," ","key"," ","16.666666666666668","500","250","sample5","","","","","","",""
"","psychophysics","11","79736","0.0-11.0","5eb070eb793af1113c01e244","64de8058210e70a94b84de2f","","","","","8229",""," ","key"," ","16.666693711967532","500","250","sample6","500","","","","","",""
"","psychophysics","12","84858","0.0-12.0","5eb070eb793af1113c01e244","64de8058210e70a94b84de2f","","","","","5121",""," ","key"," ","16.666666666666668","500","250","inst","","","","","","",""
"","psychophysics","13","90131","0.0-13.0","5eb070eb793af1113c01e244","64de8058210e70a94b84de2f","","","","","5271",""," ","key"," ","16.666645569620265","500","250","inst","","","","","","",""
"","psychophysics","14","158906","0.0-14.0","5eb070eb793af1113c01e244","64de8058210e70a94b84de2f","","","","","68774",""," ","key"," ","16.666652121212124","500","250","inst","","","","","","",""
"","psychophysics","15","162084","0.0-15.0","5eb070eb793af1113c01e244","64de8058210e70a94b84de2f","","","","","3177",""," ","key"," ","16.666736842105227","500","250","inst","","","","","","",""
"","psychophysics","16","166881","0.0-16.0","5eb070eb793af1113c01e244","64de8058210e70a94b84de2f","","","","","4795",""," ","key"," ","16.66668989547037","500","250","inst","","","","","","",""
"","psychophysics","17","169968","0.0-17.0","5eb070eb793af1113c01e244","64de8058210e70a94b84de2f","","","","","3085",""," ","key"," ","16.666739130434745","500","250","instBr0","0","","","0","0","0","300"
"","psychophysics","18","177040","0.0-18.0","5eb070eb793af1113c01e244","64de8058210e70a94b84de2f","","","","","7070",""," ","key"," ","16.666666666666668","500","250","instBr1","-1","","","0","0","-40","300"
"","psychophysics","19","186008","0.0-19.0","5eb070eb793af1113c01e244","64de8058210e70a94b84de2f","","","","","8967",""," ","key"," ","16.666629422718774","500","250","instBr3","-24","1","","0","0","40","300"
"","psychophysics","20","188592","0.0-20.0","5eb070eb793af1113c01e244","64de8058210e70a94b84de2f","","","","","2583",""," ","key"," ","16.66662337662321","500","250","inst","","","","","","",""
"","psychophysics","21","193123","0.0-21.0","5eb070eb793af1113c01e244","64de8058210e70a94b84de2f","","","","","4530",""," ","key"," ","16.66664206642068","500","250","br","-23","1","0","18","-12","-15","223"
"","psychophysics","22","198392","0.0-22.0","5eb070eb793af1113c01e244","64de8058210e70a94b84de2f","","","","","5266",""," ","key"," ","16.666666666666668","500","250","br","-28","1","0","6","21","25","247"
"","psychophysics","23","202098","0.0-23.0","5eb070eb793af1113c01e244","64de8058210e70a94b84de2f","","","","","3705",""," ","key"," ","16.666666666666668","500","250","br","-28","1","0","8","-24","-5","256"
"","psychophysics","24","210650","0.0-24.0","5eb070eb793af1113c01e244","64de8058210e70a94b84de2f","","","","","8549",""," ","key"," ","16.666640625000014","500","250","br","-29","1","0","5","-22","18","290"
"","psychophysics","25","214551","0.0-25.0","5eb070eb793af1113c01e244","64de8058210e70a94b84de2f","","","","","3900",""," ","key"," ","16.66652360515029","500","250","br","-34","1","0","-4","-9","3","270"
"","psychophysics","26","217770","0.0-26.0","5eb070eb793af1113c01e244","64de8058210e70a94b84de2f","","","","","3217",""," ","key"," ","16.666666666666668","500","250","br","-27","1","0","-27","14","12","251"
"","psychophysics","27","221141","0.0-27.0","5eb070eb793af1113c01e244","64de8058210e70a94b84de2f","","","","","3370",""," ","key"," ","16.666666666666668","500","250","br","-17","1","0","-26","19","20","201"
"","psychophysics","28","225926","0.0-28.0","5eb070eb793af1113c01e244","64de8058210e70a94b84de2f","","","","","4782",""," ","key"," ","16.666643356643267","500","250","br","-24","1","0","18","-24","13","249"
"","psychophysics","29","228331","0.0-29.0","5eb070eb793af1113c01e244","64de8058210e70a94b84de2f","","","","","2404",""," ","key"," ","16.66652777777765","500","250","br","-21","1","0","-10","26","-11","217"
"","psychophysics","30","231232","0.0-30.0","5eb070eb793af1113c01e244","64de8058210e70a94b84de2f","","","","","2899",""," ","key"," ","16.666589595375594","500","250","br","-25","1","0","-22","-16","12","263"
"","psychophysics","31","233771","0.0-31.0","5eb070eb793af1113c01e244","64de8058210e70a94b84de2f","","","","","2539",""," ","key"," ","16.66662251655612","500","250","br","-24","1","0","-24","9","4","260"
"","psychophysics","32","236520","0.0-32.0","5eb070eb793af1113c01e244","64de8058210e70a94b84de2f","","","","","2747",""," ","key"," ","16.66670731707315","500","250","br","-16","1","0","17","20","18","257"
"","psychophysics","33","238972","0.0-33.0","5eb070eb793af1113c01e244","64de8058210e70a94b84de2f","","","","","2451",""," ","key"," ","16.6667123287671","500","250","br","-34","1","0","13","-21","-13","277"
"","psychophysics","34","241206","0.0-34.0","5eb070eb793af1113c01e244","64de8058210e70a94b84de2f","","","","","2232",""," ","key"," ","16.66661654135341","500","250","br","-29","1","0","-2","4","-11","255"
"","psychophysics","35","243170","0.0-35.0","5eb070eb793af1113c01e244","64de8058210e70a94b84de2f","","","","","1962",""," ","key"," ","16.666666666666668","500","250","br","-28","1","0","7","-20","-14","256"
"","psychophysics","36","245894","0.0-36.0","5eb070eb793af1113c01e244","64de8058210e70a94b84de2f","","","","","2724",""," ","key"," ","16.666666666666668","500","250","inst","","","","","","",""
"","psychophysics","37","247888","0.0-37.0","5eb070eb793af1113c01e244","64de8058210e70a94b84de2f","","","","","1990",""," ","key"," ","16.6665546218488","500","250","instZol0","0","","","0","0","0",""
"","psychophysics","38","254610","0.0-38.0","5eb070eb793af1113c01e244","64de8058210e70a94b84de2f","","","","","6720",""," ","key"," ","16.66661691542284","500","250","instZol1","0.2999999999999994","","","0","0","-1.3",""
"","psychophysics","39","256861","0.0-39.0","5eb070eb793af1113c01e244","64de8058210e70a94b84de2f","","","","","2248",""," ","key"," ","16.666716417910422","500","250","instZol2","-2","2","","0","0","2",""
"","psychophysics","40","259712","0.0-40.0","5eb070eb793af1113c01e244","64de8058210e70a94b84de2f","","","","","2845",""," ","key"," ","16.66670588235292","500","250","inst","","","","","","",""
"","psychophysics","41","266617","0.0-41.0","5eb070eb793af1113c01e244","64de8058210e70a94b84de2f","","","","","6897",""," ","key"," ","16.666666666666735","500","250","zol","-1.7000000000000004","2","0","-16","-3","0.6",""
"","psychophysics","42","273650","0.0-42.0","5eb070eb793af1113c01e244","64de8058210e70a94b84de2f","","","","","7029",""," ","key"," ","16.66665083135386","500","250","zol","-0.8200000000000001","2","0","-28","26","-0.58",""
"","psychophysics","43","277938","0.0-43.0","5eb070eb793af1113c01e244","64de8058210e70a94b84de2f","","","","","4285",""," ","key"," ","16.666718749999973","500","250","zol","-1.0499999999999998","2","0","8","1","-0.65",""
"","psychophysics","44","282584","0.0-44.0","5eb070eb793af1113c01e244","64de8058210e70a94b84de2f","","","","","4644",""," ","key"," ","16.666690647482106","500","250","zol","-0.9999999999999997","2","0","26","18","0.6",""
"","psychophysics","45","289699","0.0-45.0","5eb070eb793af1113c01e244","64de8058210e70a94b84de2f","","","","","7112",""," ","key"," ","16.666666666666668","500","250","zol","-0.6699999999999998","2","0","-13","-28","-0.43",""
"","psychophysics","46","293186","0.0-46.0","5eb070eb793af1113c01e244","64de8058210e70a94b84de2f","","","","","3485",""," ","key"," ","16.666634615384492","500","250","zol","-1.2300000000000002","2","0","22","-1","0.63",""
"","psychophysics","47","296970","0.0-47.0","5eb070eb793af1113c01e244","64de8058210e70a94b84de2f","","","","","3782",""," ","key"," ","16.666637168141737","500","250","zol","-0.73","2","0","19","8","-0.47",""
"","psychophysics","48","299850","0.0-48.0","5eb070eb793af1113c01e244","64de8058210e70a94b84de2f","","","","","2879",""," ","key"," ","16.666744186046472","500","250","zol","-0.8599999999999999","2","0","-19","-17","0.26",""
"","psychophysics","49","302142","0.0-49.0","5eb070eb793af1113c01e244","64de8058210e70a94b84de2f","","","","","2290",""," ","key"," ","16.666617647058636","500","250","zol","-1.1600000000000001","2","0","-27","-14","0.66",""
"","psychophysics","50","304798","0.0-50.0","5eb070eb793af1113c01e244","64de8058210e70a94b84de2f","","","","","2654",""," ","key"," ","16.666666666666668","500","250","zol","-0.9499999999999998","2","0","-12","1","0.35",""
"","psychophysics","51","308044","0.0-51.0","5eb070eb793af1113c01e244","64de8058210e70a94b84de2f","","","","","3244",""," ","key"," ","16.666632124352198","500","250","zol","-0.6","2","0","-16","4","-0.4",""
"","psychophysics","52","311874","0.0-52.0","5eb070eb793af1113c01e244","64de8058210e70a94b84de2f","","","","","3824",""," ","key"," ","16.666724890829663","500","250","zol","-0.6","2","0","26","4","-0.7",""
"","psychophysics","53","315225","0.0-53.0","5eb070eb793af1113c01e244","64de8058210e70a94b84de2f","","","","","3349",""," ","key"," ","16.666700000000127","500","250","zol","-1.3600000000000003","2","0","30","18","0.46",""
"","psychophysics","54","315358","0.0-54.0","5eb070eb793af1113c01e244","64de8058210e70a94b84de2f","","","","","124",""," ","key"," ","16.66571428571894","500","250","zol","-0.62","2","0","7","0","0.62",""
"","psychophysics","55","319183","0.0-55.0","5eb070eb793af1113c01e244","64de8058210e70a94b84de2f","","","","","3820",""," ","key"," ","16.66663755458504","500","250","zol","-0.94","2","0","-22","5","-0.06",""
"","psychophysics","56","322860","0.0-56.0","5eb070eb793af1113c01e244","64de8058210e70a94b84de2f","","","","","3676",""," ","key"," ","16.666666666666668","500","250","inst","","","","","","",""
"","psychophysics","57","329020","0.0-57.0","5eb070eb793af1113c01e244","64de8058210e70a94b84de2f","","","","","6159",""," ","key"," ","16.666666666666668","500","250","instPog0","340","2","","0","0","370","340"
"","psychophysics","58","333840","0.0-58.0","5eb070eb793af1113c01e244","64de8058210e70a94b84de2f","","","","","4818",""," ","key"," ","16.66652777777785","500","250","instPog1","356","2","","0","0","370","340"
"","psychophysics","59","338815","0.0-59.0","5eb070eb793af1113c01e244","64de8058210e70a94b84de2f","","","","","4973",""," ","key"," ","16.666644295302124","500","250","instPog2","328","2","","0","0","340","340"
"","psychophysics","60","339732","0.0-60.0","5eb070eb793af1113c01e244","64de8058210e70a94b84de2f","","","","","916",""," ","key"," ","16.666666666666668","500","250","inst","","","","","","",""
"","psychophysics","61","342508","0.0-61.0","5eb070eb793af1113c01e244","64de8058210e70a94b84de2f","","","","","2774",""," ","key"," ","16.666666666666668","500","250","pog","346","2","0","0","0","384","362"
"","psychophysics","62","345388","0.0-62.0","5eb070eb793af1113c01e244","64de8058210e70a94b84de2f","","","","","2878",""," ","key"," ","16.666627906976597","500","250","pog","305","2","0","0","0","355","319"
"","psychophysics","63","347798","0.0-63.0","5eb070eb793af1113c01e244","64de8058210e70a94b84de2f","","","","","2408",""," ","key"," ","16.666666666666668","500","250","pog","283","2","0","0","0","321","305"
"","psychophysics","64","349588","0.0-64.0","5eb070eb793af1113c01e244","64de8058210e70a94b84de2f","","","","","1788",""," ","key"," ","16.666603773584665","500","250","pog","297","2","0","0","0","297","315"
"","psychophysics","65","351272","0.0-65.0","5eb070eb793af1113c01e244","64de8058210e70a94b84de2f","","","","","1683",""," ","key"," ","16.666600000000326","500","250","pog","350","2","0","0","0","350","372"
"","psychophysics","66","354505","0.0-66.0","5eb070eb793af1113c01e244","64de8058210e70a94b84de2f","","","","","3233",""," ","key"," ","16.6667357512953","500","250","pog","308","2","0","0","0","326","330"
"","psychophysics","67","357210","0.0-67.0","5eb070eb793af1113c01e244","64de8058210e70a94b84de2f","","","","","2703",""," ","key"," ","16.666708074533958","500","250","pog","278","2","0","0","0","318","307"
"","psychophysics","68","360854","0.0-68.0","5eb070eb793af1113c01e244","64de8058210e70a94b84de2f","","","","","3642",""," ","key"," ","16.666697247706274","500","250","pog","336","2","0","0","0","346","359"
"","psychophysics","69","364704","0.0-69.0","5eb070eb793af1113c01e244","64de8058210e70a94b84de2f","","","","","3849",""," ","key"," ","16.66669565217377","500","250","pog","313","2","0","0","0","363","338"
"","psychophysics","70","370820","0.0-70.0","5eb070eb793af1113c01e244","64de8058210e70a94b84de2f","","","","","6115",""," ","key"," ","16.666612021857873","500","250","pog","336","2","0","0","0","288","364"
"","psychophysics","71","375540","0.0-71.0","5eb070eb793af1113c01e244","64de8058210e70a94b84de2f","","","","","4720",""," ","key"," ","16.666595744680784","500","250","pog","338","2","0","0","0","394","351"
"","psychophysics","72","379114","0.0-72.0","5eb070eb793af1113c01e244","64de8058210e70a94b84de2f","","","","","3572",""," ","key"," ","16.666635514018573","500","250","pog","321","2","0","0","0","293","355"
"","psychophysics","73","383376","0.0-73.0","5eb070eb793af1113c01e244","64de8058210e70a94b84de2f","","","","","4260",""," ","key"," ","16.666614173228375","500","250","pog","290","2","0","0","0","372","312"
"","psychophysics","74","388313","0.0-74.0","5eb070eb793af1113c01e244","64de8058210e70a94b84de2f","","","","","4935",""," ","key"," ","16.66664406779672","500","250","pog","295","2","0","0","0","391","314"
"","psychophysics","75","391547","0.0-75.0","5eb070eb793af1113c01e244","64de8058210e70a94b84de2f","","","","","3232",""," ","key"," ","16.666701030927968","500","250","pog","305","2","0","0","0","287","327"
"","psychophysics","76","392554","0.0-76.0","5eb070eb793af1113c01e244","64de8058210e70a94b84de2f","","","","","1005",""," ","key"," ","16.666779661017383","500","250","inst","","","","","","",""
"","psychophysics","77","394108","0.0-77.0","5eb070eb793af1113c01e244","64de8058210e70a94b84de2f","","","","","1553",""," ","key"," ","16.66673913043506","500","250","instPzPre","50","0","","","","50","50"
"","psychophysics","78","396492","0.0-78.0","5eb070eb793af1113c01e244","64de8058210e70a94b84de2f","","","","","2382",""," ","key"," ","16.666619718310088","500","250","instPz0","50","2","","","","50","50"
"","psychophysics","79","404947","0.0-79.0","5eb070eb793af1113c01e244","64de8058210e70a94b84de2f","","","","","8455",""," ","key"," ","16.666627218934874","500","250","instPz1","44","2","","","","25","50"
"","psychophysics","80","407181","0.0-80.0","5eb070eb793af1113c01e244","64de8058210e70a94b84de2f","","","","","2232",""," ","key"," ","16.66661654135319","500","250","instPz2","31","2","","","","20","35"
"","psychophysics","81","412304","0.0-81.0","5eb070eb793af1113c01e244","64de8058210e70a94b84de2f","","","","","5121",""," ","key"," ","16.666666666666668","500","250","instPz3","30","2","","","","30","100"
"","psychophysics","82","418256","0.0-82.0","5eb070eb793af1113c01e244","64de8058210e70a94b84de2f","","","","","5950",""," ","key"," ","16.666629213483002","500","250","instPz4","49","2","","","","30","100"
"","psychophysics","83","419206","0.0-83.0","5eb070eb793af1113c01e244","64de8058210e70a94b84de2f","","","","","946",""," ","key"," ","16.666785714285133","500","250","inst","","","","","","",""
"","psychophysics","84","422866","0.0-84.0","5eb070eb793af1113c01e244","64de8058210e70a94b84de2f","","","","","3657",""," ","key"," ","16.666666666666668","500","250","pz","32","2","0","","","49","49"
"","psychophysics","85","425390","0.0-85.0","5eb070eb793af1113c01e244","64de8058210e70a94b84de2f","","","","","2521",""," ","key"," ","16.666666666666668","500","250","pz","16","2","0","","","23","27"
"","psychophysics","86","428888","0.0-86.0","5eb070eb793af1113c01e244","64de8058210e70a94b84de2f","","","","","3496",""," ","key"," ","16.66660287081343","500","250","pz","27","2","0","","","48","50"
"","psychophysics","87","431574","0.0-87.0","5eb070eb793af1113c01e244","64de8058210e70a94b84de2f","","","","","2684",""," ","key"," ","16.666625000000202","500","250","pz","23","2","0","","","28","34"
"","psychophysics","88","433993","0.0-88.0","5eb070eb793af1113c01e244","64de8058210e70a94b84de2f","","","","","2418",""," ","key"," ","16.666666666666668","500","250","pz","27","2","0","","","33","46"
"","psychophysics","89","436802","0.0-89.0","5eb070eb793af1113c01e244","64de8058210e70a94b84de2f","","","","","2803",""," ","key"," ","16.666666666666668","500","250","pz","29","2","0","","","55","46"
"","psychophysics","90","439720","0.0-90.0","5eb070eb793af1113c01e244","64de8058210e70a94b84de2f","","","","","2916",""," ","key"," ","16.666666666666668","500","250","pz","32","2","0","","","59","49"
"","psychophysics","91","442220","0.0-91.0","5eb070eb793af1113c01e244","64de8058210e70a94b84de2f","","","","","2499",""," ","key"," ","16.666711409395756","500","250","pz","34","2","0","","","48","60"
"","psychophysics","92","444736","0.0-92.0","5eb070eb793af1113c01e244","64de8058210e70a94b84de2f","","","","","2514",""," ","key"," ","16.666666666666668","500","250","pz","27","2","0","","","39","33"
"","psychophysics","93","448568","0.0-93.0","5eb070eb793af1113c01e244","64de8058210e70a94b84de2f","","","","","3830",""," ","key"," ","16.666724890829663","500","250","pz","28","2","0","","","53","46"
"","psychophysics","94","451010","0.0-94.0","5eb070eb793af1113c01e244","64de8058210e70a94b84de2f","","","","","2440",""," ","key"," ","16.666620689654994","500","250","pz","25","2","0","","","34","43"
"","psychophysics","95","453465","0.0-95.0","5eb070eb793af1113c01e244","64de8058210e70a94b84de2f","","","","","2454",""," ","key"," ","16.666666666666668","500","250","pz","15","2","0","","","29","23"
"","psychophysics","96","455450","0.0-96.0","5eb070eb793af1113c01e244","64de8058210e70a94b84de2f","","","","","1983",""," ","key"," ","16.666610169491307","500","250","pz","18","2","0","","","22","42"
"","psychophysics","97","458290","0.0-97.0","5eb070eb793af1113c01e244","64de8058210e70a94b84de2f","","","","","2838",""," ","key"," ","16.666627218935105","500","250","pz","25","2","0","","","39","49"
"","psychophysics","98","461855","0.0-98.0","5eb070eb793af1113c01e244","64de8058210e70a94b84de2f","","","","","3564",""," ","key"," ","16.666572769952964","500","250","pz","25","2","0","","","44","33"
"","psychophysics","99","462973","0.0-99.0","5eb070eb793af1113c01e244","64de8058210e70a94b84de2f","","","","","1118",""," ","key"," ","16.666666666666668","500","250","inst","","","","","","",""
"","psychophysics","100","464414","0.0-100.0","5eb070eb793af1113c01e244","64de8058210e70a94b84de2f","","","","","1439",""," ","key"," ","16.66651162790706","500","250","instEB0","40","1","","0","0","40","40"
"","psychophysics","101","471692","0.0-101.0","5eb070eb793af1113c01e244","64de8058210e70a94b84de2f","","","","","7276",""," ","key"," ","16.666666666666668","500","250","instEB1","30","1","","0","0","40","30"
"","psychophysics","102","476863","0.0-102.0","5eb070eb793af1113c01e244","64de8058210e70a94b84de2f","","","","","5170",""," ","key"," ","16.6666019417477","500","250","instEB2","30","1","","0","0","30","40"
"","psychophysics","103","484186","0.0-103.0","5eb070eb793af1113c01e244","64de8058210e70a94b84de2f","","","","","7315",""," ","key"," ","16.666651480637753","500","250","instEB3","41","1","","0","0","27","45"
"","psychophysics","104","486966","0.0-104.0","5eb070eb793af1113c01e244","64de8058210e70a94b84de2f","","","","","2777",""," ","key"," ","16.666746987951765","500","250","instEB4","27","1","","0","0","40","30"
"","psychophysics","105","488406","0.0-105.0","5eb070eb793af1113c01e244","64de8058210e70a94b84de2f","","","","","1438",""," ","key"," ","16.6665882352945","500","250","inst","","","","","","",""
"","psychophysics","106","491868","0.0-106.0","5eb070eb793af1113c01e244","64de8058210e70a94b84de2f","","","","","3459",""," ","key"," ","16.666666666666668","500","250","eb","52","1","","0","0","39","53"
"","psychophysics","107","493770","0.0-107.0","5eb070eb793af1113c01e244","64de8058210e70a94b84de2f","","","","","1899",""," ","key"," ","16.666725663717042","500","250","eb","41","1","","0","0","35","45"
"","psychophysics","108","495906","0.0-108.0","5eb070eb793af1113c01e244","64de8058210e70a94b84de2f","","","","","2134",""," ","key"," ","16.666614173228602","500","250","eb","37","1","","0","0","27","44"
"","psychophysics","109","497715","0.0-109.0","5eb070eb793af1113c01e244","64de8058210e70a94b84de2f","","","","","1806",""," ","key"," ","16.666666666666668","500","250","eb","36","1","","0","0","35","35"
"","psychophysics","110","499865","0.0-110.0","5eb070eb793af1113c01e244","64de8058210e70a94b84de2f","","","","","2149",""," ","key"," ","16.666718749999745","500","250","eb","41","1","","0","0","27","44"
"","psychophysics","111","502348","0.0-111.0","5eb070eb793af1113c01e244","64de8058210e70a94b84de2f","","","","","2480",""," ","key"," ","16.66662162162145","500","250","eb","36","1","","0","0","54","39"
"","psychophysics","112","504614","0.0-112.0","5eb070eb793af1113c01e244","64de8058210e70a94b84de2f","","","","","2265",""," ","key"," ","16.666666666666668","500","250","eb","22","1","","0","0","34","28"
"","psychophysics","113","506734","0.0-113.0","5eb070eb793af1113c01e244","64de8058210e70a94b84de2f","","","","","2117",""," ","key"," ","16.666666666666668","500","250","eb","29","1","","0","0","28","39"
"","psychophysics","114","508849","0.0-114.0","5eb070eb793af1113c01e244","64de8058210e70a94b84de2f","","","","","2114",""," ","key"," ","16.666666666666668","500","250","eb","33","1","","0","0","39","43"
"","psychophysics","115","511526","0.0-115.0","5eb070eb793af1113c01e244","64de8058210e70a94b84de2f","","","","","2676",""," ","key"," ","16.666666666666668","500","250","eb","23","1","","0","0","50","29"
"","psychophysics","116","514008","0.0-116.0","5eb070eb793af1113c01e244","64de8058210e70a94b84de2f","","","","","2480",""," ","key"," ","16.66648648648619","500","250","eb","23","1","","0","0","45","29"
"","psychophysics","117","515954","0.0-117.0","5eb070eb793af1113c01e244","64de8058210e70a94b84de2f","","","","","1945",""," ","key"," ","16.666551724137488","500","250","eb","48","1","","0","0","48","51"
"","psychophysics","118","518284","0.0-118.0","5eb070eb793af1113c01e244","64de8058210e70a94b84de2f","","","","","2328",""," ","key"," ","16.666618705035788","500","250","eb","20","1","","0","0","33","26"
"","psychophysics","119","520568","0.0-119.0","5eb070eb793af1113c01e244","64de8058210e70a94b84de2f","","","","","2282",""," ","key"," ","16.66676470588273","500","250","eb","27","1","","0","0","36","34"
"","psychophysics","120","522754","0.0-120.0","5eb070eb793af1113c01e244","64de8058210e70a94b84de2f","","","","","2185",""," ","key"," ","16.666615384615188","500","250","eb","22","1","","0","0","27","26"
"","psychophysics","121","535126","0.0-121.0","5eb070eb793af1113c01e244","64de8058210e70a94b84de2f","","","","","12370",""," ","key"," ","16.666666666666668","500","250","inst","","","","","","",""
"","psychophysics","122","540621","0.0-122.0","5eb070eb793af1113c01e244","64de8058210e70a94b84de2f","","","","","5494",""," ","key"," ","16.66668693009144","500","250","instPog0","160","1","","0","0","190","160"
"","psychophysics","123","553248","0.0-123.0","5eb070eb793af1113c01e244","64de8058210e70a94b84de2f","","","","","12626",""," ","key"," ","16.666605019815208","500","250","instPog1","166","1","","0","0","190","160"
"","psychophysics","124","556459","0.0-124.0","5eb070eb793af1113c01e244","64de8058210e70a94b84de2f","","","","","3212",""," ","key"," ","16.666701570681067","500","250","instPog2","176","1","","0","0","160","160"
"","psychophysics","125","558847","0.0-125.0","5eb070eb793af1113c01e244","64de8058210e70a94b84de2f","","","","","2385",""," ","key"," ","16.666713286713872","500","250","inst","","","","","","",""
"","psychophysics","126","561082","0.0-126.0","5eb070eb793af1113c01e244","64de8058210e70a94b84de2f","","","","","2233",""," ","key"," ","16.66661654135363","500","250","pog","183","1","1","0","0","171","163"
"","psychophysics","127","564358","0.0-127.0","5eb070eb793af1113c01e244","64de8058210e70a94b84de2f","","","","","3275",""," ","key"," ","16.666666666666668","500","250","pog","205","1","1","0","0","107","191"
"","psychophysics","128","566097","0.0-128.0","5eb070eb793af1113c01e244","64de8058210e70a94b84de2f","","","","","1738",""," ","key"," ","16.666730769231574","500","250","pog","165","1","1","0","0","177","140"
"","psychophysics","129","568684","0.0-129.0","5eb070eb793af1113c01e244","64de8058210e70a94b84de2f","","","","","2586",""," ","key"," ","16.666623376623587","500","250","pog","192","1","1","0","0","132","164"
"","psychophysics","130","570644","0.0-130.0","5eb070eb793af1113c01e244","64de8058210e70a94b84de2f","","","","","1958",""," ","key"," ","16.666551724137488","500","250","pog","216","1","1","0","0","206","196"
"","psychophysics","131","573326","0.0-131.0","5eb070eb793af1113c01e244","64de8058210e70a94b84de2f","","","","","2678",""," ","key"," ","16.666624999999478","500","250","pog","167","1","1","0","0","133","146"
"","psychophysics","132","580210","0.0-132.0","5eb070eb793af1113c01e244","64de8058210e70a94b84de2f","","","","","6877",""," ","key"," ","16.666699029126338","500","250","pog","207","1","1","0","0","151","189"
"","psychophysics","133","581781","0.0-133.0","5eb070eb793af1113c01e244","64de8058210e70a94b84de2f","","","","","1568",""," ","key"," ","16.6665957446812","500","250","pog","194","1","1","0","0","186","179"
"","psychophysics","134","584260","0.0-134.0","5eb070eb793af1113c01e244","64de8058210e70a94b84de2f","","","","","2477",""," ","key"," ","16.666666666666668","500","250","pog","179","1","1","0","0","145","161"
"","psychophysics","135","586820","0.0-135.0","5eb070eb793af1113c01e244","64de8058210e70a94b84de2f","","","","","2558",""," ","key"," ","16.666666666666668","500","250","pog","184","1","1","0","0","124","160"
"","psychophysics","136","590386","0.0-136.0","5eb070eb793af1113c01e244","64de8058210e70a94b84de2f","","","","","3564",""," ","key"," ","16.66647887323926","500","250","pog","161","1","1","0","0","179","130"
"","psychophysics","137","593220","0.0-137.0","5eb070eb793af1113c01e244","64de8058210e70a94b84de2f","","","","","2832",""," ","key"," ","16.666627218935105","500","250","pog","200","1","1","0","0","158","168"
"","psychophysics","138","594843","0.0-138.0","5eb070eb793af1113c01e244","64de8058210e70a94b84de2f","","","","","1622",""," ","key"," ","16.666666666666668","500","250","pog","219","1","1","0","0","211","190"
"","psychophysics","139","597052","0.0-139.0","5eb070eb793af1113c01e244","64de8058210e70a94b84de2f","","","","","2204",""," ","key"," ","16.666666666666668","500","250","pog","138","1","1","0","0","150","122"
"","psychophysics","140","600164","0.0-140.0","5eb070eb793af1113c01e244","64de8058210e70a94b84de2f","","","","","3111",""," ","key"," ","16.666666666666668","500","250","pog","186","1","1","0","0","108","155"
"","psychophysics","141","603116","0.0-141.0","5eb070eb793af1113c01e244","64de8058210e70a94b84de2f","","","","","2950",""," ","key"," ","16.66659090909128","500","250","inst","","","","","","",""
"","psychophysics","142","607198","0.0-142.0","5eb070eb793af1113c01e244","64de8058210e70a94b84de2f","","","","","4080",""," ","key"," ","16.66663934426243","500","250","instBr3","22","2","","0","0","40","300"
"","psychophysics","143","608372","0.0-143.0","5eb070eb793af1113c01e244","64de8058210e70a94b84de2f","","","","","1172",""," ","key"," ","16.666666666666668","500","250","inst","","","","","","",""
"","psychophysics","144","611208","0.0-144.0","5eb070eb793af1113c01e244","64de8058210e70a94b84de2f","","","","","2835",""," ","key"," ","16.666627218935105","500","250","br","28","2","1","30","-18","-12","277"
"","psychophysics","145","613268","0.0-145.0","5eb070eb793af1113c01e244","64de8058210e70a94b84de2f","","","","","2059",""," ","key"," ","16.666666666666668","500","250","br","33","2","1","-17","-10","12","290"
"","psychophysics","146","615892","0.0-146.0","5eb070eb793af1113c01e244","64de8058210e70a94b84de2f","","","","","2623",""," ","key"," ","16.666666666666668","500","250","br","29","2","1","-11","-20","-8","247"
"","psychophysics","147","623898","0.0-147.0","5eb070eb793af1113c01e244","64de8058210e70a94b84de2f","","","","","null","","null","key","null","16.666666666666668","500","250","br","12","2","1","-2","22","-9","282"
"","psychophysics","148","624398","0.0-148.0","5eb070eb793af1113c01e244","64de8058210e70a94b84de2f","","","","","498",""," ","key"," ","16.666896551723013","500","250","br","22","2","1","7","11","20","258"
"","psychophysics","149","627382","0.0-149.0","5eb070eb793af1113c01e244","64de8058210e70a94b84de2f","","","","","2983",""," ","key"," ","16.66674157303334","500","250","br","19","2","1","-22","18","-21","221"
"","psychophysics","150","630108","0.0-150.0","5eb070eb793af1113c01e244","64de8058210e70a94b84de2f","","","","","2724",""," ","key"," ","16.666666666666668","500","250","br","20","2","1","11","14","-18","293"
"","psychophysics","151","632502","0.0-151.0","5eb070eb793af1113c01e244","64de8058210e70a94b84de2f","","","","","2392",""," ","key"," ","16.66657342657307","500","250","br","23","2","1","-14","-2","-11","260"
"","psychophysics","152","634580","0.0-152.0","5eb070eb793af1113c01e244","64de8058210e70a94b84de2f","","","","","2073",""," ","key"," ","16.666774193547862","500","250","br","12","2","1","2","-24","28","241"
"","psychophysics","153","636215","0.0-153.0","5eb070eb793af1113c01e244","64de8058210e70a94b84de2f","","","","","1632",""," ","key"," ","16.666597938144665","500","250","br","23","2","1","-29","-28","17","248"
"","psychophysics","154","638797","0.0-154.0","5eb070eb793af1113c01e244","64de8058210e70a94b84de2f","","","","","2579",""," ","key"," ","16.666623376623587","500","250","br","9","2","1","30","-14","-30","259"
"","psychophysics","155","640986","0.0-155.0","5eb070eb793af1113c01e244","64de8058210e70a94b84de2f","","","","","2187",""," ","key"," ","16.66676923076873","500","250","br","6","2","1","-5","20","25","292"
"","psychophysics","156","643258","0.0-156.0","5eb070eb793af1113c01e244","64de8058210e70a94b84de2f","","","","","2270",""," ","key"," ","16.666666666666668","500","250","br","19","2","1","-29","28","-4","227"
"","psychophysics","157","645250","0.0-157.0","5eb070eb793af1113c01e244","64de8058210e70a94b84de2f","","","","","1990",""," ","key"," ","16.666722689075357","500","250","br","21","2","1","2","-21","21","211"
"","psychophysics","158","647139","0.0-158.0","5eb070eb793af1113c01e244","64de8058210e70a94b84de2f","","","","","1888",""," ","key"," ","16.666607142857433","500","250","br","21","2","1","-10","-26","12","203"
"","psychophysics","159","671409","0.0-159.0","5eb070eb793af1113c01e244","64de8058210e70a94b84de2f","","","","","24267",""," ","key"," ","16.666652920962186","500","250","inst","","","","","","",""
"","psychophysics","160","679128","0.0-160.0","5eb070eb793af1113c01e244","64de8058210e70a94b84de2f","","","","","7718",""," ","key"," ","16.666666666666668","500","250","instZol1","0.19999999999999982","","","0","0","-1.3",""
"","psychophysics","161","686148","0.0-161.0","5eb070eb793af1113c01e244","64de8058210e70a94b84de2f","","","","","7015",""," ","key"," ","16.66665083135372","500","250","instZol2","1.6000000000000012","1","","0","0","2",""
"","psychophysics","162","687148","0.0-162.0","5eb070eb793af1113c01e244","64de8058210e70a94b84de2f","","","","","999",""," ","key"," ","16.666440677965234","500","250","inst","","","","","","",""
"","psychophysics","163","691126","0.0-163.0","5eb070eb793af1113c01e244","64de8058210e70a94b84de2f","","","","","3975",""," ","key"," ","16.666666666666668","500","250","zol","1.31","1","1","-8","16","-0.31",""
"","psychophysics","164","693544","0.0-164.0","5eb070eb793af1113c01e244","64de8058210e70a94b84de2f","","","","","2416",""," ","key"," ","16.666666666666668","500","250","zol","1.5100000000000005","1","1","17","24","-0.71",""
"","psychophysics","165","697531","0.0-165.0","5eb070eb793af1113c01e244","64de8058210e70a94b84de2f","","","","","3982",""," ","key"," ","16.666694560669807","500","250","zol","0.8899999999999999","1","1","6","-12","0.51",""
"","psychophysics","166","701476","0.0-166.0","5eb070eb793af1113c01e244","64de8058210e70a94b84de2f","","","","","3943",""," ","key"," ","16.66672340425554","500","250","zol","0.74","1","1","3","9","0.16",""
"","psychophysics","167","703898","0.0-167.0","5eb070eb793af1113c01e244","64de8058210e70a94b84de2f","","","","","2421",""," ","key"," ","16.666620689654593","500","250","zol","1.1300000000000001","1","1","7","-10","-0.03",""
"","psychophysics","168","706242","0.0-168.0","5eb070eb793af1113c01e244","64de8058210e70a94b84de2f","","","","","2341",""," ","key"," ","16.666618705036207","500","250","zol","1.5300000000000002","1","1","15","-29","0.67",""
"","psychophysics","169","709916","0.0-169.0","5eb070eb793af1113c01e244","64de8058210e70a94b84de2f","","","","","3672",""," ","key"," ","16.666727272726977","500","250","zol","1.6600000000000006","1","1","-22","27","-0.66",""
"","psychophysics","170","712734","0.0-170.0","5eb070eb793af1113c01e244","64de8058210e70a94b84de2f","","","","","2817",""," ","key"," ","16.666666666666668","500","250","zol","1.3200000000000003","1","1","29","12","-0.32",""
"","psychophysics","171","715072","0.0-171.0","5eb070eb793af1113c01e244","64de8058210e70a94b84de2f","","","","","2337",""," ","key"," ","16.66676258992759","500","250","zol","1.6600000000000006","1","1","-26","5","-0.46",""
"","psychophysics","172","717281","0.0-172.0","5eb070eb793af1113c01e244","64de8058210e70a94b84de2f","","","","","2207",""," ","key"," ","16.666666666666668","500","250","zol","1.2300000000000002","1","1","28","24","0.27",""
"","psychophysics","173","719208","0.0-173.0","5eb070eb793af1113c01e244","64de8058210e70a94b84de2f","","","","","1925",""," ","key"," ","16.6668421052623","500","250","zol","1.4500000000000004","1","1","-26","-9","-0.45",""
"","psychophysics","174","722774","0.0-174.0","5eb070eb793af1113c01e244","64de8058210e70a94b84de2f","","","","","3566",""," ","key"," ","16.666666666666668","500","250","zol","1.4400000000000004","1","1","20","6","-0.04",""
"","psychophysics","175","725001","0.0-175.0","5eb070eb793af1113c01e244","64de8058210e70a94b84de2f","","","","","2224",""," ","key"," ","16.666766917293618","500","250","zol","1.11","1","1","19","-21","0.59",""
"","psychophysics","176","727136","0.0-176.0","5eb070eb793af1113c01e244","64de8058210e70a94b84de2f","","","","","2134",""," ","key"," ","16.666614173227686","500","250","zol","1.7900000000000005","1","1","-24","-2","-0.69",""
"","psychophysics","177","730474","0.0-177.0","5eb070eb793af1113c01e244","64de8058210e70a94b84de2f","","","","","3336",""," ","key"," ","16.66663316582931","500","250","zol","0.87","1","1","-21","-15","0.43",""
"","psychophysics","178","732494","0.0-178.0","5eb070eb793af1113c01e244","64de8058210e70a94b84de2f","","","","","2018",""," ","key"," ","16.666666666666668","500","250","inst","","","","","","",""
"","psychophysics","179","741514","0.0-179.0","5eb070eb793af1113c01e244","64de8058210e70a94b84de2f","","","","","9014",""," ","key"," ","16.66661737523108","500","250","instEB1","41","2","","0","0","30","40"
"","psychophysics","180","745582","0.0-180.0","5eb070eb793af1113c01e244","64de8058210e70a94b84de2f","","","","","4064",""," ","key"," ","16.666666666666668","500","250","instEB2","33","2","","0","0","40","30"
"","psychophysics","181","748100","0.0-181.0","5eb070eb793af1113c01e244","64de8058210e70a94b84de2f","","","","","2515",""," ","key"," ","16.666666666666668","500","250","instEB3","33","2","","0","0","45","27"
"","psychophysics","182","751108","0.0-182.0","5eb070eb793af1113c01e244","64de8058210e70a94b84de2f","","","","","3005",""," ","key"," ","16.666592178770664","500","250","instEB4","47","2","","0","0","30","40"
"","psychophysics","183","752710","0.0-183.0","5eb070eb793af1113c01e244","64de8058210e70a94b84de2f","","","","","1601",""," ","key"," ","16.666526315788936","500","250","inst","","","","","","",""
"","psychophysics","184","758513","0.0-184.0","5eb070eb793af1113c01e244","64de8058210e70a94b84de2f","","","","","5798",""," ","key"," ","16.666666666666668","500","250","eb","39","2","","0","0","49","28"
"","psychophysics","185","766997","0.0-185.0","5eb070eb793af1113c01e244","64de8058210e70a94b84de2f","","","","","null","","null","key","null","16.666653543307152","500","250","eb","34","2","","0","0","35","47"
"","psychophysics","186","775130","0.0-186.0","5eb070eb793af1113c01e244","64de8058210e70a94b84de2f","","","","","null","","null","key","null","16.666694045174403","500","250","eb","43","2","","0","0","43","49"
"","psychophysics","187","783263","0.0-187.0","5eb070eb793af1113c01e244","64de8058210e70a94b84de2f","","","","","null","","null","key","null","16.6666529774128","500","250","eb","50","2","","0","0","50","34"
"","psychophysics","188","791396","0.0-188.0","5eb070eb793af1113c01e244","64de8058210e70a94b84de2f","","","","","null","","null","key","null","16.6666529774128","500","250","eb","51","2","","0","0","51","24"
"","psychophysics","189","799587","0.0-189.0","5eb070eb793af1113c01e244","64de8058210e70a94b84de2f","","","","","null","","null","key","null","16.666612244897987","500","250","eb","30","2","","0","0","30","47"
"","psychophysics","190","807651","0.0-190.0","5eb070eb793af1113c01e244","64de8058210e70a94b84de2f","","","","","null","","null","key","null","16.666666666666668","500","250","eb","43","2","","0","0","32","36"
"","psychophysics","191","808910","0.0-191.0","5eb070eb793af1113c01e244","64de8058210e70a94b84de2f","","","","","1242",""," ","key"," ","16.666756756757888","500","250","eb","48","2","","0","0","48","45"
"","psychophysics","192","812508","0.0-192.0","5eb070eb793af1113c01e244","64de8058210e70a94b84de2f","","","","","3594",""," ","key"," ","16.666697674418995","500","250","eb","38","2","","0","0","48","32"
"","psychophysics","193","816986","0.0-193.0","5eb070eb793af1113c01e244","64de8058210e70a94b84de2f","","","","","4476",""," ","key"," ","16.66671641791064","500","250","eb","58","2","","0","0","41","49"
"","psychophysics","194","821978","0.0-194.0","5eb070eb793af1113c01e244","64de8058210e70a94b84de2f","","","","","4990",""," ","key"," ","16.666711409395756","500","250","eb","35","2","","0","0","24","24"
"","psychophysics","195","826024","0.0-195.0","5eb070eb793af1113c01e244","64de8058210e70a94b84de2f","","","","","4039",""," ","key"," ","16.6666942148759","500","250","eb","53","2","","0","0","40","39"
"","psychophysics","196","827954","0.0-196.0","5eb070eb793af1113c01e244","64de8058210e70a94b84de2f","","","","","1928",""," ","key"," ","16.6667826086961","500","250","eb","34","2","","0","0","34","24"
"","psychophysics","197","829100","0.0-197.0","5eb070eb793af1113c01e244","64de8058210e70a94b84de2f","","","","","1144",""," ","key"," ","16.666764705883587","500","250","eb","45","2","","0","0","45","34"
"","psychophysics","198","830201","0.0-198.0","5eb070eb793af1113c01e244","64de8058210e70a94b84de2f","","","","","1100",""," ","key"," ","16.66676923077052","500","250","eb","41","2","","0","0","41","33"
"","psychophysics","199","852260","0.0-199.0","5eb070eb793af1113c01e244","64de8058210e70a94b84de2f","","","","","22057",""," ","key"," ","16.66665658093802","500","250","inst","","","","","","",""
"","psychophysics","200","962150","0.0-200.0","5eb070eb793af1113c01e244","64de8058210e70a94b84de2f","","","","","109886",""," ","key"," ","16.666649476717744","500","250","instPz1","58","1","","","","25","50"
"","psychophysics","201","968352","0.0-201.0","5eb070eb793af1113c01e244","64de8058210e70a94b84de2f","","","","","6200",""," ","key"," ","16.666684636118823","500","250","instPz2","27","1","","","","35","20"
"","psychophysics","202","972660","0.0-202.0","5eb070eb793af1113c01e244","64de8058210e70a94b84de2f","","","","","4306",""," ","key"," ","16.66669260700422","500","250","instPz3","64","1","","","","100","30"
"","psychophysics","203","981547","0.0-203.0","5eb070eb793af1113c01e244","64de8058210e70a94b84de2f","","","","","8885",""," ","key"," ","16.666641651032016","500","250","instPz4","67","1","","","","100","30"
"","psychophysics","204","982724","0.0-204.0","5eb070eb793af1113c01e244","64de8058210e70a94b84de2f","","","","","1176",""," ","key"," ","16.666666666666668","500","250","inst","","","","","","",""
"","psychophysics","205","985116","0.0-205.0","5eb070eb793af1113c01e244","64de8058210e70a94b84de2f","","","","","2390",""," ","key"," ","16.66657342657307","500","250","pz","41","1","1","","","34","22"
"","psychophysics","206","990652","0.0-206.0","5eb070eb793af1113c01e244","64de8058210e70a94b84de2f","","","","","5533",""," ","key"," ","16.666646525679855","500","250","pz","51","1","1","","","33","40"
"","psychophysics","207","995326","0.0-207.0","5eb070eb793af1113c01e244","64de8058210e70a94b84de2f","","","","","4672",""," ","key"," ","16.666666666666668","500","250","pz","38","1","1","","","42","25"
"","psychophysics","208","998698","0.0-208.0","5eb070eb793af1113c01e244","64de8058210e70a94b84de2f","","","","","3371",""," ","key"," ","16.666534653465416","500","250","pz","76","1","1","","","43","47"
"","psychophysics","209","1002013","0.0-209.0","5eb070eb793af1113c01e244","64de8058210e70a94b84de2f","","","","","3313",""," ","key"," ","16.666666666666668","500","250","pz","69","1","1","","","23","50"
"","psychophysics","210","1005380","0.0-210.0","5eb070eb793af1113c01e244","64de8058210e70a94b84de2f","","","","","3365",""," ","key"," ","16.666666666666668","500","250","pz","51","1","1","","","57","41"
"","psychophysics","211","1009276","0.0-211.0","5eb070eb793af1113c01e244","64de8058210e70a94b84de2f","","","","","3894",""," ","key"," ","16.66663793103462","500","250","pz","85","1","1","","","27","54"
"","psychophysics","212","1011820","0.0-212.0","5eb070eb793af1113c01e244","64de8058210e70a94b84de2f","","","","","2542",""," ","key"," ","16.66671052631634","500","250","pz","60","1","1","","","41","42"
"","psychophysics","213","1015547","0.0-213.0","5eb070eb793af1113c01e244","64de8058210e70a94b84de2f","","","","","3726",""," ","key"," ","16.66672645739933","500","250","pz","32","1","1","","","44","22"
"","psychophysics","214","1019713","0.0-214.0","5eb070eb793af1113c01e244","64de8058210e70a94b84de2f","","","","","4165",""," ","key"," ","16.666666666666668","500","250","pz","84","1","1","","","20","56"
"","psychophysics","215","1022804","0.0-215.0","5eb070eb793af1113c01e244","64de8058210e70a94b84de2f","","","","","3089",""," ","key"," ","16.66673913043506","500","250","pz","60","1","1","","","21","51"
"","psychophysics","216","1026120","0.0-216.0","5eb070eb793af1113c01e244","64de8058210e70a94b84de2f","","","","","3315",""," ","key"," ","16.666666666666668","500","250","pz","37","1","1","","","43","27"
"","psychophysics","217","1028372","0.0-217.0","5eb070eb793af1113c01e244","64de8058210e70a94b84de2f","","","","","2250",""," ","key"," ","16.666716417911072","500","250","pz","77","1","1","","","54","52"
"","psychophysics","218","1031121","0.0-218.0","5eb070eb793af1113c01e244","64de8058210e70a94b84de2f","","","","","2746",""," ","key"," ","16.666463414634432","500","250","pz","56","1","1","","","38","38"
"","psychophysics","219","1033696","0.0-219.0","5eb070eb793af1113c01e244","64de8058210e70a94b84de2f","","","","","2570",""," ","key"," ","16.666623376623587","500","250","pz","55","1","1","","","22","38"
