"success","trial_type","trial_index","time_elapsed","internal_node_id","pid","sid","timeout","failed_images","failed_audio","failed_video","rt","stimulus","response","response_type","key_press","avg_frame_time","center_x","center_y","task","resp","start","parA","version","block","jitterX","jitterY"
"true","fullscreen","0","2464","0.0-0.0","631b78bbf2d7cf01ed3eb992","64e50c14c345d8acabf0ac71","","","","","","","","","","","","","","","","","","","",""
"true","preload","1","2638","0.0-1.0","631b78bbf2d7cf01ed3eb992","64e50c14c345d8acabf0ac71","false","[]","[]","[]","","","","","","","","","","","","","","","",""
"","html-button-response","2","3751","0.0-2.0","631b78bbf2d7cf01ed3eb992","64e50c14c345d8acabf0ac71","","","","","1114","Please Make Sure Your Audio Is On.","0","","","","","","","","","","","","",""
"","psychophysics","3","6981","0.0-3.0","631b78bbf2d7cf01ed3eb992","64e50c14c345d8acabf0ac71","","","","","3225",""," ","key"," ","6.9409032258064505","960","250","","","","","","","",""
"","psychophysics","4","9068","0.0-4.0","631b78bbf2d7cf01ed3eb992","64e50c14c345d8acabf0ac71","","","","","2085",""," ","key"," ","6.9514381270903","500","250","inst","","","","","","",""
"","psychophysics","5","12243","0.0-5.0","631b78bbf2d7cf01ed3eb992","64e50c14c345d8acabf0ac71","","","","","3172",""," ","key"," ","6.951096491228068","500","250","sample0","","","","","","",""
"","psychophysics","6","14166","0.0-6.0","631b78bbf2d7cf01ed3eb992","64e50c14c345d8acabf0ac71","","","","","1921",""," ","key"," ","6.951345454545451","500","250","sample1","","","","","","",""
"","psychophysics","7","28136","0.0-7.0","631b78bbf2d7cf01ed3eb992","64e50c14c345d8acabf0ac71","","","","","13966",""," ","key"," ","6.951239422598308","500","250","sample2","102","","","","","",""
"","psychophysics","8","32121","0.0-8.0","631b78bbf2d7cf01ed3eb992","64e50c14c345d8acabf0ac71","","","","","3984",""," ","key"," ","6.950979020979026","500","250","sample3","134","","","","","",""
"","psychophysics","9","39915","0.0-9.0","631b78bbf2d7cf01ed3eb992","64e50c14c345d8acabf0ac71","","","","","7791",""," ","key"," ","6.9512042818911715","500","250","sample4","100","","","","","",""
"","psychophysics","10","46266","0.0-10.0","631b78bbf2d7cf01ed3eb992","64e50c14c345d8acabf0ac71","","","","","6350",""," ","key"," ","6.951271929824559","500","250","sample5","","","","","","",""
"","psychophysics","11","55091","0.0-11.0","631b78bbf2d7cf01ed3eb992","64e50c14c345d8acabf0ac71","","","","","8821",""," ","key"," ","6.951205673758866","500","250","sample6","498","","","","","",""
"","psychophysics","12","59390","0.0-12.0","631b78bbf2d7cf01ed3eb992","64e50c14c345d8acabf0ac71","","","","","4298",""," ","key"," ","6.951247974068068","500","250","inst","","","","","","",""
"","psychophysics","13","62550","0.0-13.0","631b78bbf2d7cf01ed3eb992","64e50c14c345d8acabf0ac71","","","","","3157",""," ","key"," ","6.9511453744493386","500","250","inst","","","","","","",""
"","psychophysics","14","65139","0.0-14.0","631b78bbf2d7cf01ed3eb992","64e50c14c345d8acabf0ac71","","","","","2588",""," ","key"," ","6.951374663072754","500","250","inst","","","","","","",""
"","psychophysics","15","66493","0.0-15.0","631b78bbf2d7cf01ed3eb992","64e50c14c345d8acabf0ac71","","","","","1350",""," ","key"," ","6.951134020618578","500","250","inst","","","","","","",""
"","psychophysics","16","67697","0.0-16.0","631b78bbf2d7cf01ed3eb992","64e50c14c345d8acabf0ac71","","","","","1202",""," ","key"," ","6.951162790697708","500","250","inst","","","","","","",""
"","psychophysics","17","72589","0.0-17.0","631b78bbf2d7cf01ed3eb992","64e50c14c345d8acabf0ac71","","","","","4889",""," ","key"," ","6.961111111111128","500","250","instPzPre","50","50","50","0","","",""
"","psychophysics","18","75010","0.0-18.0","631b78bbf2d7cf01ed3eb992","64e50c14c345d8acabf0ac71","","","","","2420",""," ","key"," ","6.950662824207506","500","250","instPz0","50","50","50","2","","",""
"","psychophysics","19","83628","0.0-19.0","631b78bbf2d7cf01ed3eb992","64e50c14c345d8acabf0ac71","","","","","8616",""," ","key"," ","6.951202582728013","500","250","instPz1","47","25","50","2","","",""
"","psychophysics","20","89865","0.0-20.0","631b78bbf2d7cf01ed3eb992","64e50c14c345d8acabf0ac71","","","","","6235",""," ","key"," ","6.95118303571428","500","250","instPz2","33","20","35","2","","",""
"","psychophysics","21","100060","0.0-21.0","631b78bbf2d7cf01ed3eb992","64e50c14c345d8acabf0ac71","","","","","10191",""," ","key"," ","6.951186903137791","500","250","instPz3","-76","30","100","2","","",""
"","psychophysics","22","111410","0.0-22.0","631b78bbf2d7cf01ed3eb992","64e50c14c345d8acabf0ac71","","","","","11348",""," ","key"," ","6.951188725490194","500","250","instPz4","-80","30","100","2","","",""
"","psychophysics","23","113307","0.0-23.0","631b78bbf2d7cf01ed3eb992","64e50c14c345d8acabf0ac71","","","","","1895",""," ","key"," ","6.9512500000000195","500","250","inst","","","","","","",""
"","psychophysics","24","117033","0.0-24.0","631b78bbf2d7cf01ed3eb992","64e50c14c345d8acabf0ac71","","","","","3724",""," ","key"," ","6.951289719626173","500","250","pz","33","41","37","2","0","",""
"","psychophysics","25","121504","0.0-25.0","631b78bbf2d7cf01ed3eb992","64e50c14c345d8acabf0ac71","","","","","4468",""," ","key"," ","6.951152647975077","500","250","pz","40","30","51","2","0","",""
"","psychophysics","26","124904","0.0-26.0","631b78bbf2d7cf01ed3eb992","64e50c14c345d8acabf0ac71","","","","","3400",""," ","key"," ","6.9510245901639465","500","250","pz","29","29","27","2","0","",""
"","psychophysics","27","127007","0.0-27.0","631b78bbf2d7cf01ed3eb992","64e50c14c345d8acabf0ac71","","","","","2101",""," ","key"," ","6.974219269102959","500","250","pz","35","30","51","2","0","",""
"","psychophysics","28","133563","0.0-28.0","631b78bbf2d7cf01ed3eb992","64e50c14c345d8acabf0ac71","","","","","6554",""," ","key"," ","6.951316348195329","500","250","pz","35","58","45","2","0","",""
"","psychophysics","29","137220","0.0-29.0","631b78bbf2d7cf01ed3eb992","64e50c14c345d8acabf0ac71","","","","","3655",""," ","key"," ","6.951123809523803","500","250","pz","25","30","27","2","0","",""
"","psychophysics","30","139302","0.0-30.0","631b78bbf2d7cf01ed3eb992","64e50c14c345d8acabf0ac71","","","","","2080",""," ","key"," ","6.951208053691346","500","250","pz","38","35","45","2","0","",""
"","psychophysics","31","144212","0.0-31.0","631b78bbf2d7cf01ed3eb992","64e50c14c345d8acabf0ac71","","","","","4907",""," ","key"," ","6.951218130311611","500","250","pz","39","25","58","2","0","",""
"","psychophysics","32","146665","0.0-32.0","631b78bbf2d7cf01ed3eb992","64e50c14c345d8acabf0ac71","","","","","2452",""," ","key"," ","6.95124999999999","500","250","pz","30","27","33","2","0","",""
"","psychophysics","33","149249","0.0-33.0","631b78bbf2d7cf01ed3eb992","64e50c14c345d8acabf0ac71","","","","","2583",""," ","key"," ","6.951405405405377","500","250","pz","38","33","55","2","0","",""
"","psychophysics","34","153394","0.0-34.0","631b78bbf2d7cf01ed3eb992","64e50c14c345d8acabf0ac71","","","","","4136",""," ","key"," ","6.951140939597274","500","250","pz","52","59","60","2","0","",""
"","psychophysics","35","157676","0.0-35.0","631b78bbf2d7cf01ed3eb992","64e50c14c345d8acabf0ac71","","","","","4279",""," ","key"," ","6.951382113821148","500","250","pz","21","37","23","2","0","",""
"","psychophysics","36","161036","0.0-36.0","631b78bbf2d7cf01ed3eb992","64e50c14c345d8acabf0ac71","","","","","3358",""," ","key"," ","6.951161825726124","500","250","pz","26","31","29","2","0","",""
"","psychophysics","37","164629","0.0-37.0","631b78bbf2d7cf01ed3eb992","64e50c14c345d8acabf0ac71","","","","","3592",""," ","key"," ","6.9513565891472755","500","250","pz","20","29","20","2","0","",""
"","psychophysics","38","169786","0.0-38.0","631b78bbf2d7cf01ed3eb992","64e50c14c345d8acabf0ac71","","","","","5155",""," ","key"," ","6.951228070175459","500","250","pz","36","54","45","2","0","",""
"","psychophysics","39","170843","0.0-39.0","631b78bbf2d7cf01ed3eb992","64e50c14c345d8acabf0ac71","","","","","1054",""," ","key"," ","6.951125827814539","500","250","inst","","","","","","",""
"","psychophysics","40","176273","0.0-40.0","631b78bbf2d7cf01ed3eb992","64e50c14c345d8acabf0ac71","","","","","5429",""," ","key"," ","6.951307692307679","500","250","instPog0","340","370","340","2","","0","0"
"","psychophysics","41","181600","0.0-41.0","631b78bbf2d7cf01ed3eb992","64e50c14c345d8acabf0ac71","","","","","5325",""," ","key"," ","6.951163398692828","500","250","instPog1","336","370","340","2","","0","0"
"","psychophysics","42","185092","0.0-42.0","631b78bbf2d7cf01ed3eb992","64e50c14c345d8acabf0ac71","","","","","3490",""," ","key"," ","6.951354581673281","500","250","instPog2","330","340","340","2","","0","0"
"","psychophysics","43","186642","0.0-43.0","631b78bbf2d7cf01ed3eb992","64e50c14c345d8acabf0ac71","","","","","1547",""," ","key"," ","6.950900900900796","500","250","inst","","","","","","",""
"","psychophysics","44","190313","0.0-44.0","631b78bbf2d7cf01ed3eb992","64e50c14c345d8acabf0ac71","","","","","3668",""," ","key"," ","6.951461100569285","500","250","pog","306","308","325","2","0","0","0"
"","psychophysics","45","195117","0.0-45.0","631b78bbf2d7cf01ed3eb992","64e50c14c345d8acabf0ac71","","","","","4802",""," ","key"," ","6.951188405797112","500","250","pog","295","321","312","2","0","0","0"
"","psychophysics","46","199946","0.0-46.0","631b78bbf2d7cf01ed3eb992","64e50c14c345d8acabf0ac71","","","","","4827",""," ","key"," ","6.951181556196","500","250","pog","354","338","380","2","0","0","0"
"","psychophysics","47","203617","0.0-47.0","631b78bbf2d7cf01ed3eb992","64e50c14c345d8acabf0ac71","","","","","3668",""," ","key"," ","6.951347248576879","500","250","pog","294","380","324","2","0","0","0"
"","psychophysics","48","207498","0.0-48.0","631b78bbf2d7cf01ed3eb992","64e50c14c345d8acabf0ac71","","","","","3879",""," ","key"," ","6.951274685816851","500","250","pog","277","381","303","2","0","0","0"
"","psychophysics","49","213046","0.0-49.0","631b78bbf2d7cf01ed3eb992","64e50c14c345d8acabf0ac71","","","","","5547",""," ","key"," ","6.951242158092829","500","250","pog","296","372","313","2","0","0","0"
"","psychophysics","50","214797","0.0-50.0","631b78bbf2d7cf01ed3eb992","64e50c14c345d8acabf0ac71","","","","","1750",""," ","key"," ","6.951314741035852","500","250","pog","283","283","312","2","0","0","0"
"","psychophysics","51","218332","0.0-51.0","631b78bbf2d7cf01ed3eb992","64e50c14c345d8acabf0ac71","","","","","3533",""," ","key"," ","6.951220472440947","500","250","pog","321","297","354","2","0","0","0"
"","psychophysics","52","223887","0.0-52.0","631b78bbf2d7cf01ed3eb992","64e50c14c345d8acabf0ac71","","","","","5553",""," ","key"," ","6.951027568922285","500","250","pog","307","387","336","2","0","0","0"
"","psychophysics","53","231961","0.0-53.0","631b78bbf2d7cf01ed3eb992","64e50c14c345d8acabf0ac71","","","","","null","","null","key","null","6.9512931034482754","500","250","pog","347","281","373","2","0","0","0"
"","psychophysics","54","232014","0.0-54.0","631b78bbf2d7cf01ed3eb992","64e50c14c345d8acabf0ac71","","","","","48",""," ","key"," ","6.95142857142907","500","250","pog","311","311","342","2","0","0","0"
"","psychophysics","55","235816","0.0-55.0","631b78bbf2d7cf01ed3eb992","64e50c14c345d8acabf0ac71","","","","","3801",""," ","key"," ","6.951282051282041","500","250","pog","346","296","378","2","0","0","0"
"","psychophysics","56","238243","0.0-56.0","631b78bbf2d7cf01ed3eb992","64e50c14c345d8acabf0ac71","","","","","2425",""," ","key"," ","6.9512643678161155","500","250","pog","344","388","373","2","0","0","0"
"","psychophysics","57","239181","0.0-57.0","631b78bbf2d7cf01ed3eb992","64e50c14c345d8acabf0ac71","","","","","936",""," ","key"," ","6.9507462686566726","500","250","pog","309","309","335","2","0","0","0"
"","psychophysics","58","241645","0.0-58.0","631b78bbf2d7cf01ed3eb992","64e50c14c345d8acabf0ac71","","","","","2462",""," ","key"," ","6.951444759206842","500","250","pog","329","315","359","2","0","0","0"
"","psychophysics","59","242396","0.0-59.0","631b78bbf2d7cf01ed3eb992","64e50c14c345d8acabf0ac71","","","","","751",""," ","key"," ","6.951588785046794","500","250","inst","","","","","","",""
"","psychophysics","60","244216","0.0-60.0","631b78bbf2d7cf01ed3eb992","64e50c14c345d8acabf0ac71","","","","","1816",""," ","key"," ","6.951340996168538","500","250","instBr0","0","0","300","","","0","0"
"","psychophysics","61","249846","0.0-61.0","631b78bbf2d7cf01ed3eb992","64e50c14c345d8acabf0ac71","","","","","5630",""," ","key"," ","6.9511990111248325","500","250","instBr1","3","-40","300","","","0","0"
"","psychophysics","62","256422","0.0-62.0","631b78bbf2d7cf01ed3eb992","64e50c14c345d8acabf0ac71","","","","","6575",""," ","key"," ","6.951195767195772","500","250","instBr3","-15","40","300","1","","0","0"
"","psychophysics","63","257148","0.0-63.0","631b78bbf2d7cf01ed3eb992","64e50c14c345d8acabf0ac71","","","","","724",""," ","key"," ","6.95115384615397","500","250","inst","","","","","","",""
"","psychophysics","64","260108","0.0-64.0","631b78bbf2d7cf01ed3eb992","64e50c14c345d8acabf0ac71","","","","","2952",""," ","key"," ","6.950896226415078","500","250","br","-16","18","261","1","0","-14","-27"
"","psychophysics","65","263627","0.0-65.0","631b78bbf2d7cf01ed3eb992","64e50c14c345d8acabf0ac71","","","","","3516",""," ","key"," ","6.951185770750965","500","250","br","-21","13","283","1","0","-3","4"
"","psychophysics","66","267271","0.0-66.0","631b78bbf2d7cf01ed3eb992","64e50c14c345d8acabf0ac71","","","","","3642",""," ","key"," ","6.95131931166344","500","250","br","-11","-21","215","1","0","25","-19"
"","psychophysics","67","269752","0.0-67.0","631b78bbf2d7cf01ed3eb992","64e50c14c345d8acabf0ac71","","","","","2480",""," ","key"," ","6.951123595505552","500","250","br","-18","10","243","1","0","-18","7"
"","psychophysics","68","273119","0.0-68.0","631b78bbf2d7cf01ed3eb992","64e50c14c345d8acabf0ac71","","","","","3365",""," ","key"," ","6.951428571428528","500","250","br","-18","18","256","1","0","26","22"
"","psychophysics","69","276453","0.0-69.0","631b78bbf2d7cf01ed3eb992","64e50c14c345d8acabf0ac71","","","","","3332",""," ","key"," ","6.951607515657635","500","250","br","-20","18","272","1","0","9","-20"
"","psychophysics","70","280009","0.0-70.0","631b78bbf2d7cf01ed3eb992","64e50c14c345d8acabf0ac71","","","","","3554",""," ","key"," ","6.951372549019631","500","250","br","-16","27","236","1","0","18","13"
"","psychophysics","71","283547","0.0-71.0","631b78bbf2d7cf01ed3eb992","64e50c14c345d8acabf0ac71","","","","","3534",""," ","key"," ","6.9513385826771055","500","250","br","-21","19","295","1","0","-15","-5"
"","psychophysics","72","287051","0.0-72.0","631b78bbf2d7cf01ed3eb992","64e50c14c345d8acabf0ac71","","","","","3501",""," ","key"," ","6.951172962226645","500","250","br","-10","-27","262","1","0","1","-13"
"","psychophysics","73","290780","0.0-73.0","631b78bbf2d7cf01ed3eb992","64e50c14c345d8acabf0ac71","","","","","3726",""," ","key"," ","6.9514179104478","500","250","br","-22","22","279","1","0","4","26"
"","psychophysics","74","293329","0.0-74.0","631b78bbf2d7cf01ed3eb992","64e50c14c345d8acabf0ac71","","","","","2547",""," ","key"," ","6.95147540983604","500","250","br","-7","-30","209","1","0","30","-7"
"","psychophysics","75","296598","0.0-75.0","631b78bbf2d7cf01ed3eb992","64e50c14c345d8acabf0ac71","","","","","3268",""," ","key"," ","6.951257995735514","500","250","br","-18","30","273","1","0","26","8"
"","psychophysics","76","300110","0.0-76.0","631b78bbf2d7cf01ed3eb992","64e50c14c345d8acabf0ac71","","","","","3511",""," ","key"," ","6.964970178926451","500","250","br","-17","21","292","1","0","-19","-26"
"","psychophysics","77","302674","0.0-77.0","631b78bbf2d7cf01ed3eb992","64e50c14c345d8acabf0ac71","","","","","2562",""," ","key"," ","6.950978260869464","500","250","br","-19","-8","212","1","0","14","8"
"","psychophysics","78","305945","0.0-78.0","631b78bbf2d7cf01ed3eb992","64e50c14c345d8acabf0ac71","","","","","3269",""," ","key"," ","6.9512153518123565","500","250","br","-13","-22","284","1","0","16","20"
"","psychophysics","79","306503","0.0-79.0","631b78bbf2d7cf01ed3eb992","64e50c14c345d8acabf0ac71","","","","","556",""," ","key"," ","6.95199999999968","500","250","inst","","","","","","",""
"","psychophysics","80","308187","0.0-80.0","631b78bbf2d7cf01ed3eb992","64e50c14c345d8acabf0ac71","","","","","1682",""," ","key"," ","6.951286307053981","500","250","instZol0","0","0","","","","0","0"
"","psychophysics","81","317341","0.0-81.0","631b78bbf2d7cf01ed3eb992","64e50c14c345d8acabf0ac71","","","","","9153",""," ","key"," ","6.9512462006079225","500","250","instZol1","-0.1000000000000002","-1.3","","","","0","0"
"","psychophysics","82","324043","0.0-82.0","631b78bbf2d7cf01ed3eb992","64e50c14c345d8acabf0ac71","","","","","6701",""," ","key"," ","6.951111111111155","500","250","instZol2","-1.3999999999999995","2","","2","","0","0"
"","psychophysics","83","324546","0.0-83.0","631b78bbf2d7cf01ed3eb992","64e50c14c345d8acabf0ac71","","","","","501",""," ","key"," ","6.9515492957746154","500","250","inst","","","","","","",""
"","psychophysics","84","332136","0.0-84.0","631b78bbf2d7cf01ed3eb992","64e50c14c345d8acabf0ac71","","","","","7588",""," ","key"," ","6.951255728689282","500","250","zol","-1.04","-0.26","","2","0","-7","6"
"","psychophysics","85","336473","0.0-85.0","631b78bbf2d7cf01ed3eb992","64e50c14c345d8acabf0ac71","","","","","4331",""," ","key"," ","6.951203852327411","500","250","zol","-1.3","-0.1","","2","0","-19","1"
"","psychophysics","86","340139","0.0-86.0","631b78bbf2d7cf01ed3eb992","64e50c14c345d8acabf0ac71","","","","","3664",""," ","key"," ","6.951385199240995","500","250","zol","-1.3400000000000003","-0.46","","2","0","-12","27"
"","psychophysics","87","344584","0.0-87.0","631b78bbf2d7cf01ed3eb992","64e50c14c345d8acabf0ac71","","","","","4443",""," ","key"," ","6.951159874608191","500","250","zol","-1.3400000000000003","0.74","","2","0","13","25"
"","psychophysics","88","348843","0.0-88.0","631b78bbf2d7cf01ed3eb992","64e50c14c345d8acabf0ac71","","","","","4258",""," ","key"," ","6.951241830065412","500","250","zol","-1.2200000000000002","0.12","","2","0","-15","11"
"","psychophysics","89","351488","0.0-89.0","631b78bbf2d7cf01ed3eb992","64e50c14c345d8acabf0ac71","","","","","2642",""," ","key"," ","6.951240105540946","500","250","zol","-1.0899999999999999","0.49","","2","0","23","25"
"","psychophysics","90","356664","0.0-90.0","631b78bbf2d7cf01ed3eb992","64e50c14c345d8acabf0ac71","","","","","5173",""," ","key"," ","6.951532258064519","500","250","zol","-0.91","0.61","","2","0","4","-17"
"","psychophysics","91","359766","0.0-91.0","631b78bbf2d7cf01ed3eb992","64e50c14c345d8acabf0ac71","","","","","3099",""," ","key"," ","6.951415730337089","500","250","zol","-1.3100000000000003","-0.19","","2","0","-6","-6"
"","psychophysics","92","365720","0.0-92.0","631b78bbf2d7cf01ed3eb992","64e50c14c345d8acabf0ac71","","","","","5954",""," ","key"," ","6.951331775700896","500","250","zol","-0.63","-0.47","","2","0","20","12"
"","psychophysics","93","371073","0.0-93.0","631b78bbf2d7cf01ed3eb992","64e50c14c345d8acabf0ac71","","","","","5350",""," ","key"," ","6.951183355006529","500","250","zol","-0.8799999999999999","-0.72","","2","0","3","9"
"","psychophysics","94","376211","0.0-94.0","631b78bbf2d7cf01ed3eb992","64e50c14c345d8acabf0ac71","","","","","5132",""," ","key"," ","6.960624151967489","500","250","zol","-1.2300000000000002","-0.07","","2","0","22","-29"
"","psychophysics","95","378927","0.0-95.0","631b78bbf2d7cf01ed3eb992","64e50c14c345d8acabf0ac71","","","","","2715",""," ","key"," ","6.9512820512820515","500","250","zol","-1.3100000000000003","0.71","","2","0","8","29"
"","psychophysics","96","382736","0.0-96.0","631b78bbf2d7cf01ed3eb992","64e50c14c345d8acabf0ac71","","","","","3806",""," ","key"," ","6.9514076782449425","500","250","zol","-1.3400000000000003","-0.16","","2","0","-21","24"
"","psychophysics","97","384860","0.0-97.0","631b78bbf2d7cf01ed3eb992","64e50c14c345d8acabf0ac71","","","","","2123",""," ","key"," ","6.951118421052677","500","250","zol","-1.02","0.02","","2","0","10","22"
"","psychophysics","98","386979","0.0-98.0","631b78bbf2d7cf01ed3eb992","64e50c14c345d8acabf0ac71","","","","","2118",""," ","key"," ","6.951381578947276","500","250","zol","-1.29","0.29","","2","0","0","-27"
"","psychophysics","99","387567","0.0-99.0","631b78bbf2d7cf01ed3eb992","64e50c14c345d8acabf0ac71","","","","","584",""," ","key"," ","6.9507142857141195","500","250","inst","","","","","","",""
"","psychophysics","100","389140","0.0-100.0","631b78bbf2d7cf01ed3eb992","64e50c14c345d8acabf0ac71","","","","","1570",""," ","key"," ","6.9514666666667395","500","250","instEB0","40","40","40","1","","0","0"
"","psychophysics","101","394565","0.0-101.0","631b78bbf2d7cf01ed3eb992","64e50c14c345d8acabf0ac71","","","","","5423",""," ","key"," ","6.960154241645244","500","250","instEB1","30","40","30","1","","0","0"
"","psychophysics","102","399129","0.0-102.0","631b78bbf2d7cf01ed3eb992","64e50c14c345d8acabf0ac71","","","","","4559",""," ","key"," ","6.951219512195122","500","250","instEB2","40","30","40","1","","0","0"
"","psychophysics","103","404431","0.0-103.0","631b78bbf2d7cf01ed3eb992","64e50c14c345d8acabf0ac71","","","","","5300",""," ","key"," ","6.95131233595796","500","250","instEB3","40","27","45","1","","0","0"
"","psychophysics","104","409258","0.0-104.0","631b78bbf2d7cf01ed3eb992","64e50c14c345d8acabf0ac71","","","","","4826",""," ","key"," ","6.951168831168794","500","250","instEB4","25","40","30","1","","0","0"
"","psychophysics","105","409827","0.0-105.0","631b78bbf2d7cf01ed3eb992","64e50c14c345d8acabf0ac71","","","","","567",""," ","key"," ","6.952098765432042","500","250","inst","","","","","","",""
"","psychophysics","106","413996","0.0-106.0","631b78bbf2d7cf01ed3eb992","64e50c14c345d8acabf0ac71","","","","","4167",""," ","key"," ","6.95095158597662","500","250","eb","47","38","52","1","","0","0"
"","psychophysics","107","418801","0.0-107.0","631b78bbf2d7cf01ed3eb992","64e50c14c345d8acabf0ac71","","","","","4803",""," ","key"," ","6.951362318840583","500","250","eb","24","51","27","1","","0","0"
"","psychophysics","108","421659","0.0-108.0","631b78bbf2d7cf01ed3eb992","64e50c14c345d8acabf0ac71","","","","","2857",""," ","key"," ","6.951756097560907","500","250","eb","37","54","46","1","","0","0"
"","psychophysics","109","425357","0.0-109.0","631b78bbf2d7cf01ed3eb992","64e50c14c345d8acabf0ac71","","","","","3696",""," ","key"," ","6.9512617702448125","500","250","eb","33","51","38","1","","0","0"
"","psychophysics","110","427521","0.0-110.0","631b78bbf2d7cf01ed3eb992","64e50c14c345d8acabf0ac71","","","","","2163",""," ","key"," ","6.9512903225807205","500","250","eb","37","31","41","1","","0","0"
"","psychophysics","111","430284","0.0-111.0","631b78bbf2d7cf01ed3eb992","64e50c14c345d8acabf0ac71","","","","","2759",""," ","key"," ","6.951284634760641","500","250","eb","24","36","26","1","","0","0"
"","psychophysics","112","432965","0.0-112.0","631b78bbf2d7cf01ed3eb992","64e50c14c345d8acabf0ac71","","","","","2680",""," ","key"," ","6.951012987013024","500","250","eb","38","48","45","1","","0","0"
"","psychophysics","113","436371","0.0-113.0","631b78bbf2d7cf01ed3eb992","64e50c14c345d8acabf0ac71","","","","","3405",""," ","key"," ","6.951247443762729","500","250","eb","29","24","31","1","","0","0"
"","psychophysics","114","439103","0.0-114.0","631b78bbf2d7cf01ed3eb992","64e50c14c345d8acabf0ac71","","","","","2731",""," ","key"," ","6.951326530612352","500","250","eb","40","37","46","1","","0","0"
"","psychophysics","115","442472","0.0-115.0","631b78bbf2d7cf01ed3eb992","64e50c14c345d8acabf0ac71","","","","","3366",""," ","key"," ","6.951304347826048","500","250","eb","22","46","26","1","","0","0"
"","psychophysics","116","447364","0.0-116.0","631b78bbf2d7cf01ed3eb992","64e50c14c345d8acabf0ac71","","","","","4892",""," ","key"," ","6.951237553342859","500","250","eb","40","27","48","1","","0","0"
"","psychophysics","117","451384","0.0-117.0","631b78bbf2d7cf01ed3eb992","64e50c14c345d8acabf0ac71","","","","","4019",""," ","key"," ","6.951265164644722","500","250","eb","24","29","29","1","","0","0"
"","psychophysics","118","457297","0.0-118.0","631b78bbf2d7cf01ed3eb992","64e50c14c345d8acabf0ac71","","","","","5910",""," ","key"," ","6.951200000000022","500","250","eb","36","47","41","1","","0","0"
"","psychophysics","119","465307","0.0-119.0","631b78bbf2d7cf01ed3eb992","64e50c14c345d8acabf0ac71","","","","","null","","null","key","null","6.957217391304337","500","250","eb","49","54","26","1","","0","0"
"","psychophysics","120","465625","0.0-120.0","631b78bbf2d7cf01ed3eb992","64e50c14c345d8acabf0ac71","","","","","314",""," ","key"," ","6.94844444444429","500","250","eb","54","54","24","1","","0","0"
"","psychophysics","121","466244","0.0-121.0","631b78bbf2d7cf01ed3eb992","64e50c14c345d8acabf0ac71","","","","","619",""," ","key"," ","6.9504545454540425","500","250","inst","","","","","","",""
"","psychophysics","122","469951","0.0-122.0","631b78bbf2d7cf01ed3eb992","64e50c14c345d8acabf0ac71","","","","","3705",""," ","key"," ","6.951353383458638","500","250","instPog0","160","190","160","1","","0","0"
"","psychophysics","123","472814","0.0-123.0","631b78bbf2d7cf01ed3eb992","64e50c14c345d8acabf0ac71","","","","","2860",""," ","key"," ","6.96809756097557","500","250","instPog1","166","190","160","1","","0","0"
"","psychophysics","124","475556","0.0-124.0","631b78bbf2d7cf01ed3eb992","64e50c14c345d8acabf0ac71","","","","","2739",""," ","key"," ","6.9513197969543326","500","250","instPog2","178","160","160","1","","0","0"
"","psychophysics","125","476003","0.0-125.0","631b78bbf2d7cf01ed3eb992","64e50c14c345d8acabf0ac71","","","","","446",""," ","key"," ","6.951746031746365","500","250","inst","","","","","","",""
"","psychophysics","126","478853","0.0-126.0","631b78bbf2d7cf01ed3eb992","64e50c14c345d8acabf0ac71","","","","","2849",""," ","key"," ","6.951246943765275","500","250","pog","205","131","174","1","1","0","0"
"","psychophysics","127","483035","0.0-127.0","631b78bbf2d7cf01ed3eb992","64e50c14c345d8acabf0ac71","","","","","4181",""," ","key"," ","6.962933333333349","500","250","pog","172","168","153","1","1","0","0"
"","psychophysics","128","486790","0.0-128.0","631b78bbf2d7cf01ed3eb992","64e50c14c345d8acabf0ac71","","","","","3751",""," ","key"," ","6.951243042671562","500","250","pog","229","129","199","1","1","0","0"
"","psychophysics","129","491439","0.0-129.0","631b78bbf2d7cf01ed3eb992","64e50c14c345d8acabf0ac71","","","","","4648",""," ","key"," ","6.951137724550877","500","250","pog","172","216","125","1","1","0","0"
"","psychophysics","130","496802","0.0-130.0","631b78bbf2d7cf01ed3eb992","64e50c14c345d8acabf0ac71","","","","","5361",""," ","key"," ","6.951090909090866","500","250","pog","214","112","185","1","1","0","0"
"","psychophysics","131","499772","0.0-131.0","631b78bbf2d7cf01ed3eb992","64e50c14c345d8acabf0ac71","","","","","2967",""," ","key"," ","6.951361502347347","500","250","pog","204","148","175","1","1","0","0"
"","psychophysics","132","503606","0.0-132.0","631b78bbf2d7cf01ed3eb992","64e50c14c345d8acabf0ac71","","","","","3832",""," ","key"," ","6.9513090909090405","500","250","pog","163","189","137","1","1","0","0"
"","psychophysics","133","506840","0.0-133.0","631b78bbf2d7cf01ed3eb992","64e50c14c345d8acabf0ac71","","","","","3231",""," ","key"," ","6.955474137931089","500","250","pog","221","119","188","1","1","0","0"
"","psychophysics","134","510091","0.0-134.0","631b78bbf2d7cf01ed3eb992","64e50c14c345d8acabf0ac71","","","","","3251",""," ","key"," ","6.951134903640242","500","250","pog","179","107","144","1","1","0","0"
"","psychophysics","135","513471","0.0-135.0","631b78bbf2d7cf01ed3eb992","64e50c14c345d8acabf0ac71","","","","","3379",""," ","key"," ","6.951257731958734","500","250","pog","187","107","161","1","1","0","0"
"","psychophysics","136","517142","0.0-136.0","631b78bbf2d7cf01ed3eb992","64e50c14c345d8acabf0ac71","","","","","3669",""," ","key"," ","6.951233396584418","500","250","pog","164","108","142","1","1","0","0"
"","psychophysics","137","520454","0.0-137.0","631b78bbf2d7cf01ed3eb992","64e50c14c345d8acabf0ac71","","","","","3309",""," ","key"," ","6.95100840336133","500","250","pog","214","122","193","1","1","0","0"
"","psychophysics","138","523424","0.0-138.0","631b78bbf2d7cf01ed3eb992","64e50c14c345d8acabf0ac71","","","","","2968",""," ","key"," ","6.951173708920079","500","250","pog","166","184","141","1","1","0","0"
"","psychophysics","139","525595","0.0-139.0","631b78bbf2d7cf01ed3eb992","64e50c14c345d8acabf0ac71","","","","","2170",""," ","key"," ","6.9512540192928745","500","250","pog","164","190","150","1","1","0","0"
"","psychophysics","140","529541","0.0-140.0","631b78bbf2d7cf01ed3eb992","64e50c14c345d8acabf0ac71","","","","","3945",""," ","key"," ","6.951216931216874","500","250","pog","164","122","147","1","1","0","0"
"","psychophysics","141","530047","0.0-141.0","631b78bbf2d7cf01ed3eb992","64e50c14c345d8acabf0ac71","","","","","504",""," ","key"," ","6.952499999999418","500","250","inst","","","","","","",""
"","psychophysics","142","533682","0.0-142.0","631b78bbf2d7cf01ed3eb992","64e50c14c345d8acabf0ac71","","","","","3634",""," ","key"," ","6.95145593869738","500","250","instPz1","53","25","50","1","","",""
"","psychophysics","143","536444","0.0-143.0","631b78bbf2d7cf01ed3eb992","64e50c14c345d8acabf0ac71","","","","","2760",""," ","key"," ","6.951010101010042","500","250","instPz2","27","35","20","1","","",""
"","psychophysics","144","541936","0.0-144.0","631b78bbf2d7cf01ed3eb992","64e50c14c345d8acabf0ac71","","","","","5490",""," ","key"," ","6.951153358681976","500","250","instPz3","53","100","30","1","","",""
"","psychophysics","145","547824","0.0-145.0","631b78bbf2d7cf01ed3eb992","64e50c14c345d8acabf0ac71","","","","","5885",""," ","key"," ","6.951134751773088","500","250","instPz4","44","100","30","1","","",""
"","psychophysics","146","548415","0.0-146.0","631b78bbf2d7cf01ed3eb992","64e50c14c345d8acabf0ac71","","","","","591",""," ","key"," ","6.951904761905705","500","250","inst","","","","","","",""
"","psychophysics","147","552826","0.0-147.0","631b78bbf2d7cf01ed3eb992","64e50c14c345d8acabf0ac71","","","","","4410",""," ","key"," ","6.95123028391179","500","250","pz","57","44","39","1","1","",""
"","psychophysics","148","555673","0.0-148.0","631b78bbf2d7cf01ed3eb992","64e50c14c345d8acabf0ac71","","","","","2844",""," ","key"," ","6.95127450980391","500","250","pz","34","58","23","1","1","",""
"","psychophysics","149","558189","0.0-149.0","631b78bbf2d7cf01ed3eb992","64e50c14c345d8acabf0ac71","","","","","2516",""," ","key"," ","6.9514127423821686","500","250","pz","26","33","20","1","1","",""
"","psychophysics","150","560899","0.0-150.0","631b78bbf2d7cf01ed3eb992","64e50c14c345d8acabf0ac71","","","","","2707",""," ","key"," ","6.951208226220828","500","250","pz","45","50","29","1","1","",""
"","psychophysics","151","563844","0.0-151.0","631b78bbf2d7cf01ed3eb992","64e50c14c345d8acabf0ac71","","","","","2943",""," ","key"," ","6.9513002364066745","500","250","pz","35","44","21","1","1","",""
"","psychophysics","152","567294","0.0-152.0","631b78bbf2d7cf01ed3eb992","64e50c14c345d8acabf0ac71","","","","","3450",""," ","key"," ","6.951313131313178","500","250","pz","54","23","37","1","1","",""
"","psychophysics","153","569529","0.0-153.0","631b78bbf2d7cf01ed3eb992","64e50c14c345d8acabf0ac71","","","","","2234",""," ","key"," ","6.951152647974919","500","250","pz","42","40","30","1","1","",""
"","psychophysics","154","573382","0.0-154.0","631b78bbf2d7cf01ed3eb992","64e50c14c345d8acabf0ac71","","","","","3852",""," ","key"," ","6.95128390596734","500","250","pz","66","24","52","1","1","",""
"","psychophysics","155","575845","0.0-155.0","631b78bbf2d7cf01ed3eb992","64e50c14c345d8acabf0ac71","","","","","2461",""," ","key"," ","6.951274787535542","500","250","pz","40","44","25","1","1","",""
"","psychophysics","156","579562","0.0-156.0","631b78bbf2d7cf01ed3eb992","64e50c14c345d8acabf0ac71","","","","","3713",""," ","key"," ","6.951310861423221","500","250","pz","64","23","53","1","1","",""
"","psychophysics","157","582180","0.0-157.0","631b78bbf2d7cf01ed3eb992","64e50c14c345d8acabf0ac71","","","","","2617",""," ","key"," ","6.9511702127659944","500","250","pz","79","53","54","1","1","",""
"","psychophysics","158","584688","0.0-158.0","631b78bbf2d7cf01ed3eb992","64e50c14c345d8acabf0ac71","","","","","2506",""," ","key"," ","6.970558659217773","500","250","pz","78","50","55","1","1","",""
"","psychophysics","159","588925","0.0-159.0","631b78bbf2d7cf01ed3eb992","64e50c14c345d8acabf0ac71","","","","","4234",""," ","key"," ","6.951231527093673","500","250","pz","83","20","53","1","1","",""
"","psychophysics","160","591150","0.0-160.0","631b78bbf2d7cf01ed3eb992","64e50c14c345d8acabf0ac71","","","","","2224",""," ","key"," ","6.951159874608281","500","250","pz","52","24","32","1","1","",""
"","psychophysics","161","593262","0.0-161.0","631b78bbf2d7cf01ed3eb992","64e50c14c345d8acabf0ac71","","","","","2110",""," ","key"," ","6.95128712871284","500","250","pz","55","25","43","1","1","",""
"","psychophysics","162","593782","0.0-162.0","631b78bbf2d7cf01ed3eb992","64e50c14c345d8acabf0ac71","","","","","519",""," ","key"," ","6.951081081081144","500","250","inst","","","","","","",""
"","psychophysics","163","597287","0.0-163.0","631b78bbf2d7cf01ed3eb992","64e50c14c345d8acabf0ac71","","","","","3504",""," ","key"," ","6.951133200795312","500","250","instZol1","2.7755575615628914e-17","-1.3","","","","0","0"
"","psychophysics","164","602075","0.0-164.0","631b78bbf2d7cf01ed3eb992","64e50c14c345d8acabf0ac71","","","","","4787",""," ","key"," ","6.951249999999946","500","250","instZol2","-0.09999999999999937","2","","1","","0","0"
"","psychophysics","165","602590","0.0-165.0","631b78bbf2d7cf01ed3eb992","64e50c14c345d8acabf0ac71","","","","","513",""," ","key"," ","6.950136986301178","500","250","inst","","","","","","",""
"","psychophysics","166","605426","0.0-166.0","631b78bbf2d7cf01ed3eb992","64e50c14c345d8acabf0ac71","","","","","2835",""," ","key"," ","6.951203931203966","500","250","zol","0.8999999999999999","-0.2","","1","1","-8","-13"
"","psychophysics","167","610254","0.0-167.0","631b78bbf2d7cf01ed3eb992","64e50c14c345d8acabf0ac71","","","","","4827",""," ","key"," ","6.951226551226652","500","250","zol","1.1500000000000001","-0.65","","1","1","21","22"
"","psychophysics","168","612822","0.0-168.0","631b78bbf2d7cf01ed3eb992","64e50c14c345d8acabf0ac71","","","","","2564",""," ","key"," ","6.951273712736862","500","250","zol","0.72","0.48","","1","1","-13","15"
"","psychophysics","169","615544","0.0-169.0","631b78bbf2d7cf01ed3eb992","64e50c14c345d8acabf0ac71","","","","","2719",""," ","key"," ","6.9512820512820515","500","250","zol","1.0799999999999998","0.32","","1","1","-7","-26"
"","psychophysics","170","618070","0.0-170.0","631b78bbf2d7cf01ed3eb992","64e50c14c345d8acabf0ac71","","","","","2525",""," ","key"," ","6.951184573002831","500","250","zol","1.3900000000000001","0.11","","1","1","7","4"
"","psychophysics","171","625773","0.0-171.0","631b78bbf2d7cf01ed3eb992","64e50c14c345d8acabf0ac71","","","","","7702",""," ","key"," ","6.951273712737178","500","250","zol","1.3300000000000003","0.17","","1","1","8","3"
"","psychophysics","172","629144","0.0-172.0","631b78bbf2d7cf01ed3eb992","64e50c14c345d8acabf0ac71","","","","","3369",""," ","key"," ","6.951280991735383","500","250","zol","1.1800000000000002","-0.68","","1","1","-17","5"
"","psychophysics","173","632460","0.0-173.0","631b78bbf2d7cf01ed3eb992","64e50c14c345d8acabf0ac71","","","","","3314",""," ","key"," ","6.951260504201534","500","250","zol","0.7799999999999999","0.52","","1","1","-2","14"
"","psychophysics","174","634933","0.0-174.0","631b78bbf2d7cf01ed3eb992","64e50c14c345d8acabf0ac71","","","","","2471",""," ","key"," ","6.951436619718336","500","250","zol","1.28","-0.38","","1","1","-1","-26"
"","psychophysics","175","637537","0.0-175.0","631b78bbf2d7cf01ed3eb992","64e50c14c345d8acabf0ac71","","","","","2602",""," ","key"," ","6.951152815013168","500","250","zol","1.37","-0.57","","1","1","12","2"
"","psychophysics","176","639536","0.0-176.0","631b78bbf2d7cf01ed3eb992","64e50c14c345d8acabf0ac71","","","","","1995",""," ","key"," ","6.951080139372692","500","250","zol","1.36","-0.36","","1","1","-26","9"
"","psychophysics","177","643916","0.0-177.0","631b78bbf2d7cf01ed3eb992","64e50c14c345d8acabf0ac71","","","","","4379",""," ","key"," ","6.951224165341916","500","250","zol","0.7200000000000001","0.38","","1","1","-26","2"
"","psychophysics","178","646858","0.0-178.0","631b78bbf2d7cf01ed3eb992","64e50c14c345d8acabf0ac71","","","","","2940",""," ","key"," ","6.951279620852948","500","250","zol","0.6799999999999999","0.02","","1","1","21","13"
"","psychophysics","179","650338","0.0-179.0","631b78bbf2d7cf01ed3eb992","64e50c14c345d8acabf0ac71","","","","","3479",""," ","key"," ","6.951280000000028","500","250","zol","0.9499999999999998","-0.15","","1","1","5","10"
"","psychophysics","180","652261","0.0-180.0","631b78bbf2d7cf01ed3eb992","64e50c14c345d8acabf0ac71","","","","","1923",""," ","key"," ","6.951127272727476","500","250","zol","1.05","-0.75","","1","1","-10","-10"
"","psychophysics","181","652767","0.0-181.0","631b78bbf2d7cf01ed3eb992","64e50c14c345d8acabf0ac71","","","","","503",""," ","key"," ","6.951388888888889","500","250","inst","","","","","","",""
"","psychophysics","182","656183","0.0-182.0","631b78bbf2d7cf01ed3eb992","64e50c14c345d8acabf0ac71","","","","","3415",""," ","key"," ","6.951160896130384","500","250","instEB1","43","30","40","2","","0","0"
"","psychophysics","183","661279","0.0-183.0","631b78bbf2d7cf01ed3eb992","64e50c14c345d8acabf0ac71","","","","","5094",""," ","key"," ","6.951229508196626","500","250","instEB2","30","40","30","2","","0","0"
"","psychophysics","184","666052","0.0-184.0","631b78bbf2d7cf01ed3eb992","64e50c14c345d8acabf0ac71","","","","","4772",""," ","key"," ","6.951445255474439","500","250","instEB3","33","45","27","2","","0","0"
"","psychophysics","185","670702","0.0-185.0","631b78bbf2d7cf01ed3eb992","64e50c14c345d8acabf0ac71","","","","","4650",""," ","key"," ","6.951167664670666","500","250","instEB4","46","30","40","2","","0","0"
"","psychophysics","186","671172","0.0-186.0","631b78bbf2d7cf01ed3eb992","64e50c14c345d8acabf0ac71","","","","","468",""," ","key"," ","6.951044776118986","500","250","inst","","","","","","",""
"","psychophysics","187","674223","0.0-187.0","631b78bbf2d7cf01ed3eb992","64e50c14c345d8acabf0ac71","","","","","3050",""," ","key"," ","6.951232876712361","500","250","eb","64","33","54","2","","0","0"
"","psychophysics","188","677310","0.0-188.0","631b78bbf2d7cf01ed3eb992","64e50c14c345d8acabf0ac71","","","","","3085",""," ","key"," ","6.951241534988766","500","250","eb","35","42","24","2","","0","0"
"","psychophysics","189","680804","0.0-189.0","631b78bbf2d7cf01ed3eb992","64e50c14c345d8acabf0ac71","","","","","3494",""," ","key"," ","6.951195219123506","500","250","eb","62","40","48","2","","0","0"
"","psychophysics","190","686428","0.0-190.0","631b78bbf2d7cf01ed3eb992","64e50c14c345d8acabf0ac71","","","","","5622",""," ","key"," ","6.951163366336679","500","250","eb","43","35","34","2","","0","0"
"","psychophysics","191","692075","0.0-191.0","631b78bbf2d7cf01ed3eb992","64e50c14c345d8acabf0ac71","","","","","5645",""," ","key"," ","6.951196054254059","500","250","eb","50","35","42","2","","0","0"
"","psychophysics","192","696379","0.0-192.0","631b78bbf2d7cf01ed3eb992","64e50c14c345d8acabf0ac71","","","","","4301",""," ","key"," ","6.951294498381914","500","250","eb","33","53","27","2","","0","0"
"","psychophysics","193","701853","0.0-193.0","631b78bbf2d7cf01ed3eb992","64e50c14c345d8acabf0ac71","","","","","5469",""," ","key"," ","6.9512579415502085","500","250","eb","38","49","30","2","","0","0"
"","psychophysics","194","704462","0.0-194.0","631b78bbf2d7cf01ed3eb992","64e50c14c345d8acabf0ac71","","","","","2607",""," ","key"," ","6.951122994652332","500","250","eb","38","45","29","2","","0","0"
"","psychophysics","195","706459","0.0-195.0","631b78bbf2d7cf01ed3eb992","64e50c14c345d8acabf0ac71","","","","","1996",""," ","key"," ","6.951258741258529","500","250","eb","43","32","32","2","","0","0"
"","psychophysics","196","709337","0.0-196.0","631b78bbf2d7cf01ed3eb992","64e50c14c345d8acabf0ac71","","","","","2874",""," ","key"," ","6.951186440677887","500","250","eb","42","29","33","2","","0","0"
"","psychophysics","197","715673","0.0-197.0","631b78bbf2d7cf01ed3eb992","64e50c14c345d8acabf0ac71","","","","","6333",""," ","key"," ","6.95119648737655","500","250","eb","50","25","43","2","","0","0"
"","psychophysics","198","720545","0.0-198.0","631b78bbf2d7cf01ed3eb992","64e50c14c345d8acabf0ac71","","","","","4870",""," ","key"," ","6.951285714285747","500","250","eb","42","42","34","2","","0","0"
"","psychophysics","199","724097","0.0-199.0","631b78bbf2d7cf01ed3eb992","64e50c14c345d8acabf0ac71","","","","","3550",""," ","key"," ","6.950588235294209","500","250","eb","49","38","40","2","","0","0"
"","psychophysics","200","729113","0.0-200.0","631b78bbf2d7cf01ed3eb992","64e50c14c345d8acabf0ac71","","","","","5014",""," ","key"," ","6.951194444444425","500","250","eb","56","53","53","2","","0","0"
"","psychophysics","201","733978","0.0-201.0","631b78bbf2d7cf01ed3eb992","64e50c14c345d8acabf0ac71","","","","","4864",""," ","key"," ","6.951273247496344","500","250","eb","50","28","44","2","","0","0"
"","psychophysics","202","734467","0.0-202.0","631b78bbf2d7cf01ed3eb992","64e50c14c345d8acabf0ac71","","","","","487",""," ","key"," ","6.951594202897336","500","250","inst","","","","","","",""
"","psychophysics","203","744138","0.0-203.0","631b78bbf2d7cf01ed3eb992","64e50c14c345d8acabf0ac71","","","","","9668",""," ","key"," ","6.95124370956142","500","250","instBr3","22","40","300","2","","0","0"
"","psychophysics","204","744855","0.0-204.0","631b78bbf2d7cf01ed3eb992","64e50c14c345d8acabf0ac71","","","","","715",""," ","key"," ","6.951568627451528","500","250","inst","","","","","","",""
"","psychophysics","205","750219","0.0-205.0","631b78bbf2d7cf01ed3eb992","64e50c14c345d8acabf0ac71","","","","","5362",""," ","key"," ","6.951232166018189","500","250","br","26","-28","290","2","1","-12","-9"
"","psychophysics","206","754298","0.0-206.0","631b78bbf2d7cf01ed3eb992","64e50c14c345d8acabf0ac71","","","","","4076",""," ","key"," ","6.951316239316271","500","250","br","20","18","236","2","1","24","-28"
"","psychophysics","207","759699","0.0-207.0","631b78bbf2d7cf01ed3eb992","64e50c14c345d8acabf0ac71","","","","","5399",""," ","key"," ","6.9512628865978545","500","250","br","25","19","242","2","1","26","13"
"","psychophysics","208","762965","0.0-208.0","631b78bbf2d7cf01ed3eb992","64e50c14c345d8acabf0ac71","","","","","3262",""," ","key"," ","6.951471215351792","500","250","br","21","-20","235","2","1","-17","-25"
"","psychophysics","209","766353","0.0-209.0","631b78bbf2d7cf01ed3eb992","64e50c14c345d8acabf0ac71","","","","","3386",""," ","key"," ","6.95490759753601","500","250","br","31","-14","278","2","1","16","30"
"","psychophysics","210","769443","0.0-210.0","631b78bbf2d7cf01ed3eb992","64e50c14c345d8acabf0ac71","","","","","3088",""," ","key"," ","6.951196388261861","500","250","br","26","-8","269","2","1","-3","-20"
"","psychophysics","211","772835","0.0-211.0","631b78bbf2d7cf01ed3eb992","64e50c14c345d8acabf0ac71","","","","","3390",""," ","key"," ","6.951170431211442","500","250","br","21","-7","202","2","1","8","-12"
"","psychophysics","212","776617","0.0-212.0","631b78bbf2d7cf01ed3eb992","64e50c14c345d8acabf0ac71","","","","","3780",""," ","key"," ","6.953701657458538","500","250","br","30","27","267","2","1","-7","-21"
"","psychophysics","213","779985","0.0-213.0","631b78bbf2d7cf01ed3eb992","64e50c14c345d8acabf0ac71","","","","","3367",""," ","key"," ","6.950991735537007","500","250","br","28","12","290","2","1","27","-1"
"","psychophysics","214","785002","0.0-214.0","631b78bbf2d7cf01ed3eb992","64e50c14c345d8acabf0ac71","","","","","5015",""," ","key"," ","6.951194444444425","500","250","br","26","-19","289","2","1","-30","-23"
"","psychophysics","215","790436","0.0-215.0","631b78bbf2d7cf01ed3eb992","64e50c14c345d8acabf0ac71","","","","","5432",""," ","key"," ","6.951190781049942","500","250","br","25","-30","254","2","1","23","-27"
"","psychophysics","216","792024","0.0-216.0","631b78bbf2d7cf01ed3eb992","64e50c14c345d8acabf0ac71","","","","","1586",""," ","key"," ","6.951403508772113","500","250","br","24","21","226","2","1","26","16"
"","psychophysics","217","794464","0.0-217.0","631b78bbf2d7cf01ed3eb992","64e50c14c345d8acabf0ac71","","","","","2439",""," ","key"," ","6.951085714285727","500","250","br","26","-1","249","2","1","-3","22"
"","psychophysics","218","796348","0.0-218.0","631b78bbf2d7cf01ed3eb992","64e50c14c345d8acabf0ac71","","","","","1883",""," ","key"," ","6.950888888888854","500","250","br","15","19","200","2","1","13","15"
"","psychophysics","219","800328","0.0-219.0","631b78bbf2d7cf01ed3eb992","64e50c14c345d8acabf0ac71","","","","","3978",""," ","key"," ","6.951173380035018","500","250","br","20","-27","220","2","1","21","-15"
