"success","trial_type","trial_index","time_elapsed","internal_node_id","pid","sid","timeout","failed_images","failed_audio","failed_video","rt","stimulus","response","response_type","key_press","avg_frame_time","center_x","center_y","task","resp","version","block","start","jitterX","jitterY","parA"
"true","fullscreen","0","4435","0.0-0.0","629feb5b41542f049572e04c","64e50a9464a207a405062775","","","","","","","","","","","","","","","","","","","",""
"true","preload","1","4612","0.0-1.0","629feb5b41542f049572e04c","64e50a9464a207a405062775","false","[]","[]","[]","","","","","","","","","","","","","","","",""
"","html-button-response","2","5975","0.0-2.0","629feb5b41542f049572e04c","64e50a9464a207a405062775","","","","","1357","Please Make Sure Your Audio Is On.","0","","","","","","","","","","","","",""
"","psychophysics","3","12785","0.0-3.0","629feb5b41542f049572e04c","64e50a9464a207a405062775","","","","","6785",""," ","key"," ","16.719117647058823","683","250","","","","","","","",""
"","psychophysics","4","17292","0.0-4.0","629feb5b41542f049572e04c","64e50a9464a207a405062775","","","","","4502",""," ","key"," ","16.678118959107817","500","250","inst","","","","","","",""
"","psychophysics","5","21175","0.0-5.0","629feb5b41542f049572e04c","64e50a9464a207a405062775","","","","","3874",""," ","key"," ","17.045400881057272","500","250","sample0","","","","","","",""
"","psychophysics","6","24326","0.0-6.0","629feb5b41542f049572e04c","64e50a9464a207a405062775","","","","","3146",""," ","key"," ","16.67811764705881","500","250","sample1","","","","","","",""
"","psychophysics","7","46742","0.0-7.0","629feb5b41542f049572e04c","64e50a9464a207a405062775","","","","","22405",""," ","key"," ","16.678171130952382","500","250","sample2","98","","","","","",""
"","psychophysics","8","49172","0.0-8.0","629feb5b41542f049572e04c","64e50a9464a207a405062775","","","","","2424",""," ","key"," ","16.67813194444443","500","250","sample3","82","","","","","",""
"","psychophysics","9","59459","0.0-9.0","629feb5b41542f049572e04c","64e50a9464a207a405062775","","","","","10277",""," ","key"," ","16.7052731707317","500","250","sample4","102","","","","","",""
"","psychophysics","10","62888","0.0-10.0","629feb5b41542f049572e04c","64e50a9464a207a405062775","","","","","3414",""," ","key"," ","16.67819024390245","500","250","sample5","","","","","","",""
"","psychophysics","11","69383","0.0-11.0","629feb5b41542f049572e04c","64e50a9464a207a405062775","","","","","6482",""," ","key"," ","16.67816237113402","500","250","sample6","498","","","","","",""
"","psychophysics","12","73694","0.0-12.0","629feb5b41542f049572e04c","64e50a9464a207a405062775","","","","","4300",""," ","key"," ","16.678202334630388","500","250","inst","","","","","","",""
"","psychophysics","13","82187","0.0-13.0","629feb5b41542f049572e04c","64e50a9464a207a405062775","","","","","8481",""," ","key"," ","16.678153241650282","500","250","inst","","","","","","",""
"","psychophysics","14","85940","0.0-14.0","629feb5b41542f049572e04c","64e50a9464a207a405062775","","","","","3749",""," ","key"," ","16.6781517857143","500","250","inst","","","","","","",""
"","psychophysics","15","88508","0.0-15.0","629feb5b41542f049572e04c","64e50a9464a207a405062775","","","","","2564",""," ","key"," ","16.67811764705878","500","250","inst","","","","","","",""
"","psychophysics","16","91355","0.0-16.0","629feb5b41542f049572e04c","64e50a9464a207a405062775","","","","","2843",""," ","key"," ","16.678194117647088","500","250","inst","","","","","","",""
"","psychophysics","17","97796","0.0-17.0","629feb5b41542f049572e04c","64e50a9464a207a405062775","","","","","6435",""," ","key"," ","16.678137662337658","500","250","instPog0","340","2","","370","0","0","340"
"","psychophysics","18","106269","0.0-18.0","629feb5b41542f049572e04c","64e50a9464a207a405062775","","","","","8468",""," ","key"," ","16.678167652859972","500","250","instPog1","340","2","","370","0","0","340"
"","psychophysics","19","112226","0.0-19.0","629feb5b41542f049572e04c","64e50a9464a207a405062775","","","","","5952",""," ","key"," ","16.67814325842695","500","250","instPog2","318","2","","340","0","0","340"
"","psychophysics","20","118961","0.0-20.0","629feb5b41542f049572e04c","64e50a9464a207a405062775","","","","","6729",""," ","key"," ","16.678171215880894","500","250","inst","","","","","","",""
"","psychophysics","21","123331","0.0-21.0","629feb5b41542f049572e04c","64e50a9464a207a405062775","","","","","4360",""," ","key"," ","16.678176245210732","500","250","pog","344","2","0","396","0","0","371"
"","psychophysics","22","129497","0.0-22.0","629feb5b41542f049572e04c","64e50a9464a207a405062775","","","","","6160",""," ","key"," ","16.678179347826106","500","250","pog","276","2","0","342","0","0","300"
"","psychophysics","23","136355","0.0-23.0","629feb5b41542f049572e04c","64e50a9464a207a405062775","","","","","6846",""," ","key"," ","16.678160583941647","500","250","pog","338","2","0","298","0","0","367"
"","psychophysics","24","140734","0.0-24.0","629feb5b41542f049572e04c","64e50a9464a207a405062775","","","","","4373",""," ","key"," ","16.67814176245209","500","250","pog","318","2","0","364","0","0","346"
"","psychophysics","25","145195","0.0-25.0","629feb5b41542f049572e04c","64e50a9464a207a405062775","","","","","4451",""," ","key"," ","16.67812359550554","500","250","pog","314","2","0","360","0","0","346"
"","psychophysics","26","150130","0.0-26.0","629feb5b41542f049572e04c","64e50a9464a207a405062775","","","","","4929",""," ","key"," ","16.678206779661004","500","250","pog","284","2","0","310","0","0","319"
"","psychophysics","27","157216","0.0-27.0","629feb5b41542f049572e04c","64e50a9464a207a405062775","","","","","7078",""," ","key"," ","16.678122931442058","500","250","pog","334","2","0","374","0","0","363"
"","psychophysics","28","163408","0.0-28.0","629feb5b41542f049572e04c","64e50a9464a207a405062775","","","","","6180",""," ","key"," ","16.678196765498665","500","250","pog","267","2","0","359","0","0","301"
"","psychophysics","29","165684","0.0-29.0","629feb5b41542f049572e04c","64e50a9464a207a405062775","","","","","2269",""," ","key"," ","16.678185185185132","500","250","pog","292","2","0","296","0","0","315"
"","psychophysics","30","168477","0.0-30.0","629feb5b41542f049572e04c","64e50a9464a207a405062775","","","","","2780",""," ","key"," ","16.678227544910154","500","250","pog","334","2","0","366","0","0","360"
"","psychophysics","31","174768","0.0-31.0","629feb5b41542f049572e04c","64e50a9464a207a405062775","","","","","6284",""," ","key"," ","16.678170212765952","500","250","pog","328","2","0","356","0","0","357"
"","psychophysics","32","179940","0.0-32.0","629feb5b41542f049572e04c","64e50a9464a207a405062775","","","","","5167",""," ","key"," ","16.67816504854364","500","250","pog","316","2","0","364","0","0","344"
"","psychophysics","33","187944","0.0-33.0","629feb5b41542f049572e04c","64e50a9464a207a405062775","","","","","null","","null","key","null","16.678183716075168","500","250","pog","268","2","0","400","0","0","303"
"","psychophysics","34","193350","0.0-34.0","629feb5b41542f049572e04c","64e50a9464a207a405062775","","","","","5399",""," ","key"," ","16.678176470588255","500","250","pog","273","2","0","329","0","0","305"
"","psychophysics","35","195442","0.0-35.0","629feb5b41542f049572e04c","64e50a9464a207a405062775","","","","","2081",""," ","key"," ","16.67829838709675","500","250","pog","289","2","0","303","0","0","319"
"","psychophysics","36","199599","0.0-36.0","629feb5b41542f049572e04c","64e50a9464a207a405062775","","","","","4148",""," ","key"," ","16.678132530120525","500","250","inst","","","","","","",""
"","psychophysics","37","203697","0.0-37.0","629feb5b41542f049572e04c","64e50a9464a207a405062775","","","","","4092",""," ","key"," ","16.67816803278688","500","250","instZol0","0","","","0","0","0",""
"","psychophysics","38","215838","0.0-38.0","629feb5b41542f049572e04c","64e50a9464a207a405062775","","","","","12130",""," ","key"," ","16.67819394773039","500","250","instZol1","-1.942890293094024e-16","","","-1.3","0","0",""
"","psychophysics","39","229438","0.0-39.0","629feb5b41542f049572e04c","64e50a9464a207a405062775","","","","","13588",""," ","key"," ","16.678175460122684","500","250","instZol2","-2","2","","2","0","0",""
"","psychophysics","40","233689","0.0-40.0","629feb5b41542f049572e04c","64e50a9464a207a405062775","","","","","4247",""," ","key"," ","16.678138339920903","500","250","inst","","","","","","",""
"","psychophysics","41","240403","0.0-41.0","629feb5b41542f049572e04c","64e50a9464a207a405062775","","","","","6698",""," ","key"," ","16.678186567164165","500","250","zol","-1.6200000000000006","2","0","0.32","12","19",""
"","psychophysics","42","245458","0.0-42.0","629feb5b41542f049572e04c","64e50a9464a207a405062775","","","","","5034",""," ","key"," ","16.678185430463593","500","250","zol","-1.3200000000000003","2","0","0.62","8","-5",""
"","psychophysics","43","251118","0.0-43.0","629feb5b41542f049572e04c","64e50a9464a207a405062775","","","","","5640",""," ","key"," ","16.678168639053226","500","250","zol","-1.27","2","0","-0.53","14","-23",""
"","psychophysics","44","257775","0.0-44.0","629feb5b41542f049572e04c","64e50a9464a207a405062775","","","","","6641",""," ","key"," ","16.67818045112785","500","250","zol","-1.2200000000000002","2","0","0.32","24","29",""
"","psychophysics","45","265786","0.0-45.0","629feb5b41542f049572e04c","64e50a9464a207a405062775","","","","","null","","null","key","null","16.678127348642953","500","250","zol","-1.8200000000000005","2","0","0.42","-10","-22",""
"","psychophysics","46","269405","0.0-46.0","629feb5b41542f049572e04c","64e50a9464a207a405062775","","","","","3600",""," ","key"," ","16.67810185185199","500","250","zol","-1.4300000000000004","2","0","-0.27","-22","17",""
"","psychophysics","47","273435","0.0-47.0","629feb5b41542f049572e04c","64e50a9464a207a405062775","","","","","4015",""," ","key"," ","16.67813692946075","500","250","zol","-0.82","2","0","0.22","3","18",""
"","psychophysics","48","275290","0.0-48.0","629feb5b41542f049572e04c","64e50a9464a207a405062775","","","","","1824",""," ","key"," ","16.678018181818135","500","250","zol","-1.7200000000000006","2","0","0.72","25","20",""
"","psychophysics","49","281093","0.0-49.0","629feb5b41542f049572e04c","64e50a9464a207a405062775","","","","","5788",""," ","key"," ","16.678204610951006","500","250","zol","-1.17","2","0","-0.73","-30","24",""
"","psychophysics","50","285644","0.0-50.0","629feb5b41542f049572e04c","64e50a9464a207a405062775","","","","","4532",""," ","key"," ","16.678187500000014","500","250","zol","-0.9499999999999998","2","0","-0.65","-11","-3",""
"","psychophysics","51","291729","0.0-51.0","629feb5b41542f049572e04c","64e50a9464a207a405062775","","","","","6069",""," ","key"," ","16.67818956043965","500","250","zol","-0.8099999999999999","2","0","0.71","7","-5",""
"","psychophysics","52","294165","0.0-52.0","629feb5b41542f049572e04c","64e50a9464a207a405062775","","","","","2423",""," ","key"," ","16.678110344827594","500","250","zol","-1.6600000000000006","2","0","0.56","-23","7",""
"","psychophysics","53","297325","0.0-53.0","629feb5b41542f049572e04c","64e50a9464a207a405062775","","","","","3143",""," ","key"," ","16.678180851063942","500","250","zol","-1.6800000000000004","2","0","0.28","27","-24",""
"","psychophysics","54","300405","0.0-54.0","629feb5b41542f049572e04c","64e50a9464a207a405062775","","","","","3065",""," ","key"," ","16.678152173912878","500","250","zol","-1.4500000000000002","2","0","-0.65","-29","-17",""
"","psychophysics","55","302045","0.0-55.0","629feb5b41542f049572e04c","64e50a9464a207a405062775","","","","","1624",""," ","key"," ","16.678216494845476","500","250","zol","-1.35","2","0","-0.15","-5","-10",""
"","psychophysics","56","303554","0.0-56.0","629feb5b41542f049572e04c","64e50a9464a207a405062775","","","","","1499",""," ","key"," ","16.678266666666605","500","250","inst","","","","","","",""
"","psychophysics","57","306209","0.0-57.0","629feb5b41542f049572e04c","64e50a9464a207a405062775","","","","","2649",""," ","key"," ","16.678177215189883","500","250","instBr0","0","","","0","0","0","300"
"","psychophysics","58","311340","0.0-58.0","629feb5b41542f049572e04c","64e50a9464a207a405062775","","","","","5119",""," ","key"," ","16.678098039215755","500","250","instBr1","-1","","","-40","0","0","300"
"","psychophysics","59","316635","0.0-59.0","629feb5b41542f049572e04c","64e50a9464a207a405062775","","","","","5284",""," ","key"," ","16.67811987381715","500","250","instBr3","19","2","","40","0","0","300"
"","psychophysics","60","317448","0.0-60.0","629feb5b41542f049572e04c","64e50a9464a207a405062775","","","","","803",""," ","key"," ","16.678104166666646","500","250","inst","","","","","","",""
"","psychophysics","61","323222","0.0-61.0","629feb5b41542f049572e04c","64e50a9464a207a405062775","","","","","5766",""," ","key"," ","16.678162318840624","500","250","br","18","2","0","-29","18","6","205"
"","psychophysics","62","326294","0.0-62.0","629feb5b41542f049572e04c","64e50a9464a207a405062775","","","","","3059",""," ","key"," ","16.67821857923498","500","250","br","18","2","0","28","28","18","252"
"","psychophysics","63","330522","0.0-63.0","629feb5b41542f049572e04c","64e50a9464a207a405062775","","","","","4216",""," ","key"," ","16.67820158102775","500","250","br","19","2","0","24","12","1","204"
"","psychophysics","64","335139","0.0-64.0","629feb5b41542f049572e04c","64e50a9464a207a405062775","","","","","4611",""," ","key"," ","16.678160000000023","500","250","br","17","2","0","30","-3","-20","289"
"","psychophysics","65","338900","0.0-65.0","629feb5b41542f049572e04c","64e50a9464a207a405062775","","","","","3750",""," ","key"," ","16.678226666666514","500","250","br","20","2","0","8","-15","16","220"
"","psychophysics","66","342732","0.0-66.0","629feb5b41542f049572e04c","64e50a9464a207a405062775","","","","","3818",""," ","key"," ","16.67813537117906","500","250","br","26","2","0","5","29","-3","297"
"","psychophysics","67","346582","0.0-67.0","629feb5b41542f049572e04c","64e50a9464a207a405062775","","","","","3844",""," ","key"," ","16.678095652173912","500","250","br","19","2","0","-4","-8","-16","291"
"","psychophysics","68","348971","0.0-68.0","629feb5b41542f049572e04c","64e50a9464a207a405062775","","","","","2381",""," ","key"," ","16.678084507042257","500","250","br","17","2","0","-9","0","-25","226"
"","psychophysics","69","350932","0.0-69.0","629feb5b41542f049572e04c","64e50a9464a207a405062775","","","","","1955",""," ","key"," ","16.678224137931025","500","250","br","21","2","0","11","8","24","261"
"","psychophysics","70","353817","0.0-70.0","629feb5b41542f049572e04c","64e50a9464a207a405062775","","","","","2873",""," ","key"," ","16.67821511627902","500","250","br","20","2","0","-1","-21","-19","248"
"","psychophysics","71","355109","0.0-71.0","629feb5b41542f049572e04c","64e50a9464a207a405062775","","","","","1282",""," ","key"," ","16.678233766233603","500","250","br","18","2","0","18","4","-12","267"
"","psychophysics","72","358712","0.0-72.0","629feb5b41542f049572e04c","64e50a9464a207a405062775","","","","","3598",""," ","key"," ","16.67820465116285","500","250","br","19","2","0","26","-10","-9","245"
"","psychophysics","73","361818","0.0-73.0","629feb5b41542f049572e04c","64e50a9464a207a405062775","","","","","3101",""," ","key"," ","16.67820540540537","500","250","br","25","2","0","10","-24","30","244"
"","psychophysics","74","365409","0.0-74.0","629feb5b41542f049572e04c","64e50a9464a207a405062775","","","","","3575",""," ","key"," ","16.678177570093478","500","250","br","23","2","0","-10","-20","5","300"
"","psychophysics","75","368519","0.0-75.0","629feb5b41542f049572e04c","64e50a9464a207a405062775","","","","","3099",""," ","key"," ","16.6781505376344","500","250","br","28","2","0","-5","24","-12","266"
"","psychophysics","76","374991","0.0-76.0","629feb5b41542f049572e04c","64e50a9464a207a405062775","","","","","6467",""," ","key"," ","16.678136950904427","500","250","inst","","","","","","",""
"","psychophysics","77","376997","0.0-77.0","629feb5b41542f049572e04c","64e50a9464a207a405062775","","","","","2000",""," ","key"," ","16.678294117646605","500","250","instPzPre","50","0","","50","","","50"
"","psychophysics","78","382251","0.0-78.0","629feb5b41542f049572e04c","64e50a9464a207a405062775","","","","","5224",""," ","key"," ","16.678152866242044","500","250","instPz0","55","1","","50","","","50"
"","psychophysics","79","385406","0.0-79.0","629feb5b41542f049572e04c","64e50a9464a207a405062775","","","","","3142",""," ","key"," ","16.678186170212822","500","250","instPz1","56","1","","25","","","50"
"","psychophysics","80","389096","0.0-80.0","629feb5b41542f049572e04c","64e50a9464a207a405062775","","","","","3677",""," ","key"," ","16.678108597284908","500","250","instPz2","22","1","","35","","","20"
"","psychophysics","81","397340","0.0-81.0","629feb5b41542f049572e04c","64e50a9464a207a405062775","","","","","8225",""," ","key"," ","16.678152129817498","500","250","instPz3","47","1","","100","","","30"
"","psychophysics","82","401222","0.0-82.0","629feb5b41542f049572e04c","64e50a9464a207a405062775","","","","","3870",""," ","key"," ","16.678090517241547","500","250","instPz4","46","1","","100","","","30"
"","psychophysics","83","402172","0.0-83.0","629feb5b41542f049572e04c","64e50a9464a207a405062775","","","","","945",""," ","key"," ","16.678196428572328","500","250","inst","","","","","","",""
"","psychophysics","84","405313","0.0-84.0","629feb5b41542f049572e04c","64e50a9464a207a405062775","","","","","3131",""," ","key"," ","16.67812299465245","500","250","pz","82","1","0","47","","","50"
"","psychophysics","85","407101","0.0-85.0","629feb5b41542f049572e04c","64e50a9464a207a405062775","","","","","1773",""," ","key"," ","16.678084905660175","500","250","pz","45","1","0","35","","","26"
"","psychophysics","86","410145","0.0-86.0","629feb5b41542f049572e04c","64e50a9464a207a405062775","","","","","3033",""," ","key"," ","16.67820329670308","500","250","pz","75","1","0","41","","","41"
"","psychophysics","87","413819","0.0-87.0","629feb5b41542f049572e04c","64e50a9464a207a405062775","","","","","3667",""," ","key"," ","16.678168949771823","500","250","pz","43","1","0","54","","","26"
"","psychophysics","88","414987","0.0-88.0","629feb5b41542f049572e04c","64e50a9464a207a405062775","","","","","1153",""," ","key"," ","16.67817391304424","500","250","pz","41","1","0","41","","","35"
"","psychophysics","89","417757","0.0-89.0","629feb5b41542f049572e04c","64e50a9464a207a405062775","","","","","2756",""," ","key"," ","16.67823030303028","500","250","pz","79","1","0","60","","","56"
"","psychophysics","90","419973","0.0-90.0","629feb5b41542f049572e04c","64e50a9464a207a405062775","","","","","2202",""," ","key"," ","16.67813636363655","500","250","pz","59","1","0","49","","","37"
"","psychophysics","91","422646","0.0-91.0","629feb5b41542f049572e04c","64e50a9464a207a405062775","","","","","2662",""," ","key"," ","16.67818238993714","500","250","pz","39","1","0","57","","","27"
"","psychophysics","92","425040","0.0-92.0","629feb5b41542f049572e04c","64e50a9464a207a405062775","","","","","2382",""," ","key"," ","16.67819580419593","500","250","pz","49","1","0","30","","","34"
"","psychophysics","93","426753","0.0-93.0","629feb5b41542f049572e04c","64e50a9464a207a405062775","","","","","1708",""," ","key"," ","16.678178217821632","500","250","pz","52","1","0","51","","","33"
"","psychophysics","94","430011","0.0-94.0","629feb5b41542f049572e04c","64e50a9464a207a405062775","","","","","3246",""," ","key"," ","16.678148717948726","500","250","pz","86","1","0","53","","","51"
"","psychophysics","95","433360","0.0-95.0","629feb5b41542f049572e04c","64e50a9464a207a405062775","","","","","3343",""," ","key"," ","16.678220000000145","500","250","pz","91","1","0","56","","","47"
"","psychophysics","96","435544","0.0-96.0","629feb5b41542f049572e04c","64e50a9464a207a405062775","","","","","2178",""," ","key"," ","16.678215384615424","500","250","pz","41","1","0","26","","","20"
"","psychophysics","97","438795","0.0-97.0","629feb5b41542f049572e04c","64e50a9464a207a405062775","","","","","3245",""," ","key"," ","16.678206185566935","500","250","pz","66","1","0","24","","","44"
"","psychophysics","98","441504","0.0-98.0","629feb5b41542f049572e04c","64e50a9464a207a405062775","","","","","2701",""," ","key"," ","16.678111801242096","500","250","pz","69","1","0","38","","","38"
"","psychophysics","99","443333","0.0-99.0","629feb5b41542f049572e04c","64e50a9464a207a405062775","","","","","1817",""," ","key"," ","16.67826605504571","500","250","inst","","","","","","",""
"","psychophysics","100","448271","0.0-100.0","629feb5b41542f049572e04c","64e50a9464a207a405062775","","","","","4932",""," ","key"," ","16.678145762711914","500","250","instEB0","37","2","","40","0","0","40"
"","psychophysics","101","450925","0.0-101.0","629feb5b41542f049572e04c","64e50a9464a207a405062775","","","","","2649",""," ","key"," ","16.678145569620234","500","250","instEB1","40","2","","30","0","0","40"
"","psychophysics","102","454935","0.0-102.0","629feb5b41542f049572e04c","64e50a9464a207a405062775","","","","","4001",""," ","key"," ","16.678167364016716","500","250","instEB2","32","2","","40","0","0","30"
"","psychophysics","103","458300","0.0-103.0","629feb5b41542f049572e04c","64e50a9464a207a405062775","","","","","3351",""," ","key"," ","16.67817412935335","500","250","instEB3","35","2","","45","0","0","27"
"","psychophysics","104","460756","0.0-104.0","629feb5b41542f049572e04c","64e50a9464a207a405062775","","","","","2433",""," ","key"," ","16.67820547945193","500","250","instEB4","42","2","","30","0","0","40"
"","psychophysics","105","461467","0.0-105.0","629feb5b41542f049572e04c","64e50a9464a207a405062775","","","","","702",""," ","key"," ","16.678571428571427","500","250","inst","","","","","","",""
"","psychophysics","106","466806","0.0-106.0","629feb5b41542f049572e04c","64e50a9464a207a405062775","","","","","5323",""," ","key"," ","16.678175548589305","500","250","eb","40","2","","46","0","0","34"
"","psychophysics","107","469805","0.0-107.0","629feb5b41542f049572e04c","64e50a9464a207a405062775","","","","","2979",""," ","key"," ","16.67820111731836","500","250","eb","44","2","","42","0","0","38"
"","psychophysics","108","473841","0.0-108.0","629feb5b41542f049572e04c","64e50a9464a207a405062775","","","","","4022",""," ","key"," ","16.678190871369125","500","250","eb","52","2","","32","0","0","48"
"","psychophysics","109","476491","0.0-109.0","629feb5b41542f049572e04c","64e50a9464a207a405062775","","","","","2635",""," ","key"," ","16.678196202531822","500","250","eb","49","2","","42","0","0","39"
"","psychophysics","110","478059","0.0-110.0","629feb5b41542f049572e04c","64e50a9464a207a405062775","","","","","1560",""," ","key"," ","16.678301075268763","500","250","eb","49","2","","41","0","0","41"
"","psychophysics","111","479546","0.0-111.0","629feb5b41542f049572e04c","64e50a9464a207a405062775","","","","","1480",""," ","key"," ","16.678170454545498","500","250","eb","44","2","","51","0","0","35"
"","psychophysics","112","483954","0.0-112.0","629feb5b41542f049572e04c","64e50a9464a207a405062775","","","","","4403",""," ","key"," ","16.67820532319398","500","250","eb","29","2","","46","0","0","24"
"","psychophysics","113","486661","0.0-113.0","629feb5b41542f049572e04c","64e50a9464a207a405062775","","","","","2688",""," ","key"," ","16.67819875776399","500","250","eb","27","2","","33","0","0","24"
"","psychophysics","114","488517","0.0-114.0","629feb5b41542f049572e04c","64e50a9464a207a405062775","","","","","1838",""," ","key"," ","16.678099099099363","500","250","eb","40","2","","33","0","0","43"
"","psychophysics","115","490290","0.0-115.0","629feb5b41542f049572e04c","64e50a9464a207a405062775","","","","","1756",""," ","key"," ","16.678219047618942","500","250","eb","38","2","","28","0","0","30"
"","psychophysics","116","492253","0.0-116.0","629feb5b41542f049572e04c","64e50a9464a207a405062775","","","","","1950",""," ","key"," ","16.678179487179563","500","250","eb","39","2","","45","0","0","39"
"","psychophysics","117","494836","0.0-117.0","629feb5b41542f049572e04c","64e50a9464a207a405062775","","","","","2577",""," ","key"," ","16.67820779220753","500","250","eb","48","2","","53","0","0","44"
"","psychophysics","118","499235","0.0-118.0","629feb5b41542f049572e04c","64e50a9464a207a405062775","","","","","4392",""," ","key"," ","16.678118320610526","500","250","eb","48","2","","34","0","0","49"
"","psychophysics","119","503195","0.0-119.0","629feb5b41542f049572e04c","64e50a9464a207a405062775","","","","","3942",""," ","key"," ","16.67822362869199","500","250","eb","43","2","","46","0","0","37"
"","psychophysics","120","505094","0.0-120.0","629feb5b41542f049572e04c","64e50a9464a207a405062775","","","","","1884",""," ","key"," ","16.678053097345092","500","250","eb","28","2","","28","0","0","27"
"","psychophysics","121","506344","0.0-121.0","629feb5b41542f049572e04c","64e50a9464a207a405062775","","","","","1246",""," ","key"," ","16.678108108108013","500","250","inst","","","","","","",""
"","psychophysics","122","514823","0.0-122.0","629feb5b41542f049572e04c","64e50a9464a207a405062775","","","","","8473",""," ","key"," ","16.67815187376721","500","250","instBr3","-16","1","","40","0","0","300"
"","psychophysics","123","515816","0.0-123.0","629feb5b41542f049572e04c","64e50a9464a207a405062775","","","","","982",""," ","key"," ","16.67828813559273","500","250","inst","","","","","","",""
"","psychophysics","124","520602","0.0-124.0","629feb5b41542f049572e04c","64e50a9464a207a405062775","","","","","4777",""," ","key"," ","16.67814685314669","500","250","br","-18","1","1","4","-20","-22","251"
"","psychophysics","125","523626","0.0-125.0","629feb5b41542f049572e04c","64e50a9464a207a405062775","","","","","3016",""," ","key"," ","16.67815000000022","500","250","br","-13","1","1","-6","-26","30","225"
"","psychophysics","126","528345","0.0-126.0","629feb5b41542f049572e04c","64e50a9464a207a405062775","","","","","4713",""," ","key"," ","16.67819503546116","500","250","br","-12","1","1","-22","-19","-27","295"
"","psychophysics","127","532130","0.0-127.0","629feb5b41542f049572e04c","64e50a9464a207a405062775","","","","","3778",""," ","key"," ","16.6782168141593","500","250","br","-18","1","1","14","20","10","276"
"","psychophysics","128","535579","0.0-128.0","629feb5b41542f049572e04c","64e50a9464a207a405062775","","","","","3443",""," ","key"," ","16.678184466019445","500","250","br","-19","1","1","-5","10","12","205"
"","psychophysics","129","538774","0.0-129.0","629feb5b41542f049572e04c","64e50a9464a207a405062775","","","","","3187",""," ","key"," ","16.67820000000004","500","250","br","-18","1","1","1","7","-29","256"
"","psychophysics","130","542827","0.0-130.0","629feb5b41542f049572e04c","64e50a9464a207a405062775","","","","","4041",""," ","key"," ","16.67812396694227","500","250","br","-12","1","1","25","-23","-1","294"
"","psychophysics","131","546678","0.0-131.0","629feb5b41542f049572e04c","64e50a9464a207a405062775","","","","","3839",""," ","key"," ","16.678173913043903","500","250","br","-10","1","1","-16","7","-27","282"
"","psychophysics","132","549680","0.0-132.0","629feb5b41542f049572e04c","64e50a9464a207a405062775","","","","","2988",""," ","key"," ","16.678217877094717","500","250","br","-16","1","1","3","6","15","299"
"","psychophysics","133","553185","0.0-133.0","629feb5b41542f049572e04c","64e50a9464a207a405062775","","","","","3490",""," ","key"," ","16.67818660287044","500","250","br","-14","1","1","-18","-13","-1","263"
"","psychophysics","134","559227","0.0-134.0","629feb5b41542f049572e04c","64e50a9464a207a405062775","","","","","6027",""," ","key"," ","16.678152354570866","500","250","br","-21","1","1","30","-3","-19","260"
"","psychophysics","135","564249","0.0-135.0","629feb5b41542f049572e04c","64e50a9464a207a405062775","","","","","5010",""," ","key"," ","16.678142857142614","500","250","br","-20","1","1","-30","13","-29","233"
"","psychophysics","136","566504","0.0-136.0","629feb5b41542f049572e04c","64e50a9464a207a405062775","","","","","2247",""," ","key"," ","16.678194029850943","500","250","br","-11","1","1","-29","-6","11","288"
"","psychophysics","137","570779","0.0-137.0","629feb5b41542f049572e04c","64e50a9464a207a405062775","","","","","4269",""," ","key"," ","16.678074509803864","500","250","br","-17","1","1","4","6","-14","260"
"","psychophysics","138","572714","0.0-138.0","629feb5b41542f049572e04c","64e50a9464a207a405062775","","","","","1922",""," ","key"," ","16.67826956521679","500","250","br","-14","1","1","-22","28","2","246"
"","psychophysics","139","573588","0.0-139.0","629feb5b41542f049572e04c","64e50a9464a207a405062775","","","","","865",""," ","key"," ","16.678346153845688","500","250","inst","","","","","","",""
"","psychophysics","140","578727","0.0-140.0","629feb5b41542f049572e04c","64e50a9464a207a405062775","","","","","5133",""," ","key"," ","16.6781758957657","500","250","instPog0","160","1","","190","0","0","160"
"","psychophysics","141","582462","0.0-141.0","629feb5b41542f049572e04c","64e50a9464a207a405062775","","","","","3731",""," ","key"," ","16.678134529147666","500","250","instPog1","178","1","","190","0","0","160"
"","psychophysics","142","586802","0.0-142.0","629feb5b41542f049572e04c","64e50a9464a207a405062775","","","","","4337",""," ","key"," ","16.67819305019306","500","250","instPog2","188","1","","160","0","0","160"
"","psychophysics","143","589892","0.0-143.0","629feb5b41542f049572e04c","64e50a9464a207a405062775","","","","","3085",""," ","key"," ","16.6781739130434","500","250","inst","","","","","","",""
"","psychophysics","144","596259","0.0-144.0","629feb5b41542f049572e04c","64e50a9464a207a405062775","","","","","6354",""," ","key"," ","16.678154855642987","500","250","pog","215","1","1","149","0","0","186"
"","psychophysics","145","601054","0.0-145.0","629feb5b41542f049572e04c","64e50a9464a207a405062775","","","","","4787",""," ","key"," ","16.67816783216785","500","250","pog","208","1","1","118","0","0","177"
"","psychophysics","146","606730","0.0-146.0","629feb5b41542f049572e04c","64e50a9464a207a405062775","","","","","5664",""," ","key"," ","16.67815882352948","500","250","pog","208","1","1","128","0","0","182"
"","psychophysics","147","610514","0.0-147.0","629feb5b41542f049572e04c","64e50a9464a207a405062775","","","","","3776",""," ","key"," ","16.678097345132745","500","250","pog","181","1","1","171","0","0","162"
"","psychophysics","148","614211","0.0-148.0","629feb5b41542f049572e04c","64e50a9464a207a405062775","","","","","3689",""," ","key"," ","16.678240909090857","500","250","pog","163","1","1","185","0","0","134"
"","psychophysics","149","616801","0.0-149.0","629feb5b41542f049572e04c","64e50a9464a207a405062775","","","","","2576",""," ","key"," ","16.678175324675408","500","250","pog","187","1","1","197","0","0","166"
"","psychophysics","150","618563","0.0-150.0","629feb5b41542f049572e04c","64e50a9464a207a405062775","","","","","1752",""," ","key"," ","16.678238095238893","500","250","pog","182","1","1","194","0","0","145"
"","psychophysics","151","622332","0.0-151.0","629feb5b41542f049572e04c","64e50a9464a207a405062775","","","","","3754",""," ","key"," ","16.678146666666596","500","250","pog","226","1","1","186","0","0","199"
"","psychophysics","152","624859","0.0-152.0","629feb5b41542f049572e04c","64e50a9464a207a405062775","","","","","2514",""," ","key"," ","16.67811920529768","500","250","pog","180","1","1","192","0","0","147"
"","psychophysics","153","626244","0.0-153.0","629feb5b41542f049572e04c","64e50a9464a207a405062775","","","","","1379",""," ","key"," ","16.67820731707332","500","250","pog","177","1","1","179","0","0","146"
"","psychophysics","154","627462","0.0-154.0","629feb5b41542f049572e04c","64e50a9464a207a405062775","","","","","1214",""," ","key"," ","16.678208333333412","500","250","pog","161","1","1","165","0","0","136"
"","psychophysics","155","629980","0.0-155.0","629feb5b41542f049572e04c","64e50a9464a207a405062775","","","","","2513",""," ","key"," ","16.678213333333844","500","250","pog","169","1","1","173","0","0","141"
"","psychophysics","156","633303","0.0-156.0","629feb5b41542f049572e04c","64e50a9464a207a405062775","","","","","3303",""," ","key"," ","16.67821717171723","500","250","pog","186","1","1","164","0","0","164"
"","psychophysics","157","635229","0.0-157.0","629feb5b41542f049572e04c","64e50a9464a207a405062775","","","","","1915",""," ","key"," ","16.678245614034637","500","250","pog","209","1","1","215","0","0","179"
"","psychophysics","158","637207","0.0-158.0","629feb5b41542f049572e04c","64e50a9464a207a405062775","","","","","1968",""," ","key"," ","16.67816101694953","500","250","pog","192","1","1","198","0","0","165"
"","psychophysics","159","638977","0.0-159.0","629feb5b41542f049572e04c","64e50a9464a207a405062775","","","","","1766",""," ","key"," ","16.678180952381254","500","250","inst","","","","","","",""
"","psychophysics","160","642777","0.0-160.0","629feb5b41542f049572e04c","64e50a9464a207a405062775","","","","","3788",""," ","key"," ","16.678092511013325","500","250","instZol1","2.7755575615628914e-17","","","-1.3","0","0",""
"","psychophysics","161","647633","0.0-161.0","629feb5b41542f049572e04c","64e50a9464a207a405062775","","","","","4839",""," ","key"," ","16.678168965517223","500","250","instZol2","1.0000000000000007","1","","2","0","0",""
"","psychophysics","162","648443","0.0-162.0","629feb5b41542f049572e04c","64e50a9464a207a405062775","","","","","800",""," ","key"," ","16.678229166665307","500","250","inst","","","","","","",""
"","psychophysics","163","655885","0.0-163.0","629feb5b41542f049572e04c","64e50a9464a207a405062775","","","","","7425",""," ","key"," ","16.678177528090128","500","250","zol","1.3900000000000001","1","1","0.51","29","26",""
"","psychophysics","164","658989","0.0-164.0","629feb5b41542f049572e04c","64e50a9464a207a405062775","","","","","3087",""," ","key"," ","16.67820540540537","500","250","zol","0.9899999999999999","1","1","0.71","2","-3",""
"","psychophysics","165","664811","0.0-165.0","629feb5b41542f049572e04c","64e50a9464a207a405062775","","","","","5799",""," ","key"," ","16.678137931034396","500","250","zol","0.82","1","1","0.18","27","8",""
"","psychophysics","166","670434","0.0-166.0","629feb5b41542f049572e04c","64e50a9464a207a405062775","","","","","5611",""," ","key"," ","16.678160714285955","500","250","zol","1.2500000000000002","1","1","-0.05","-21","-7",""
"","psychophysics","167","675495","0.0-167.0","629feb5b41542f049572e04c","64e50a9464a207a405062775","","","","","5045",""," ","key"," ","16.678207920791994","500","250","zol","1.5000000000000002","1","1","-0.2","29","30",""
"","psychophysics","168","680430","0.0-168.0","629feb5b41542f049572e04c","64e50a9464a207a405062775","","","","","4916",""," ","key"," ","16.678159322034","500","250","zol","1.3500000000000003","1","1","-0.45","29","-22",""
"","psychophysics","169","687335","0.0-169.0","629feb5b41542f049572e04c","64e50a9464a207a405062775","","","","","6888",""," ","key"," ","16.678193704600584","500","250","zol","1.4000000000000001","1","1","-0.1","-18","-9",""
"","psychophysics","170","692783","0.0-170.0","629feb5b41542f049572e04c","64e50a9464a207a405062775","","","","","5439",""," ","key"," ","16.678150769230694","500","250","zol","1.4700000000000002","1","1","-0.17","-10","-23",""
"","psychophysics","171","698213","0.0-171.0","629feb5b41542f049572e04c","64e50a9464a207a405062775","","","","","5417",""," ","key"," ","16.67813846153816","500","250","zol","1.35","1","1","-0.35","-10","-22",""
"","psychophysics","172","701391","0.0-172.0","629feb5b41542f049572e04c","64e50a9464a207a405062775","","","","","3160",""," ","key"," ","16.678153439153295","500","250","zol","1.29","1","1","0.11","-27","-5",""
"","psychophysics","173","707948","0.0-173.0","629feb5b41542f049572e04c","64e50a9464a207a405062775","","","","","6540",""," ","key"," ","16.67813994910932","500","250","zol","1.0899999999999999","1","1","0.71","-30","0",""
"","psychophysics","174","712059","0.0-174.0","629feb5b41542f049572e04c","64e50a9464a207a405062775","","","","","4101",""," ","key"," ","16.678187755101874","500","250","zol","1.3900000000000001","1","1","-0.59","-5","-11",""
"","psychophysics","175","715265","0.0-175.0","629feb5b41542f049572e04c","64e50a9464a207a405062775","","","","","3189",""," ","key"," ","16.678151832460742","500","250","zol","1.6000000000000003","1","1","0.2","4","8",""
"","psychophysics","176","718814","0.0-176.0","629feb5b41542f049572e04c","64e50a9464a207a405062775","","","","","3536",""," ","key"," ","16.67823584905643","500","250","zol","1.4800000000000002","1","1","-0.18","-25","7",""
"","psychophysics","177","724044","0.0-177.0","629feb5b41542f049572e04c","64e50a9464a207a405062775","","","","","5214",""," ","key"," ","16.67816293929717","500","250","zol","1.1300000000000001","1","1","-0.43","18","-30",""
"","psychophysics","178","750268","0.0-178.0","629feb5b41542f049572e04c","64e50a9464a207a405062775","","","","","26219",""," ","key"," ","16.67816359007003","500","250","inst","","","","","","",""
"","psychophysics","179","755934","0.0-179.0","629feb5b41542f049572e04c","64e50a9464a207a405062775","","","","","5662",""," ","key"," ","16.678188790560352","500","250","instEB1","31","1","","40","0","0","30"
"","psychophysics","180","757986","0.0-180.0","629feb5b41542f049572e04c","64e50a9464a207a405062775","","","","","2046",""," ","key"," ","16.678221311475546","500","250","instEB2","41","1","","30","0","0","40"
"","psychophysics","181","759688","0.0-181.0","629feb5b41542f049572e04c","64e50a9464a207a405062775","","","","","1653",""," ","key"," ","16.845","500","250","instEB3","37","1","","27","0","0","45"
"","psychophysics","182","763359","0.0-182.0","629feb5b41542f049572e04c","64e50a9464a207a405062775","","","","","3655",""," ","key"," ","16.678164383561295","500","250","instEB4","26","1","","40","0","0","30"
"","psychophysics","183","764050","0.0-183.0","629feb5b41542f049572e04c","64e50a9464a207a405062775","","","","","685",""," ","key"," ","16.677825000000304","500","250","inst","","","","","","",""
"","psychophysics","184","767178","0.0-184.0","629feb5b41542f049572e04c","64e50a9464a207a405062775","","","","","3109",""," ","key"," ","16.67821390374332","500","250","eb","41","1","","50","0","0","43"
"","psychophysics","185","769514","0.0-185.0","629feb5b41542f049572e04c","64e50a9464a207a405062775","","","","","2328",""," ","key"," ","16.678194244604946","500","250","eb","33","1","","28","0","0","36"
"","psychophysics","186","773249","0.0-186.0","629feb5b41542f049572e04c","64e50a9464a207a405062775","","","","","3716",""," ","key"," ","16.67808968609882","500","250","eb","40","1","","46","0","0","43"
"","psychophysics","187","778923","0.0-187.0","629feb5b41542f049572e04c","64e50a9464a207a405062775","","","","","5657",""," ","key"," ","16.67816814159285","500","250","eb","25","1","","50","0","0","25"
"","psychophysics","188","782585","0.0-188.0","629feb5b41542f049572e04c","64e50a9464a207a405062775","","","","","3642",""," ","key"," ","16.678159817351563","500","250","eb","49","1","","44","0","0","52"
"","psychophysics","189","784856","0.0-189.0","629feb5b41542f049572e04c","64e50a9464a207a405062775","","","","","2261",""," ","key"," ","16.67823703703643","500","250","eb","30","1","","27","0","0","31"
"","psychophysics","190","789514","0.0-190.0","629feb5b41542f049572e04c","64e50a9464a207a405062775","","","","","4652",""," ","key"," ","16.678208633093583","500","250","eb","27","1","","25","0","0","29"
"","psychophysics","191","796986","0.0-191.0","629feb5b41542f049572e04c","64e50a9464a207a405062775","","","","","7458",""," ","key"," ","16.67812975391488","500","250","eb","45","1","","28","0","0","50"
"","psychophysics","192","801332","0.0-192.0","629feb5b41542f049572e04c","64e50a9464a207a405062775","","","","","4332",""," ","key"," ","16.67814615384604","500","250","eb","45","1","","25","0","0","43"
"","psychophysics","193","805888","0.0-193.0","629feb5b41542f049572e04c","64e50a9464a207a405062775","","","","","4549",""," ","key"," ","16.678102941176537","500","250","eb","34","1","","52","0","0","37"
"","psychophysics","194","808973","0.0-194.0","629feb5b41542f049572e04c","64e50a9464a207a405062775","","","","","3068",""," ","key"," ","16.6781739130434","500","250","eb","28","1","","42","0","0","27"
"","psychophysics","195","813413","0.0-195.0","629feb5b41542f049572e04c","64e50a9464a207a405062775","","","","","4433",""," ","key"," ","16.678199999999993","500","250","eb","34","1","","54","0","0","38"
"","psychophysics","196","817040","0.0-196.0","629feb5b41542f049572e04c","64e50a9464a207a405062775","","","","","3604",""," ","key"," ","16.678253456221118","500","250","eb","43","1","","37","0","0","44"
"","psychophysics","197","819230","0.0-197.0","629feb5b41542f049572e04c","64e50a9464a207a405062775","","","","","2182",""," ","key"," ","16.678099999999485","500","250","eb","46","1","","49","0","0","45"
"","psychophysics","198","821231","0.0-198.0","629feb5b41542f049572e04c","64e50a9464a207a405062775","","","","","1982",""," ","key"," ","16.678235294117336","500","250","eb","40","1","","52","0","0","39"
"","psychophysics","199","822431","0.0-199.0","629feb5b41542f049572e04c","64e50a9464a207a405062775","","","","","1197",""," ","key"," ","16.67811267605563","500","250","inst","","","","","","",""
"","psychophysics","200","827555","0.0-200.0","629feb5b41542f049572e04c","64e50a9464a207a405062775","","","","","5110",""," ","key"," ","16.6781045751634","500","250","instPz1","42","2","","25","","","50"
"","psychophysics","201","829148","0.0-201.0","629feb5b41542f049572e04c","64e50a9464a207a405062775","","","","","1581",""," ","key"," ","16.678178947368686","500","250","instPz2","35","2","","20","","","35"
"","psychophysics","202","834636","0.0-202.0","629feb5b41542f049572e04c","64e50a9464a207a405062775","","","","","5478",""," ","key"," ","16.67810975609769","500","250","instPz3","49","2","","30","","","100"
"","psychophysics","203","837429","0.0-203.0","629feb5b41542f049572e04c","64e50a9464a207a405062775","","","","","2788",""," ","key"," ","16.678120481928232","500","250","instPz4","49","2","","30","","","100"
"","psychophysics","204","839032","0.0-204.0","629feb5b41542f049572e04c","64e50a9464a207a405062775","","","","","1586",""," ","key"," ","16.678221052631393","500","250","inst","","","","","","",""
"","psychophysics","205","842217","0.0-205.0","629feb5b41542f049572e04c","64e50a9464a207a405062775","","","","","3172",""," ","key"," ","16.678210526315716","500","250","pz","31","2","1","47","","","52"
"","psychophysics","206","846011","0.0-206.0","629feb5b41542f049572e04c","64e50a9464a207a405062775","","","","","3781",""," ","key"," ","16.678176211453728","500","250","pz","23","2","1","41","","","23"
"","psychophysics","207","849009","0.0-207.0","629feb5b41542f049572e04c","64e50a9464a207a405062775","","","","","2990",""," ","key"," ","16.67810674157292","500","250","pz","28","2","1","49","","","47"
"","psychophysics","208","850132","0.0-208.0","629feb5b41542f049572e04c","64e50a9464a207a405062775","","","","","1112",""," ","key"," ","16.67794029850603","500","250","pz","29","2","1","27","","","32"
"","psychophysics","209","853982","0.0-209.0","629feb5b41542f049572e04c","64e50a9464a207a405062775","","","","","3843",""," ","key"," ","16.67813913043457","500","250","pz","35","2","1","45","","","55"
"","psychophysics","210","857230","0.0-210.0","629feb5b41542f049572e04c","64e50a9464a207a405062775","","","","","3240",""," ","key"," ","16.678181347150087","500","250","pz","27","2","1","32","","","36"
"","psychophysics","211","860959","0.0-211.0","629feb5b41542f049572e04c","64e50a9464a207a405062775","","","","","3716",""," ","key"," ","16.67816591928264","500","250","pz","23","2","1","24","","","32"
"","psychophysics","212","862589","0.0-212.0","629feb5b41542f049572e04c","64e50a9464a207a405062775","","","","","1620",""," ","key"," ","16.678175257731315","500","250","pz","22","2","1","22","","","36"
"","psychophysics","213","864631","0.0-213.0","629feb5b41542f049572e04c","64e50a9464a207a405062775","","","","","2026",""," ","key"," ","16.678264462809494","500","250","pz","25","2","1","20","","","49"
"","psychophysics","214","867301","0.0-214.0","629feb5b41542f049572e04c","64e50a9464a207a405062775","","","","","2655",""," ","key"," ","16.678163522013183","500","250","pz","23","2","1","34","","","37"
"","psychophysics","215","871212","0.0-215.0","629feb5b41542f049572e04c","64e50a9464a207a405062775","","","","","3898",""," ","key"," ","16.678090128755343","500","250","pz","32","2","1","29","","","53"
"","psychophysics","216","875380","0.0-216.0","629feb5b41542f049572e04c","64e50a9464a207a405062775","","","","","4149",""," ","key"," ","16.67813599999994","500","250","pz","36","2","1","50","","","55"
"","psychophysics","217","879244","0.0-217.0","629feb5b41542f049572e04c","64e50a9464a207a405062775","","","","","3855",""," ","key"," ","16.678182608695984","500","250","pz","26","2","1","44","","","28"
"","psychophysics","218","886242","0.0-218.0","629feb5b41542f049572e04c","64e50a9464a207a405062775","","","","","6984",""," ","key"," ","16.67821002386645","500","250","pz","38","2","1","48","","","57"
"","psychophysics","219","889259","0.0-219.0","629feb5b41542f049572e04c","64e50a9464a207a405062775","","","","","3005",""," ","key"," ","16.678138888889226","500","250","pz","29","2","1","54","","","42"
