"success","trial_type","trial_index","time_elapsed","internal_node_id","pid","sid","timeout","failed_images","failed_audio","failed_video","rt","stimulus","response","response_type","key_press","avg_frame_time","center_x","center_y","task","resp","start","parA","version","block","jitterX","jitterY"
"true","fullscreen","0","1841","0.0-0.0","5f575dcee56fa81e090f3a5d","64de83488e1f7d292855f9fe","","","","","","","","","","","","","","","","","","","",""
"true","preload","1","1869","0.0-1.0","5f575dcee56fa81e090f3a5d","64de83488e1f7d292855f9fe","false","[]","[]","[]","","","","","","","","","","","","","","","",""
"","html-button-response","2","2665","0.0-2.0","5f575dcee56fa81e090f3a5d","64de83488e1f7d292855f9fe","","","","","794","Please Make Sure Your Audio Is On.","0","","","","","","","","","","","","",""
"","psychophysics","3","6227","0.0-3.0","5f575dcee56fa81e090f3a5d","64de83488e1f7d292855f9fe","","","","","3558",""," ","key"," ","8.353629976580796","960","250","","","","","","","",""
"","psychophysics","4","7953","0.0-4.0","5f575dcee56fa81e090f3a5d","64de83488e1f7d292855f9fe","","","","","1725",""," ","key"," ","8.33495145631068","500","250","inst","","","","","","",""
"","psychophysics","5","9211","0.0-5.0","5f575dcee56fa81e090f3a5d","64de83488e1f7d292855f9fe","","","","","1256",""," ","key"," ","8.333333333333334","500","250","sample0","","","","","","",""
"","psychophysics","6","10489","0.0-6.0","5f575dcee56fa81e090f3a5d","64de83488e1f7d292855f9fe","","","","","1277",""," ","key"," ","8.335526315789474","500","250","sample1","","","","","","",""
"","psychophysics","7","12811","0.0-7.0","5f575dcee56fa81e090f3a5d","64de83488e1f7d292855f9fe","","","","","2318",""," ","key"," ","8.33453237410072","500","250","sample2","88","","","","","",""
"","psychophysics","8","16952","0.0-8.0","5f575dcee56fa81e090f3a5d","64de83488e1f7d292855f9fe","","","","","4139",""," ","key"," ","8.334677419354838","500","250","sample3","96","","","","","",""
"","psychophysics","9","20654","0.0-9.0","5f575dcee56fa81e090f3a5d","64de83488e1f7d292855f9fe","","","","","3701",""," ","key"," ","8.334085778781038","500","250","sample4","96","","","","","",""
"","psychophysics","10","22083","0.0-10.0","5f575dcee56fa81e090f3a5d","64de83488e1f7d292855f9fe","","","","","1428",""," ","key"," ","8.33529411764706","500","250","sample5","","","","","","",""
"","psychophysics","11","25883","0.0-11.0","5f575dcee56fa81e090f3a5d","64de83488e1f7d292855f9fe","","","","","3798",""," ","key"," ","8.334065934065935","500","250","sample6","504","","","","","",""
"","psychophysics","12","28812","0.0-12.0","5f575dcee56fa81e090f3a5d","64de83488e1f7d292855f9fe","","","","","2927",""," ","key"," ","8.336182336182336","500","250","inst","","","","","","",""
"","psychophysics","13","30366","0.0-13.0","5f575dcee56fa81e090f3a5d","64de83488e1f7d292855f9fe","","","","","1553",""," ","key"," ","8.335135135135134","500","250","inst","","","","","","",""
"","psychophysics","14","31764","0.0-14.0","5f575dcee56fa81e090f3a5d","64de83488e1f7d292855f9fe","","","","","1397",""," ","key"," ","8.32934131736527","500","250","inst","","","","","","",""
"","psychophysics","15","33255","0.0-15.0","5f575dcee56fa81e090f3a5d","64de83488e1f7d292855f9fe","","","","","1491",""," ","key"," ","8.331460674157304","500","250","inst","","","","","","",""
"","psychophysics","16","34679","0.0-16.0","5f575dcee56fa81e090f3a5d","64de83488e1f7d292855f9fe","","","","","1423",""," ","key"," ","8.329411764705883","500","250","inst","","","","","","",""
"","psychophysics","17","37887","0.0-17.0","5f575dcee56fa81e090f3a5d","64de83488e1f7d292855f9fe","","","","","3208",""," ","key"," ","8.333333333333334","500","250","instPzPre","50","50","50","0","","",""
"","psychophysics","18","54509","0.0-18.0","5f575dcee56fa81e090f3a5d","64de83488e1f7d292855f9fe","","","","","16620",""," ","key"," ","8.334671349724035","500","250","instPz0","47","50","50","1","","",""
"","psychophysics","19","65393","0.0-19.0","5f575dcee56fa81e090f3a5d","64de83488e1f7d292855f9fe","","","","","10885",""," ","key"," ","8.334865900383141","500","250","instPz1","53","25","50","1","","",""
"","psychophysics","20","72272","0.0-20.0","5f575dcee56fa81e090f3a5d","64de83488e1f7d292855f9fe","","","","","6877",""," ","key"," ","8.33495145631068","500","250","instPz2","20","35","20","1","","",""
"","psychophysics","21","89958","0.0-21.0","5f575dcee56fa81e090f3a5d","64de83488e1f7d292855f9fe","","","","","17685",""," ","key"," ","8.346553352219075","500","250","instPz3","41","100","30","1","","",""
"","psychophysics","22","100717","0.0-22.0","5f575dcee56fa81e090f3a5d","64de83488e1f7d292855f9fe","","","","","10756",""," ","key"," ","8.334883720930232","500","250","instPz4","38","100","30","1","","",""
"","psychophysics","23","103352","0.0-23.0","5f575dcee56fa81e090f3a5d","64de83488e1f7d292855f9fe","","","","","2635",""," ","key"," ","8.336507936507937","500","250","inst","","","","","","",""
"","psychophysics","24","109611","0.0-24.0","5f575dcee56fa81e090f3a5d","64de83488e1f7d292855f9fe","","","","","6258",""," ","key"," ","8.334666666666667","500","250","pz","40","53","28","1","0","",""
"","psychophysics","25","113251","0.0-25.0","5f575dcee56fa81e090f3a5d","64de83488e1f7d292855f9fe","","","","","3638",""," ","key"," ","8.3348623853211","500","250","pz","46","56","27","1","0","",""
"","psychophysics","26","115111","0.0-26.0","5f575dcee56fa81e090f3a5d","64de83488e1f7d292855f9fe","","","","","1859",""," ","key"," ","8.333333333333334","500","250","pz","55","55","31","1","0","",""
"","psychophysics","27","119541","0.0-27.0","5f575dcee56fa81e090f3a5d","64de83488e1f7d292855f9fe","","","","","4430",""," ","key"," ","8.335216572504708","500","250","pz","50","35","32","1","0","",""
"","psychophysics","28","124711","0.0-28.0","5f575dcee56fa81e090f3a5d","64de83488e1f7d292855f9fe","","","","","5168",""," ","key"," ","8.334410339256866","500","250","pz","71","21","51","1","0","",""
"","psychophysics","29","127541","0.0-29.0","5f575dcee56fa81e090f3a5d","64de83488e1f7d292855f9fe","","","","","2828",""," ","key"," ","8.334319526627219","500","250","pz","49","36","29","1","0","",""
"","psychophysics","30","133155","0.0-30.0","5f575dcee56fa81e090f3a5d","64de83488e1f7d292855f9fe","","","","","5613",""," ","key"," ","8.334323922734027","500","250","pz","43","57","25","1","0","",""
"","psychophysics","31","139988","0.0-31.0","5f575dcee56fa81e090f3a5d","64de83488e1f7d292855f9fe","","","","","6832",""," ","key"," ","8.334554334554335","500","250","pz","79","41","53","1","0","",""
"","psychophysics","32","147002","0.0-32.0","5f575dcee56fa81e090f3a5d","64de83488e1f7d292855f9fe","","","","","7013",""," ","key"," ","8.334523809523809","500","250","pz","84","38","56","1","0","",""
"","psychophysics","33","151245","0.0-33.0","5f575dcee56fa81e090f3a5d","64de83488e1f7d292855f9fe","","","","","4240",""," ","key"," ","8.334645669291339","500","250","pz","88","23","53","1","0","",""
"","psychophysics","34","155176","0.0-34.0","5f575dcee56fa81e090f3a5d","64de83488e1f7d292855f9fe","","","","","3929",""," ","key"," ","8.333333333333334","500","250","pz","56","23","39","1","0","",""
"","psychophysics","35","159500","0.0-35.0","5f575dcee56fa81e090f3a5d","64de83488e1f7d292855f9fe","","","","","4324",""," ","key"," ","8.333976833976834","500","250","pz","49","23","34","1","0","",""
"","psychophysics","36","163130","0.0-36.0","5f575dcee56fa81e090f3a5d","64de83488e1f7d292855f9fe","","","","","3629",""," ","key"," ","8.334101382488479","500","250","pz","49","43","37","1","0","",""
"","psychophysics","37","167660","0.0-37.0","5f575dcee56fa81e090f3a5d","64de83488e1f7d292855f9fe","","","","","4528",""," ","key"," ","8.335174953959484","500","250","pz","36","32","27","1","0","",""
"","psychophysics","38","171058","0.0-38.0","5f575dcee56fa81e090f3a5d","64de83488e1f7d292855f9fe","","","","","3397",""," ","key"," ","8.334152334152334","500","250","pz","53","27","44","1","0","",""
"","psychophysics","39","172459","0.0-39.0","5f575dcee56fa81e090f3a5d","64de83488e1f7d292855f9fe","","","","","1401",""," ","key"," ","8.335329341317365","500","250","inst","","","","","","",""
"","psychophysics","40","174526","0.0-40.0","5f575dcee56fa81e090f3a5d","64de83488e1f7d292855f9fe","","","","","2065",""," ","key"," ","8.336032388663968","500","250","instEB0","40","40","40","1","","0","0"
"","psychophysics","41","184694","0.0-41.0","5f575dcee56fa81e090f3a5d","64de83488e1f7d292855f9fe","","","","","10165",""," ","key"," ","8.33470057424118","500","250","instEB1","31","40","30","1","","0","0"
"","psychophysics","42","191003","0.0-42.0","5f575dcee56fa81e090f3a5d","64de83488e1f7d292855f9fe","","","","","6308",""," ","key"," ","8.378989361702128","500","250","instEB2","35","30","40","1","","0","0"
"","psychophysics","43","205070","0.0-43.0","5f575dcee56fa81e090f3a5d","64de83488e1f7d292855f9fe","","","","","14065",""," ","key"," ","8.33511269276394","500","250","instEB3","41","27","45","1","","0","0"
"","psychophysics","44","213674","0.0-44.0","5f575dcee56fa81e090f3a5d","64de83488e1f7d292855f9fe","","","","","8602",""," ","key"," ","8.334302325581396","500","250","instEB4","25","40","30","1","","0","0"
"","psychophysics","45","215126","0.0-45.0","5f575dcee56fa81e090f3a5d","64de83488e1f7d292855f9fe","","","","","1451",""," ","key"," ","8.335260115606937","500","250","inst","","","","","","",""
"","psychophysics","46","220457","0.0-46.0","5f575dcee56fa81e090f3a5d","64de83488e1f7d292855f9fe","","","","","5329",""," ","key"," ","8.33385579937304","500","250","eb","43","34","47","1","","0","0"
"","psychophysics","47","224848","0.0-47.0","5f575dcee56fa81e090f3a5d","64de83488e1f7d292855f9fe","","","","","4388",""," ","key"," ","8.334600760456274","500","250","eb","30","54","36","1","","0","0"
"","psychophysics","48","229326","0.0-48.0","5f575dcee56fa81e090f3a5d","64de83488e1f7d292855f9fe","","","","","4475",""," ","key"," ","8.335195530726256","500","250","eb","39","43","44","1","","0","0"
"","psychophysics","49","232721","0.0-49.0","5f575dcee56fa81e090f3a5d","64de83488e1f7d292855f9fe","","","","","3393",""," ","key"," ","8.334975369458128","500","250","eb","37","48","39","1","","0","0"
"","psychophysics","50","236973","0.0-50.0","5f575dcee56fa81e090f3a5d","64de83488e1f7d292855f9fe","","","","","4250",""," ","key"," ","8.335952848722986","500","250","eb","31","34","34","1","","0","0"
"","psychophysics","51","240157","0.0-51.0","5f575dcee56fa81e090f3a5d","64de83488e1f7d292855f9fe","","","","","3184",""," ","key"," ","8.335958005249344","500","250","eb","43","31","41","1","","0","0"
"","psychophysics","52","244417","0.0-52.0","5f575dcee56fa81e090f3a5d","64de83488e1f7d292855f9fe","","","","","4258",""," ","key"," ","8.33529411764706","500","250","eb","49","40","51","1","","0","0"
"","psychophysics","53","249916","0.0-53.0","5f575dcee56fa81e090f3a5d","64de83488e1f7d292855f9fe","","","","","5498",""," ","key"," ","8.333839150227618","500","250","eb","26","36","28","1","","0","0"
"","psychophysics","54","256118","0.0-54.0","5f575dcee56fa81e090f3a5d","64de83488e1f7d292855f9fe","","","","","6200",""," ","key"," ","8.333781965006729","500","250","eb","51","34","49","1","","0","0"
"","psychophysics","55","260657","0.0-55.0","5f575dcee56fa81e090f3a5d","64de83488e1f7d292855f9fe","","","","","4537",""," ","key"," ","8.334558823529411","500","250","eb","21","33","25","1","","0","0"
"","psychophysics","56","264181","0.0-56.0","5f575dcee56fa81e090f3a5d","64de83488e1f7d292855f9fe","","","","","3522",""," ","key"," ","8.334123222748815","500","250","eb","46","52","46","1","","0","0"
"","psychophysics","57","267871","0.0-57.0","5f575dcee56fa81e090f3a5d","64de83488e1f7d292855f9fe","","","","","3688",""," ","key"," ","8.333333333333334","500","250","eb","34","51","35","1","","0","0"
"","psychophysics","58","270542","0.0-58.0","5f575dcee56fa81e090f3a5d","64de83488e1f7d292855f9fe","","","","","2670",""," ","key"," ","8.334375","500","250","eb","30","50","34","1","","0","0"
"","psychophysics","59","273869","0.0-59.0","5f575dcee56fa81e090f3a5d","64de83488e1f7d292855f9fe","","","","","3325",""," ","key"," ","8.334170854271356","500","250","eb","22","38","29","1","","0","0"
"","psychophysics","60","277276","0.0-60.0","5f575dcee56fa81e090f3a5d","64de83488e1f7d292855f9fe","","","","","3406",""," ","key"," ","8.333333333333334","500","250","eb","31","50","37","1","","0","0"
"","psychophysics","61","277981","0.0-61.0","5f575dcee56fa81e090f3a5d","64de83488e1f7d292855f9fe","","","","","704",""," ","key"," ","8.337349397590362","500","250","inst","","","","","","",""
"","psychophysics","62","281246","0.0-62.0","5f575dcee56fa81e090f3a5d","64de83488e1f7d292855f9fe","","","","","3264",""," ","key"," ","8.332480818414322","500","250","instBr0","0","0","300","","","0","0"
"","psychophysics","63","290250","0.0-63.0","5f575dcee56fa81e090f3a5d","64de83488e1f7d292855f9fe","","","","","9003",""," ","key"," ","8.334569045412419","500","250","instBr1","7","-40","300","","","0","0"
"","psychophysics","64","298116","0.0-64.0","5f575dcee56fa81e090f3a5d","64de83488e1f7d292855f9fe","","","","","7865",""," ","key"," ","8.335100742311772","500","250","instBr3","-13","40","300","1","","0","0"
"","psychophysics","65","299622","0.0-65.0","5f575dcee56fa81e090f3a5d","64de83488e1f7d292855f9fe","","","","","1504",""," ","key"," ","8.333333333333334","500","250","inst","","","","","","",""
"","psychophysics","66","303471","0.0-66.0","5f575dcee56fa81e090f3a5d","64de83488e1f7d292855f9fe","","","","","3848",""," ","key"," ","8.33405639913232","500","250","br","-16","9","237","1","0","20","16"
"","psychophysics","67","310793","0.0-67.0","5f575dcee56fa81e090f3a5d","64de83488e1f7d292855f9fe","","","","","7320",""," ","key"," ","8.335233751425314","500","250","br","-6","-19","254","1","0","-10","24"
"","psychophysics","68","315417","0.0-68.0","5f575dcee56fa81e090f3a5d","64de83488e1f7d292855f9fe","","","","","4623",""," ","key"," ","8.333935018050541","500","250","br","-14","23","250","1","0","-26","28"
"","psychophysics","69","318440","0.0-69.0","5f575dcee56fa81e090f3a5d","64de83488e1f7d292855f9fe","","","","","3022",""," ","key"," ","8.334254143646408","500","250","br","-20","-12","251","1","0","17","26"
"","psychophysics","70","324732","0.0-70.0","5f575dcee56fa81e090f3a5d","64de83488e1f7d292855f9fe","","","","","6291",""," ","key"," ","8.334661354581673","500","250","br","-20","20","281","1","0","-8","-2"
"","psychophysics","71","327884","0.0-71.0","5f575dcee56fa81e090f3a5d","64de83488e1f7d292855f9fe","","","","","3150",""," ","key"," ","8.333333333333334","500","250","br","-18","3","216","1","0","26","-12"
"","psychophysics","72","331051","0.0-72.0","5f575dcee56fa81e090f3a5d","64de83488e1f7d292855f9fe","","","","","3165",""," ","key"," ","8.335092348284961","500","250","br","-30","-10","242","1","0","-29","12"
"","psychophysics","73","334636","0.0-73.0","5f575dcee56fa81e090f3a5d","64de83488e1f7d292855f9fe","","","","","3583",""," ","key"," ","8.333333333333334","500","250","br","-18","12","232","1","0","28","17"
"","psychophysics","74","338255","0.0-74.0","5f575dcee56fa81e090f3a5d","64de83488e1f7d292855f9fe","","","","","3617",""," ","key"," ","8.334872979214781","500","250","br","-19","-26","233","1","0","-22","-15"
"","psychophysics","75","342947","0.0-75.0","5f575dcee56fa81e090f3a5d","64de83488e1f7d292855f9fe","","","","","4690",""," ","key"," ","8.334519572953736","500","250","br","-20","4","208","1","0","0","-13"
"","psychophysics","76","348860","0.0-76.0","5f575dcee56fa81e090f3a5d","64de83488e1f7d292855f9fe","","","","","5911",""," ","key"," ","8.334745762711865","500","250","br","-19","29","268","1","0","-13","26"
"","psychophysics","77","354131","0.0-77.0","5f575dcee56fa81e090f3a5d","64de83488e1f7d292855f9fe","","","","","5269",""," ","key"," ","8.335443037974683","500","250","br","-22","-8","232","1","0","11","4"
"","psychophysics","78","357769","0.0-78.0","5f575dcee56fa81e090f3a5d","64de83488e1f7d292855f9fe","","","","","3636",""," ","key"," ","8.335632183908046","500","250","br","-22","29","290","1","0","28","-27"
"","psychophysics","79","361706","0.0-79.0","5f575dcee56fa81e090f3a5d","64de83488e1f7d292855f9fe","","","","","3935",""," ","key"," ","8.334745762711865","500","250","br","-18","-3","271","1","0","-26","0"
"","psychophysics","80","364215","0.0-80.0","5f575dcee56fa81e090f3a5d","64de83488e1f7d292855f9fe","","","","","2508",""," ","key"," ","8.336666666666666","500","250","br","-18","-27","257","1","0","1","-1"
"","psychophysics","81","364859","0.0-81.0","5f575dcee56fa81e090f3a5d","64de83488e1f7d292855f9fe","","","","","643",""," ","key"," ","8.342105263157896","500","250","inst","","","","","","",""
"","psychophysics","82","380084","0.0-82.0","5f575dcee56fa81e090f3a5d","64de83488e1f7d292855f9fe","","","","","15224",""," ","key"," ","8.334611171960569","500","250","instZol0","0.5999999999999993","0","","","","0","0"
"","psychophysics","83","388998","0.0-83.0","5f575dcee56fa81e090f3a5d","64de83488e1f7d292855f9fe","","","","","8913",""," ","key"," ","8.335205992509364","500","250","instZol1","0.4999999999999998","-1.3","","","","0","0"
"","psychophysics","84","400054","0.0-84.0","5f575dcee56fa81e090f3a5d","64de83488e1f7d292855f9fe","","","","","11053",""," ","key"," ","8.334841628959277","500","250","instZol2","-1.3999999999999997","2","","2","","0","0"
"","psychophysics","85","400986","0.0-85.0","5f575dcee56fa81e090f3a5d","64de83488e1f7d292855f9fe","","","","","931",""," ","key"," ","8.333333333333334","500","250","inst","","","","","","",""
"","psychophysics","86","408988","0.0-86.0","5f575dcee56fa81e090f3a5d","64de83488e1f7d292855f9fe","","","","","null","","null","key","null","8.343423799582464","500","250","zol","-0.8799999999999998","0.18","","2","0","-25","10"
"","psychophysics","87","409346","0.0-87.0","5f575dcee56fa81e090f3a5d","64de83488e1f7d292855f9fe","","","","","357",""," ","key"," ","8.333333333333334","500","250","zol","0.04","-0.04","","2","0","3","-25"
"","psychophysics","88","413542","0.0-88.0","5f575dcee56fa81e090f3a5d","64de83488e1f7d292855f9fe","","","","","4195",""," ","key"," ","8.334661354581673","500","250","zol","-1.4900000000000002","-0.21","","2","0","-17","-8"
"","psychophysics","89","418473","0.0-89.0","5f575dcee56fa81e090f3a5d","64de83488e1f7d292855f9fe","","","","","4928",""," ","key"," ","8.333333333333334","500","250","zol","-1.29","0.19","","2","0","17","-3"
"","psychophysics","90","423300","0.0-90.0","5f575dcee56fa81e090f3a5d","64de83488e1f7d292855f9fe","","","","","4825",""," ","key"," ","8.333910034602075","500","250","zol","-2.310000000000001","0.31","","2","0","-26","23"
"","psychophysics","91","427800","0.0-91.0","5f575dcee56fa81e090f3a5d","64de83488e1f7d292855f9fe","","","","","4498",""," ","key"," ","8.335807050092765","500","250","zol","-1.2300000000000002","-0.37","","2","0","-15","29"
"","psychophysics","92","432877","0.0-92.0","5f575dcee56fa81e090f3a5d","64de83488e1f7d292855f9fe","","","","","5076",""," ","key"," ","8.335526315789474","500","250","zol","-1.6900000000000004","-0.11","","2","0","-30","7"
"","psychophysics","93","436738","0.0-93.0","5f575dcee56fa81e090f3a5d","64de83488e1f7d292855f9fe","","","","","3859",""," ","key"," ","8.335497835497835","500","250","zol","-1.7700000000000005","-0.33","","2","0","0","-16"
"","psychophysics","94","440426","0.0-94.0","5f575dcee56fa81e090f3a5d","64de83488e1f7d292855f9fe","","","","","3685",""," ","key"," ","8.334841628959277","500","250","zol","-1.5600000000000003","-0.14","","2","0","-15","-9"
"","psychophysics","95","444413","0.0-95.0","5f575dcee56fa81e090f3a5d","64de83488e1f7d292855f9fe","","","","","3985",""," ","key"," ","8.335429769392034","500","250","zol","-2.6400000000000015","-0.46","","2","0","-27","-29"
"","psychophysics","96","449890","0.0-96.0","5f575dcee56fa81e090f3a5d","64de83488e1f7d292855f9fe","","","","","5476",""," ","key"," ","8.335365853658537","500","250","zol","-2.1100000000000008","-0.19","","2","0","19","-9"
"","psychophysics","97","454080","0.0-97.0","5f575dcee56fa81e090f3a5d","64de83488e1f7d292855f9fe","","","","","4188",""," ","key"," ","8.334661354581673","500","250","zol","-1.5900000000000003","0.59","","2","0","16","-13"
"","psychophysics","98","458807","0.0-98.0","5f575dcee56fa81e090f3a5d","64de83488e1f7d292855f9fe","","","","","4725",""," ","key"," ","8.335689045936396","500","250","zol","-1.3500000000000003","-0.35","","2","0","-14","-21"
"","psychophysics","99","464696","0.0-99.0","5f575dcee56fa81e090f3a5d","64de83488e1f7d292855f9fe","","","","","5887",""," ","key"," ","8.334751773049645","500","250","zol","-1.5600000000000005","0.66","","2","0","-19","-24"
"","psychophysics","100","469613","0.0-100.0","5f575dcee56fa81e090f3a5d","64de83488e1f7d292855f9fe","","","","","4914",""," ","key"," ","8.33446519524618","500","250","zol","-2.680000000000001","0.38","","2","0","0","-1"
"","psychophysics","101","470312","0.0-101.0","5f575dcee56fa81e090f3a5d","64de83488e1f7d292855f9fe","","","","","698",""," ","key"," ","8.325301204819278","500","250","inst","","","","","","",""
"","psychophysics","102","474532","0.0-102.0","5f575dcee56fa81e090f3a5d","64de83488e1f7d292855f9fe","","","","","4219",""," ","key"," ","8.33399209486166","500","250","instPog0","160","190","160","1","","0","0"
"","psychophysics","103","478773","0.0-103.0","5f575dcee56fa81e090f3a5d","64de83488e1f7d292855f9fe","","","","","4240",""," ","key"," ","8.332677165354331","500","250","instPog1","172","190","160","1","","0","0"
"","psychophysics","104","484435","0.0-104.0","5f575dcee56fa81e090f3a5d","64de83488e1f7d292855f9fe","","","","","5660",""," ","key"," ","8.334808259587021","500","250","instPog2","200","160","160","1","","0","0"
"","psychophysics","105","485126","0.0-105.0","5f575dcee56fa81e090f3a5d","64de83488e1f7d292855f9fe","","","","","689",""," ","key"," ","8.329268292682928","500","250","inst","","","","","","",""
"","psychophysics","106","488025","0.0-106.0","5f575dcee56fa81e090f3a5d","64de83488e1f7d292855f9fe","","","","","2898",""," ","key"," ","8.3342939481268","500","250","pog","203","207","173","1","0","0","0"
"","psychophysics","107","491238","0.0-107.0","5f575dcee56fa81e090f3a5d","64de83488e1f7d292855f9fe","","","","","3212",""," ","key"," ","8.3359375","500","250","pog","221","163","184","1","0","0","0"
"","psychophysics","108","494063","0.0-108.0","5f575dcee56fa81e090f3a5d","64de83488e1f7d292855f9fe","","","","","2824",""," ","key"," ","8.334319526627219","500","250","pog","197","173","164","1","0","0","0"
"","psychophysics","109","498087","0.0-109.0","5f575dcee56fa81e090f3a5d","64de83488e1f7d292855f9fe","","","","","4023",""," ","key"," ","8.33402489626556","500","250","pog","186","114","138","1","0","0","0"
"","psychophysics","110","500464","0.0-110.0","5f575dcee56fa81e090f3a5d","64de83488e1f7d292855f9fe","","","","","2377",""," ","key"," ","8.334507042253522","500","250","pog","154","176","123","1","0","0","0"
"","psychophysics","111","508335","0.0-111.0","5f575dcee56fa81e090f3a5d","64de83488e1f7d292855f9fe","","","","","7871",""," ","key"," ","8.334040296924709","500","250","pog","213","113","176","1","0","0","0"
"","psychophysics","112","513852","0.0-112.0","5f575dcee56fa81e090f3a5d","64de83488e1f7d292855f9fe","","","","","5513",""," ","key"," ","8.334341906202724","500","250","pog","198","138","166","1","0","0","0"
"","psychophysics","113","517445","0.0-113.0","5f575dcee56fa81e090f3a5d","64de83488e1f7d292855f9fe","","","","","3592",""," ","key"," ","8.334883720930232","500","250","pog","232","114","199","1","0","0","0"
"","psychophysics","114","522802","0.0-114.0","5f575dcee56fa81e090f3a5d","64de83488e1f7d292855f9fe","","","","","5355",""," ","key"," ","8.334890965732088","500","250","pog","202","134","163","1","0","0","0"
"","psychophysics","115","528809","0.0-115.0","5f575dcee56fa81e090f3a5d","64de83488e1f7d292855f9fe","","","","","6006",""," ","key"," ","8.334722222222222","500","250","pog","208","108","163","1","0","0","0"
"","psychophysics","116","533009","0.0-116.0","5f575dcee56fa81e090f3a5d","64de83488e1f7d292855f9fe","","","","","4199",""," ","key"," ","8.333996023856859","500","250","pog","236","114","188","1","0","0","0"
"","psychophysics","117","536869","0.0-117.0","5f575dcee56fa81e090f3a5d","64de83488e1f7d292855f9fe","","","","","3857",""," ","key"," ","8.335497835497835","500","250","pog","202","154","148","1","0","0","0"
"","psychophysics","118","544277","0.0-118.0","5f575dcee56fa81e090f3a5d","64de83488e1f7d292855f9fe","","","","","7407",""," ","key"," ","8.33445945945946","500","250","pog","234","166","200","1","0","0","0"
"","psychophysics","119","547555","0.0-119.0","5f575dcee56fa81e090f3a5d","64de83488e1f7d292855f9fe","","","","","3278",""," ","key"," ","8.334183673469388","500","250","pog","183","179","149","1","0","0","0"
"","psychophysics","120","551266","0.0-120.0","5f575dcee56fa81e090f3a5d","64de83488e1f7d292855f9fe","","","","","3711",""," ","key"," ","8.335585585585585","500","250","pog","202","144","166","1","0","0","0"
"","psychophysics","121","551814","0.0-121.0","5f575dcee56fa81e090f3a5d","64de83488e1f7d292855f9fe","","","","","547",""," ","key"," ","8.338461538461539","500","250","inst","","","","","","",""
"","psychophysics","122","557858","0.0-122.0","5f575dcee56fa81e090f3a5d","64de83488e1f7d292855f9fe","","","","","6042",""," ","key"," ","8.335635359116022","500","250","instZol1","0.5","-1.3","","","","0","0"
"","psychophysics","123","568625","0.0-123.0","5f575dcee56fa81e090f3a5d","64de83488e1f7d292855f9fe","","","","","10765",""," ","key"," ","8.334624322230828","500","250","instZol2","1.7000000000000013","2","","1","","0","0"
"","psychophysics","124","569499","0.0-124.0","5f575dcee56fa81e090f3a5d","64de83488e1f7d292855f9fe","","","","","874",""," ","key"," ","8.336538461538462","500","250","inst","","","","","","",""
"","psychophysics","125","576076","0.0-125.0","5f575dcee56fa81e090f3a5d","64de83488e1f7d292855f9fe","","","","","6574",""," ","key"," ","8.33502538071066","500","250","zol","2.0900000000000007","-0.39","","1","1","5","29"
"","psychophysics","126","583969","0.0-126.0","5f575dcee56fa81e090f3a5d","64de83488e1f7d292855f9fe","","","","","7891",""," ","key"," ","8.334038054968287","500","250","zol","1.8300000000000005","0.37","","1","1","4","6"
"","psychophysics","127","588061","0.0-127.0","5f575dcee56fa81e090f3a5d","64de83488e1f7d292855f9fe","","","","","4091",""," ","key"," ","8.33265306122449","500","250","zol","2.190000000000001","0.01","","1","1","23","-20"
"","psychophysics","128","591160","0.0-128.0","5f575dcee56fa81e090f3a5d","64de83488e1f7d292855f9fe","","","","","3098",""," ","key"," ","8.33423180592992","500","250","zol","1.24","0.56","","1","1","-25","-19"
"","psychophysics","129","593798","0.0-129.0","5f575dcee56fa81e090f3a5d","64de83488e1f7d292855f9fe","","","","","2636",""," ","key"," ","8.336507936507937","500","250","zol","1.5300000000000005","0.47","","1","1","16","30"
"","psychophysics","130","596432","0.0-130.0","5f575dcee56fa81e090f3a5d","64de83488e1f7d292855f9fe","","","","","2632",""," ","key"," ","8.333333333333334","500","250","zol","2.500000000000001","0","","1","1","19","-1"
"","psychophysics","131","601265","0.0-131.0","5f575dcee56fa81e090f3a5d","64de83488e1f7d292855f9fe","","","","","4830",""," ","key"," ","8.347750865051903","500","250","zol","2.340000000000001","-0.54","","1","1","6","25"
"","psychophysics","132","606458","0.0-132.0","5f575dcee56fa81e090f3a5d","64de83488e1f7d292855f9fe","","","","","5190",""," ","key"," ","8.334405144694534","500","250","zol","1.5100000000000005","0.49","","1","1","-21","-16"
"","psychophysics","133","609460","0.0-133.0","5f575dcee56fa81e090f3a5d","64de83488e1f7d292855f9fe","","","","","2999",""," ","key"," ","8.334261838440112","500","250","zol","1.8300000000000007","-0.63","","1","1","-30","-22"
"","psychophysics","134","613232","0.0-134.0","5f575dcee56fa81e090f3a5d","64de83488e1f7d292855f9fe","","","","","3770",""," ","key"," ","8.334070796460177","500","250","zol","1.8200000000000007","-0.22","","1","1","5","-16"
"","psychophysics","135","620941","0.0-135.0","5f575dcee56fa81e090f3a5d","64de83488e1f7d292855f9fe","","","","","7707",""," ","key"," ","8.335497835497835","500","250","zol","1.7100000000000006","0.49","","1","1","-15","29"
"","psychophysics","136","624666","0.0-136.0","5f575dcee56fa81e090f3a5d","64de83488e1f7d292855f9fe","","","","","3725",""," ","key"," ","8.334080717488789","500","250","zol","1.5800000000000003","0.72","","1","1","-6","2"
"","psychophysics","137","627582","0.0-137.0","5f575dcee56fa81e090f3a5d","64de83488e1f7d292855f9fe","","","","","2914",""," ","key"," ","8.332378223495702","500","250","zol","1.6400000000000006","-0.14","","1","1","-19","-28"
"","psychophysics","138","630337","0.0-138.0","5f575dcee56fa81e090f3a5d","64de83488e1f7d292855f9fe","","","","","2754",""," ","key"," ","8.33434650455927","500","250","zol","1.7600000000000007","-0.56","","1","1","29","-2"
"","psychophysics","139","633728","0.0-139.0","5f575dcee56fa81e090f3a5d","64de83488e1f7d292855f9fe","","","","","3388",""," ","key"," ","8.334975369458128","500","250","zol","1.8000000000000003","-0.6","","1","1","-30","9"
"","psychophysics","140","634345","0.0-140.0","5f575dcee56fa81e090f3a5d","64de83488e1f7d292855f9fe","","","","","616",""," ","key"," ","8.342465753424657","500","250","inst","","","","","","",""
"","psychophysics","141","642053","0.0-141.0","5f575dcee56fa81e090f3a5d","64de83488e1f7d292855f9fe","","","","","7707",""," ","key"," ","8.334415584415584","500","250","instBr3","17","40","300","2","","0","0"
"","psychophysics","142","642938","0.0-142.0","5f575dcee56fa81e090f3a5d","64de83488e1f7d292855f9fe","","","","","883",""," ","key"," ","8.333333333333334","500","250","inst","","","","","","",""
"","psychophysics","143","648257","0.0-143.0","5f575dcee56fa81e090f3a5d","64de83488e1f7d292855f9fe","","","","","5318",""," ","key"," ","8.334379905808477","500","250","br","19","2","250","2","1","22","-14"
"","psychophysics","144","652558","0.0-144.0","5f575dcee56fa81e090f3a5d","64de83488e1f7d292855f9fe","","","","","4299",""," ","key"," ","8.333980582524271","500","250","br","21","-14","211","2","1","2","6"
"","psychophysics","145","655977","0.0-145.0","5f575dcee56fa81e090f3a5d","64de83488e1f7d292855f9fe","","","","","3418",""," ","key"," ","8.334146341463414","500","250","br","21","-16","290","2","1","21","-17"
"","psychophysics","146","657582","0.0-146.0","5f575dcee56fa81e090f3a5d","64de83488e1f7d292855f9fe","","","","","1603",""," ","key"," ","8.335078534031414","500","250","br","25","8","225","2","1","-3","-25"
"","psychophysics","147","661409","0.0-147.0","5f575dcee56fa81e090f3a5d","64de83488e1f7d292855f9fe","","","","","3826",""," ","key"," ","8.33406113537118","500","250","br","22","-21","270","2","1","26","13"
"","psychophysics","148","663583","0.0-148.0","5f575dcee56fa81e090f3a5d","64de83488e1f7d292855f9fe","","","","","2172",""," ","key"," ","8.334615384615384","500","250","br","26","0","226","2","1","13","-27"
"","psychophysics","149","665174","0.0-149.0","5f575dcee56fa81e090f3a5d","64de83488e1f7d292855f9fe","","","","","1590",""," ","key"," ","8.336842105263157","500","250","br","24","21","239","2","1","27","-22"
"","psychophysics","150","667341","0.0-150.0","5f575dcee56fa81e090f3a5d","64de83488e1f7d292855f9fe","","","","","2166",""," ","key"," ","8.335907335907336","500","250","br","27","12","243","2","1","-19","28"
"","psychophysics","151","670104","0.0-151.0","5f575dcee56fa81e090f3a5d","64de83488e1f7d292855f9fe","","","","","2762",""," ","key"," ","8.33534743202417","500","250","br","20","-3","282","2","1","-17","5"
"","psychophysics","152","672425","0.0-152.0","5f575dcee56fa81e090f3a5d","64de83488e1f7d292855f9fe","","","","","2320",""," ","key"," ","8.335740072202166","500","250","br","25","20","242","2","1","-13","0"
"","psychophysics","153","675318","0.0-153.0","5f575dcee56fa81e090f3a5d","64de83488e1f7d292855f9fe","","","","","2893",""," ","key"," ","8.335260115606937","500","250","br","18","-10","258","2","1","14","2"
"","psychophysics","154","678150","0.0-154.0","5f575dcee56fa81e090f3a5d","64de83488e1f7d292855f9fe","","","","","2832",""," ","key"," ","8.336283185840708","500","250","br","26","-1","256","2","1","-1","-3"
"","psychophysics","155","679659","0.0-155.0","5f575dcee56fa81e090f3a5d","64de83488e1f7d292855f9fe","","","","","1509",""," ","key"," ","8.333333333333334","500","250","br","24","17","220","2","1","24","11"
"","psychophysics","156","680998","0.0-156.0","5f575dcee56fa81e090f3a5d","64de83488e1f7d292855f9fe","","","","","1337",""," ","key"," ","8.33125","500","250","br","28","25","201","2","1","2","22"
"","psychophysics","157","683799","0.0-157.0","5f575dcee56fa81e090f3a5d","64de83488e1f7d292855f9fe","","","","","2800",""," ","key"," ","8.334328358208955","500","250","br","24","30","282","2","1","6","-25"
"","psychophysics","158","684371","0.0-158.0","5f575dcee56fa81e090f3a5d","64de83488e1f7d292855f9fe","","","","","572",""," ","key"," ","8.328358208955224","500","250","inst","","","","","","",""
"","psychophysics","159","690656","0.0-159.0","5f575dcee56fa81e090f3a5d","64de83488e1f7d292855f9fe","","","","","6284",""," ","key"," ","8.3342175066313","500","250","instPz1","46","25","50","2","","",""
"","psychophysics","160","695496","0.0-160.0","5f575dcee56fa81e090f3a5d","64de83488e1f7d292855f9fe","","","","","4839",""," ","key"," ","8.335060449050086","500","250","instPz2","31","20","35","2","","",""
"","psychophysics","161","702043","0.0-161.0","5f575dcee56fa81e090f3a5d","64de83488e1f7d292855f9fe","","","","","6545",""," ","key"," ","8.335031847133758","500","250","instPz3","65","30","100","2","","",""
"","psychophysics","162","706234","0.0-162.0","5f575dcee56fa81e090f3a5d","64de83488e1f7d292855f9fe","","","","","4190",""," ","key"," ","8.334661354581673","500","250","instPz4","63","30","100","2","","",""
"","psychophysics","163","708511","0.0-163.0","5f575dcee56fa81e090f3a5d","64de83488e1f7d292855f9fe","","","","","2277",""," ","key"," ","8.334558823529411","500","250","inst","","","","","","",""
"","psychophysics","164","712966","0.0-164.0","5f575dcee56fa81e090f3a5d","64de83488e1f7d292855f9fe","","","","","4453",""," ","key"," ","8.333958724202626","500","250","pz","33","21","50","2","1","",""
"","psychophysics","165","716909","0.0-165.0","5f575dcee56fa81e090f3a5d","64de83488e1f7d292855f9fe","","","","","3942",""," ","key"," ","8.334745762711865","500","250","pz","16","51","21","2","1","",""
"","psychophysics","166","719647","0.0-166.0","5f575dcee56fa81e090f3a5d","64de83488e1f7d292855f9fe","","","","","2735",""," ","key"," ","8.335365853658537","500","250","pz","25","53","34","2","1","",""
"","psychophysics","167","721663","0.0-167.0","5f575dcee56fa81e090f3a5d","64de83488e1f7d292855f9fe","","","","","2015",""," ","key"," ","8.336099585062241","500","250","pz","38","31","55","2","1","",""
"","psychophysics","168","724154","0.0-168.0","5f575dcee56fa81e090f3a5d","64de83488e1f7d292855f9fe","","","","","2491",""," ","key"," ","8.335570469798657","500","250","pz","39","59","44","2","1","",""
"","psychophysics","169","725476","0.0-169.0","5f575dcee56fa81e090f3a5d","64de83488e1f7d292855f9fe","","","","","1321",""," ","key"," ","8.337579617834395","500","250","pz","28","32","33","2","1","",""
"","psychophysics","170","727005","0.0-170.0","5f575dcee56fa81e090f3a5d","64de83488e1f7d292855f9fe","","","","","1529",""," ","key"," ","8.333333333333334","500","250","pz","25","21","42","2","1","",""
"","psychophysics","171","731525","0.0-171.0","5f575dcee56fa81e090f3a5d","64de83488e1f7d292855f9fe","","","","","4518",""," ","key"," ","8.33456561922366","500","250","pz","17","54","20","2","1","",""
"","psychophysics","172","734481","0.0-172.0","5f575dcee56fa81e090f3a5d","64de83488e1f7d292855f9fe","","","","","2955",""," ","key"," ","8.333333333333334","500","250","pz","16","29","21","2","1","",""
"","psychophysics","173","738192","0.0-173.0","5f575dcee56fa81e090f3a5d","64de83488e1f7d292855f9fe","","","","","3710",""," ","key"," ","8.333333333333334","500","250","pz","23","50","30","2","1","",""
"","psychophysics","174","741071","0.0-174.0","5f575dcee56fa81e090f3a5d","64de83488e1f7d292855f9fe","","","","","2878",""," ","key"," ","8.334302325581396","500","250","pz","40","27","60","2","1","",""
"","psychophysics","175","744062","0.0-175.0","5f575dcee56fa81e090f3a5d","64de83488e1f7d292855f9fe","","","","","2989",""," ","key"," ","8.335195530726256","500","250","pz","22","49","35","2","1","",""
"","psychophysics","176","748281","0.0-176.0","5f575dcee56fa81e090f3a5d","64de83488e1f7d292855f9fe","","","","","4219",""," ","key"," ","8.334653465346534","500","250","pz","39","50","53","2","1","",""
"","psychophysics","177","753710","0.0-177.0","5f575dcee56fa81e090f3a5d","64de83488e1f7d292855f9fe","","","","","5427",""," ","key"," ","8.333333333333334","500","250","pz","17","26","20","2","1","",""
"","psychophysics","178","758386","0.0-178.0","5f575dcee56fa81e090f3a5d","64de83488e1f7d292855f9fe","","","","","4675",""," ","key"," ","8.333928571428572","500","250","pz","34","32","48","2","1","",""
"","psychophysics","179","758938","0.0-179.0","5f575dcee56fa81e090f3a5d","64de83488e1f7d292855f9fe","","","","","551",""," ","key"," ","8.323076923076924","500","250","inst","","","","","","",""
"","psychophysics","180","766770","0.0-180.0","5f575dcee56fa81e090f3a5d","64de83488e1f7d292855f9fe","","","","","7832",""," ","key"," ","8.334398296059637","500","250","instEB1","41","30","40","2","","0","0"
"","psychophysics","181","775430","0.0-181.0","5f575dcee56fa81e090f3a5d","64de83488e1f7d292855f9fe","","","","","8660",""," ","key"," ","8.335260115606937","500","250","instEB2","33","40","30","2","","0","0"
"","psychophysics","182","782577","0.0-182.0","5f575dcee56fa81e090f3a5d","64de83488e1f7d292855f9fe","","","","","7147",""," ","key"," ","8.33411214953271","500","250","instEB3","31","45","27","2","","0","0"
"","psychophysics","183","789165","0.0-183.0","5f575dcee56fa81e090f3a5d","64de83488e1f7d292855f9fe","","","","","6585",""," ","key"," ","8.334177215189873","500","250","instEB4","49","30","40","2","","0","0"
"","psychophysics","184","790051","0.0-184.0","5f575dcee56fa81e090f3a5d","64de83488e1f7d292855f9fe","","","","","885",""," ","key"," ","8.342857142857143","500","250","inst","","","","","","",""
"","psychophysics","185","793647","0.0-185.0","5f575dcee56fa81e090f3a5d","64de83488e1f7d292855f9fe","","","","","3593",""," ","key"," ","8.334883720930232","500","250","eb","32","33","26","2","","0","0"
"","psychophysics","186","799125","0.0-186.0","5f575dcee56fa81e090f3a5d","64de83488e1f7d292855f9fe","","","","","5476",""," ","key"," ","8.334855403348554","500","250","eb","30","54","24","2","","0","0"
"","psychophysics","187","803155","0.0-187.0","5f575dcee56fa81e090f3a5d","64de83488e1f7d292855f9fe","","","","","4027",""," ","key"," ","8.336099585062241","500","250","eb","41","25","31","2","","0","0"
"","psychophysics","188","810080","0.0-188.0","5f575dcee56fa81e090f3a5d","64de83488e1f7d292855f9fe","","","","","6923",""," ","key"," ","8.334939759036144","500","250","eb","56","35","49","2","","0","0"
"","psychophysics","189","814280","0.0-189.0","5f575dcee56fa81e090f3a5d","64de83488e1f7d292855f9fe","","","","","4198",""," ","key"," ","8.333996023856859","500","250","eb","48","28","39","2","","0","0"
"","psychophysics","190","816911","0.0-190.0","5f575dcee56fa81e090f3a5d","64de83488e1f7d292855f9fe","","","","","2631",""," ","key"," ","8.333333333333334","500","250","eb","47","47","39","2","","0","0"
"","psychophysics","191","822110","0.0-191.0","5f575dcee56fa81e090f3a5d","64de83488e1f7d292855f9fe","","","","","5197",""," ","key"," ","8.333868378812198","500","250","eb","42","30","32","2","","0","0"
"","psychophysics","192","825082","0.0-192.0","5f575dcee56fa81e090f3a5d","64de83488e1f7d292855f9fe","","","","","2970",""," ","key"," ","8.335211267605635","500","250","eb","27","37","26","2","","0","0"
"","psychophysics","193","828734","0.0-193.0","5f575dcee56fa81e090f3a5d","64de83488e1f7d292855f9fe","","","","","3651",""," ","key"," ","8.336384439359268","500","250","eb","40","51","45","2","","0","0"
"","psychophysics","194","833312","0.0-194.0","5f575dcee56fa81e090f3a5d","64de83488e1f7d292855f9fe","","","","","4575",""," ","key"," ","8.335154826958105","500","250","eb","44","26","36","2","","0","0"
"","psychophysics","195","838241","0.0-195.0","5f575dcee56fa81e090f3a5d","64de83488e1f7d292855f9fe","","","","","4928",""," ","key"," ","8.333898305084746","500","250","eb","31","48","27","2","","0","0"
"","psychophysics","196","843283","0.0-196.0","5f575dcee56fa81e090f3a5d","64de83488e1f7d292855f9fe","","","","","5040",""," ","key"," ","8.334437086092715","500","250","eb","53","48","49","2","","0","0"
"","psychophysics","197","847759","0.0-197.0","5f575dcee56fa81e090f3a5d","64de83488e1f7d292855f9fe","","","","","4474",""," ","key"," ","8.335820895522389","500","250","eb","50","25","50","2","","0","0"
"","psychophysics","198","852658","0.0-198.0","5f575dcee56fa81e090f3a5d","64de83488e1f7d292855f9fe","","","","","4899",""," ","key"," ","8.333901192504259","500","250","eb","50","24","46","2","","0","0"
"","psychophysics","199","855921","0.0-199.0","5f575dcee56fa81e090f3a5d","64de83488e1f7d292855f9fe","","","","","3262",""," ","key"," ","8.333333333333334","500","250","eb","45","53","42","2","","0","0"
"","psychophysics","200","856875","0.0-200.0","5f575dcee56fa81e090f3a5d","64de83488e1f7d292855f9fe","","","","","953",""," ","key"," ","8.333333333333334","500","250","inst","","","","","","",""
"","psychophysics","201","860878","0.0-201.0","5f575dcee56fa81e090f3a5d","64de83488e1f7d292855f9fe","","","","","4002",""," ","key"," ","8.334029227557412","500","250","instPog0","340","370","340","2","","0","0"
"","psychophysics","202","865657","0.0-202.0","5f575dcee56fa81e090f3a5d","64de83488e1f7d292855f9fe","","","","","4778",""," ","key"," ","8.333916083916083","500","250","instPog1","330","370","340","2","","0","0"
"","psychophysics","203","869807","0.0-203.0","5f575dcee56fa81e090f3a5d","64de83488e1f7d292855f9fe","","","","","4150",""," ","key"," ","8.33400402414487","500","250","instPog2","306","340","340","2","","0","0"
"","psychophysics","204","870297","0.0-204.0","5f575dcee56fa81e090f3a5d","64de83488e1f7d292855f9fe","","","","","489",""," ","key"," ","8.344827586206897","500","250","inst","","","","","","",""
"","psychophysics","205","876093","0.0-205.0","5f575dcee56fa81e090f3a5d","64de83488e1f7d292855f9fe","","","","","5796",""," ","key"," ","8.3342939481268","500","250","pog","267","353","302","2","1","0","0"
"","psychophysics","206","878995","0.0-206.0","5f575dcee56fa81e090f3a5d","64de83488e1f7d292855f9fe","","","","","2900",""," ","key"," ","8.333333333333334","500","250","pog","263","335","300","2","1","0","0"
"","psychophysics","207","882232","0.0-207.0","5f575dcee56fa81e090f3a5d","64de83488e1f7d292855f9fe","","","","","3236",""," ","key"," ","8.335917312661499","500","250","pog","321","393","355","2","1","0","0"
"","psychophysics","208","885365","0.0-208.0","5f575dcee56fa81e090f3a5d","64de83488e1f7d292855f9fe","","","","","3131",""," ","key"," ","8.336","500","250","pog","306","288","339","2","1","0","0"
"","psychophysics","209","889367","0.0-209.0","5f575dcee56fa81e090f3a5d","64de83488e1f7d292855f9fe","","","","","4001",""," ","key"," ","8.334029227557412","500","250","pog","272","362","306","2","1","0","0"
"","psychophysics","210","892171","0.0-210.0","5f575dcee56fa81e090f3a5d","64de83488e1f7d292855f9fe","","","","","2801",""," ","key"," ","8.334328358208955","500","250","pog","277","311","317","2","1","0","0"
"","psychophysics","211","895663","0.0-211.0","5f575dcee56fa81e090f3a5d","64de83488e1f7d292855f9fe","","","","","3491",""," ","key"," ","8.334928229665072","500","250","pog","336","382","379","2","1","0","0"
"","psychophysics","212","897843","0.0-212.0","5f575dcee56fa81e090f3a5d","64de83488e1f7d292855f9fe","","","","","2178",""," ","key"," ","8.337164750957854","500","250","pog","308","344","351","2","1","0","0"
"","psychophysics","213","899399","0.0-213.0","5f575dcee56fa81e090f3a5d","64de83488e1f7d292855f9fe","","","","","1554",""," ","key"," ","8.333333333333334","500","250","pog","332","302","362","2","1","0","0"
"","psychophysics","214","903447","0.0-214.0","5f575dcee56fa81e090f3a5d","64de83488e1f7d292855f9fe","","","","","4046",""," ","key"," ","8.334710743801653","500","250","pog","330","382","368","2","1","0","0"
"","psychophysics","215","906217","0.0-215.0","5f575dcee56fa81e090f3a5d","64de83488e1f7d292855f9fe","","","","","2767",""," ","key"," ","8.33433734939759","500","250","pog","275","345","309","2","1","0","0"
"","psychophysics","216","910362","0.0-216.0","5f575dcee56fa81e090f3a5d","64de83488e1f7d292855f9fe","","","","","4144",""," ","key"," ","8.334677419354838","500","250","pog","324","374","374","2","1","0","0"
"","psychophysics","217","913603","0.0-217.0","5f575dcee56fa81e090f3a5d","64de83488e1f7d292855f9fe","","","","","3240",""," ","key"," ","8.332474226804123","500","250","pog","271","321","307","2","1","0","0"
"","psychophysics","218","917302","0.0-218.0","5f575dcee56fa81e090f3a5d","64de83488e1f7d292855f9fe","","","","","3699",""," ","key"," ","8.334085778781038","500","250","pog","331","291","368","2","1","0","0"
"","psychophysics","219","920322","0.0-219.0","5f575dcee56fa81e090f3a5d","64de83488e1f7d292855f9fe","","","","","3019",""," ","key"," ","8.335180055401661","500","250","pog","328","294","354","2","1","0","0"
