"success","trial_type","trial_index","time_elapsed","internal_node_id","pid","sid","timeout","failed_images","failed_audio","failed_video","rt","stimulus","response","response_type","key_press","avg_frame_time","center_x","center_y","task","resp","version","block","jitterX","jitterY","start","parA"
"true","fullscreen","0","9978","0.0-0.0","63d79f4700b0f6f94da70790","64de660df419ef0e7bbe25e8","","","","","","","","","","","","","","","","","","","",""
"true","preload","1","10265","0.0-1.0","63d79f4700b0f6f94da70790","64de660df419ef0e7bbe25e8","false","[]","[]","[]","","","","","","","","","","","","","","","",""
"","html-button-response","2","11875","0.0-2.0","63d79f4700b0f6f94da70790","64de660df419ef0e7bbe25e8","","","","","1610","Please Make Sure Your Audio Is On.","0","","","","","","","","","","","","",""
"","psychophysics","3","16176","0.0-3.0","63d79f4700b0f6f94da70790","64de660df419ef0e7bbe25e8","","","","","4296",""," ","key"," ","4.21585980392157","960","250","","","","","","","",""
"","psychophysics","4","22369","0.0-4.0","63d79f4700b0f6f94da70790","64de660df419ef0e7bbe25e8","","","","","6189",""," ","key"," ","4.204794836956523","500","250","inst","","","","","","",""
"","psychophysics","5","29846","0.0-5.0","63d79f4700b0f6f94da70790","64de660df419ef0e7bbe25e8","","","","","7474",""," ","key"," ","4.20600393922341","500","250","sample0","","","","","","",""
"","psychophysics","6","36415","0.0-6.0","63d79f4700b0f6f94da70790","64de660df419ef0e7bbe25e8","","","","","6566",""," ","key"," ","4.20286299615877","500","250","sample1","","","","","","",""
"","psychophysics","7","54667","0.0-7.0","63d79f4700b0f6f94da70790","64de660df419ef0e7bbe25e8","","","","","18251",""," ","key"," ","4.19960253164557","500","250","sample2","100","","","","","",""
"","psychophysics","8","66488","0.0-8.0","63d79f4700b0f6f94da70790","64de660df419ef0e7bbe25e8","","","","","11818",""," ","key"," ","4.188578872740163","500","250","sample3","98","","","","","",""
"","psychophysics","9","72801","0.0-9.0","63d79f4700b0f6f94da70790","64de660df419ef0e7bbe25e8","","","","","6310",""," ","key"," ","4.209807204803205","500","250","sample4","98","","","","","",""
"","psychophysics","10","81117","0.0-10.0","63d79f4700b0f6f94da70790","64de660df419ef0e7bbe25e8","","","","","8315",""," ","key"," ","4.193881937436927","500","250","sample5","","","","","","",""
"","psychophysics","11","86783","0.0-11.0","63d79f4700b0f6f94da70790","64de660df419ef0e7bbe25e8","","","","","5664",""," ","key"," ","4.223724626865681","500","250","sample6","498","","","","","",""
"","psychophysics","12","95181","0.0-12.0","63d79f4700b0f6f94da70790","64de660df419ef0e7bbe25e8","","","","","8396",""," ","key"," ","4.187454364089778","500","250","inst","","","","","","",""
"","psychophysics","13","101742","0.0-13.0","63d79f4700b0f6f94da70790","64de660df419ef0e7bbe25e8","","","","","6560",""," ","key"," ","4.1974859154929565","500","250","inst","","","","","","",""
"","psychophysics","14","107218","0.0-14.0","63d79f4700b0f6f94da70790","64de660df419ef0e7bbe25e8","","","","","5474",""," ","key"," ","4.206096079938515","500","250","inst","","","","","","",""
"","psychophysics","15","109182","0.0-15.0","63d79f4700b0f6f94da70790","64de660df419ef0e7bbe25e8","","","","","1962",""," ","key"," ","4.206570815450649","500","250","inst","","","","","","",""
"","psychophysics","16","111035","0.0-16.0","63d79f4700b0f6f94da70790","64de660df419ef0e7bbe25e8","","","","","1851",""," ","key"," ","4.208783599088811","500","250","inst","","","","","","",""
"","psychophysics","17","114555","0.0-17.0","63d79f4700b0f6f94da70790","64de660df419ef0e7bbe25e8","","","","","3518",""," ","key"," ","4.236108433734941","500","250","instBr0","0","","","0","0","0","300"
"","psychophysics","18","124166","0.0-18.0","63d79f4700b0f6f94da70790","64de660df419ef0e7bbe25e8","","","","","9609",""," ","key"," ","4.20551050788091","500","250","instBr1","8","","","0","0","-40","300"
"","psychophysics","19","130916","0.0-19.0","63d79f4700b0f6f94da70790","64de660df419ef0e7bbe25e8","","","","","6748",""," ","key"," ","4.199352209085241","500","250","instBr3","1","1","","0","0","40","300"
"","psychophysics","20","135043","0.0-20.0","63d79f4700b0f6f94da70790","64de660df419ef0e7bbe25e8","","","","","4125",""," ","key"," ","4.22646406570842","500","250","inst","","","","","","",""
"","psychophysics","21","138181","0.0-21.0","63d79f4700b0f6f94da70790","64de660df419ef0e7bbe25e8","","","","","3131",""," ","key"," ","4.182338215712366","500","250","br","-2","1","0","-30","-14","30","273"
"","psychophysics","22","140331","0.0-22.0","63d79f4700b0f6f94da70790","64de660df419ef0e7bbe25e8","","","","","2148",""," ","key"," ","4.203539215686261","500","250","br","-11","1","0","28","18","-11","209"
"","psychophysics","23","142436","0.0-23.0","63d79f4700b0f6f94da70790","64de660df419ef0e7bbe25e8","","","","","2103",""," ","key"," ","4.170847222222259","500","250","br","-10","1","0","-14","4","1","287"
"","psychophysics","24","146386","0.0-24.0","63d79f4700b0f6f94da70790","64de660df419ef0e7bbe25e8","","","","","3948",""," ","key"," ","4.1885249734325205","500","250","br","-15","1","0","-21","-29","-13","209"
"","psychophysics","25","149855","0.0-25.0","63d79f4700b0f6f94da70790","64de660df419ef0e7bbe25e8","","","","","3462",""," ","key"," ","4.190942028985514","500","250","br","-16","1","0","10","-12","1","226"
"","psychophysics","26","153553","0.0-26.0","63d79f4700b0f6f94da70790","64de660df419ef0e7bbe25e8","","","","","3696",""," ","key"," ","4.1849886621315235","500","250","br","-17","1","0","14","-24","14","285"
"","psychophysics","27","156685","0.0-27.0","63d79f4700b0f6f94da70790","64de660df419ef0e7bbe25e8","","","","","3130",""," ","key"," ","4.19316621983916","500","250","br","-11","1","0","17","12","-21","228"
"","psychophysics","28","160309","0.0-28.0","63d79f4700b0f6f94da70790","64de660df419ef0e7bbe25e8","","","","","3622",""," ","key"," ","4.199857308584655","500","250","br","-4","1","0","-7","-23","11","295"
"","psychophysics","29","162748","0.0-29.0","63d79f4700b0f6f94da70790","64de660df419ef0e7bbe25e8","","","","","2437",""," ","key"," ","4.19231497418242","500","250","br","-8","1","0","-8","-10","-21","292"
"","psychophysics","30","165910","0.0-30.0","63d79f4700b0f6f94da70790","64de660df419ef0e7bbe25e8","","","","","3160",""," ","key"," ","4.176335978835976","500","250","br","-4","1","0","-30","-20","-1","217"
"","psychophysics","31","168654","0.0-31.0","63d79f4700b0f6f94da70790","64de660df419ef0e7bbe25e8","","","","","2742",""," ","key"," ","4.183532824427448","500","250","br","-10","1","0","-27","28","-20","244"
"","psychophysics","32","172508","0.0-32.0","63d79f4700b0f6f94da70790","64de660df419ef0e7bbe25e8","","","","","3852",""," ","key"," ","4.2211920965971395","500","250","br","-3","1","0","-25","29","28","214"
"","psychophysics","33","174945","0.0-33.0","63d79f4700b0f6f94da70790","64de660df419ef0e7bbe25e8","","","","","2431",""," ","key"," ","4.199602763385159","500","250","br","-15","1","0","-18","-7","-2","281"
"","psychophysics","34","177356","0.0-34.0","63d79f4700b0f6f94da70790","64de660df419ef0e7bbe25e8","","","","","2409",""," ","key"," ","4.170726169844005","500","250","br","-13","1","0","-19","-28","2","246"
"","psychophysics","35","178846","0.0-35.0","63d79f4700b0f6f94da70790","64de660df419ef0e7bbe25e8","","","","","1487",""," ","key"," ","4.170901685393218","500","250","br","-13","1","0","-24","-28","5","295"
"","psychophysics","36","185095","0.0-36.0","63d79f4700b0f6f94da70790","64de660df419ef0e7bbe25e8","","","","","6247",""," ","key"," ","4.182021419009373","500","250","inst","","","","","","",""
"","psychophysics","37","188626","0.0-37.0","63d79f4700b0f6f94da70790","64de660df419ef0e7bbe25e8","","","","","3529",""," ","key"," ","4.19055885850176","500","250","instPzPre","50","0","","","","50","50"
"","psychophysics","38","191146","0.0-38.0","63d79f4700b0f6f94da70790","64de660df419ef0e7bbe25e8","","","","","2517",""," ","key"," ","4.205719063545182","500","250","instPz0","50","1","","","","50","50"
"","psychophysics","39","201425","0.0-39.0","63d79f4700b0f6f94da70790","64de660df419ef0e7bbe25e8","","","","","10276",""," ","key"," ","4.21007578861123","500","250","instPz1","49","1","","","","25","50"
"","psychophysics","40","207167","0.0-40.0","63d79f4700b0f6f94da70790","64de660df419ef0e7bbe25e8","","","","","5740",""," ","key"," ","4.19830307467058","500","250","instPz2","22","1","","","","35","20"
"","psychophysics","41","214370","0.0-41.0","63d79f4700b0f6f94da70790","64de660df419ef0e7bbe25e8","","","","","7197",""," ","key"," ","4.222177712609968","500","250","instPz3","68","1","","","","100","30"
"","psychophysics","42","224731","0.0-42.0","63d79f4700b0f6f94da70790","64de660df419ef0e7bbe25e8","","","","","10358",""," ","key"," ","4.197861775435752","500","250","instPz4","31","1","","","","100","30"
"","psychophysics","43","225857","0.0-43.0","63d79f4700b0f6f94da70790","64de660df419ef0e7bbe25e8","","","","","1125",""," ","key"," ","4.186279850746305","500","250","inst","","","","","","",""
"","psychophysics","44","227960","0.0-44.0","63d79f4700b0f6f94da70790","64de660df419ef0e7bbe25e8","","","","","2102",""," ","key"," ","4.1875189620758775","500","250","pz","30","1","0","","","25","26"
"","psychophysics","45","229903","0.0-45.0","63d79f4700b0f6f94da70790","64de660df419ef0e7bbe25e8","","","","","1940",""," ","key"," ","4.188807775377981","500","250","pz","50","1","0","","","46","60"
"","psychophysics","46","232136","0.0-46.0","63d79f4700b0f6f94da70790","64de660df419ef0e7bbe25e8","","","","","2231",""," ","key"," ","4.17843714821767","500","250","pz","33","1","0","","","38","31"
"","psychophysics","47","234738","0.0-47.0","63d79f4700b0f6f94da70790","64de660df419ef0e7bbe25e8","","","","","2599",""," ","key"," ","4.171266452648465","500","250","pz","28","1","0","","","33","24"
"","psychophysics","48","237415","0.0-48.0","63d79f4700b0f6f94da70790","64de660df419ef0e7bbe25e8","","","","","2674",""," ","key"," ","4.17077223088923","500","250","pz","45","1","0","","","28","50"
"","psychophysics","49","239459","0.0-49.0","63d79f4700b0f6f94da70790","64de660df419ef0e7bbe25e8","","","","","2042",""," ","key"," ","4.17084662576686","500","250","pz","39","1","0","","","28","38"
"","psychophysics","50","241298","0.0-50.0","63d79f4700b0f6f94da70790","64de660df419ef0e7bbe25e8","","","","","1837",""," ","key"," ","4.19007990867581","500","250","pz","41","1","0","","","26","52"
"","psychophysics","51","243599","0.0-51.0","63d79f4700b0f6f94da70790","64de660df419ef0e7bbe25e8","","","","","2300",""," ","key"," ","4.170486388384745","500","250","pz","43","1","0","","","44","38"
"","psychophysics","52","247474","0.0-52.0","63d79f4700b0f6f94da70790","64de660df419ef0e7bbe25e8","","","","","3873",""," ","key"," ","4.202513572204141","500","250","pz","47","1","0","","","44","50"
"","psychophysics","53","249435","0.0-53.0","63d79f4700b0f6f94da70790","64de660df419ef0e7bbe25e8","","","","","1959",""," ","key"," ","4.215663793103447","500","250","pz","31","1","0","","","35","27"
"","psychophysics","54","251000","0.0-54.0","63d79f4700b0f6f94da70790","64de660df419ef0e7bbe25e8","","","","","1563",""," ","key"," ","4.204711590296506","500","250","pz","40","1","0","","","34","43"
"","psychophysics","55","254564","0.0-55.0","63d79f4700b0f6f94da70790","64de660df419ef0e7bbe25e8","","","","","3562",""," ","key"," ","4.2252158956109005","500","250","pz","42","1","0","","","51","37"
"","psychophysics","56","257127","0.0-56.0","63d79f4700b0f6f94da70790","64de660df419ef0e7bbe25e8","","","","","2561",""," ","key"," ","4.191349180327866","500","250","pz","30","1","0","","","44","29"
"","psychophysics","57","259241","0.0-57.0","63d79f4700b0f6f94da70790","64de660df419ef0e7bbe25e8","","","","","2112",""," ","key"," ","4.20404590818366","500","250","pz","57","1","0","","","53","53"
"","psychophysics","58","261469","0.0-58.0","63d79f4700b0f6f94da70790","64de660df419ef0e7bbe25e8","","","","","2221",""," ","key"," ","4.250297709923641","500","250","pz","52","1","0","","","54","49"
"","psychophysics","59","262469","0.0-59.0","63d79f4700b0f6f94da70790","64de660df419ef0e7bbe25e8","","","","","998",""," ","key"," ","4.1709288702927","500","250","inst","","","","","","",""
"","psychophysics","60","266718","0.0-60.0","63d79f4700b0f6f94da70790","64de660df419ef0e7bbe25e8","","","","","4247",""," ","key"," ","4.19139782823297","500","250","instEB0","40","1","","0","0","40","40"
"","psychophysics","61","274314","0.0-61.0","63d79f4700b0f6f94da70790","64de660df419ef0e7bbe25e8","","","","","7594",""," ","key"," ","4.207834811529938","500","250","instEB1","29","1","","0","0","40","30"
"","psychophysics","62","282648","0.0-62.0","63d79f4700b0f6f94da70790","64de660df419ef0e7bbe25e8","","","","","8332",""," ","key"," ","4.189606639839017","500","250","instEB2","35","1","","0","0","30","40"
"","psychophysics","63","286289","0.0-63.0","63d79f4700b0f6f94da70790","64de660df419ef0e7bbe25e8","","","","","3638",""," ","key"," ","4.224059233449521","500","250","instEB3","39","1","","0","0","27","45"
"","psychophysics","64","292907","0.0-64.0","63d79f4700b0f6f94da70790","64de660df419ef0e7bbe25e8","","","","","6616",""," ","key"," ","4.199958730158729","500","250","instEB4","29","1","","0","0","40","30"
"","psychophysics","65","293904","0.0-65.0","63d79f4700b0f6f94da70790","64de660df419ef0e7bbe25e8","","","","","995",""," ","key"," ","4.206114406779584","500","250","inst","","","","","","",""
"","psychophysics","66","299614","0.0-66.0","63d79f4700b0f6f94da70790","64de660df419ef0e7bbe25e8","","","","","5708",""," ","key"," ","4.20770870206489","500","250","eb","32","1","","0","0","51","34"
"","psychophysics","67","303383","0.0-67.0","63d79f4700b0f6f94da70790","64de660df419ef0e7bbe25e8","","","","","3766",""," ","key"," ","4.189348552338502","500","250","eb","39","1","","0","0","45","44"
"","psychophysics","68","307936","0.0-68.0","63d79f4700b0f6f94da70790","64de660df419ef0e7bbe25e8","","","","","4551",""," ","key"," ","4.225084493964742","500","250","eb","43","1","","0","0","29","49"
"","psychophysics","69","309933","0.0-69.0","63d79f4700b0f6f94da70790","64de660df419ef0e7bbe25e8","","","","","1994",""," ","key"," ","4.197122105263222","500","250","eb","27","1","","0","0","25","28"
"","psychophysics","70","311524","0.0-70.0","63d79f4700b0f6f94da70790","64de660df419ef0e7bbe25e8","","","","","1588",""," ","key"," ","4.2264746666667055","500","250","eb","28","1","","0","0","28","30"
"","psychophysics","71","315108","0.0-71.0","63d79f4700b0f6f94da70790","64de660df419ef0e7bbe25e8","","","","","3582",""," ","key"," ","4.2149670588235395","500","250","eb","26","1","","0","0","50","26"
"","psychophysics","72","319141","0.0-72.0","63d79f4700b0f6f94da70790","64de660df419ef0e7bbe25e8","","","","","4031",""," ","key"," ","4.223256813417215","500","250","eb","32","1","","0","0","43","35"
"","psychophysics","73","322758","0.0-73.0","63d79f4700b0f6f94da70790","64de660df419ef0e7bbe25e8","","","","","3616",""," ","key"," ","4.19503832752615","500","250","eb","43","1","","0","0","53","48"
"","psychophysics","74","324484","0.0-74.0","63d79f4700b0f6f94da70790","64de660df419ef0e7bbe25e8","","","","","1722",""," ","key"," ","4.242593596059011","500","250","eb","27","1","","0","0","25","29"
"","psychophysics","75","328159","0.0-75.0","63d79f4700b0f6f94da70790","64de660df419ef0e7bbe25e8","","","","","3673",""," ","key"," ","4.213964408725617","500","250","eb","39","1","","0","0","47","43"
"","psychophysics","76","330552","0.0-76.0","63d79f4700b0f6f94da70790","64de660df419ef0e7bbe25e8","","","","","2390",""," ","key"," ","4.244801065719419","500","250","eb","28","1","","0","0","30","29"
"","psychophysics","77","333684","0.0-77.0","63d79f4700b0f6f94da70790","64de660df419ef0e7bbe25e8","","","","","3130",""," ","key"," ","4.221487179487144","500","250","eb","38","1","","0","0","51","48"
"","psychophysics","78","337898","0.0-78.0","63d79f4700b0f6f94da70790","64de660df419ef0e7bbe25e8","","","","","4212",""," ","key"," ","4.204152847152865","500","250","eb","29","1","","0","0","47","36"
"","psychophysics","79","342218","0.0-79.0","63d79f4700b0f6f94da70790","64de660df419ef0e7bbe25e8","","","","","4317",""," ","key"," ","4.186996120271586","500","250","eb","36","1","","0","0","41","44"
"","psychophysics","80","344624","0.0-80.0","63d79f4700b0f6f94da70790","64de660df419ef0e7bbe25e8","","","","","2404",""," ","key"," ","4.2147070175438115","500","250","eb","31","1","","0","0","31","35"
"","psychophysics","81","345219","0.0-81.0","63d79f4700b0f6f94da70790","64de660df419ef0e7bbe25e8","","","","","593",""," ","key"," ","4.200557142856996","500","250","inst","","","","","","",""
"","psychophysics","82","355194","0.0-82.0","63d79f4700b0f6f94da70790","64de660df419ef0e7bbe25e8","","","","","9974",""," ","key"," ","4.2043431703204","500","250","instPog0","340","2","","0","0","370","340"
"","psychophysics","83","361922","0.0-83.0","63d79f4700b0f6f94da70790","64de660df419ef0e7bbe25e8","","","","","6725",""," ","key"," ","4.186383561643832","500","250","instPog1","338","2","","0","0","370","340"
"","psychophysics","84","366990","0.0-84.0","63d79f4700b0f6f94da70790","64de660df419ef0e7bbe25e8","","","","","5066",""," ","key"," ","4.219777500000006","500","250","instPog2","336","2","","0","0","340","340"
"","psychophysics","85","368214","0.0-85.0","63d79f4700b0f6f94da70790","64de660df419ef0e7bbe25e8","","","","","1222",""," ","key"," ","4.2120896551723925","500","250","inst","","","","","","",""
"","psychophysics","86","370998","0.0-86.0","63d79f4700b0f6f94da70790","64de660df419ef0e7bbe25e8","","","","","2783",""," ","key"," ","4.227945205479466","500","250","pog","360","2","0","0","0","366","366"
"","psychophysics","87","374142","0.0-87.0","63d79f4700b0f6f94da70790","64de660df419ef0e7bbe25e8","","","","","3141",""," ","key"," ","4.181924101198402","500","250","pog","337","2","0","0","0","343","345"
"","psychophysics","88","378405","0.0-88.0","63d79f4700b0f6f94da70790","64de660df419ef0e7bbe25e8","","","","","4262",""," ","key"," ","4.195464039408875","500","250","pog","310","2","0","0","0","330","324"
"","psychophysics","89","384189","0.0-89.0","63d79f4700b0f6f94da70790","64de660df419ef0e7bbe25e8","","","","","5780",""," ","key"," ","4.182869753979757","500","250","pog","337","2","0","0","0","303","350"
"","psychophysics","90","388034","0.0-90.0","63d79f4700b0f6f94da70790","64de660df419ef0e7bbe25e8","","","","","3843",""," ","key"," ","4.202730853391719","500","250","pog","307","2","0","0","0","325","321"
"","psychophysics","91","391601","0.0-91.0","63d79f4700b0f6f94da70790","64de660df419ef0e7bbe25e8","","","","","3565",""," ","key"," ","4.205288075560821","500","250","pog","304","2","0","0","0","316","324"
"","psychophysics","92","399264","0.0-92.0","63d79f4700b0f6f94da70790","64de660df419ef0e7bbe25e8","","","","","7661",""," ","key"," ","4.184495081967207","500","250","pog","351","2","0","0","0","287","364"
"","psychophysics","93","406248","0.0-93.0","63d79f4700b0f6f94da70790","64de660df419ef0e7bbe25e8","","","","","6982",""," ","key"," ","4.183289994008401","500","250","pog","329","2","0","0","0","281","346"
"","psychophysics","94","412219","0.0-94.0","63d79f4700b0f6f94da70790","64de660df419ef0e7bbe25e8","","","","","5969",""," ","key"," ","4.1883328651685305","500","250","pog","345","2","0","0","0","303","359"
"","psychophysics","95","416376","0.0-95.0","63d79f4700b0f6f94da70790","64de660df419ef0e7bbe25e8","","","","","4155",""," ","key"," ","4.183489425981831","500","250","pog","351","2","0","0","0","313","364"
"","psychophysics","96","419972","0.0-96.0","63d79f4700b0f6f94da70790","64de660df419ef0e7bbe25e8","","","","","3594",""," ","key"," ","4.1804458672875064","500","250","pog","318","2","0","0","0","296","332"
"","psychophysics","97","424664","0.0-97.0","63d79f4700b0f6f94da70790","64de660df419ef0e7bbe25e8","","","","","4690",""," ","key"," ","4.193176207513434","500","250","pog","336","2","0","0","0","374","353"
"","psychophysics","98","428526","0.0-98.0","63d79f4700b0f6f94da70790","64de660df419ef0e7bbe25e8","","","","","3860",""," ","key"," ","4.188944625407147","500","250","pog","315","2","0","0","0","363","337"
"","psychophysics","99","432788","0.0-99.0","63d79f4700b0f6f94da70790","64de660df419ef0e7bbe25e8","","","","","4259",""," ","key"," ","4.207893280632389","500","250","pog","291","2","0","0","0","337","313"
"","psychophysics","100","438386","0.0-100.0","63d79f4700b0f6f94da70790","64de660df419ef0e7bbe25e8","","","","","5597",""," ","key"," ","4.202141998497353","500","250","pog","334","2","0","0","0","360","349"
"","psychophysics","101","439623","0.0-101.0","63d79f4700b0f6f94da70790","64de660df419ef0e7bbe25e8","","","","","1235",""," ","key"," ","4.184884745762802","500","250","inst","","","","","","",""
"","psychophysics","102","444162","0.0-102.0","63d79f4700b0f6f94da70790","64de660df419ef0e7bbe25e8","","","","","4537",""," ","key"," ","4.193966697502326","500","250","instZol0","0","","","0","0","0",""
"","psychophysics","103","453089","0.0-103.0","63d79f4700b0f6f94da70790","64de660df419ef0e7bbe25e8","","","","","8927",""," ","key"," ","4.200257411764715","500","250","instZol1","-2.7755575615628914e-17","","","0","0","-1.3",""
"","psychophysics","104","468544","0.0-104.0","63d79f4700b0f6f94da70790","64de660df419ef0e7bbe25e8","","","","","15452",""," ","key"," ","4.214034642662305","500","250","instZol2","-1.0999999999999996","2","","0","0","2",""
"","psychophysics","105","469318","0.0-105.0","63d79f4700b0f6f94da70790","64de660df419ef0e7bbe25e8","","","","","772",""," ","key"," ","4.170594594594582","500","250","inst","","","","","","",""
"","psychophysics","106","474081","0.0-106.0","63d79f4700b0f6f94da70790","64de660df419ef0e7bbe25e8","","","","","4761",""," ","key"," ","4.211472566371662","500","250","zol","-0.62","2","0","16","2","-0.28",""
"","psychophysics","107","480817","0.0-107.0","63d79f4700b0f6f94da70790","64de660df419ef0e7bbe25e8","","","","","6733",""," ","key"," ","4.183765071472937","500","250","zol","-0.8199999999999998","2","0","-11","-12","-0.68",""
"","psychophysics","108","484044","0.0-108.0","63d79f4700b0f6f94da70790","64de660df419ef0e7bbe25e8","","","","","3225",""," ","key"," ","4.231117105263203","500","250","zol","-0.85","2","0","13","-3","0.65",""
"","psychophysics","109","486019","0.0-109.0","63d79f4700b0f6f94da70790","64de660df419ef0e7bbe25e8","","","","","1967",""," ","key"," ","4.224451820128393","500","250","zol","-0.44000000000000006","2","0","24","-5","-0.06",""
"","psychophysics","110","488680","0.0-110.0","63d79f4700b0f6f94da70790","64de660df419ef0e7bbe25e8","","","","","2651",""," ","key"," ","4.203725118483387","500","250","zol","-0.32000000000000006","2","0","23","-16","-0.18",""
"","psychophysics","111","493084","0.0-111.0","63d79f4700b0f6f94da70790","64de660df419ef0e7bbe25e8","","","","","4402",""," ","key"," ","4.210711961722505","500","250","zol","-0.7499999999999999","2","0","8","21","0.15",""
"","psychophysics","112","498302","0.0-112.0","63d79f4700b0f6f94da70790","64de660df419ef0e7bbe25e8","","","","","5216",""," ","key"," ","4.204476612903208","500","250","zol","-0.6299999999999999","2","0","13","-8","-0.67",""
"","psychophysics","113","501854","0.0-113.0","63d79f4700b0f6f94da70790","64de660df419ef0e7bbe25e8","","","","","3550",""," ","key"," ","4.200436018957352","500","250","zol","-0.7899999999999999","2","0","26","-14","-0.01",""
"","psychophysics","114","504438","0.0-114.0","63d79f4700b0f6f94da70790","64de660df419ef0e7bbe25e8","","","","","2581",""," ","key"," ","4.204897226753692","500","250","zol","-1.03","2","0","2","19","0.33",""
"","psychophysics","115","508759","0.0-115.0","63d79f4700b0f6f94da70790","64de660df419ef0e7bbe25e8","","","","","4315",""," ","key"," ","4.219581054687467","500","250","zol","-0.9999999999999999","2","0","-25","-19","0.1",""
"","psychophysics","116","512888","0.0-116.0","63d79f4700b0f6f94da70790","64de660df419ef0e7bbe25e8","","","","","4126",""," ","key"," ","4.204872579001","500","250","zol","-0.65","2","0","19","-14","-0.45",""
"","psychophysics","117","517401","0.0-117.0","63d79f4700b0f6f94da70790","64de660df419ef0e7bbe25e8","","","","","4510",""," ","key"," ","4.2175809167446054","500","250","zol","-0.58","2","0","-10","0","-0.22",""
"","psychophysics","118","520142","0.0-118.0","63d79f4700b0f6f94da70790","64de660df419ef0e7bbe25e8","","","","","2737",""," ","key"," ","4.202875576036845","500","250","zol","-0.55","2","0","29","22","-0.45",""
"","psychophysics","119","523673","0.0-119.0","63d79f4700b0f6f94da70790","64de660df419ef0e7bbe25e8","","","","","3527",""," ","key"," ","4.211000000000034","500","250","zol","-0.59","2","0","-7","-24","-0.71",""
"","psychophysics","120","526467","0.0-120.0","63d79f4700b0f6f94da70790","64de660df419ef0e7bbe25e8","","","","","2793",""," ","key"," ","4.189312312312392","500","250","zol","-1.02","2","0","16","-18","-0.18",""
"","psychophysics","121","527816","0.0-121.0","63d79f4700b0f6f94da70790","64de660df419ef0e7bbe25e8","","","","","1347",""," ","key"," ","4.18395638629298","500","250","inst","","","","","","",""
"","psychophysics","122","533430","0.0-122.0","63d79f4700b0f6f94da70790","64de660df419ef0e7bbe25e8","","","","","5612",""," ","key"," ","4.19261434977578","500","250","instPz1","45","2","","","","25","50"
"","psychophysics","123","536772","0.0-123.0","63d79f4700b0f6f94da70790","64de660df419ef0e7bbe25e8","","","","","3340",""," ","key"," ","4.181228070175579","500","250","instPz2","33","2","","","","20","35"
"","psychophysics","124","545183","0.0-124.0","63d79f4700b0f6f94da70790","64de660df419ef0e7bbe25e8","","","","","8408",""," ","key"," ","4.187427788844612","500","250","instPz3","92","2","","","","30","100"
"","psychophysics","125","549943","0.0-125.0","63d79f4700b0f6f94da70790","64de660df419ef0e7bbe25e8","","","","","4758",""," ","key"," ","4.192955908289272","500","250","instPz4","93","2","","","","30","100"
"","psychophysics","126","550776","0.0-126.0","63d79f4700b0f6f94da70790","64de660df419ef0e7bbe25e8","","","","","831",""," ","key"," ","4.191585858585901","500","250","inst","","","","","","",""
"","psychophysics","127","552960","0.0-127.0","63d79f4700b0f6f94da70790","64de660df419ef0e7bbe25e8","","","","","2182",""," ","key"," ","4.203052023121313","500","250","pz","33","2","1","","","27","30"
"","psychophysics","128","556077","0.0-128.0","63d79f4700b0f6f94da70790","64de660df419ef0e7bbe25e8","","","","","3115",""," ","key"," ","4.193243935309956","500","250","pz","52","2","1","","","36","57"
"","psychophysics","129","557957","0.0-129.0","63d79f4700b0f6f94da70790","64de660df419ef0e7bbe25e8","","","","","1878",""," ","key"," ","4.198794183445266","500","250","pz","57","2","1","","","48","60"
"","psychophysics","130","560885","0.0-130.0","63d79f4700b0f6f94da70790","64de660df419ef0e7bbe25e8","","","","","2926",""," ","key"," ","4.243439767779363","500","250","pz","52","2","1","","","26","52"
"","psychophysics","131","562932","0.0-131.0","63d79f4700b0f6f94da70790","64de660df419ef0e7bbe25e8","","","","","2045",""," ","key"," ","4.196533880903609","500","250","pz","32","2","1","","","26","33"
"","psychophysics","132","565832","0.0-132.0","63d79f4700b0f6f94da70790","64de660df419ef0e7bbe25e8","","","","","2898",""," ","key"," ","4.200757619738815","500","250","pz","49","2","1","","","22","48"
"","psychophysics","133","569213","0.0-133.0","63d79f4700b0f6f94da70790","64de660df419ef0e7bbe25e8","","","","","3378",""," ","key"," ","4.207211970074823","500","250","pz","34","2","1","","","45","32"
"","psychophysics","134","570929","0.0-134.0","63d79f4700b0f6f94da70790","64de660df419ef0e7bbe25e8","","","","","1714",""," ","key"," ","4.211555282555289","500","250","pz","27","2","1","","","40","28"
"","psychophysics","135","573776","0.0-135.0","63d79f4700b0f6f94da70790","64de660df419ef0e7bbe25e8","","","","","2845",""," ","key"," ","4.195444608567196","500","250","pz","23","2","1","","","38","24"
"","psychophysics","136","576960","0.0-136.0","63d79f4700b0f6f94da70790","64de660df419ef0e7bbe25e8","","","","","3182",""," ","key"," ","4.203863936591748","500","250","pz","29","2","1","","","55","29"
"","psychophysics","137","581113","0.0-137.0","63d79f4700b0f6f94da70790","64de660df419ef0e7bbe25e8","","","","","4150",""," ","key"," ","4.191861616161586","500","250","pz","27","2","1","","","46","27"
"","psychophysics","138","583444","0.0-138.0","63d79f4700b0f6f94da70790","64de660df419ef0e7bbe25e8","","","","","2329",""," ","key"," ","4.20866847826076","500","250","pz","52","2","1","","","46","54"
"","psychophysics","139","585282","0.0-139.0","63d79f4700b0f6f94da70790","64de660df419ef0e7bbe25e8","","","","","1836",""," ","key"," ","4.257967517401411","500","250","pz","27","2","1","","","21","29"
"","psychophysics","140","588688","0.0-140.0","63d79f4700b0f6f94da70790","64de660df419ef0e7bbe25e8","","","","","3403",""," ","key"," ","4.217311028500614","500","250","pz","33","2","1","","","47","34"
"","psychophysics","141","591111","0.0-141.0","63d79f4700b0f6f94da70790","64de660df419ef0e7bbe25e8","","","","","2422",""," ","key"," ","4.20701565217409","500","250","pz","45","2","1","","","37","51"
"","psychophysics","142","591892","0.0-142.0","63d79f4700b0f6f94da70790","64de660df419ef0e7bbe25e8","","","","","777",""," ","key"," ","4.193340540540757","500","250","inst","","","","","","",""
"","psychophysics","143","598541","0.0-143.0","63d79f4700b0f6f94da70790","64de660df419ef0e7bbe25e8","","","","","6648",""," ","key"," ","4.189211223203049","500","250","instPog0","160","1","","0","0","190","160"
"","psychophysics","144","602875","0.0-144.0","63d79f4700b0f6f94da70790","64de660df419ef0e7bbe25e8","","","","","4332",""," ","key"," ","4.1950687984496","500","250","instPog1","160","1","","0","0","190","160"
"","psychophysics","145","604780","0.0-145.0","63d79f4700b0f6f94da70790","64de660df419ef0e7bbe25e8","","","","","1903",""," ","key"," ","4.227284444444554","500","250","instPog2","160","1","","0","0","160","160"
"","psychophysics","146","610590","0.0-146.0","63d79f4700b0f6f94da70790","64de660df419ef0e7bbe25e8","","","","","5807",""," ","key"," ","4.198016630513432","500","250","inst","","","","","","",""
"","psychophysics","147","614054","0.0-147.0","63d79f4700b0f6f94da70790","64de660df419ef0e7bbe25e8","","","","","3463",""," ","key"," ","4.185795646916626","500","250","pog","152","1","1","0","0","128","162"
"","psychophysics","148","617251","0.0-148.0","63d79f4700b0f6f94da70790","64de660df419ef0e7bbe25e8","","","","","3196",""," ","key"," ","4.216171730515182","500","250","pog","201","1","1","0","0","119","200"
"","psychophysics","149","620321","0.0-149.0","63d79f4700b0f6f94da70790","64de660df419ef0e7bbe25e8","","","","","3067",""," ","key"," ","4.199621917808281","500","250","pog","123","1","1","0","0","127","121"
"","psychophysics","150","622838","0.0-150.0","63d79f4700b0f6f94da70790","64de660df419ef0e7bbe25e8","","","","","2515",""," ","key"," ","4.177416943521487","500","250","pog","180","1","1","0","0","142","171"
"","psychophysics","151","625162","0.0-151.0","63d79f4700b0f6f94da70790","64de660df419ef0e7bbe25e8","","","","","2323",""," ","key"," ","4.208774954628009","500","250","pog","175","1","1","0","0","171","174"
"","psychophysics","152","628540","0.0-152.0","63d79f4700b0f6f94da70790","64de660df419ef0e7bbe25e8","","","","","3376",""," ","key"," ","4.207211970074823","500","250","pog","131","1","1","0","0","199","127"
"","psychophysics","153","633207","0.0-153.0","63d79f4700b0f6f94da70790","64de660df419ef0e7bbe25e8","","","","","4665",""," ","key"," ","4.219876923076851","500","250","pog","204","1","1","0","0","102","196"
"","psychophysics","154","637400","0.0-154.0","63d79f4700b0f6f94da70790","64de660df419ef0e7bbe25e8","","","","","4191",""," ","key"," ","4.1874929999999","500","250","pog","150","1","1","0","0","132","149"
"","psychophysics","155","639997","0.0-155.0","63d79f4700b0f6f94da70790","64de660df419ef0e7bbe25e8","","","","","2595",""," ","key"," ","4.204662884927069","500","250","pog","168","1","1","0","0","142","165"
"","psychophysics","156","642218","0.0-156.0","63d79f4700b0f6f94da70790","64de660df419ef0e7bbe25e8","","","","","2220",""," ","key"," ","4.1866729678638945","500","250","pog","140","1","1","0","0","118","127"
"","psychophysics","157","646795","0.0-157.0","63d79f4700b0f6f94da70790","64de660df419ef0e7bbe25e8","","","","","4574",""," ","key"," ","4.197506422018354","500","250","pog","187","1","1","0","0","121","172"
"","psychophysics","158","650116","0.0-158.0","63d79f4700b0f6f94da70790","64de660df419ef0e7bbe25e8","","","","","3320",""," ","key"," ","4.213526048284678","500","250","pog","187","1","1","0","0","211","175"
"","psychophysics","159","653798","0.0-159.0","63d79f4700b0f6f94da70790","64de660df419ef0e7bbe25e8","","","","","3680",""," ","key"," ","4.194641961231472","500","250","pog","183","1","1","0","0","211","174"
"","psychophysics","160","659257","0.0-160.0","63d79f4700b0f6f94da70790","64de660df419ef0e7bbe25e8","","","","","5458",""," ","key"," ","4.173953328232652","500","250","pog","196","1","1","0","0","212","184"
"","psychophysics","161","667241","0.0-161.0","63d79f4700b0f6f94da70790","64de660df419ef0e7bbe25e8","","","","","7982",""," ","key"," ","4.199398421052671","500","250","pog","214","1","1","0","0","132","199"
"","psychophysics","162","668354","0.0-162.0","63d79f4700b0f6f94da70790","64de660df419ef0e7bbe25e8","","","","","1112",""," ","key"," ","4.1705827067669174","500","250","inst","","","","","","",""
"","psychophysics","163","674726","0.0-163.0","63d79f4700b0f6f94da70790","64de660df419ef0e7bbe25e8","","","","","6369",""," ","key"," ","4.2150178807947185","500","250","instBr3","14","2","","0","0","40","300"
"","psychophysics","164","675559","0.0-164.0","63d79f4700b0f6f94da70790","64de660df419ef0e7bbe25e8","","","","","832",""," ","key"," ","4.213751269035812","500","250","inst","","","","","","",""
"","psychophysics","165","680236","0.0-165.0","63d79f4700b0f6f94da70790","64de660df419ef0e7bbe25e8","","","","","4674",""," ","key"," ","4.234882139619178","500","250","br","14","2","1","-21","3","30","259"
"","psychophysics","166","683591","0.0-166.0","63d79f4700b0f6f94da70790","64de660df419ef0e7bbe25e8","","","","","3354",""," ","key"," ","4.2022669172932146","500","250","br","33","2","1","-6","26","-9","229"
"","psychophysics","167","685173","0.0-167.0","63d79f4700b0f6f94da70790","64de660df419ef0e7bbe25e8","","","","","1580",""," ","key"," ","4.2158770053473145","500","250","br","16","2","1","-23","-26","30","225"
"","psychophysics","168","686460","0.0-168.0","63d79f4700b0f6f94da70790","64de660df419ef0e7bbe25e8","","","","","1285",""," ","key"," ","4.197483660130506","500","250","br","15","2","1","-14","-22","21","293"
"","psychophysics","169","687740","0.0-169.0","63d79f4700b0f6f94da70790","64de660df419ef0e7bbe25e8","","","","","1278",""," ","key"," ","4.171591503267919","500","250","br","18","2","1","-17","-25","19","247"
"","psychophysics","170","689834","0.0-170.0","63d79f4700b0f6f94da70790","64de660df419ef0e7bbe25e8","","","","","2092",""," ","key"," ","4.204002012072367","500","250","br","15","2","1","21","27","2","295"
"","psychophysics","171","692715","0.0-171.0","63d79f4700b0f6f94da70790","64de660df419ef0e7bbe25e8","","","","","2879",""," ","key"," ","4.1951413994168645","500","250","br","34","2","1","-25","-9","8","278"
"","psychophysics","172","697041","0.0-172.0","63d79f4700b0f6f94da70790","64de660df419ef0e7bbe25e8","","","","","4324",""," ","key"," ","4.19938386783293","500","250","br","16","2","1","15","10","3","200"
"","psychophysics","173","700334","0.0-173.0","63d79f4700b0f6f94da70790","64de660df419ef0e7bbe25e8","","","","","3290",""," ","key"," ","4.208141025641145","500","250","br","28","2","1","18","22","29","268"
"","psychophysics","174","703342","0.0-174.0","63d79f4700b0f6f94da70790","64de660df419ef0e7bbe25e8","","","","","3002",""," ","key"," ","4.1999748251747695","500","250","br","19","2","1","7","14","-16","283"
"","psychophysics","175","705585","0.0-175.0","63d79f4700b0f6f94da70790","64de660df419ef0e7bbe25e8","","","","","2240",""," ","key"," ","4.217924670433133","500","250","br","16","2","1","-26","-27","30","236"
"","psychophysics","176","707814","0.0-176.0","63d79f4700b0f6f94da70790","64de660df419ef0e7bbe25e8","","","","","2227",""," ","key"," ","4.20233773584895","500","250","br","24","2","1","-11","-13","-14","297"
"","psychophysics","177","710395","0.0-177.0","63d79f4700b0f6f94da70790","64de660df419ef0e7bbe25e8","","","","","2579",""," ","key"," ","4.225095081967149","500","250","br","26","2","1","-23","6","-25","237"
"","psychophysics","178","711853","0.0-178.0","63d79f4700b0f6f94da70790","64de660df419ef0e7bbe25e8","","","","","1456",""," ","key"," ","4.1955549132948295","500","250","br","16","2","1","14","9","21","259"
"","psychophysics","179","713511","0.0-179.0","63d79f4700b0f6f94da70790","64de660df419ef0e7bbe25e8","","","","","1656",""," ","key"," ","4.2023350253806395","500","250","br","17","2","1","-28","-10","15","274"
"","psychophysics","180","714491","0.0-180.0","63d79f4700b0f6f94da70790","64de660df419ef0e7bbe25e8","","","","","978",""," ","key"," ","4.224139130434892","500","250","inst","","","","","","",""
"","psychophysics","181","721695","0.0-181.0","63d79f4700b0f6f94da70790","64de660df419ef0e7bbe25e8","","","","","7196",""," ","key"," ","4.185399186519491","500","250","instEB1","41","2","","0","0","30","40"
"","psychophysics","182","727358","0.0-182.0","63d79f4700b0f6f94da70790","64de660df419ef0e7bbe25e8","","","","","5661",""," ","key"," ","4.214337304542056","500","250","instEB2","32","2","","0","0","40","30"
"","psychophysics","183","730145","0.0-183.0","63d79f4700b0f6f94da70790","64de660df419ef0e7bbe25e8","","","","","2785",""," ","key"," ","4.208886535552227","500","250","instEB3","31","2","","0","0","45","27"
"","psychophysics","184","734691","0.0-184.0","63d79f4700b0f6f94da70790","64de660df419ef0e7bbe25e8","","","","","4544",""," ","key"," ","4.209360518999095","500","250","instEB4","45","2","","0","0","30","40"
"","psychophysics","185","735646","0.0-185.0","63d79f4700b0f6f94da70790","64de660df419ef0e7bbe25e8","","","","","953",""," ","key"," ","4.22722666666636","500","250","inst","","","","","","",""
"","psychophysics","186","739938","0.0-186.0","63d79f4700b0f6f94da70790","64de660df419ef0e7bbe25e8","","","","","4291",""," ","key"," ","4.228523668639052","500","250","eb","51","2","","0","0","42","51"
"","psychophysics","187","743561","0.0-187.0","63d79f4700b0f6f94da70790","64de660df419ef0e7bbe25e8","","","","","3621",""," ","key"," ","4.243914319248761","500","250","eb","27","2","","0","0","54","25"
"","psychophysics","188","747018","0.0-188.0","63d79f4700b0f6f94da70790","64de660df419ef0e7bbe25e8","","","","","3454",""," ","key"," ","4.262503703703736","500","250","eb","48","2","","0","0","25","37"
"","psychophysics","189","748540","0.0-189.0","63d79f4700b0f6f94da70790","64de660df419ef0e7bbe25e8","","","","","1519",""," ","key"," ","4.350137931034477","500","250","eb","43","2","","0","0","43","37"
"","psychophysics","190","752594","0.0-190.0","63d79f4700b0f6f94da70790","64de660df419ef0e7bbe25e8","","","","","4049",""," ","key"," ","4.4811061946903115","500","250","eb","58","2","","0","0","29","51"
"","psychophysics","191","755159","0.0-191.0","63d79f4700b0f6f94da70790","64de660df419ef0e7bbe25e8","","","","","2561",""," ","key"," ","4.556401069518619","500","250","eb","45","2","","0","0","50","41"
"","psychophysics","192","757367","0.0-192.0","63d79f4700b0f6f94da70790","64de660df419ef0e7bbe25e8","","","","","2200",""," ","key"," ","4.4709210526315974","500","250","eb","56","2","","0","0","36","46"
"","psychophysics","193","761670","0.0-193.0","63d79f4700b0f6f94da70790","64de660df419ef0e7bbe25e8","","","","","4301",""," ","key"," ","4.525553213909379","500","250","eb","28","2","","0","0","32","27"
"","psychophysics","194","763536","0.0-194.0","63d79f4700b0f6f94da70790","64de660df419ef0e7bbe25e8","","","","","1864",""," ","key"," ","4.54316136919299","500","250","eb","43","2","","0","0","33","35"
"","psychophysics","195","767748","0.0-195.0","63d79f4700b0f6f94da70790","64de660df419ef0e7bbe25e8","","","","","4206",""," ","key"," ","4.6352544052864575","500","250","eb","30","2","","0","0","30","26"
"","psychophysics","196","772388","0.0-196.0","63d79f4700b0f6f94da70790","64de660df419ef0e7bbe25e8","","","","","4638",""," ","key"," ","4.7445138178096355","500","250","eb","40","2","","0","0","54","33"
"","psychophysics","197","777648","0.0-197.0","63d79f4700b0f6f94da70790","64de660df419ef0e7bbe25e8","","","","","5258",""," ","key"," ","4.50169751499574","500","250","eb","53","2","","0","0","53","47"
"","psychophysics","198","781758","0.0-198.0","63d79f4700b0f6f94da70790","64de660df419ef0e7bbe25e8","","","","","4108",""," ","key"," ","4.453211496746114","500","250","eb","49","2","","0","0","26","45"
"","psychophysics","199","786519","0.0-199.0","63d79f4700b0f6f94da70790","64de660df419ef0e7bbe25e8","","","","","4759",""," ","key"," ","4.667274779195269","500","250","eb","44","2","","0","0","52","38"
"","psychophysics","200","790466","0.0-200.0","63d79f4700b0f6f94da70790","64de660df419ef0e7bbe25e8","","","","","3943",""," ","key"," ","4.389559020044568","500","250","eb","29","2","","0","0","42","28"
"","psychophysics","201","791553","0.0-201.0","63d79f4700b0f6f94da70790","64de660df419ef0e7bbe25e8","","","","","1085",""," ","key"," ","4.373629032258196","500","250","inst","","","","","","",""
"","psychophysics","202","796494","0.0-202.0","63d79f4700b0f6f94da70790","64de660df419ef0e7bbe25e8","","","","","4939",""," ","key"," ","4.2383519313305165","500","250","instZol1","0.3999999999999998","","","0","0","-1.3",""
"","psychophysics","203","802382","0.0-203.0","63d79f4700b0f6f94da70790","64de660df419ef0e7bbe25e8","","","","","5886",""," ","key"," ","4.209439513242704","500","250","instZol2","0.9000000000000006","1","","0","0","2",""
"","psychophysics","204","803149","0.0-204.0","63d79f4700b0f6f94da70790","64de660df419ef0e7bbe25e8","","","","","765",""," ","key"," ","4.193137362637752","500","250","inst","","","","","","",""
"","psychophysics","205","807995","0.0-205.0","63d79f4700b0f6f94da70790","64de660df419ef0e7bbe25e8","","","","","4843",""," ","key"," ","4.203356770833327","500","250","zol","1.0499999999999998","1","1","-11","-15","-0.35",""
"","psychophysics","206","812275","0.0-206.0","63d79f4700b0f6f94da70790","64de660df419ef0e7bbe25e8","","","","","4277",""," ","key"," ","4.18716062683645","500","250","zol","0.9899999999999999","1","1","-17","-30","-0.69",""
"","psychophysics","207","815304","0.0-207.0","63d79f4700b0f6f94da70790","64de660df419ef0e7bbe25e8","","","","","3026",""," ","key"," ","4.217268802228346","500","250","zol","0.6599999999999999","1","1","-12","-16","0.74",""
"","psychophysics","208","818036","0.0-208.0","63d79f4700b0f6f94da70790","64de660df419ef0e7bbe25e8","","","","","2730",""," ","key"," ","4.222472136222827","500","250","zol","1.2","1","1","-15","-12","-0.2",""
"","psychophysics","209","820256","0.0-209.0","63d79f4700b0f6f94da70790","64de660df419ef0e7bbe25e8","","","","","2218",""," ","key"," ","4.186583333333229","500","250","zol","0.9999999999999999","1","1","-28","-6","0.2",""
"","psychophysics","210","823692","0.0-210.0","63d79f4700b0f6f94da70790","64de660df419ef0e7bbe25e8","","","","","3426",""," ","key"," ","4.211750920245315","500","250","zol","0.7999999999999999","1","1","5","3","-0.4",""
"","psychophysics","211","826107","0.0-211.0","63d79f4700b0f6f94da70790","64de660df419ef0e7bbe25e8","","","","","2412",""," ","key"," ","4.199895470383259","500","250","zol","0.74","1","1","13","14","0.26",""
"","psychophysics","212","829430","0.0-212.0","63d79f4700b0f6f94da70790","64de660df419ef0e7bbe25e8","","","","","3320",""," ","key"," ","4.234698595146834","500","250","zol","1.03","1","1","-30","6","-0.53",""
"","psychophysics","213","832818","0.0-213.0","63d79f4700b0f6f94da70790","64de660df419ef0e7bbe25e8","","","","","3386",""," ","key"," ","4.207103105590054","500","250","zol","1.03","1","1","30","-12","-0.73",""
"","psychophysics","214","835300","0.0-214.0","63d79f4700b0f6f94da70790","64de660df419ef0e7bbe25e8","","","","","2477",""," ","key"," ","4.206190152801352","500","250","zol","0.8499999999999999","1","1","11","-16","-0.15",""
"","psychophysics","215","837877","0.0-215.0","63d79f4700b0f6f94da70790","64de660df419ef0e7bbe25e8","","","","","2574",""," ","key"," ","4.170787682333762","500","250","zol","0.91","1","1","-25","-15","-0.61",""
"","psychophysics","216","841040","0.0-216.0","63d79f4700b0f6f94da70790","64de660df419ef0e7bbe25e8","","","","","3161",""," ","key"," ","4.204161118508593","500","250","zol","0.7299999999999999","1","1","-2","9","0.67",""
"","psychophysics","217","845288","0.0-217.0","63d79f4700b0f6f94da70790","64de660df419ef0e7bbe25e8","","","","","4245",""," ","key"," ","4.208004955401366","500","250","zol","0.8400000000000001","1","1","-4","29","-0.14",""
"","psychophysics","218","849640","0.0-218.0","63d79f4700b0f6f94da70790","64de660df419ef0e7bbe25e8","","","","","4350",""," ","key"," ","4.203099613152809","500","250","zol","1.37","1","1","18","-14","-0.37",""
"","psychophysics","219","854463","0.0-219.0","63d79f4700b0f6f94da70790","64de660df419ef0e7bbe25e8","","","","","4820",""," ","key"," ","4.210903846153825","500","250","zol","0.9599999999999999","1","1","-12","-23","0.74",""
