"success","trial_type","trial_index","time_elapsed","internal_node_id","pid","sid","timeout","failed_images","failed_audio","failed_video","rt","stimulus","response","response_type","key_press","avg_frame_time","center_x","center_y","task","resp","version","block","start","jitterX","jitterY","parA"
"true","fullscreen","0","3057","0.0-0.0","63b724532ff8f6701c3fd84c","64e50e34daa343bbddf8df9e","","","","","","","","","","","","","","","","","","","",""
"true","preload","1","3212","0.0-1.0","63b724532ff8f6701c3fd84c","64e50e34daa343bbddf8df9e","false","[]","[]","[]","","","","","","","","","","","","","","","",""
"","html-button-response","2","5813","0.0-2.0","63b724532ff8f6701c3fd84c","64e50e34daa343bbddf8df9e","","","","","2599","Please Make Sure Your Audio Is On.","0","","","","","","","","","","","","",""
"","psychophysics","3","26686","0.0-3.0","63b724532ff8f6701c3fd84c","64e50e34daa343bbddf8df9e","","","","","20852",""," ","key"," ","18.765089028776977","687.7611744507412","249.67163468342014","","","","","","","",""
"","psychophysics","4","29780","0.0-4.0","63b724532ff8f6701c3fd84c","64e50e34daa343bbddf8df9e","","","","","3069",""," ","key"," ","17.42442613636364","499.7014783118667","249.67163468342014","inst","","","","","","",""
"","psychophysics","5","32991","0.0-5.0","63b724532ff8f6701c3fd84c","64e50e34daa343bbddf8df9e","","","","","3184",""," ","key"," ","17.679629834254158","499.7014783118667","249.67163468342014","sample0","","","","","","",""
"","psychophysics","6","34536","0.0-6.0","63b724532ff8f6701c3fd84c","64e50e34daa343bbddf8df9e","","","","","1531",""," ","key"," ","16.849901098901103","499.7014783118667","249.67163468342014","sample1","","","","","","",""
"","psychophysics","7","49117","0.0-7.0","63b724532ff8f6701c3fd84c","64e50e34daa343bbddf8df9e","","","","","14565",""," ","key"," ","16.82075057736721","499.7014783118667","249.67163468342014","sample2","100","","","","","",""
"","psychophysics","8","52197","0.0-8.0","63b724532ff8f6701c3fd84c","64e50e34daa343bbddf8df9e","","","","","3056",""," ","key"," ","17.132256983240218","499.7014783118667","249.67163468342014","sample3","100","","","","","",""
"","psychophysics","9","56686","0.0-9.0","63b724532ff8f6701c3fd84c","64e50e34daa343bbddf8df9e","","","","","4466",""," ","key"," ","16.918916666666686","499.7014783118667","249.67163468342014","sample4","100","","","","","",""
"","psychophysics","10","59331","0.0-10.0","63b724532ff8f6701c3fd84c","64e50e34daa343bbddf8df9e","","","","","2629",""," ","key"," ","16.667487341772173","499.7014783118667","249.67163468342014","sample5","","","","","","",""
"","psychophysics","11","62598","0.0-11.0","63b724532ff8f6701c3fd84c","64e50e34daa343bbddf8df9e","","","","","3253",""," ","key"," ","16.92709375","499.7014783118667","249.67163468342014","sample6","450","","","","","",""
"","psychophysics","12","67044","0.0-12.0","63b724532ff8f6701c3fd84c","64e50e34daa343bbddf8df9e","","","","","4425",""," ","key"," ","16.793000000000024","499.7014783118667","249.67163468342014","inst","","","","","","",""
"","psychophysics","13","70666","0.0-13.0","63b724532ff8f6701c3fd84c","64e50e34daa343bbddf8df9e","","","","","3609",""," ","key"," ","16.666745370370336","499.7014783118667","249.67163468342014","inst","","","","","","",""
"","psychophysics","14","74192","0.0-14.0","63b724532ff8f6701c3fd84c","64e50e34daa343bbddf8df9e","","","","","3512",""," ","key"," ","16.825622009569415","499.7014783118667","249.67163468342014","inst","","","","","","",""
"","psychophysics","15","75643","0.0-15.0","63b724532ff8f6701c3fd84c","64e50e34daa343bbddf8df9e","","","","","1436",""," ","key"," ","16.667534883720883","499.7014783118667","249.67163468342014","inst","","","","","","",""
"","psychophysics","16","77162","0.0-16.0","63b724532ff8f6701c3fd84c","64e50e34daa343bbddf8df9e","","","","","1508",""," ","key"," ","16.84806741573037","499.7014783118667","249.67163468342014","inst","","","","","","",""
"","psychophysics","17","83486","0.0-17.0","63b724532ff8f6701c3fd84c","64e50e34daa343bbddf8df9e","","","","","6310",""," ","key"," ","17.116413043478293","499.7014783118667","249.67163468342014","instPog0","160","1","","190","0","0","160"
"","psychophysics","18","85485","0.0-18.0","63b724532ff8f6701c3fd84c","64e50e34daa343bbddf8df9e","","","","","1988",""," ","key"," ","17.430307017543797","499.7014783118667","249.67163468342014","instPog1","192","1","","190","0","0","160"
"","psychophysics","19","92545","0.0-19.0","63b724532ff8f6701c3fd84c","64e50e34daa343bbddf8df9e","","","","","7047",""," ","key"," ","16.947278846153843","499.7014783118667","249.67163468342014","instPog2","184","1","","160","0","0","160"
"","psychophysics","20","94093","0.0-20.0","63b724532ff8f6701c3fd84c","64e50e34daa343bbddf8df9e","","","","","1535",""," ","key"," ","16.673195652173845","499.7014783118667","249.67163468342014","inst","","","","","","",""
"","psychophysics","21","98494","0.0-21.0","63b724532ff8f6701c3fd84c","64e50e34daa343bbddf8df9e","","","","","4386",""," ","key"," ","16.793195402298814","499.7014783118667","249.67163468342014","pog","171","1","0","155","0","0","145"
"","psychophysics","22","103263","0.0-22.0","63b724532ff8f6701c3fd84c","64e50e34daa343bbddf8df9e","","","","","4750",""," ","key"," ","17.0861438848921","499.7014783118667","249.67163468342014","pog","212","1","0","142","0","0","173"
"","psychophysics","23","106648","0.0-23.0","63b724532ff8f6701c3fd84c","64e50e34daa343bbddf8df9e","","","","","3372",""," ","key"," ","17.089304568527886","499.7014783118667","249.67163468342014","pog","187","1","0","219","0","0","139"
"","psychophysics","24","112870","0.0-24.0","63b724532ff8f6701c3fd84c","64e50e34daa343bbddf8df9e","","","","","6208",""," ","key"," ","16.802254742547404","499.7014783118667","249.67163468342014","pog","206","1","0","204","0","0","173"
"","psychophysics","25","120882","0.0-25.0","63b724532ff8f6701c3fd84c","64e50e34daa343bbddf8df9e","","","","","null","","null","key","null","16.985203821656025","499.7014783118667","249.67163468342014","pog","180","1","0","220","0","0","142"
"","psychophysics","26","120957","0.0-26.0","63b724532ff8f6701c3fd84c","64e50e34daa343bbddf8df9e","","","","","61",""," ","key"," ","16.66649999999936","499.7014783118667","249.67163468342014","pog","179","1","0","179","0","0","168"
"","psychophysics","27","127443","0.0-27.0","63b724532ff8f6701c3fd84c","64e50e34daa343bbddf8df9e","","","","","6473",""," ","key"," ","16.88377864583333","499.7014783118667","249.67163468342014","pog","245","1","0","113","0","0","190"
"","psychophysics","28","129360","0.0-28.0","63b724532ff8f6701c3fd84c","64e50e34daa343bbddf8df9e","","","","","1902",""," ","key"," ","16.666754385964865","499.7014783118667","249.67163468342014","pog","158","1","0","154","0","0","129"
"","psychophysics","29","130378","0.0-29.0","63b724532ff8f6701c3fd84c","64e50e34daa343bbddf8df9e","","","","","1006",""," ","key"," ","16.666800000000027","499.7014783118667","249.67163468342014","pog","194","1","0","194","0","0","161"
"","psychophysics","30","132525","0.0-30.0","63b724532ff8f6701c3fd84c","64e50e34daa343bbddf8df9e","","","","","2134",""," ","key"," ","16.666843749999998","499.7014783118667","249.67163468342014","pog","165","1","0","159","0","0","142"
"","psychophysics","31","140290","0.0-31.0","63b724532ff8f6701c3fd84c","64e50e34daa343bbddf8df9e","","","","","7753",""," ","key"," ","17.03305054945055","499.7014783118667","249.67163468342014","pog","180","1","0","100","0","0","168"
"","psychophysics","32","144836","0.0-32.0","63b724532ff8f6701c3fd84c","64e50e34daa343bbddf8df9e","","","","","4536",""," ","key"," ","16.980026315789495","499.7014783118667","249.67163468342014","pog","193","1","0","211","0","0","169"
"","psychophysics","33","148626","0.0-33.0","63b724532ff8f6701c3fd84c","64e50e34daa343bbddf8df9e","","","","","3779",""," ","key"," ","17.04221621621623","499.7014783118667","249.67163468342014","pog","216","1","0","136","0","0","187"
"","psychophysics","34","152202","0.0-34.0","63b724532ff8f6701c3fd84c","64e50e34daa343bbddf8df9e","","","","","3561",""," ","key"," ","16.82474407582942","499.7014783118667","249.67163468342014","pog","162","1","0","114","0","0","141"
"","psychophysics","35","154032","0.0-35.0","63b724532ff8f6701c3fd84c","64e50e34daa343bbddf8df9e","","","","","1819",""," ","key"," ","16.666697247706274","499.7014783118667","249.67163468342014","pog","203","1","0","193","0","0","162"
"","psychophysics","36","155493","0.0-36.0","63b724532ff8f6701c3fd84c","64e50e34daa343bbddf8df9e","","","","","1447",""," ","key"," ","16.666724137931087","499.7014783118667","249.67163468342014","inst","","","","","","",""
"","psychophysics","37","157663","0.0-37.0","63b724532ff8f6701c3fd84c","64e50e34daa343bbddf8df9e","","","","","2155",""," ","key"," ","16.666759689922387","499.7014783118667","249.67163468342014","instEB0","40","2","","40","0","0","40"
"","psychophysics","38","162397","0.0-38.0","63b724532ff8f6701c3fd84c","64e50e34daa343bbddf8df9e","","","","","4723",""," ","key"," ","16.785419928825654","499.7014783118667","249.67163468342014","instEB1","40","2","","30","0","0","40"
"","psychophysics","39","168465","0.0-39.0","63b724532ff8f6701c3fd84c","64e50e34daa343bbddf8df9e","","","","","6049",""," ","key"," ","16.852470752089168","499.7014783118667","249.67163468342014","instEB2","32","2","","40","0","0","30"
"","psychophysics","40","180033","0.0-40.0","63b724532ff8f6701c3fd84c","64e50e34daa343bbddf8df9e","","","","","11550",""," ","key"," ","17.3424309309309","499.7014783118667","249.67163468342014","instEB3","30","2","","45","0","0","27"
"","psychophysics","41","190750","0.0-41.0","63b724532ff8f6701c3fd84c","64e50e34daa343bbddf8df9e","","","","","10701",""," ","key"," ","17.20269935691318","499.7014783118667","249.67163468342014","instEB4","46","2","","30","0","0","40"
"","psychophysics","42","191966","0.0-42.0","63b724532ff8f6701c3fd84c","64e50e34daa343bbddf8df9e","","","","","1200",""," ","key"," ","17.391434782608986","499.7014783118667","249.67163468342014","inst","","","","","","",""
"","psychophysics","43","198420","0.0-43.0","63b724532ff8f6701c3fd84c","64e50e34daa343bbddf8df9e","","","","","6426",""," ","key"," ","17.01947089947094","499.7014783118667","249.67163468342014","eb","48","2","","39","0","0","41"
"","psychophysics","44","201309","0.0-44.0","63b724532ff8f6701c3fd84c","64e50e34daa343bbddf8df9e","","","","","2875",""," ","key"," ","17.16577844311376","499.7014783118667","249.67163468342014","eb","49","2","","54","0","0","43"
"","psychophysics","45","206137","0.0-45.0","63b724532ff8f6701c3fd84c","64e50e34daa343bbddf8df9e","","","","","4814",""," ","key"," ","17.38880144404323","499.7014783118667","249.67163468342014","eb","49","2","","27","0","0","43"
"","psychophysics","46","211100","0.0-46.0","63b724532ff8f6701c3fd84c","64e50e34daa343bbddf8df9e","","","","","4937",""," ","key"," ","17.01042611683844","499.7014783118667","249.67163468342014","eb","34","2","","27","0","0","32"
"","psychophysics","47","213801","0.0-47.0","63b724532ff8f6701c3fd84c","64e50e34daa343bbddf8df9e","","","","","2682",""," ","key"," ","16.876421383647767","499.7014783118667","249.67163468342014","eb","43","2","","45","0","0","37"
"","psychophysics","48","221819","0.0-48.0","63b724532ff8f6701c3fd84c","64e50e34daa343bbddf8df9e","","","","","null","","null","key","null","16.877729957805958","499.7014783118667","249.67163468342014","eb","57","2","","34","0","0","52"
"","psychophysics","49","221917","0.0-49.0","63b724532ff8f6701c3fd84c","64e50e34daa343bbddf8df9e","","","","","85",""," ","key"," ","16.666600000002653","499.7014783118667","249.67163468342014","eb","47","2","","47","0","0","54"
"","psychophysics","50","227536","0.0-50.0","63b724532ff8f6701c3fd84c","64e50e34daa343bbddf8df9e","","","","","5603",""," ","key"," ","16.766559880239573","499.7014783118667","249.67163468342014","eb","30","2","","40","0","0","28"
"","psychophysics","51","230029","0.0-51.0","63b724532ff8f6701c3fd84c","64e50e34daa343bbddf8df9e","","","","","2471",""," ","key"," ","16.89510273972601","499.7014783118667","249.67163468342014","eb","48","2","","38","0","0","38"
"","psychophysics","52","234370","0.0-52.0","63b724532ff8f6701c3fd84c","64e50e34daa343bbddf8df9e","","","","","4316",""," ","key"," ","16.731352713178232","499.7014783118667","249.67163468342014","eb","40","2","","54","0","0","32"
"","psychophysics","53","239624","0.0-53.0","63b724532ff8f6701c3fd84c","64e50e34daa343bbddf8df9e","","","","","5236",""," ","key"," ","16.773625000000045","499.7014783118667","249.67163468342014","eb","24","2","","42","0","0","24"
"","psychophysics","54","242086","0.0-54.0","63b724532ff8f6701c3fd84c","64e50e34daa343bbddf8df9e","","","","","2450",""," ","key"," ","16.78090410958916","499.7014783118667","249.67163468342014","eb","39","2","","52","0","0","32"
"","psychophysics","55","244597","0.0-55.0","63b724532ff8f6701c3fd84c","64e50e34daa343bbddf8df9e","","","","","2496",""," ","key"," ","17.009219178082127","499.7014783118667","249.67163468342014","eb","33","2","","31","0","0","28"
"","psychophysics","56","247970","0.0-56.0","63b724532ff8f6701c3fd84c","64e50e34daa343bbddf8df9e","","","","","3355",""," ","key"," ","17.089786802030428","499.7014783118667","249.67163468342014","eb","50","2","","30","0","0","47"
"","psychophysics","57","251972","0.0-57.0","63b724532ff8f6701c3fd84c","64e50e34daa343bbddf8df9e","","","","","3988",""," ","key"," ","16.807371308016915","499.7014783118667","249.67163468342014","eb","30","2","","39","0","0","27"
"","psychophysics","58","252755","0.0-58.0","63b724532ff8f6701c3fd84c","64e50e34daa343bbddf8df9e","","","","","767",""," ","key"," ","17.037155555555366","499.7014783118667","249.67163468342014","inst","","","","","","",""
"","psychophysics","59","253920","0.0-59.0","63b724532ff8f6701c3fd84c","64e50e34daa343bbddf8df9e","","","","","1154",""," ","key"," ","16.66692753623204","499.7014783118667","249.67163468342014","instPzPre","50","0","","50","","","50"
"","psychophysics","60","255587","0.0-60.0","63b724532ff8f6701c3fd84c","64e50e34daa343bbddf8df9e","","","","","1652",""," ","key"," ","17.368473684210574","499.7014783118667","249.67163468342014","instPz0","50","2","","50","","","50"
"","psychophysics","61","261441","0.0-61.0","63b724532ff8f6701c3fd84c","64e50e34daa343bbddf8df9e","","","","","5840",""," ","key"," ","16.86002318840575","499.7014783118667","249.67163468342014","instPz1","47","2","","25","","","50"
"","psychophysics","62","265025","0.0-62.0","63b724532ff8f6701c3fd84c","64e50e34daa343bbddf8df9e","","","","","3564",""," ","key"," ","16.90259433962253","499.7014783118667","249.67163468342014","instPz2","33","2","","20","","","35"
"","psychophysics","63","274174","0.0-63.0","63b724532ff8f6701c3fd84c","64e50e34daa343bbddf8df9e","","","","","9130",""," ","key"," ","18.303360721442843","499.7014783118667","249.67163468342014","instPz3","89","2","","30","","","100"
"","psychophysics","64","280742","0.0-64.0","63b724532ff8f6701c3fd84c","64e50e34daa343bbddf8df9e","","","","","6548",""," ","key"," ","18.450856338028178","499.7014783118667","249.67163468342014","instPz4","104","2","","30","","","100"
"","psychophysics","65","296719","0.0-65.0","63b724532ff8f6701c3fd84c","64e50e34daa343bbddf8df9e","","","","","15973",""," ","key"," ","16.807114736842127","499.7014783118667","249.67163468342014","inst","","","","","","",""
"","psychophysics","66","300187","0.0-66.0","63b724532ff8f6701c3fd84c","64e50e34daa343bbddf8df9e","","","","","3445",""," ","key"," ","17.875725388600806","499.7014783118667","249.67163468342014","pz","44","2","0","53","","","43"
"","psychophysics","67","302165","0.0-67.0","63b724532ff8f6701c3fd84c","64e50e34daa343bbddf8df9e","","","","","1940",""," ","key"," ","19.472009900990194","499.7014783118667","249.67163468342014","pz","39","2","0","52","","","41"
"","psychophysics","68","304116","0.0-68.0","63b724532ff8f6701c3fd84c","64e50e34daa343bbddf8df9e","","","","","1931",""," ","key"," ","18.254114285714014","499.7014783118667","249.67163468342014","pz","42","2","0","60","","","42"
"","psychophysics","69","306875","0.0-69.0","63b724532ff8f6701c3fd84c","64e50e34daa343bbddf8df9e","","","","","2734",""," ","key"," ","20.897615384615403","499.7014783118667","249.67163468342014","pz","50","2","0","20","","","53"
"","psychophysics","70","307880","0.0-70.0","63b724532ff8f6701c3fd84c","64e50e34daa343bbddf8df9e","","","","","977",""," ","key"," ","19.60794117647068","499.7014783118667","249.67163468342014","pz","47","2","0","47","","","52"
"","psychophysics","71","311534","0.0-71.0","63b724532ff8f6701c3fd84c","64e50e34daa343bbddf8df9e","","","","","3637",""," ","key"," ","17.723663414634263","499.7014783118667","249.67163468342014","pz","23","2","0","58","","","27"
"","psychophysics","72","313396","0.0-72.0","63b724532ff8f6701c3fd84c","64e50e34daa343bbddf8df9e","","","","","1845",""," ","key"," ","17.96125242718466","499.7014783118667","249.67163468342014","pz","37","2","0","36","","","36"
"","psychophysics","73","315453","0.0-73.0","63b724532ff8f6701c3fd84c","64e50e34daa343bbddf8df9e","","","","","2039",""," ","key"," ","17.994309734513436","499.7014783118667","249.67163468342014","pz","54","2","0","46","","","59"
"","psychophysics","74","318919","0.0-74.0","63b724532ff8f6701c3fd84c","64e50e34daa343bbddf8df9e","","","","","3443",""," ","key"," ","18.548478494623616","499.7014783118667","249.67163468342014","pz","48","2","0","29","","","50"
"","psychophysics","75","322316","0.0-75.0","63b724532ff8f6701c3fd84c","64e50e34daa343bbddf8df9e","","","","","3379",""," ","key"," ","17.996494680851143","499.7014783118667","249.67163468342014","pz","21","2","0","40","","","23"
"","psychophysics","76","324038","0.0-76.0","63b724532ff8f6701c3fd84c","64e50e34daa343bbddf8df9e","","","","","1707",""," ","key"," ","19.76769767441857","499.7014783118667","249.67163468342014","pz","53","2","0","51","","","58"
"","psychophysics","77","327244","0.0-77.0","63b724532ff8f6701c3fd84c","64e50e34daa343bbddf8df9e","","","","","3185",""," ","key"," ","17.395338797814254","499.7014783118667","249.67163468342014","pz","58","2","0","31","","","55"
"","psychophysics","78","331141","0.0-78.0","63b724532ff8f6701c3fd84c","64e50e34daa343bbddf8df9e","","","","","3870",""," ","key"," ","17.89561751152068","499.7014783118667","249.67163468342014","pz","52","2","0","34","","","53"
"","psychophysics","79","337503","0.0-79.0","63b724532ff8f6701c3fd84c","64e50e34daa343bbddf8df9e","","","","","6317",""," ","key"," ","17.890903954802273","499.7014783118667","249.67163468342014","pz","26","2","0","43","","","26"
"","psychophysics","80","339705","0.0-80.0","63b724532ff8f6701c3fd84c","64e50e34daa343bbddf8df9e","","","","","2181",""," ","key"," ","18.04423140495879","499.7014783118667","249.67163468342014","pz","44","2","0","43","","","47"
"","psychophysics","81","340498","0.0-81.0","63b724532ff8f6701c3fd84c","64e50e34daa343bbddf8df9e","","","","","781",""," ","key"," ","16.66680851063884","499.7014783118667","249.67163468342014","inst","","","","","","",""
"","psychophysics","82","341892","0.0-82.0","63b724532ff8f6701c3fd84c","64e50e34daa343bbddf8df9e","","","","","1381",""," ","key"," ","16.666843373494654","499.7014783118667","249.67163468342014","instBr0","0","","","0","0","0","300"
"","psychophysics","83","346043","0.0-83.0","63b724532ff8f6701c3fd84c","64e50e34daa343bbddf8df9e","","","","","4139",""," ","key"," ","16.73447967479687","499.7014783118667","249.67163468342014","instBr1","5","","","-40","0","0","300"
"","psychophysics","84","353483","0.0-84.0","63b724532ff8f6701c3fd84c","64e50e34daa343bbddf8df9e","","","","","7425",""," ","key"," ","17.0100114416476","499.7014783118667","249.67163468342014","instBr3","-12","1","","40","0","0","300"
"","psychophysics","85","354264","0.0-85.0","63b724532ff8f6701c3fd84c","64e50e34daa343bbddf8df9e","","","","","762",""," ","key"," ","17.03711111111075","499.7014783118667","249.67163468342014","inst","","","","","","",""
"","psychophysics","86","356947","0.0-86.0","63b724532ff8f6701c3fd84c","64e50e34daa343bbddf8df9e","","","","","2668",""," ","key"," ","16.666781249999985","499.7014783118667","249.67163468342014","br","-20","1","0","26","-17","-1","210"
"","psychophysics","87","359111","0.0-87.0","63b724532ff8f6701c3fd84c","64e50e34daa343bbddf8df9e","","","","","2151",""," ","key"," ","16.66675781249978","499.7014783118667","249.67163468342014","br","-14","1","0","12","19","16","224"
"","psychophysics","88","361450","0.0-88.0","63b724532ff8f6701c3fd84c","64e50e34daa343bbddf8df9e","","","","","2320",""," ","key"," ","17.031708029196956","499.7014783118667","249.67163468342014","br","-3","1","0","30","-17","-19","264"
"","psychophysics","89","363917","0.0-89.0","63b724532ff8f6701c3fd84c","64e50e34daa343bbddf8df9e","","","","","2455",""," ","key"," ","16.78093835616433","499.7014783118667","249.67163468342014","br","-15","1","0","-3","-7","-23","237"
"","psychophysics","90","366362","0.0-90.0","63b724532ff8f6701c3fd84c","64e50e34daa343bbddf8df9e","","","","","2433",""," ","key"," ","17.016475524475318","499.7014783118667","249.67163468342014","br","-12","1","0","22","-21","-20","209"
"","psychophysics","91","368164","0.0-91.0","63b724532ff8f6701c3fd84c","64e50e34daa343bbddf8df9e","","","","","1789",""," ","key"," ","16.824018867924714","499.7014783118667","249.67163468342014","br","-14","1","0","-9","20","-28","225"
"","psychophysics","92","370813","0.0-92.0","63b724532ff8f6701c3fd84c","64e50e34daa343bbddf8df9e","","","","","2634",""," ","key"," ","16.880429487179544","499.7014783118667","249.67163468342014","br","-17","1","0","0","6","19","201"
"","psychophysics","93","372655","0.0-93.0","63b724532ff8f6701c3fd84c","64e50e34daa343bbddf8df9e","","","","","1825",""," ","key"," ","16.666715596330462","499.7014783118667","249.67163468342014","br","-18","1","0","-23","19","30","224"
"","psychophysics","94","374900","0.0-94.0","63b724532ff8f6701c3fd84c","64e50e34daa343bbddf8df9e","","","","","2224",""," ","key"," ","16.666736842105532","499.7014783118667","249.67163468342014","br","-21","1","0","-3","11","-19","286"
"","psychophysics","95","377681","0.0-95.0","63b724532ff8f6701c3fd84c","64e50e34daa343bbddf8df9e","","","","","2766",""," ","key"," ","16.76784242424253","499.7014783118667","249.67163468342014","br","-19","1","0","-9","-9","16","232"
"","psychophysics","96","380471","0.0-96.0","63b724532ff8f6701c3fd84c","64e50e34daa343bbddf8df9e","","","","","2774",""," ","key"," ","16.666740963855442","499.7014783118667","249.67163468342014","br","-18","1","0","-12","25","-29","266"
"","psychophysics","97","384005","0.0-97.0","63b724532ff8f6701c3fd84c","64e50e34daa343bbddf8df9e","","","","","3522",""," ","key"," ","16.746109523809615","499.7014783118667","249.67163468342014","br","-16","1","0","27","-20","17","253"
"","psychophysics","98","386093","0.0-98.0","63b724532ff8f6701c3fd84c","64e50e34daa343bbddf8df9e","","","","","2077",""," ","key"," ","16.801185483871038","499.7014783118667","249.67163468342014","br","-19","1","0","-10","29","13","236"
"","psychophysics","99","388401","0.0-99.0","63b724532ff8f6701c3fd84c","64e50e34daa343bbddf8df9e","","","","","2295",""," ","key"," ","16.666817518248116","499.7014783118667","249.67163468342014","br","-24","1","0","-13","-2","-13","250"
"","psychophysics","100","391020","0.0-100.0","63b724532ff8f6701c3fd84c","64e50e34daa343bbddf8df9e","","","","","2606",""," ","key"," ","16.666756410256195","499.7014783118667","249.67163468342014","br","-21","1","0","-15","-28","12","247"
"","psychophysics","101","392117","0.0-101.0","63b724532ff8f6701c3fd84c","64e50e34daa343bbddf8df9e","","","","","1084",""," ","key"," ","17.195920634920533","499.7014783118667","249.67163468342014","inst","","","","","","",""
"","psychophysics","102","405870","0.0-102.0","63b724532ff8f6701c3fd84c","64e50e34daa343bbddf8df9e","","","","","13739",""," ","key"," ","16.871502457002446","499.7014783118667","249.67163468342014","instZol0","0","","","0","0","0",""
"","psychophysics","103","412282","0.0-103.0","63b724532ff8f6701c3fd84c","64e50e34daa343bbddf8df9e","","","","","6401",""," ","key"," ","16.977053191489293","499.7014783118667","249.67163468342014","instZol1","0.19999999999999982","","","-1.3","0","0",""
"","psychophysics","104","417062","0.0-104.0","63b724532ff8f6701c3fd84c","64e50e34daa343bbddf8df9e","","","","","4763",""," ","key"," ","16.842855633802763","499.7014783118667","249.67163468342014","instZol2","-2.1","2","","2","0","0",""
"","psychophysics","105","417732","0.0-105.0","63b724532ff8f6701c3fd84c","64e50e34daa343bbddf8df9e","","","","","659",""," ","key"," ","16.666743589744257","499.7014783118667","249.67163468342014","inst","","","","","","",""
"","psychophysics","106","424874","0.0-106.0","63b724532ff8f6701c3fd84c","64e50e34daa343bbddf8df9e","","","","","7125",""," ","key"," ","16.824345153664243","499.7014783118667","249.67163468342014","zol","-2.020000000000001","2","0","-0.28","-4","1",""
"","psychophysics","107","427988","0.0-107.0","63b724532ff8f6701c3fd84c","64e50e34daa343bbddf8df9e","","","","","3095",""," ","key"," ","16.94002732240418","499.7014783118667","249.67163468342014","zol","-2.350000000000001","2","0","0.45","-3","27",""
"","psychophysics","108","431197","0.0-108.0","63b724532ff8f6701c3fd84c","64e50e34daa343bbddf8df9e","","","","","3194",""," ","key"," ","16.842226315789404","499.7014783118667","249.67163468342014","zol","-2.7200000000000015","2","0","0.32","14","-8",""
"","psychophysics","109","438547","0.0-109.0","63b724532ff8f6701c3fd84c","64e50e34daa343bbddf8df9e","","","","","7333",""," ","key"," ","16.781180778032013","499.7014783118667","249.67163468342014","zol","-1.6200000000000006","2","0","0.42","-7","-8",""
"","psychophysics","110","446558","0.0-110.0","63b724532ff8f6701c3fd84c","64e50e34daa343bbddf8df9e","","","","","null","","null","key","null","16.842575949367077","499.7014783118667","249.67163468342014","zol","-1.4","2","0","-0.1","-26","-26",""
"","psychophysics","111","450544","0.0-111.0","63b724532ff8f6701c3fd84c","64e50e34daa343bbddf8df9e","","","","","3969",""," ","key"," ","16.73675210084013","499.7014783118667","249.67163468342014","zol","-1.6600000000000006","2","0","0.66","-28","-6",""
"","psychophysics","112","455011","0.0-112.0","63b724532ff8f6701c3fd84c","64e50e34daa343bbddf8df9e","","","","","4453",""," ","key"," ","16.85618181818184","499.7014783118667","249.67163468342014","zol","-1.11","2","0","0.21","-29","7",""
"","psychophysics","113","458765","0.0-113.0","63b724532ff8f6701c3fd84c","64e50e34daa343bbddf8df9e","","","","","3738",""," ","key"," ","17.125499999999985","499.7014783118667","249.67163468342014","zol","-1.37","2","0","0.07","-10","17",""
"","psychophysics","114","462588","0.0-114.0","63b724532ff8f6701c3fd84c","64e50e34daa343bbddf8df9e","","","","","3807",""," ","key"," ","16.740242290748785","499.7014783118667","249.67163468342014","zol","-1.5500000000000003","2","0","0.15","5","-21",""
"","psychophysics","115","467612","0.0-115.0","63b724532ff8f6701c3fd84c","64e50e34daa343bbddf8df9e","","","","","5011",""," ","key"," ","16.778204013377795","499.7014783118667","249.67163468342014","zol","-1.1300000000000001","2","0","0.73","21","4",""
"","psychophysics","116","470172","0.0-116.0","63b724532ff8f6701c3fd84c","64e50e34daa343bbddf8df9e","","","","","2539",""," ","key"," ","16.889013333333423","499.7014783118667","249.67163468342014","zol","-1.0699999999999998","2","0","0.07","-23","-10",""
"","psychophysics","117","473261","0.0-117.0","63b724532ff8f6701c3fd84c","64e50e34daa343bbddf8df9e","","","","","3070",""," ","key"," ","16.757836065573816","499.7014783118667","249.67163468342014","zol","-1.0799999999999998","2","0","0.08","-8","-11",""
"","psychophysics","118","477556","0.0-118.0","63b724532ff8f6701c3fd84c","64e50e34daa343bbddf8df9e","","","","","4282",""," ","key"," ","16.79747843137262","499.7014783118667","249.67163468342014","zol","-1.1600000000000001","2","0","0.56","-14","2",""
"","psychophysics","119","480175","0.0-119.0","63b724532ff8f6701c3fd84c","64e50e34daa343bbddf8df9e","","","","","2603",""," ","key"," ","17.218675496688864","499.7014783118667","249.67163468342014","zol","-0.58","2","0","-0.22","-3","18",""
"","psychophysics","120","484136","0.0-120.0","63b724532ff8f6701c3fd84c","64e50e34daa343bbddf8df9e","","","","","3923",""," ","key"," ","17.099670995671143","499.7014783118667","249.67163468342014","zol","-0.7799999999999999","2","0","0.58","-19","7",""
"","psychophysics","121","484890","0.0-121.0","63b724532ff8f6701c3fd84c","64e50e34daa343bbddf8df9e","","","","","744",""," ","key"," ","19.298421052630722","499.7014783118667","249.67163468342014","inst","","","","","","",""
"","psychophysics","122","488495","0.0-122.0","63b724532ff8f6701c3fd84c","64e50e34daa343bbddf8df9e","","","","","3591",""," ","key"," ","16.82324882629114","499.7014783118667","249.67163468342014","instBr3","18","2","","40","0","0","300"
"","psychophysics","123","489123","0.0-123.0","63b724532ff8f6701c3fd84c","64e50e34daa343bbddf8df9e","","","","","616",""," ","key"," ","16.666783783784627","499.7014783118667","249.67163468342014","inst","","","","","","",""
"","psychophysics","124","492955","0.0-124.0","63b724532ff8f6701c3fd84c","64e50e34daa343bbddf8df9e","","","","","3820",""," ","key"," ","16.81360352422918","499.7014783118667","249.67163468342014","br","13","2","1","-8","-19","-12","274"
"","psychophysics","125","495629","0.0-125.0","63b724532ff8f6701c3fd84c","64e50e34daa343bbddf8df9e","","","","","2660",""," ","key"," ","16.772259493670838","499.7014783118667","249.67163468342014","br","13","2","1","27","23","-25","276"
"","psychophysics","126","498511","0.0-126.0","63b724532ff8f6701c3fd84c","64e50e34daa343bbddf8df9e","","","","","2869",""," ","key"," ","16.66676162790709","499.7014783118667","249.67163468342014","br","17","2","1","30","-2","28","272"
"","psychophysics","127","502173","0.0-127.0","63b724532ff8f6701c3fd84c","64e50e34daa343bbddf8df9e","","","","","3648",""," ","key"," ","16.66676255707766","499.7014783118667","249.67163468342014","br","12","2","1","-25","2","-15","217"
"","psychophysics","128","504294","0.0-128.0","63b724532ff8f6701c3fd84c","64e50e34daa343bbddf8df9e","","","","","2107",""," ","key"," ","16.801169354838954","499.7014783118667","249.67163468342014","br","10","2","1","21","25","17","203"
"","psychophysics","129","509044","0.0-129.0","63b724532ff8f6701c3fd84c","64e50e34daa343bbddf8df9e","","","","","4733",""," ","key"," ","16.72544366197167","499.7014783118667","249.67163468342014","br","20","2","1","-13","13","4","288"
"","psychophysics","130","511679","0.0-130.0","63b724532ff8f6701c3fd84c","64e50e34daa343bbddf8df9e","","","","","2621",""," ","key"," ","16.773608974359096","499.7014783118667","249.67163468342014","br","17","2","1","3","-28","6","229"
"","psychophysics","131","512394","0.0-131.0","63b724532ff8f6701c3fd84c","64e50e34daa343bbddf8df9e","","","","","705",""," ","key"," ","16.66678571428444","499.7014783118667","249.67163468342014","br","18","2","1","18","8","-5","253"
"","psychophysics","132","515826","0.0-132.0","63b724532ff8f6701c3fd84c","64e50e34daa343bbddf8df9e","","","","","3419",""," ","key"," ","17.083390000000072","499.7014783118667","249.67163468342014","br","15","2","1","-6","-18","-15","273"
"","psychophysics","133","519041","0.0-133.0","63b724532ff8f6701c3fd84c","64e50e34daa343bbddf8df9e","","","","","3201",""," ","key"," ","17.021436170212606","499.7014783118667","249.67163468342014","br","14","2","1","-4","-28","17","266"
"","psychophysics","134","521672","0.0-134.0","63b724532ff8f6701c3fd84c","64e50e34daa343bbddf8df9e","","","","","2611",""," ","key"," ","17.218655629139022","499.7014783118667","249.67163468342014","br","13","2","1","-3","-28","22","269"
"","psychophysics","135","524963","0.0-135.0","63b724532ff8f6701c3fd84c","64e50e34daa343bbddf8df9e","","","","","3266",""," ","key"," ","16.924469072164694","499.7014783118667","249.67163468342014","br","10","2","1","-26","13","-23","284"
"","psychophysics","136","527355","0.0-136.0","63b724532ff8f6701c3fd84c","64e50e34daa343bbddf8df9e","","","","","2381",""," ","key"," ","16.784190140844938","499.7014783118667","249.67163468342014","br","15","2","1","-14","-4","-28","281"
"","psychophysics","137","529027","0.0-137.0","63b724532ff8f6701c3fd84c","64e50e34daa343bbddf8df9e","","","","","1657",""," ","key"," ","17.553234042553974","499.7014783118667","249.67163468342014","br","21","2","1","23","28","-14","228"
"","psychophysics","138","531832","0.0-138.0","63b724532ff8f6701c3fd84c","64e50e34daa343bbddf8df9e","","","","","2795",""," ","key"," ","16.666785714285826","499.7014783118667","249.67163468342014","br","19","2","1","-1","22","30","206"
"","psychophysics","139","532411","0.0-139.0","63b724532ff8f6701c3fd84c","64e50e34daa343bbddf8df9e","","","","","570",""," ","key"," ","16.666727272726625","499.7014783118667","249.67163468342014","inst","","","","","","",""
"","psychophysics","140","537581","0.0-140.0","63b724532ff8f6701c3fd84c","64e50e34daa343bbddf8df9e","","","","","5154",""," ","key"," ","16.830153594771247","499.7014783118667","249.67163468342014","instEB1","35","1","","40","0","0","30"
"","psychophysics","141","540225","0.0-141.0","63b724532ff8f6701c3fd84c","64e50e34daa343bbddf8df9e","","","","","2630",""," ","key"," ","16.880455128204538","499.7014783118667","249.67163468342014","instEB2","37","1","","30","0","0","40"
"","psychophysics","142","543845","0.0-142.0","63b724532ff8f6701c3fd84c","64e50e34daa343bbddf8df9e","","","","","3606",""," ","key"," ","16.666754629630034","499.7014783118667","249.67163468342014","instEB3","42","1","","27","0","0","45"
"","psychophysics","143","547991","0.0-143.0","63b724532ff8f6701c3fd84c","64e50e34daa343bbddf8df9e","","","","","4132",""," ","key"," ","16.73422672064798","499.7014783118667","249.67163468342014","instEB4","27","1","","40","0","0","30"
"","psychophysics","144","548607","0.0-144.0","63b724532ff8f6701c3fd84c","64e50e34daa343bbddf8df9e","","","","","603",""," ","key"," ","17.142971428570206","499.7014783118667","249.67163468342014","inst","","","","","","",""
"","psychophysics","145","551358","0.0-145.0","63b724532ff8f6701c3fd84c","64e50e34daa343bbddf8df9e","","","","","2735",""," ","key"," ","16.66677439024334","499.7014783118667","249.67163468342014","eb","43","1","","32","0","0","51"
"","psychophysics","146","553709","0.0-146.0","63b724532ff8f6701c3fd84c","64e50e34daa343bbddf8df9e","","","","","2335",""," ","key"," ","16.908304347826228","499.7014783118667","249.67163468342014","eb","33","1","","46","0","0","36"
"","psychophysics","147","559086","0.0-147.0","63b724532ff8f6701c3fd84c","64e50e34daa343bbddf8df9e","","","","","5364",""," ","key"," ","16.929659305993475","499.7014783118667","249.67163468342014","eb","34","1","","45","0","0","39"
"","psychophysics","148","560988","0.0-148.0","63b724532ff8f6701c3fd84c","64e50e34daa343bbddf8df9e","","","","","1882",""," ","key"," ","16.81558035714365","499.7014783118667","249.67163468342014","eb","34","1","","27","0","0","35"
"","psychophysics","149","566212","0.0-149.0","63b724532ff8f6701c3fd84c","64e50e34daa343bbddf8df9e","","","","","5209",""," ","key"," ","16.8832175324674","499.7014783118667","249.67163468342014","eb","27","1","","51","0","0","30"
"","psychophysics","150","568690","0.0-150.0","63b724532ff8f6701c3fd84c","64e50e34daa343bbddf8df9e","","","","","2467",""," ","key"," ","16.666783783783842","499.7014783118667","249.67163468342014","eb","24","1","","45","0","0","28"
"","psychophysics","151","571005","0.0-151.0","63b724532ff8f6701c3fd84c","64e50e34daa343bbddf8df9e","","","","","2301",""," ","key"," ","16.666760869565472","499.7014783118667","249.67163468342014","eb","47","1","","40","0","0","53"
"","psychophysics","152","574918","0.0-152.0","63b724532ff8f6701c3fd84c","64e50e34daa343bbddf8df9e","","","","","3898",""," ","key"," ","16.884147826086668","499.7014783118667","249.67163468342014","eb","42","1","","30","0","0","48"
"","psychophysics","153","578297","0.0-153.0","63b724532ff8f6701c3fd84c","64e50e34daa343bbddf8df9e","","","","","3358",""," ","key"," ","17.089822335025122","499.7014783118667","249.67163468342014","eb","31","1","","53","0","0","32"
"","psychophysics","154","581962","0.0-154.0","63b724532ff8f6701c3fd84c","64e50e34daa343bbddf8df9e","","","","","3653",""," ","key"," ","16.74318348623838","499.7014783118667","249.67163468342014","eb","30","1","","47","0","0","33"
"","psychophysics","155","584896","0.0-155.0","63b724532ff8f6701c3fd84c","64e50e34daa343bbddf8df9e","","","","","2916",""," ","key"," ","17.15698235294138","499.7014783118667","249.67163468342014","eb","41","1","","50","0","0","44"
"","psychophysics","156","589444","0.0-156.0","63b724532ff8f6701c3fd84c","64e50e34daa343bbddf8df9e","","","","","4540",""," ","key"," ","16.789774907749006","499.7014783118667","249.67163468342014","eb","41","1","","26","0","0","45"
"","psychophysics","157","591390","0.0-157.0","63b724532ff8f6701c3fd84c","64e50e34daa343bbddf8df9e","","","","","1930",""," ","key"," ","16.666765217391937","499.7014783118667","249.67163468342014","eb","32","1","","35","0","0","35"
"","psychophysics","158","594179","0.0-158.0","63b724532ff8f6701c3fd84c","64e50e34daa343bbddf8df9e","","","","","2773",""," ","key"," ","17.505276729559977","499.7014783118667","249.67163468342014","eb","47","1","","40","0","0","52"
"","psychophysics","159","597253","0.0-159.0","63b724532ff8f6701c3fd84c","64e50e34daa343bbddf8df9e","","","","","3059",""," ","key"," ","16.85095580110522","499.7014783118667","249.67163468342014","eb","25","1","","27","0","0","25"
"","psychophysics","160","597847","0.0-160.0","63b724532ff8f6701c3fd84c","64e50e34daa343bbddf8df9e","","","","","581",""," ","key"," ","16.666771428569753","499.7014783118667","249.67163468342014","inst","","","","","","",""
"","psychophysics","161","601632","0.0-161.0","63b724532ff8f6701c3fd84c","64e50e34daa343bbddf8df9e","","","","","3773",""," ","key"," ","16.74082666666661","499.7014783118667","249.67163468342014","instPz1","46","1","","25","","","50"
"","psychophysics","162","605516","0.0-162.0","63b724532ff8f6701c3fd84c","64e50e34daa343bbddf8df9e","","","","","3875",""," ","key"," ","16.66676724137907","499.7014783118667","249.67163468342014","instPz2","21","1","","35","","","20"
"","psychophysics","163","612870","0.0-163.0","63b724532ff8f6701c3fd84c","64e50e34daa343bbddf8df9e","","","","","7340",""," ","key"," ","18.287705735660836","499.7014783118667","249.67163468342014","instPz3","32","1","","100","","","30"
"","psychophysics","164","618239","0.0-164.0","63b724532ff8f6701c3fd84c","64e50e34daa343bbddf8df9e","","","","","5354",""," ","key"," ","18.512280276816607","499.7014783118667","249.67163468342014","instPz4","27","1","","100","","","30"
"","psychophysics","165","619230","0.0-165.0","63b724532ff8f6701c3fd84c","64e50e34daa343bbddf8df9e","","","","","983",""," ","key"," ","16.666758620690008","499.7014783118667","249.67163468342014","inst","","","","","","",""
"","psychophysics","166","621304","0.0-166.0","63b724532ff8f6701c3fd84c","64e50e34daa343bbddf8df9e","","","","","2055",""," ","key"," ","19.711596153846656","499.7014783118667","249.67163468342014","pz","58","1","1","46","","","52"
"","psychophysics","167","623657","0.0-167.0","63b724532ff8f6701c3fd84c","64e50e34daa343bbddf8df9e","","","","","2334",""," ","key"," ","18.970308943089417","499.7014783118667","249.67163468342014","pz","38","1","1","24","","","35"
"","psychophysics","168","630088","0.0-168.0","63b724532ff8f6701c3fd84c","64e50e34daa343bbddf8df9e","","","","","6421",""," ","key"," ","18.233706552706767","499.7014783118667","249.67163468342014","pz","24","1","1","44","","","23"
"","psychophysics","169","631989","0.0-169.0","63b724532ff8f6701c3fd84c","64e50e34daa343bbddf8df9e","","","","","1881",""," ","key"," ","18.284941747572127","499.7014783118667","249.67163468342014","pz","29","1","1","24","","","30"
"","psychophysics","170","634307","0.0-170.0","63b724532ff8f6701c3fd84c","64e50e34daa343bbddf8df9e","","","","","2297",""," ","key"," ","17.293360902255582","499.7014783118667","249.67163468342014","pz","49","1","1","54","","","49"
"","psychophysics","171","637087","0.0-171.0","63b724532ff8f6701c3fd84c","64e50e34daa343bbddf8df9e","","","","","2763",""," ","key"," ","18.20181578947354","499.7014783118667","249.67163468342014","pz","54","1","1","35","","","52"
"","psychophysics","172","638323","0.0-172.0","63b724532ff8f6701c3fd84c","64e50e34daa343bbddf8df9e","","","","","1210",""," ","key"," ","19.01056249999965","499.7014783118667","249.67163468342014","pz","59","1","1","60","","","58"
"","psychophysics","173","641773","0.0-173.0","63b724532ff8f6701c3fd84c","64e50e34daa343bbddf8df9e","","","","","3432",""," ","key"," ","17.606938461538476","499.7014783118667","249.67163468342014","pz","26","1","1","58","","","23"
"","psychophysics","174","645633","0.0-174.0","63b724532ff8f6701c3fd84c","64e50e34daa343bbddf8df9e","","","","","3840",""," ","key"," ","18.780541463414913","499.7014783118667","249.67163468342014","pz","47","1","1","20","","","45"
"","psychophysics","175","649140","0.0-175.0","63b724532ff8f6701c3fd84c","64e50e34daa343bbddf8df9e","","","","","3486",""," ","key"," ","18.6276042780753","499.7014783118667","249.67163468342014","pz","48","1","1","40","","","43"
"","psychophysics","176","651652","0.0-176.0","63b724532ff8f6701c3fd84c","64e50e34daa343bbddf8df9e","","","","","2494",""," ","key"," ","16.778604026845557","499.7014783118667","249.67163468342014","pz","26","1","1","46","","","29"
"","psychophysics","177","652731","0.0-177.0","63b724532ff8f6701c3fd84c","64e50e34daa343bbddf8df9e","","","","","1064",""," ","key"," ","19.44459259259316","499.7014783118667","249.67163468342014","pz","45","1","1","45","","","42"
"","psychophysics","178","656175","0.0-178.0","63b724532ff8f6701c3fd84c","64e50e34daa343bbddf8df9e","","","","","3424",""," ","key"," ","19.08764804469281","499.7014783118667","249.67163468342014","pz","30","1","1","60","","","26"
"","psychophysics","179","660175","0.0-179.0","63b724532ff8f6701c3fd84c","64e50e34daa343bbddf8df9e","","","","","3975",""," ","key"," ","18.6137943925237","499.7014783118667","249.67163468342014","pz","44","1","1","27","","","44"
"","psychophysics","180","662443","0.0-180.0","63b724532ff8f6701c3fd84c","64e50e34daa343bbddf8df9e","","","","","2250",""," ","key"," ","19.230923076923418","499.7014783118667","249.67163468342014","pz","41","1","1","30","","","38"
"","psychophysics","181","663058","0.0-181.0","63b724532ff8f6701c3fd84c","64e50e34daa343bbddf8df9e","","","","","597",""," ","key"," ","17.647088235295513","499.7014783118667","249.67163468342014","inst","","","","","","",""
"","psychophysics","182","667075","0.0-182.0","63b724532ff8f6701c3fd84c","64e50e34daa343bbddf8df9e","","","","","4007",""," ","key"," ","16.806827731092536","499.7014783118667","249.67163468342014","instPog0","340","2","","370","0","0","340"
"","psychophysics","183","669831","0.0-183.0","63b724532ff8f6701c3fd84c","64e50e34daa343bbddf8df9e","","","","","2746",""," ","key"," ","16.975401234567986","499.7014783118667","249.67163468342014","instPog1","354","2","","370","0","0","340"
"","psychophysics","184","677471","0.0-184.0","63b724532ff8f6701c3fd84c","64e50e34daa343bbddf8df9e","","","","","7625",""," ","key"," ","16.926031111110934","499.7014783118667","249.67163468342014","instPog2","326","2","","340","0","0","340"
"","psychophysics","185","678058","0.0-185.0","63b724532ff8f6701c3fd84c","64e50e34daa343bbddf8df9e","","","","","567",""," ","key"," ","17.17187878787588","499.7014783118667","249.67163468342014","inst","","","","","","",""
"","psychophysics","186","686070","0.0-186.0","63b724532ff8f6701c3fd84c","64e50e34daa343bbddf8df9e","","","","","null","","null","key","null","16.73649372384936","499.7014783118667","249.67163468342014","pog","354","2","1","286","0","0","371"
"","psychophysics","187","689212","0.0-187.0","63b724532ff8f6701c3fd84c","64e50e34daa343bbddf8df9e","","","","","3129",""," ","key"," ","16.666755319148812","499.7014783118667","249.67163468342014","pog","312","2","1","356","0","0","347"
"","psychophysics","188","691461","0.0-188.0","63b724532ff8f6701c3fd84c","64e50e34daa343bbddf8df9e","","","","","2230",""," ","key"," ","16.79306060606067","499.7014783118667","249.67163468342014","pog","274","2","1","320","0","0","314"
"","psychophysics","189","695312","0.0-189.0","63b724532ff8f6701c3fd84c","64e50e34daa343bbddf8df9e","","","","","3835",""," ","key"," ","16.812327510916717","499.7014783118667","249.67163468342014","pog","268","2","1","386","0","0","316"
"","psychophysics","190","698654","0.0-190.0","63b724532ff8f6701c3fd84c","64e50e34daa343bbddf8df9e","","","","","3327",""," ","key"," ","16.666768844221277","499.7014783118667","249.67163468342014","pog","307","2","1","365","0","0","327"
"","psychophysics","191","701304","0.0-191.0","63b724532ff8f6701c3fd84c","64e50e34daa343bbddf8df9e","","","","","2638",""," ","key"," ","16.666791139240523","499.7014783118667","249.67163468342014","pog","344","2","1","318","0","0","380"
"","psychophysics","192","704502","0.0-192.0","63b724532ff8f6701c3fd84c","64e50e34daa343bbddf8df9e","","","","","3187",""," ","key"," ","16.66675916230379","499.7014783118667","249.67163468342014","pog","348","2","1","396","0","0","378"
"","psychophysics","193","707224","0.0-193.0","63b724532ff8f6701c3fd84c","64e50e34daa343bbddf8df9e","","","","","2702",""," ","key"," ","17.19757324840746","499.7014783118667","249.67163468342014","pog","337","2","1","361","0","0","372"
"","psychophysics","194","708837","0.0-194.0","63b724532ff8f6701c3fd84c","64e50e34daa343bbddf8df9e","","","","","1601",""," ","key"," ","16.842168421051955","499.7014783118667","249.67163468342014","pog","319","2","1","333","0","0","345"
"","psychophysics","195","711751","0.0-195.0","63b724532ff8f6701c3fd84c","64e50e34daa343bbddf8df9e","","","","","2902",""," ","key"," ","16.76310404624273","499.7014783118667","249.67163468342014","pog","286","2","1","362","0","0","315"
"","psychophysics","196","713880","0.0-196.0","63b724532ff8f6701c3fd84c","64e50e34daa343bbddf8df9e","","","","","2121",""," ","key"," ","16.666779527558916","499.7014783118667","249.67163468342014","pog","304","2","1","332","0","0","335"
"","psychophysics","197","717502","0.0-197.0","63b724532ff8f6701c3fd84c","64e50e34daa343bbddf8df9e","","","","","3611",""," ","key"," ","17.142971428571315","499.7014783118667","249.67163468342014","pog","284","2","1","324","0","0","313"
"","psychophysics","198","719243","0.0-198.0","63b724532ff8f6701c3fd84c","64e50e34daa343bbddf8df9e","","","","","1728",""," ","key"," ","18.65949999999999","499.7014783118667","249.67163468342014","pog","345","2","1","351","0","0","368"
"","psychophysics","199","722474","0.0-199.0","63b724532ff8f6701c3fd84c","64e50e34daa343bbddf8df9e","","","","","3222",""," ","key"," ","18.713549707602976","499.7014783118667","249.67163468342014","pog","317","2","1","353","0","0","335"
"","psychophysics","200","726783","0.0-200.0","63b724532ff8f6701c3fd84c","64e50e34daa343bbddf8df9e","","","","","4294",""," ","key"," ","17.69554320987651","499.7014783118667","249.67163468342014","pog","301","2","1","389","0","0","308"
"","psychophysics","201","727576","0.0-201.0","63b724532ff8f6701c3fd84c","64e50e34daa343bbddf8df9e","","","","","783",""," ","key"," ","17.037177777779288","499.7014783118667","249.67163468342014","inst","","","","","","",""
"","psychophysics","202","730166","0.0-202.0","63b724532ff8f6701c3fd84c","64e50e34daa343bbddf8df9e","","","","","2576",""," ","key"," ","17.222386666666715","499.7014783118667","249.67163468342014","instZol1","0.20000000000000004","","","-1.3","0","0",""
"","psychophysics","203","734921","0.0-203.0","63b724532ff8f6701c3fd84c","64e50e34daa343bbddf8df9e","","","","","4736",""," ","key"," ","16.844718861209685","499.7014783118667","249.67163468342014","instZol2","0.4000000000000007","1","","2","0","0",""
"","psychophysics","204","735524","0.0-204.0","63b724532ff8f6701c3fd84c","64e50e34daa343bbddf8df9e","","","","","588",""," ","key"," ","16.66668571428662","499.7014783118667","249.67163468342014","inst","","","","","","",""
"","psychophysics","205","737408","0.0-205.0","63b724532ff8f6701c3fd84c","64e50e34daa343bbddf8df9e","","","","","1856",""," ","key"," ","16.81830000000032","499.7014783118667","249.67163468342014","zol","0.9899999999999999","1","1","0.21","-21","-24",""
"","psychophysics","206","739170","0.0-206.0","63b724532ff8f6701c3fd84c","64e50e34daa343bbddf8df9e","","","","","1747",""," ","key"," ","16.666733333333173","499.7014783118667","249.67163468342014","zol","0.87","1","1","0.43","-28","25",""
"","psychophysics","207","742503","0.0-207.0","63b724532ff8f6701c3fd84c","64e50e34daa343bbddf8df9e","","","","","3319",""," ","key"," ","16.750974747474597","499.7014783118667","249.67163468342014","zol","1.03","1","1","-0.13","18","-29",""
"","psychophysics","208","744841","0.0-208.0","63b724532ff8f6701c3fd84c","64e50e34daa343bbddf8df9e","","","","","2322",""," ","key"," ","16.787528985507272","499.7014783118667","249.67163468342014","zol","1.1800000000000002","1","1","-0.68","19","11",""
"","psychophysics","209","747024","0.0-209.0","63b724532ff8f6701c3fd84c","64e50e34daa343bbddf8df9e","","","","","2164",""," ","key"," ","16.795914728682696","499.7014783118667","249.67163468342014","zol","0.57","1","1","0.63","-26","19",""
"","psychophysics","210","749006","0.0-210.0","63b724532ff8f6701c3fd84c","64e50e34daa343bbddf8df9e","","","","","1971",""," ","key"," ","16.809230769231206","499.7014783118667","249.67163468342014","zol","0.7899999999999999","1","1","-0.69","-28","-7",""
"","psychophysics","211","752388","0.0-211.0","63b724532ff8f6701c3fd84c","64e50e34daa343bbddf8df9e","","","","","3366",""," ","key"," ","16.918050251256478","499.7014783118667","249.67163468342014","zol","0.71","1","1","-0.51","-5","-3",""
"","psychophysics","212","755524","0.0-212.0","63b724532ff8f6701c3fd84c","64e50e34daa343bbddf8df9e","","","","","3124",""," ","key"," ","17.124631868131654","499.7014783118667","249.67163468342014","zol","0.9099999999999999","1","1","-0.71","24","12",""
"","psychophysics","213","760030","0.0-213.0","63b724532ff8f6701c3fd84c","64e50e34daa343bbddf8df9e","","","","","4492",""," ","key"," ","16.918316981131827","499.7014783118667","249.67163468342014","zol","0.63","1","1","0.07","-2","-15",""
"","psychophysics","214","764066","0.0-214.0","63b724532ff8f6701c3fd84c","64e50e34daa343bbddf8df9e","","","","","4015",""," ","key"," ","17.092285106383127","499.7014783118667","249.67163468342014","zol","0.6599999999999999","1","1","0.74","8","7",""
"","psychophysics","215","767411","0.0-215.0","63b724532ff8f6701c3fd84c","64e50e34daa343bbddf8df9e","","","","","3323",""," ","key"," ","16.836010152284352","499.7014783118667","249.67163468342014","zol","0.7699999999999999","1","1","-0.47","-6","8",""
"","psychophysics","216","772385","0.0-216.0","63b724532ff8f6701c3fd84c","64e50e34daa343bbddf8df9e","","","","","4954",""," ","key"," ","17.06771134020628","499.7014783118667","249.67163468342014","zol","0.45999999999999996","1","1","0.44","-4","-25",""
"","psychophysics","217","775460","0.0-217.0","63b724532ff8f6701c3fd84c","64e50e34daa343bbddf8df9e","","","","","3058",""," ","key"," ","17.732627906976674","499.7014783118667","249.67163468342014","zol","0.37","1","1","-0.27","3","19",""
"","psychophysics","218","778311","0.0-218.0","63b724532ff8f6701c3fd84c","64e50e34daa343bbddf8df9e","","","","","2840",""," ","key"," ","17.38246625766838","499.7014783118667","249.67163468342014","zol","0.65","1","1","0.35","23","29",""
"","psychophysics","219","780002","0.0-219.0","63b724532ff8f6701c3fd84c","64e50e34daa343bbddf8df9e","","","","","1674",""," ","key"," ","16.833390000000364","499.7014783118667","249.67163468342014","zol","0.37","1","1","0.33","27","-23",""
