"success","trial_type","trial_index","time_elapsed","internal_node_id","pid","sid","timeout","failed_images","failed_audio","failed_video","rt","stimulus","response","response_type","key_press","avg_frame_time","center_x","center_y","task","resp","start","parA","version","block","jitterX","jitterY"
"true","fullscreen","0","3018","0.0-0.0","6234c08d8ca96438af2c7f44","64e50e8ea633f38baecbf94f","","","","","","","","","","","","","","","","","","","",""
"true","preload","1","3150","0.0-1.0","6234c08d8ca96438af2c7f44","64e50e8ea633f38baecbf94f","false","[]","[]","[]","","","","","","","","","","","","","","","",""
"","html-button-response","2","8439","0.0-2.0","6234c08d8ca96438af2c7f44","64e50e8ea633f38baecbf94f","","","","","5288","Please Make Sure Your Audio Is On.","0","","","","","","","","","","","","",""
"","psychophysics","3","12918","0.0-3.0","6234c08d8ca96438af2c7f44","64e50e8ea633f38baecbf94f","","","","","4461",""," ","key"," ","16.673093283582087","768","250","","","","","","","",""
"","psychophysics","4","16805","0.0-4.0","6234c08d8ca96438af2c7f44","64e50e8ea633f38baecbf94f","","","","","3872",""," ","key"," ","16.672952789699576","500","250","inst","","","","","","",""
"","psychophysics","5","22674","0.0-5.0","6234c08d8ca96438af2c7f44","64e50e8ea633f38baecbf94f","","","","","5867",""," ","key"," ","16.672908831908828","500","250","sample0","","","","","","",""
"","psychophysics","6","25277","0.0-6.0","6234c08d8ca96438af2c7f44","64e50e8ea633f38baecbf94f","","","","","2602",""," ","key"," ","16.669264516129036","500","250","sample1","","","","","","",""
"","psychophysics","7","38172","0.0-7.0","6234c08d8ca96438af2c7f44","64e50e8ea633f38baecbf94f","","","","","12893",""," ","key"," ","16.67358678756477","500","250","sample2","100","","","","","",""
"","psychophysics","8","44983","0.0-8.0","6234c08d8ca96438af2c7f44","64e50e8ea633f38baecbf94f","","","","","6810",""," ","key"," ","16.67287500000001","500","250","sample3","92","","","","","",""
"","psychophysics","9","56370","0.0-9.0","6234c08d8ca96438af2c7f44","64e50e8ea633f38baecbf94f","","","","","11384",""," ","key"," ","16.673941348973603","500","250","sample4","100","","","","","",""
"","psychophysics","10","61884","0.0-10.0","6234c08d8ca96438af2c7f44","64e50e8ea633f38baecbf94f","","","","","5512",""," ","key"," ","16.673121580547097","500","250","sample5","","","","","","",""
"","psychophysics","11","76197","0.0-11.0","6234c08d8ca96438af2c7f44","64e50e8ea633f38baecbf94f","","","","","14311",""," ","key"," ","16.673009324009318","500","250","sample6","502","","","","","",""
"","psychophysics","12","84742","0.0-12.0","6234c08d8ca96438af2c7f44","64e50e8ea633f38baecbf94f","","","","","8544",""," ","key"," ","16.672810176125267","500","250","inst","","","","","","",""
"","psychophysics","13","90477","0.0-13.0","6234c08d8ca96438af2c7f44","64e50e8ea633f38baecbf94f","","","","","5734",""," ","key"," ","16.674262390670588","500","250","inst","","","","","","",""
"","psychophysics","14","94763","0.0-14.0","6234c08d8ca96438af2c7f44","64e50e8ea633f38baecbf94f","","","","","4285",""," ","key"," ","16.673320312499982","500","250","inst","","","","","","",""
"","psychophysics","15","97272","0.0-15.0","6234c08d8ca96438af2c7f44","64e50e8ea633f38baecbf94f","","","","","2508",""," ","key"," ","16.673006666666673","500","250","inst","","","","","","",""
"","psychophysics","16","99354","0.0-16.0","6234c08d8ca96438af2c7f44","64e50e8ea633f38baecbf94f","","","","","2080",""," ","key"," ","16.676016129032266","500","250","inst","","","","","","",""
"","psychophysics","17","108943","0.0-17.0","6234c08d8ca96438af2c7f44","64e50e8ea633f38baecbf94f","","","","","9588",""," ","key"," ","16.673090592334507","500","250","instPzPre","50","50","50","0","","",""
"","psychophysics","18","113480","0.0-18.0","6234c08d8ca96438af2c7f44","64e50e8ea633f38baecbf94f","","","","","4535",""," ","key"," ","16.67281918819189","500","250","instPz0","62","50","50","2","","",""
"","psychophysics","19","128140","0.0-19.0","6234c08d8ca96438af2c7f44","64e50e8ea633f38baecbf94f","","","","","14658",""," ","key"," ","16.673396355353074","500","250","instPz1","60","25","50","2","","",""
"","psychophysics","20","135963","0.0-20.0","6234c08d8ca96438af2c7f44","64e50e8ea633f38baecbf94f","","","","","7822",""," ","key"," ","16.81771120689656","500","250","instPz2","40","20","35","2","","",""
"","psychophysics","21","143735","0.0-21.0","6234c08d8ca96438af2c7f44","64e50e8ea633f38baecbf94f","","","","","7767",""," ","key"," ","16.673907526881717","500","250","instPz3","30","30","100","2","","",""
"","psychophysics","22","159009","0.0-22.0","6234c08d8ca96438af2c7f44","64e50e8ea633f38baecbf94f","","","","","15271",""," ","key"," ","16.672974890829703","500","250","instPz4","54","30","100","2","","",""
"","psychophysics","23","161677","0.0-23.0","6234c08d8ca96438af2c7f44","64e50e8ea633f38baecbf94f","","","","","2666",""," ","key"," ","16.672672955974946","500","250","inst","","","","","","",""
"","psychophysics","24","169238","0.0-24.0","6234c08d8ca96438af2c7f44","64e50e8ea633f38baecbf94f","","","","","7558",""," ","key"," ","16.67298008849559","500","250","pz","34","49","53","2","0","",""
"","psychophysics","25","176796","0.0-25.0","6234c08d8ca96438af2c7f44","64e50e8ea633f38baecbf94f","","","","","7556",""," ","key"," ","16.673099557522143","500","250","pz","22","59","28","2","0","",""
"","psychophysics","26","184323","0.0-26.0","6234c08d8ca96438af2c7f44","64e50e8ea633f38baecbf94f","","","","","7522",""," ","key"," ","16.6740399113082","500","250","pz","37","50","54","2","0","",""
"","psychophysics","27","191250","0.0-27.0","6234c08d8ca96438af2c7f44","64e50e8ea633f38baecbf94f","","","","","6925",""," ","key"," ","16.672922705314","500","250","pz","26","27","45","2","0","",""
"","psychophysics","28","197892","0.0-28.0","6234c08d8ca96438af2c7f44","64e50e8ea633f38baecbf94f","","","","","6639",""," ","key"," ","16.674615577889455","500","250","pz","33","24","55","2","0","",""
"","psychophysics","29","203431","0.0-29.0","6234c08d8ca96438af2c7f44","64e50e8ea633f38baecbf94f","","","","","5537",""," ","key"," ","16.671661631419873","500","250","pz","14","24","22","2","0","",""
"","psychophysics","30","209179","0.0-30.0","6234c08d8ca96438af2c7f44","64e50e8ea633f38baecbf94f","","","","","5747",""," ","key"," ","16.671906976744182","500","250","pz","26","37","37","2","0","",""
"","psychophysics","31","216328","0.0-31.0","6234c08d8ca96438af2c7f44","64e50e8ea633f38baecbf94f","","","","","7146",""," ","key"," ","16.673044496487083","500","250","pz","17","52","20","2","0","",""
"","psychophysics","32","222314","0.0-32.0","6234c08d8ca96438af2c7f44","64e50e8ea633f38baecbf94f","","","","","5982",""," ","key"," ","16.67365921787713","500","250","pz","39","56","55","2","0","",""
"","psychophysics","33","229516","0.0-33.0","6234c08d8ca96438af2c7f44","64e50e8ea633f38baecbf94f","","","","","7197",""," ","key"," ","16.673046403712327","500","250","pz","21","45","28","2","0","",""
"","psychophysics","34","236680","0.0-34.0","6234c08d8ca96438af2c7f44","64e50e8ea633f38baecbf94f","","","","","7160",""," ","key"," ","16.673172494172555","500","250","pz","23","59","29","2","0","",""
"","psychophysics","35","240819","0.0-35.0","6234c08d8ca96438af2c7f44","64e50e8ea633f38baecbf94f","","","","","4137",""," ","key"," ","16.674578947368477","500","250","pz","34","41","53","2","0","",""
"","psychophysics","36","244231","0.0-36.0","6234c08d8ca96438af2c7f44","64e50e8ea633f38baecbf94f","","","","","3410",""," ","key"," ","16.674789215686307","500","250","pz","27","33","35","2","0","",""
"","psychophysics","37","250129","0.0-37.0","6234c08d8ca96438af2c7f44","64e50e8ea633f38baecbf94f","","","","","5896",""," ","key"," ","16.672711048158654","500","250","pz","33","49","43","2","0","",""
"","psychophysics","38","258131","0.0-38.0","6234c08d8ca96438af2c7f44","64e50e8ea633f38baecbf94f","","","","","null","","null","key","null","16.673887265135733","500","250","pz","25","47","39","2","0","",""
"","psychophysics","39","264388","0.0-39.0","6234c08d8ca96438af2c7f44","64e50e8ea633f38baecbf94f","","","","","6256",""," ","key"," ","16.6728796791444","500","250","inst","","","","","","",""
"","psychophysics","40","267237","0.0-40.0","6234c08d8ca96438af2c7f44","64e50e8ea633f38baecbf94f","","","","","2847",""," ","key"," ","16.673105882353028","500","250","instBr0","0","0","300","","","0","0"
"","psychophysics","41","270448","0.0-41.0","6234c08d8ca96438af2c7f44","64e50e8ea633f38baecbf94f","","","","","3209",""," ","key"," ","16.672785340314025","500","250","instBr1","-40","-40","300","","","0","0"
"","psychophysics","42","273320","0.0-42.0","6234c08d8ca96438af2c7f44","64e50e8ea633f38baecbf94f","","","","","2868",""," ","key"," ","16.674348837209372","500","250","instBr3","40","40","300","2","","0","0"
"","psychophysics","43","276138","0.0-43.0","6234c08d8ca96438af2c7f44","64e50e8ea633f38baecbf94f","","","","","2817",""," ","key"," ","16.672851190476475","500","250","inst","","","","","","",""
"","psychophysics","44","281001","0.0-44.0","6234c08d8ca96438af2c7f44","64e50e8ea633f38baecbf94f","","","","","4861",""," ","key"," ","16.672782758620553","500","250","br","22","16","232","2","0","9","10"
"","psychophysics","45","288726","0.0-45.0","6234c08d8ca96438af2c7f44","64e50e8ea633f38baecbf94f","","","","","7723",""," ","key"," ","16.673593952483824","500","250","br","22","28","257","2","0","4","21"
"","psychophysics","46","295798","0.0-46.0","6234c08d8ca96438af2c7f44","64e50e8ea633f38baecbf94f","","","","","7069",""," ","key"," ","16.67194326241139","500","250","br","24","11","212","2","0","-14","-11"
"","psychophysics","47","302978","0.0-47.0","6234c08d8ca96438af2c7f44","64e50e8ea633f38baecbf94f","","","","","7178",""," ","key"," ","16.673832167832085","500","250","br","25","-21","244","2","0","12","1"
"","psychophysics","48","308880","0.0-48.0","6234c08d8ca96438af2c7f44","64e50e8ea633f38baecbf94f","","","","","5899",""," ","key"," ","16.673861189801595","500","250","br","23","22","224","2","0","-14","7"
"","psychophysics","49","315125","0.0-49.0","6234c08d8ca96438af2c7f44","64e50e8ea633f38baecbf94f","","","","","6242",""," ","key"," ","16.67435294117643","500","250","br","23","-21","294","2","0","-18","-3"
"","psychophysics","50","321379","0.0-50.0","6234c08d8ca96438af2c7f44","64e50e8ea633f38baecbf94f","","","","","6252",""," ","key"," ","16.674152406417196","500","250","br","21","0","282","2","0","14","4"
"","psychophysics","51","326163","0.0-51.0","6234c08d8ca96438af2c7f44","64e50e8ea633f38baecbf94f","","","","","4782",""," ","key"," ","16.674527972028102","500","250","br","21","12","250","2","0","-28","19"
"","psychophysics","52","333135","0.0-52.0","6234c08d8ca96438af2c7f44","64e50e8ea633f38baecbf94f","","","","","6970",""," ","key"," ","16.67296882493997","500","250","br","26","30","287","2","0","19","10"
"","psychophysics","53","338667","0.0-53.0","6234c08d8ca96438af2c7f44","64e50e8ea633f38baecbf94f","","","","","5530",""," ","key"," ","16.6731631419939","500","250","br","30","-8","230","2","0","-29","-11"
"","psychophysics","54","344039","0.0-54.0","6234c08d8ca96438af2c7f44","64e50e8ea633f38baecbf94f","","","","","5370",""," ","key"," ","16.67424922118383","500","250","br","27","15","286","2","0","29","11"
"","psychophysics","55","348566","0.0-55.0","6234c08d8ca96438af2c7f44","64e50e8ea633f38baecbf94f","","","","","4525",""," ","key"," ","16.672686346863504","500","250","br","25","-13","285","2","0","6","12"
"","psychophysics","56","354264","0.0-56.0","6234c08d8ca96438af2c7f44","64e50e8ea633f38baecbf94f","","","","","5696",""," ","key"," ","16.673149999999954","500","250","br","22","-21","256","2","0","-16","4"
"","psychophysics","57","360779","0.0-57.0","6234c08d8ca96438af2c7f44","64e50e8ea633f38baecbf94f","","","","","6510",""," ","key"," ","16.673094871794827","500","250","br","25","-1","214","2","0","5","17"
"","psychophysics","58","365206","0.0-58.0","6234c08d8ca96438af2c7f44","64e50e8ea633f38baecbf94f","","","","","4426",""," ","key"," ","16.672003773584926","500","250","br","24","27","216","2","0","30","22"
"","psychophysics","59","374827","0.0-59.0","6234c08d8ca96438af2c7f44","64e50e8ea633f38baecbf94f","","","","","9619",""," ","key"," ","16.672480902777856","500","250","inst","","","","","","",""
"","psychophysics","60","376835","0.0-60.0","6234c08d8ca96438af2c7f44","64e50e8ea633f38baecbf94f","","","","","2007",""," ","key"," ","16.676857142857404","500","250","instZol0","0","0","","","","0","0"
"","psychophysics","61","388109","0.0-61.0","6234c08d8ca96438af2c7f44","64e50e8ea633f38baecbf94f","","","","","11272",""," ","key"," ","16.673002962962965","500","250","instZol1","0.7999999999999997","-1.3","","","","0","0"
"","psychophysics","62","402173","0.0-62.0","6234c08d8ca96438af2c7f44","64e50e8ea633f38baecbf94f","","","","","14062",""," ","key"," ","16.67312099644127","500","250","instZol2","-1.5999999999999996","2","","2","","0","0"
"","psychophysics","63","404662","0.0-63.0","6234c08d8ca96438af2c7f44","64e50e8ea633f38baecbf94f","","","","","2487",""," ","key"," ","16.671121621621626","500","250","inst","","","","","","",""
"","psychophysics","64","411958","0.0-64.0","6234c08d8ca96438af2c7f44","64e50e8ea633f38baecbf94f","","","","","7293",""," ","key"," ","16.673748283752893","500","250","zol","-1.7200000000000006","-0.58","","2","0","1","-4"
"","psychophysics","65","419961","0.0-65.0","6234c08d8ca96438af2c7f44","64e50e8ea633f38baecbf94f","","","","","null","","null","key","null","16.67368267223386","500","250","zol","-0.2499999999999998","0.35","","2","0","-27","-20"
"","psychophysics","66","425799","0.0-66.0","6234c08d8ca96438af2c7f44","64e50e8ea633f38baecbf94f","","","","","5835",""," ","key"," ","16.672851002865364","500","250","zol","-0.6699999999999999","-0.03","","2","0","4","5"
"","psychophysics","67","432544","0.0-67.0","6234c08d8ca96438af2c7f44","64e50e8ea633f38baecbf94f","","","","","6743",""," ","key"," ","16.673171215880895","500","250","zol","-0.9999999999999999","0.5","","2","0","5","-27"
"","psychophysics","68","439370","0.0-68.0","6234c08d8ca96438af2c7f44","64e50e8ea633f38baecbf94f","","","","","6822",""," ","key"," ","16.67404889975547","500","250","zol","-1.9400000000000008","0.14","","2","0","-11","-9"
"","psychophysics","69","443200","0.0-69.0","6234c08d8ca96438af2c7f44","64e50e8ea633f38baecbf94f","","","","","3826",""," ","key"," ","16.67264628820945","500","250","zol","-1.8700000000000008","0.67","","2","0","16","-29"
"","psychophysics","70","447266","0.0-70.0","6234c08d8ca96438af2c7f44","64e50e8ea633f38baecbf94f","","","","","4063",""," ","key"," ","16.672053719008215","500","250","zol","-1.5100000000000005","0.11","","2","0","14","4"
"","psychophysics","71","455176","0.0-71.0","6234c08d8ca96438af2c7f44","64e50e8ea633f38baecbf94f","","","","","7906",""," ","key"," ","16.672896624472532","500","250","zol","-1.7300000000000006","0.53","","2","0","-22","12"
"","psychophysics","72","462215","0.0-72.0","6234c08d8ca96438af2c7f44","64e50e8ea633f38baecbf94f","","","","","7036",""," ","key"," ","16.672926365795785","500","250","zol","-1.6700000000000006","0.67","","2","0","-17","-11"
"","psychophysics","73","469344","0.0-73.0","6234c08d8ca96438af2c7f44","64e50e8ea633f38baecbf94f","","","","","7126",""," ","key"," ","16.67393911007025","500","250","zol","-1.5400000000000005","0.14","","2","0","16","11"
"","psychophysics","74","475577","0.0-74.0","6234c08d8ca96438af2c7f44","64e50e8ea633f38baecbf94f","","","","","6229",""," ","key"," ","16.672989247311865","500","250","zol","-1.9600000000000006","0.36","","2","0","-10","7"
"","psychophysics","75","479200","0.0-75.0","6234c08d8ca96438af2c7f44","64e50e8ea633f38baecbf94f","","","","","3620",""," ","key"," ","16.676129032258203","500","250","zol","-1.8300000000000007","0.73","","2","0","9","15"
"","psychophysics","76","483075","0.0-76.0","6234c08d8ca96438af2c7f44","64e50e8ea633f38baecbf94f","","","","","3872",""," ","key"," ","16.672848484848547","500","250","zol","-1.8300000000000007","0.53","","2","0","-27","-11"
"","psychophysics","77","490980","0.0-77.0","6234c08d8ca96438af2c7f44","64e50e8ea633f38baecbf94f","","","","","7902",""," ","key"," ","16.672885835095187","500","250","zol","-2.1600000000000006","0.16","","2","0","-29","26"
"","psychophysics","78","498983","0.0-78.0","6234c08d8ca96438af2c7f44","64e50e8ea633f38baecbf94f","","","","","null","","null","key","null","16.673803757828765","500","250","zol","-2.0600000000000005","-0.64","","2","0","-19","-20"
"","psychophysics","79","501000","0.0-79.0","6234c08d8ca96438af2c7f44","64e50e8ea633f38baecbf94f","","","","","2016",""," ","key"," ","16.67604999999991","500","250","inst","","","","","","",""
"","psychophysics","80","502976","0.0-80.0","6234c08d8ca96438af2c7f44","64e50e8ea633f38baecbf94f","","","","","1974",""," ","key"," ","16.676305084745795","500","250","instEB0","40","40","40","1","","0","0"
"","psychophysics","81","512345","0.0-81.0","6234c08d8ca96438af2c7f44","64e50e8ea633f38baecbf94f","","","","","9368",""," ","key"," ","16.672666666666633","500","250","instEB1","31","40","30","1","","0","0"
"","psychophysics","82","519599","0.0-82.0","6234c08d8ca96438af2c7f44","64e50e8ea633f38baecbf94f","","","","","7252",""," ","key"," ","16.672797235023054","500","250","instEB2","38","30","40","1","","0","0"
"","psychophysics","83","525924","0.0-83.0","6234c08d8ca96438af2c7f44","64e50e8ea633f38baecbf94f","","","","","6323",""," ","key"," ","16.67324338624332","500","250","instEB3","40","27","45","1","","0","0"
"","psychophysics","84","531573","0.0-84.0","6234c08d8ca96438af2c7f44","64e50e8ea633f38baecbf94f","","","","","5647",""," ","key"," ","16.6729171597633","500","250","instEB4","25","40","30","1","","0","0"
"","psychophysics","85","534794","0.0-85.0","6234c08d8ca96438af2c7f44","64e50e8ea633f38baecbf94f","","","","","3220",""," ","key"," ","16.67305208333346","500","250","inst","","","","","","",""
"","psychophysics","86","541176","0.0-86.0","6234c08d8ca96438af2c7f44","64e50e8ea633f38baecbf94f","","","","","6379",""," ","key"," ","16.6725209424082","500","250","eb","28","42","36","1","","0","0"
"","psychophysics","87","544657","0.0-87.0","6234c08d8ca96438af2c7f44","64e50e8ea633f38baecbf94f","","","","","3479",""," ","key"," ","16.6710961538461","500","250","eb","25","28","29","1","","0","0"
"","psychophysics","88","548459","0.0-88.0","6234c08d8ca96438af2c7f44","64e50e8ea633f38baecbf94f","","","","","3799",""," ","key"," ","16.673246696035456","500","250","eb","26","39","31","1","","0","0"
"","psychophysics","89","553875","0.0-89.0","6234c08d8ca96438af2c7f44","64e50e8ea633f38baecbf94f","","","","","5414",""," ","key"," ","16.672693498452098","500","250","eb","45","45","51","1","","0","0"
"","psychophysics","90","556172","0.0-90.0","6234c08d8ca96438af2c7f44","64e50e8ea633f38baecbf94f","","","","","2293",""," ","key"," ","16.673846715328754","500","250","eb","32","33","38","1","","0","0"
"","psychophysics","91","562173","0.0-91.0","6234c08d8ca96438af2c7f44","64e50e8ea633f38baecbf94f","","","","","6000",""," ","key"," ","16.67303064066857","500","250","eb","41","26","50","1","","0","0"
"","psychophysics","92","565545","0.0-92.0","6234c08d8ca96438af2c7f44","64e50e8ea633f38baecbf94f","","","","","3370",""," ","key"," ","16.67481094527357","500","250","eb","25","43","31","1","","0","0"
"","psychophysics","93","570136","0.0-93.0","6234c08d8ca96438af2c7f44","64e50e8ea633f38baecbf94f","","","","","4587",""," ","key"," ","16.674280000000092","500","250","eb","46","38","54","1","","0","0"
"","psychophysics","94","576396","0.0-94.0","6234c08d8ca96438af2c7f44","64e50e8ea633f38baecbf94f","","","","","6258",""," ","key"," ","16.67288502673824","500","250","eb","40","29","45","1","","0","0"
"","psychophysics","95","580021","0.0-95.0","6234c08d8ca96438af2c7f44","64e50e8ea633f38baecbf94f","","","","","3623",""," ","key"," ","16.6729124423963","500","250","eb","44","26","48","1","","0","0"
"","psychophysics","96","584051","0.0-96.0","6234c08d8ca96438af2c7f44","64e50e8ea633f38baecbf94f","","","","","4028",""," ","key"," ","16.67300833333332","500","250","eb","23","30","32","1","","0","0"
"","psychophysics","97","588431","0.0-97.0","6234c08d8ca96438af2c7f44","64e50e8ea633f38baecbf94f","","","","","4378",""," ","key"," ","16.674572519084016","500","250","eb","40","27","47","1","","0","0"
"","psychophysics","98","593761","0.0-98.0","6234c08d8ca96438af2c7f44","64e50e8ea633f38baecbf94f","","","","","5328",""," ","key"," ","16.67396865203775","500","250","eb","39","51","45","1","","0","0"
"","psychophysics","99","599296","0.0-99.0","6234c08d8ca96438af2c7f44","64e50e8ea633f38baecbf94f","","","","","5532",""," ","key"," ","16.672933534742967","500","250","eb","20","42","25","1","","0","0"
"","psychophysics","100","602993","0.0-100.0","6234c08d8ca96438af2c7f44","64e50e8ea633f38baecbf94f","","","","","3695",""," ","key"," ","16.672759090909015","500","250","eb","28","26","35","1","","0","0"
"","psychophysics","101","609893","0.0-101.0","6234c08d8ca96438af2c7f44","64e50e8ea633f38baecbf94f","","","","","6899",""," ","key"," ","16.673966101694912","500","250","inst","","","","","","",""
"","psychophysics","102","619884","0.0-102.0","6234c08d8ca96438af2c7f44","64e50e8ea633f38baecbf94f","","","","","9989",""," ","key"," ","16.673008361204065","500","250","instPog0","340","370","340","2","","0","0"
"","psychophysics","103","628056","0.0-103.0","6234c08d8ca96438af2c7f44","64e50e8ea633f38baecbf94f","","","","","8169",""," ","key"," ","16.672989795918397","500","250","instPog1","344","370","340","2","","0","0"
"","psychophysics","104","633198","0.0-104.0","6234c08d8ca96438af2c7f44","64e50e8ea633f38baecbf94f","","","","","5141",""," ","key"," ","16.672928338761952","500","250","instPog2","322","340","340","2","","0","0"
"","psychophysics","105","634387","0.0-105.0","6234c08d8ca96438af2c7f44","64e50e8ea633f38baecbf94f","","","","","1187",""," ","key"," ","16.680457142858568","500","250","inst","","","","","","",""
"","psychophysics","106","642369","0.0-106.0","6234c08d8ca96438af2c7f44","64e50e8ea633f38baecbf94f","","","","","7980",""," ","key"," ","16.67303347280327","500","250","pog","353","289","377","2","0","0","0"
"","psychophysics","107","650371","0.0-107.0","6234c08d8ca96438af2c7f44","64e50e8ea633f38baecbf94f","","","","","null","","null","key","null","16.672108559498838","500","250","pog","273","393","323","2","0","0","0"
"","psychophysics","108","658373","0.0-108.0","6234c08d8ca96438af2c7f44","64e50e8ea633f38baecbf94f","","","","","null","","null","key","null","16.673540709812208","500","250","pog","267","399","308","2","0","0","0"
"","psychophysics","109","663643","0.0-109.0","6234c08d8ca96438af2c7f44","64e50e8ea633f38baecbf94f","","","","","5268",""," ","key"," ","16.672873015872884","500","250","pog","272","384","300","2","0","0","0"
"","psychophysics","110","665747","0.0-110.0","6234c08d8ca96438af2c7f44","64e50e8ea633f38baecbf94f","","","","","2102",""," ","key"," ","16.673088000000455","500","250","pog","320","320","348","2","0","0","0"
"","psychophysics","111","668856","0.0-111.0","6234c08d8ca96438af2c7f44","64e50e8ea633f38baecbf94f","","","","","3107",""," ","key"," ","16.673274193548032","500","250","pog","283","337","306","2","0","0","0"
"","psychophysics","112","673409","0.0-112.0","6234c08d8ca96438af2c7f44","64e50e8ea633f38baecbf94f","","","","","4551",""," ","key"," ","16.67210661764736","500","250","pog","292","398","314","2","0","0","0"
"","psychophysics","113","681411","0.0-113.0","6234c08d8ca96438af2c7f44","64e50e8ea633f38baecbf94f","","","","","null","","null","key","null","16.67222338204592","500","250","pog","336","292","365","2","0","0","0"
"","psychophysics","114","685413","0.0-114.0","6234c08d8ca96438af2c7f44","64e50e8ea633f38baecbf94f","","","","","4000",""," ","key"," ","16.672920502092452","500","250","pog","335","391","360","2","0","0","0"
"","psychophysics","115","692336","0.0-115.0","6234c08d8ca96438af2c7f44","64e50e8ea633f38baecbf94f","","","","","6922",""," ","key"," ","16.67177777777787","500","250","pog","303","377","338","2","0","0","0"
"","psychophysics","116","697162","0.0-116.0","6234c08d8ca96438af2c7f44","64e50e8ea633f38baecbf94f","","","","","4824",""," ","key"," ","16.672909722222055","500","250","pog","349","301","377","2","0","0","0"
"","psychophysics","117","698802","0.0-117.0","6234c08d8ca96438af2c7f44","64e50e8ea633f38baecbf94f","","","","","1635",""," ","key"," ","16.67665306122484","500","250","pog","327","327","351","2","0","0","0"
"","psychophysics","118","706805","0.0-118.0","6234c08d8ca96438af2c7f44","64e50e8ea633f38baecbf94f","","","","","null","","null","key","null","16.672968684760065","500","250","pog","338","282","354","2","0","0","0"
"","psychophysics","119","713073","0.0-119.0","6234c08d8ca96438af2c7f44","64e50e8ea633f38baecbf94f","","","","","6266",""," ","key"," ","16.673671999999943","500","250","pog","301","339","324","2","0","0","0"
"","psychophysics","120","721075","0.0-120.0","6234c08d8ca96438af2c7f44","64e50e8ea633f38baecbf94f","","","","","null","","null","key","null","16.673020876826676","500","250","pog","333","295","363","2","0","0","0"
"","psychophysics","121","722621","0.0-121.0","6234c08d8ca96438af2c7f44","64e50e8ea633f38baecbf94f","","","","","1545",""," ","key"," ","16.670010989011203","500","250","inst","","","","","","",""
"","psychophysics","122","735694","0.0-122.0","6234c08d8ca96438af2c7f44","64e50e8ea633f38baecbf94f","","","","","13071",""," ","key"," ","16.672994891443263","500","250","instBr3","-22","40","300","1","","0","0"
"","psychophysics","123","737032","0.0-123.0","6234c08d8ca96438af2c7f44","64e50e8ea633f38baecbf94f","","","","","1334",""," ","key"," ","16.6773125000007","500","250","inst","","","","","","",""
"","psychophysics","124","743551","0.0-124.0","6234c08d8ca96438af2c7f44","64e50e8ea633f38baecbf94f","","","","","6517",""," ","key"," ","16.673492307692335","500","250","br","-20","-17","247","1","1","18","15"
"","psychophysics","125","749331","0.0-125.0","6234c08d8ca96438af2c7f44","64e50e8ea633f38baecbf94f","","","","","5777",""," ","key"," ","16.672898550724707","500","250","br","-20","-27","214","1","1","0","11"
"","psychophysics","126","757332","0.0-126.0","6234c08d8ca96438af2c7f44","64e50e8ea633f38baecbf94f","","","","","null","","null","key","null","16.67301461377885","500","250","br","-22","7","280","1","1","-7","-18"
"","psychophysics","127","762576","0.0-127.0","6234c08d8ca96438af2c7f44","64e50e8ea633f38baecbf94f","","","","","5241",""," ","key"," ","16.67295222929909","500","250","br","-19","5","228","1","1","10","23"
"","psychophysics","128","768206","0.0-128.0","6234c08d8ca96438af2c7f44","64e50e8ea633f38baecbf94f","","","","","5628",""," ","key"," ","16.671714285714273","500","250","br","-18","29","223","1","1","24","6"
"","psychophysics","129","775929","0.0-129.0","6234c08d8ca96438af2c7f44","64e50e8ea633f38baecbf94f","","","","","7718",""," ","key"," ","16.67291144708415","500","250","br","-19","30","274","1","1","10","16"
"","psychophysics","130","781384","0.0-130.0","6234c08d8ca96438af2c7f44","64e50e8ea633f38baecbf94f","","","","","5453",""," ","key"," ","16.673042944785312","500","250","br","-17","-23","220","1","1","-28","-19"
"","psychophysics","131","784262","0.0-131.0","6234c08d8ca96438af2c7f44","64e50e8ea633f38baecbf94f","","","","","2875",""," ","key"," ","16.672900584795272","500","250","br","-23","-26","241","1","1","-3","-12"
"","psychophysics","132","789782","0.0-132.0","6234c08d8ca96438af2c7f44","64e50e8ea633f38baecbf94f","","","","","5519",""," ","key"," ","16.673203030302698","500","250","br","-17","23","251","1","1","9","14"
"","psychophysics","133","795372","0.0-133.0","6234c08d8ca96438af2c7f44","64e50e8ea633f38baecbf94f","","","","","5586",""," ","key"," ","16.672982089552306","500","250","br","-18","-19","299","1","1","-15","11"
"","psychophysics","134","803142","0.0-134.0","6234c08d8ca96438af2c7f44","64e50e8ea633f38baecbf94f","","","","","7768",""," ","key"," ","16.672210752688127","500","250","br","-21","24","203","1","1","10","8"
"","psychophysics","135","807922","0.0-135.0","6234c08d8ca96438af2c7f44","64e50e8ea633f38baecbf94f","","","","","4778",""," ","key"," ","16.672824561403527","500","250","br","-21","13","255","1","1","12","-9"
"","psychophysics","136","814225","0.0-136.0","6234c08d8ca96438af2c7f44","64e50e8ea633f38baecbf94f","","","","","6300",""," ","key"," ","16.673220159151203","500","250","br","-17","-17","239","1","1","5","21"
"","psychophysics","137","818626","0.0-137.0","6234c08d8ca96438af2c7f44","64e50e8ea633f38baecbf94f","","","","","4398",""," ","key"," ","16.674547528516953","500","250","br","-21","-28","280","1","1","10","-23"
"","psychophysics","138","825395","0.0-138.0","6234c08d8ca96438af2c7f44","64e50e8ea633f38baecbf94f","","","","","6765",""," ","key"," ","16.673076543209923","500","250","br","-24","14","288","1","1","-9","-30"
"","psychophysics","139","826567","0.0-139.0","6234c08d8ca96438af2c7f44","64e50e8ea633f38baecbf94f","","","","","1171",""," ","key"," ","16.67332857142901","500","250","inst","","","","","","",""
"","psychophysics","140","836376","0.0-140.0","6234c08d8ca96438af2c7f44","64e50e8ea633f38baecbf94f","","","","","9807",""," ","key"," ","16.673080068143097","500","250","instPz1","49","25","50","1","","",""
"","psychophysics","141","844857","0.0-141.0","6234c08d8ca96438af2c7f44","64e50e8ea633f38baecbf94f","","","","","8479",""," ","key"," ","16.672346456692964","500","250","instPz2","19","35","20","1","","",""
"","psychophysics","142","849367","0.0-142.0","6234c08d8ca96438af2c7f44","64e50e8ea633f38baecbf94f","","","","","4509",""," ","key"," ","16.67311895910787","500","250","instPz3","100","100","30","1","","",""
"","psychophysics","143","853921","0.0-143.0","6234c08d8ca96438af2c7f44","64e50e8ea633f38baecbf94f","","","","","4553",""," ","key"," ","16.67434558823537","500","250","instPz4","100","100","30","1","","",""
"","psychophysics","144","855021","0.0-144.0","6234c08d8ca96438af2c7f44","64e50e8ea633f38baecbf94f","","","","","1098",""," ","key"," ","16.676507692307663","500","250","inst","","","","","","",""
"","psychophysics","145","861343","0.0-145.0","6234c08d8ca96438af2c7f44","64e50e8ea633f38baecbf94f","","","","","6320",""," ","key"," ","16.672939153439266","500","250","pz","50","47","29","1","1","",""
"","psychophysics","146","869346","0.0-146.0","6234c08d8ca96438af2c7f44","64e50e8ea633f38baecbf94f","","","","","null","","null","key","null","16.67385803757815","500","250","pz","39","47","25","1","1","",""
"","psychophysics","147","869759","0.0-147.0","6234c08d8ca96438af2c7f44","64e50e8ea633f38baecbf94f","","","","","410",""," ","key"," ","16.68704166666915","500","250","pz","57","57","27","1","1","",""
"","psychophysics","148","875086","0.0-148.0","6234c08d8ca96438af2c7f44","64e50e8ea633f38baecbf94f","","","","","5325",""," ","key"," ","16.6729592476489","500","250","pz","48","47","27","1","1","",""
"","psychophysics","149","883088","0.0-149.0","6234c08d8ca96438af2c7f44","64e50e8ea633f38baecbf94f","","","","","null","","null","key","null","16.67298538622151","500","250","pz","45","56","28","1","1","",""
"","psychophysics","150","887636","0.0-150.0","6234c08d8ca96438af2c7f44","64e50e8ea633f38baecbf94f","","","","","4546",""," ","key"," ","16.67163837638364","500","250","pz","39","24","22","1","1","",""
"","psychophysics","151","895069","0.0-151.0","6234c08d8ca96438af2c7f44","64e50e8ea633f38baecbf94f","","","","","7429",""," ","key"," ","16.674116853932755","500","250","pz","77","25","50","1","1","",""
"","psychophysics","152","901279","0.0-152.0","6234c08d8ca96438af2c7f44","64e50e8ea633f38baecbf94f","","","","","6208",""," ","key"," ","16.67408870967726","500","250","pz","70","52","47","1","1","",""
"","psychophysics","153","905247","0.0-153.0","6234c08d8ca96438af2c7f44","64e50e8ea633f38baecbf94f","","","","","3966",""," ","key"," ","16.67277637130791","500","250","pz","60","50","47","1","1","",""
"","psychophysics","154","913250","0.0-154.0","6234c08d8ca96438af2c7f44","64e50e8ea633f38baecbf94f","","","","","null","","null","key","null","16.673674321503015","500","250","pz","72","26","54","1","1","",""
"","psychophysics","155","913570","0.0-155.0","6234c08d8ca96438af2c7f44","64e50e8ea633f38baecbf94f","","","","","318",""," ","key"," ","16.693722222220256","500","250","pz","23","23","57","1","1","",""
"","psychophysics","156","920836","0.0-156.0","6234c08d8ca96438af2c7f44","64e50e8ea633f38baecbf94f","","","","","7264",""," ","key"," ","16.672832183908113","500","250","pz","47","44","34","1","1","",""
"","psychophysics","157","927984","0.0-157.0","6234c08d8ca96438af2c7f44","64e50e8ea633f38baecbf94f","","","","","7146",""," ","key"," ","16.673128805620557","500","250","pz","63","46","45","1","1","",""
"","psychophysics","158","931157","0.0-158.0","6234c08d8ca96438af2c7f44","64e50e8ea633f38baecbf94f","","","","","3170",""," ","key"," ","16.673473684210943","500","250","pz","57","40","43","1","1","",""
"","psychophysics","159","934529","0.0-159.0","6234c08d8ca96438af2c7f44","64e50e8ea633f38baecbf94f","","","","","3370",""," ","key"," ","16.67270646766187","500","250","pz","62","45","42","1","1","",""
"","psychophysics","160","938492","0.0-160.0","6234c08d8ca96438af2c7f44","64e50e8ea633f38baecbf94f","","","","","3962",""," ","key"," ","16.67153586497882","500","250","inst","","","","","","",""
"","psychophysics","161","944869","0.0-161.0","6234c08d8ca96438af2c7f44","64e50e8ea633f38baecbf94f","","","","","6376",""," ","key"," ","16.672939632545663","500","250","instEB1","45","30","40","2","","0","0"
"","psychophysics","162","948790","0.0-162.0","6234c08d8ca96438af2c7f44","64e50e8ea633f38baecbf94f","","","","","3918",""," ","key"," ","16.674337606837287","500","250","instEB2","34","40","30","2","","0","0"
"","psychophysics","163","956485","0.0-163.0","6234c08d8ca96438af2c7f44","64e50e8ea633f38baecbf94f","","","","","7694",""," ","key"," ","16.67370715835147","500","250","instEB3","38","45","27","2","","0","0"
"","psychophysics","164","961712","0.0-164.0","6234c08d8ca96438af2c7f44","64e50e8ea633f38baecbf94f","","","","","5225",""," ","key"," ","16.672967948717996","500","250","instEB4","54","30","40","2","","0","0"
"","psychophysics","165","963253","0.0-165.0","6234c08d8ca96438af2c7f44","64e50e8ea633f38baecbf94f","","","","","1540",""," ","key"," ","16.67730434782646","500","250","inst","","","","","","",""
"","psychophysics","166","968035","0.0-166.0","6234c08d8ca96438af2c7f44","64e50e8ea633f38baecbf94f","","","","","4780",""," ","key"," ","16.671603508771543","500","250","eb","56","30","47","2","","0","0"
"","psychophysics","167","971858","0.0-167.0","6234c08d8ca96438af2c7f44","64e50e8ea633f38baecbf94f","","","","","3819",""," ","key"," ","16.673362445414643","500","250","eb","42","46","35","2","","0","0"
"","psychophysics","168","975775","0.0-168.0","6234c08d8ca96438af2c7f44","64e50e8ea633f38baecbf94f","","","","","3915",""," ","key"," ","16.673179487179382","500","250","eb","54","51","44","2","","0","0"
"","psychophysics","169","979297","0.0-169.0","6234c08d8ca96438af2c7f44","64e50e8ea633f38baecbf94f","","","","","3520",""," ","key"," ","16.67323333333313","500","250","eb","54","38","43","2","","0","0"
"","psychophysics","170","982957","0.0-170.0","6234c08d8ca96438af2c7f44","64e50e8ea633f38baecbf94f","","","","","3658",""," ","key"," ","16.671944954128158","500","250","eb","39","35","31","2","","0","0"
"","psychophysics","171","987632","0.0-171.0","6234c08d8ca96438af2c7f44","64e50e8ea633f38baecbf94f","","","","","4672",""," ","key"," ","16.673121428571175","500","250","eb","33","39","26","2","","0","0"
"","psychophysics","172","993709","0.0-172.0","6234c08d8ca96438af2c7f44","64e50e8ea633f38baecbf94f","","","","","6076",""," ","key"," ","16.673033057851203","500","250","eb","60","25","51","2","","0","0"
"","psychophysics","173","997417","0.0-173.0","6234c08d8ca96438af2c7f44","64e50e8ea633f38baecbf94f","","","","","3704",""," ","key"," ","16.673364864864705","500","250","eb","62","40","43","2","","0","0"
"","psychophysics","174","1002895","0.0-174.0","6234c08d8ca96438af2c7f44","64e50e8ea633f38baecbf94f","","","","","5476",""," ","key"," ","16.673247706422025","500","250","eb","59","26","48","2","","0","0"
"","psychophysics","175","1007658","0.0-175.0","6234c08d8ca96438af2c7f44","64e50e8ea633f38baecbf94f","","","","","4761",""," ","key"," ","16.673203508771973","500","250","eb","55","48","47","2","","0","0"
"","psychophysics","176","1010537","0.0-176.0","6234c08d8ca96438af2c7f44","64e50e8ea633f38baecbf94f","","","","","2877",""," ","key"," ","16.673552325581536","500","250","eb","29","29","26","2","","0","0"
"","psychophysics","177","1012929","0.0-177.0","6234c08d8ca96438af2c7f44","64e50e8ea633f38baecbf94f","","","","","2390",""," ","key"," ","16.67288732394399","500","250","eb","29","29","26","2","","0","0"
"","psychophysics","178","1017204","0.0-178.0","6234c08d8ca96438af2c7f44","64e50e8ea633f38baecbf94f","","","","","4272",""," ","key"," ","16.67441568627415","500","250","eb","62","51","54","2","","0","0"
"","psychophysics","179","1021384","0.0-179.0","6234c08d8ca96438af2c7f44","64e50e8ea633f38baecbf94f","","","","","4176",""," ","key"," ","16.672899999999906","500","250","eb","30","37","26","2","","0","0"
"","psychophysics","180","1024379","0.0-180.0","6234c08d8ca96438af2c7f44","64e50e8ea633f38baecbf94f","","","","","2993",""," ","key"," ","16.674340782122552","500","250","eb","35","39","29","2","","0","0"
"","psychophysics","181","1025433","0.0-181.0","6234c08d8ca96438af2c7f44","64e50e8ea633f38baecbf94f","","","","","1052",""," ","key"," ","16.67191935483847","500","250","inst","","","","","","",""
"","psychophysics","182","1030401","0.0-182.0","6234c08d8ca96438af2c7f44","64e50e8ea633f38baecbf94f","","","","","4967",""," ","key"," ","16.673111111111076","500","250","instZol1","-0.19999999999999998","-1.3","","","","0","0"
"","psychophysics","183","1036747","0.0-183.0","6234c08d8ca96438af2c7f44","64e50e8ea633f38baecbf94f","","","","","6344",""," ","key"," ","16.672857894736808","500","250","instZol2","0.7000000000000006","2","","1","","0","0"
"","psychophysics","184","1038212","0.0-184.0","6234c08d8ca96438af2c7f44","64e50e8ea633f38baecbf94f","","","","","1463",""," ","key"," ","16.675953488373253","500","250","inst","","","","","","",""
"","psychophysics","185","1044762","0.0-185.0","6234c08d8ca96438af2c7f44","64e50e8ea633f38baecbf94f","","","","","6545",""," ","key"," ","16.673063775510244","500","250","zol","1.7400000000000007","-0.74","","1","1","21","14"
"","psychophysics","186","1048285","0.0-186.0","6234c08d8ca96438af2c7f44","64e50e8ea633f38baecbf94f","","","","","3518",""," ","key"," ","16.67328436018941","500","250","zol","1.6400000000000006","0.26","","1","1","23","18"
"","psychophysics","187","1054495","0.0-187.0","6234c08d8ca96438af2c7f44","64e50e8ea633f38baecbf94f","","","","","6208",""," ","key"," ","16.671932614555285","500","250","zol","1.7700000000000005","0.23","","1","1","7","13"
"","psychophysics","188","1062497","0.0-188.0","6234c08d8ca96438af2c7f44","64e50e8ea633f38baecbf94f","","","","","null","","null","key","null","16.67300626304825","500","250","zol","1.27","-0.17","","1","1","10","-8"
"","psychophysics","189","1069940","0.0-189.0","6234c08d8ca96438af2c7f44","64e50e8ea633f38baecbf94f","","","","","7439",""," ","key"," ","16.672959550561675","500","250","zol","1.6200000000000006","0.08","","1","1","25","0"
"","psychophysics","190","1076499","0.0-190.0","6234c08d8ca96438af2c7f44","64e50e8ea633f38baecbf94f","","","","","6555",""," ","key"," ","16.67317048346081","500","250","zol","1.17","-0.17","","1","1","-23","-21"
"","psychophysics","191","1080022","0.0-191.0","6234c08d8ca96438af2c7f44","64e50e8ea633f38baecbf94f","","","","","3520",""," ","key"," ","16.67470476190515","500","250","zol","1.4400000000000004","0.16","","1","1","24","-29"
"","psychophysics","192","1083993","0.0-192.0","6234c08d8ca96438af2c7f44","64e50e8ea633f38baecbf94f","","","","","3968",""," ","key"," ","16.673464135021238","500","250","zol","1.3500000000000003","-0.45","","1","1","-28","-18"
"","psychophysics","193","1087321","0.0-193.0","6234c08d8ca96438af2c7f44","64e50e8ea633f38baecbf94f","","","","","3326",""," ","key"," ","16.6750301507538","500","250","zol","1.4200000000000004","-0.42","","1","1","-23","-7"
"","psychophysics","194","1090370","0.0-194.0","6234c08d8ca96438af2c7f44","64e50e8ea633f38baecbf94f","","","","","3046",""," ","key"," ","16.675395604395717","500","250","zol","1.6100000000000005","-0.71","","1","1","22","4"
"","psychophysics","195","1097033","0.0-195.0","6234c08d8ca96438af2c7f44","64e50e8ea633f38baecbf94f","","","","","6660",""," ","key"," ","16.67205778894485","500","250","zol","1.3100000000000003","-0.31","","1","1","-22","4"
"","psychophysics","196","1100794","0.0-196.0","6234c08d8ca96438af2c7f44","64e50e8ea633f38baecbf94f","","","","","3757",""," ","key"," ","16.674546666666867","500","250","zol","1.25","-0.05","","1","1","-22","28"
"","psychophysics","197","1105175","0.0-197.0","6234c08d8ca96438af2c7f44","64e50e8ea633f38baecbf94f","","","","","4379",""," ","key"," ","16.67238931297698","500","250","zol","1.1400000000000001","0.36","","1","1","-30","19"
"","psychophysics","198","1108564","0.0-198.0","6234c08d8ca96438af2c7f44","64e50e8ea633f38baecbf94f","","","","","3384",""," ","key"," ","17.362963917525967","500","250","zol","1.0699999999999998","0.03","","1","1","11","-23"
"","psychophysics","199","1111946","0.0-199.0","6234c08d8ca96438af2c7f44","64e50e8ea633f38baecbf94f","","","","","3379",""," ","key"," ","16.670920792078405","500","250","zol","0.8599999999999999","0.34","","1","1","23","-2"
"","psychophysics","200","1113456","0.0-200.0","6234c08d8ca96438af2c7f44","64e50e8ea633f38baecbf94f","","","","","1508",""," ","key"," ","16.66859550561672","500","250","inst","","","","","","",""
"","psychophysics","201","1122632","0.0-201.0","6234c08d8ca96438af2c7f44","64e50e8ea633f38baecbf94f","","","","","9172",""," ","key"," ","16.674027272727002","500","250","instPog0","160","190","160","1","","0","0"
"","psychophysics","202","1127370","0.0-202.0","6234c08d8ca96438af2c7f44","64e50e8ea633f38baecbf94f","","","","","4737",""," ","key"," ","16.67263957597118","500","250","instPog1","172","190","160","1","","0","0"
"","psychophysics","203","1131843","0.0-203.0","6234c08d8ca96438af2c7f44","64e50e8ea633f38baecbf94f","","","","","4471",""," ","key"," ","16.674955056179734","500","250","instPog2","178","160","160","1","","0","0"
"","psychophysics","204","1132869","0.0-204.0","6234c08d8ca96438af2c7f44","64e50e8ea633f38baecbf94f","","","","","1025",""," ","key"," ","16.67888524590182","500","250","inst","","","","","","",""
"","psychophysics","205","1137237","0.0-205.0","6234c08d8ca96438af2c7f44","64e50e8ea633f38baecbf94f","","","","","4366",""," ","key"," ","16.674034482758437","500","250","pog","159","111","128","1","1","0","0"
"","psychophysics","206","1141666","0.0-206.0","6234c08d8ca96438af2c7f44","64e50e8ea633f38baecbf94f","","","","","4427",""," ","key"," ","16.67210984848542","500","250","pog","196","138","163","1","1","0","0"
"","psychophysics","207","1145352","0.0-207.0","6234c08d8ca96438af2c7f44","64e50e8ea633f38baecbf94f","","","","","3685",""," ","key"," ","16.673009090909776","500","250","pog","228","150","193","1","1","0","0"
"","psychophysics","208","1152253","0.0-208.0","6234c08d8ca96438af2c7f44","64e50e8ea633f38baecbf94f","","","","","6898",""," ","key"," ","16.672973365617068","500","250","pog","199","113","156","1","1","0","0"
"","psychophysics","209","1155958","0.0-209.0","6234c08d8ca96438af2c7f44","64e50e8ea633f38baecbf94f","","","","","3703",""," ","key"," ","16.672990990991426","500","250","pog","170","138","137","1","1","0","0"
"","psychophysics","210","1163961","0.0-210.0","6234c08d8ca96438af2c7f44","64e50e8ea633f38baecbf94f","","","","","null","","null","key","null","16.67265690376575","500","250","pog","172","100","139","1","1","0","0"
"","psychophysics","211","1168227","0.0-211.0","6234c08d8ca96438af2c7f44","64e50e8ea633f38baecbf94f","","","","","4263",""," ","key"," ","16.674380392157563","500","250","pog","229","113","192","1","1","0","0"
"","psychophysics","212","1171352","0.0-212.0","6234c08d8ca96438af2c7f44","64e50e8ea633f38baecbf94f","","","","","3124",""," ","key"," ","16.673695187165308","500","250","pog","211","143","181","1","1","0","0"
"","psychophysics","213","1175184","0.0-213.0","6234c08d8ca96438af2c7f44","64e50e8ea633f38baecbf94f","","","","","3830",""," ","key"," ","16.672930131004474","500","250","pog","174","184","136","1","1","0","0"
"","psychophysics","214","1181586","0.0-214.0","6234c08d8ca96438af2c7f44","64e50e8ea633f38baecbf94f","","","","","6400",""," ","key"," ","16.672456919059993","500","250","pog","197","177","167","1","1","0","0"
"","psychophysics","215","1185357","0.0-215.0","6234c08d8ca96438af2c7f44","64e50e8ea633f38baecbf94f","","","","","3769",""," ","key"," ","16.67133333333354","500","250","pog","215","125","186","1","1","0","0"
"","psychophysics","216","1190339","0.0-216.0","6234c08d8ca96438af2c7f44","64e50e8ea633f38baecbf94f","","","","","4980",""," ","key"," ","16.67297986577243","500","250","pog","225","119","199","1","1","0","0"
"","psychophysics","217","1193628","0.0-217.0","6234c08d8ca96438af2c7f44","64e50e8ea633f38baecbf94f","","","","","3287",""," ","key"," ","16.674540816326342","500","250","pog","191","155","174","1","1","0","0"
"","psychophysics","218","1197911","0.0-218.0","6234c08d8ca96438af2c7f44","64e50e8ea633f38baecbf94f","","","","","4280",""," ","key"," ","16.675464843749978","500","250","pog","175","119","148","1","1","0","0"
"","psychophysics","219","1205519","0.0-219.0","6234c08d8ca96438af2c7f44","64e50e8ea633f38baecbf94f","","","","","7606",""," ","key"," ","16.67348131868108","500","250","pog","185","197","153","1","1","0","0"
