"success","trial_type","trial_index","time_elapsed","internal_node_id","pid","sid","timeout","failed_images","failed_audio","failed_video","rt","stimulus","response","response_type","key_press","avg_frame_time","center_x","center_y","task","resp","version","block","start","jitterX","jitterY","parA"
"true","fullscreen","0","2663","0.0-0.0","63e51ddb19fccd05514c629c","64de8479e698a32640e38af8","","","","","","","","","","","","","","","","","","","",""
"true","preload","1","2739","0.0-1.0","63e51ddb19fccd05514c629c","64de8479e698a32640e38af8","false","[]","[]","[]","","","","","","","","","","","","","","","",""
"","html-button-response","2","3802","0.0-2.0","63e51ddb19fccd05514c629c","64de8479e698a32640e38af8","","","","","1061","Please Make Sure Your Audio Is On.","0","","","","","","","","","","","","",""
"","psychophysics","3","10161","0.0-3.0","63e51ddb19fccd05514c629c","64de8479e698a32640e38af8","","","","","6352",""," ","key"," ","16.76811111111111","511.2","250","","","","","","","",""
"","psychophysics","4","11795","0.0-4.0","63e51ddb19fccd05514c629c","64de8479e698a32640e38af8","","","","","1613",""," ","key"," ","16.68026530612246","500","250","inst","","","","","","",""
"","psychophysics","5","14348","0.0-5.0","63e51ddb19fccd05514c629c","64de8479e698a32640e38af8","","","","","2551",""," ","key"," ","16.680671052631578","500","250","sample0","","","","","","",""
"","psychophysics","6","15456","0.0-6.0","63e51ddb19fccd05514c629c","64de8479e698a32640e38af8","","","","","1106",""," ","key"," ","16.68053846153847","500","250","sample1","","","","","","",""
"","psychophysics","7","16692","0.0-7.0","63e51ddb19fccd05514c629c","64de8479e698a32640e38af8","","","","","1227",""," ","key"," ","16.680479452054808","500","250","sample2","130","","","","","",""
"","psychophysics","8","19147","0.0-8.0","63e51ddb19fccd05514c629c","64de8479e698a32640e38af8","","","","","2447",""," ","key"," ","16.67991836734694","500","250","sample3","70","","","","","",""
"","psychophysics","9","24980","0.0-9.0","63e51ddb19fccd05514c629c","64de8479e698a32640e38af8","","","","","5832",""," ","key"," ","16.680856321839077","500","250","sample4","100","","","","","",""
"","psychophysics","10","27059","0.0-10.0","63e51ddb19fccd05514c629c","64de8479e698a32640e38af8","","","","","2070",""," ","key"," ","16.679322580645167","500","250","sample5","","","","","","",""
"","psychophysics","11","30380","0.0-11.0","63e51ddb19fccd05514c629c","64de8479e698a32640e38af8","","","","","3320",""," ","key"," ","16.680520202020194","500","250","sample6","496","","","","","",""
"","psychophysics","12","32439","0.0-12.0","63e51ddb19fccd05514c629c","64de8479e698a32640e38af8","","","","","2057",""," ","key"," ","16.68062601626014","500","250","inst","","","","","","",""
"","psychophysics","13","34992","0.0-13.0","63e51ddb19fccd05514c629c","64de8479e698a32640e38af8","","","","","2551",""," ","key"," ","16.680177631578964","500","250","inst","","","","","","",""
"","psychophysics","14","36624","0.0-14.0","63e51ddb19fccd05514c629c","64de8479e698a32640e38af8","","","","","1631",""," ","key"," ","16.680124999999936","500","250","inst","","","","","","",""
"","psychophysics","15","37549","0.0-15.0","63e51ddb19fccd05514c629c","64de8479e698a32640e38af8","","","","","922",""," ","key"," ","16.681181818181756","500","250","inst","","","","","","",""
"","psychophysics","16","38524","0.0-16.0","63e51ddb19fccd05514c629c","64de8479e698a32640e38af8","","","","","973",""," ","key"," ","16.68312280701758","500","250","inst","","","","","","",""
"","psychophysics","17","40391","0.0-17.0","63e51ddb19fccd05514c629c","64de8479e698a32640e38af8","","","","","1865",""," ","key"," ","16.681576576576568","500","250","instEB0","40","1","","40","0","0","40"
"","psychophysics","18","43657","0.0-18.0","63e51ddb19fccd05514c629c","64de8479e698a32640e38af8","","","","","3264",""," ","key"," ","16.68136410256411","500","250","instEB1","33","1","","40","0","0","30"
"","psychophysics","19","49824","0.0-19.0","63e51ddb19fccd05514c629c","64de8479e698a32640e38af8","","","","","6166",""," ","key"," ","16.68079403794037","500","250","instEB2","35","1","","30","0","0","40"
"","psychophysics","20","57619","0.0-20.0","63e51ddb19fccd05514c629c","64de8479e698a32640e38af8","","","","","7793",""," ","key"," ","16.68085836909871","500","250","instEB3","34","1","","27","0","0","45"
"","psychophysics","21","64067","0.0-21.0","63e51ddb19fccd05514c629c","64de8479e698a32640e38af8","","","","","6446",""," ","key"," ","16.680904145077733","500","250","instEB4","65","1","","40","0","0","30"
"","psychophysics","22","65821","0.0-22.0","63e51ddb19fccd05514c629c","64de8479e698a32640e38af8","","","","","1752",""," ","key"," ","16.68012500000007","500","250","inst","","","","","","",""
"","psychophysics","23","68799","0.0-23.0","63e51ddb19fccd05514c629c","64de8479e698a32640e38af8","","","","","2975",""," ","key"," ","16.680423728813548","500","250","eb","41","1","","50","0","0","49"
"","psychophysics","24","71760","0.0-24.0","63e51ddb19fccd05514c629c","64de8479e698a32640e38af8","","","","","2958",""," ","key"," ","16.680824858757028","500","250","eb","39","1","","46","0","0","47"
"","psychophysics","25","75577","0.0-25.0","63e51ddb19fccd05514c629c","64de8479e698a32640e38af8","","","","","3816",""," ","key"," ","16.680903508771927","500","250","eb","28","1","","41","0","0","28"
"","psychophysics","26","78485","0.0-26.0","63e51ddb19fccd05514c629c","64de8479e698a32640e38af8","","","","","2905",""," ","key"," ","16.681109826589566","500","250","eb","27","1","","49","0","0","29"
"","psychophysics","27","81214","0.0-27.0","63e51ddb19fccd05514c629c","64de8479e698a32640e38af8","","","","","2727",""," ","key"," ","16.680588957055136","500","250","eb","46","1","","48","0","0","50"
"","psychophysics","28","83559","0.0-28.0","63e51ddb19fccd05514c629c","64de8479e698a32640e38af8","","","","","2343",""," ","key"," ","16.67972661870506","500","250","eb","33","1","","39","0","0","38"
"","psychophysics","29","87745","0.0-29.0","63e51ddb19fccd05514c629c","64de8479e698a32640e38af8","","","","","4184",""," ","key"," ","16.680527999999992","500","250","eb","29","1","","50","0","0","31"
"","psychophysics","30","90727","0.0-30.0","63e51ddb19fccd05514c629c","64de8479e698a32640e38af8","","","","","2979",""," ","key"," ","16.680865168539345","500","250","eb","41","1","","35","0","0","51"
"","psychophysics","31","94153","0.0-31.0","63e51ddb19fccd05514c629c","64de8479e698a32640e38af8","","","","","3423",""," ","key"," ","16.68058333333337","500","250","eb","38","1","","25","0","0","54"
"","psychophysics","32","97168","0.0-32.0","63e51ddb19fccd05514c629c","64de8479e698a32640e38af8","","","","","3013",""," ","key"," ","16.68119999999997","500","250","eb","19","1","","27","0","0","25"
"","psychophysics","33","98883","0.0-33.0","63e51ddb19fccd05514c629c","64de8479e698a32640e38af8","","","","","1714",""," ","key"," ","16.680666666666667","500","250","eb","19","1","","24","0","0","26"
"","psychophysics","34","103580","0.0-34.0","63e51ddb19fccd05514c629c","64de8479e698a32640e38af8","","","","","4694",""," ","key"," ","16.68040000000001","500","250","eb","24","1","","46","0","0","27"
"","psychophysics","35","107335","0.0-35.0","63e51ddb19fccd05514c629c","64de8479e698a32640e38af8","","","","","3754",""," ","key"," ","16.671942222222246","500","250","eb","33","1","","36","0","0","38"
"","psychophysics","36","110148","0.0-36.0","63e51ddb19fccd05514c629c","64de8479e698a32640e38af8","","","","","2810",""," ","key"," ","16.680772455089812","500","250","eb","26","1","","47","0","0","31"
"","psychophysics","37","112115","0.0-37.0","63e51ddb19fccd05514c629c","64de8479e698a32640e38af8","","","","","1966",""," ","key"," ","16.682076923076924","500","250","eb","27","1","","33","0","0","32"
"","psychophysics","38","126228","0.0-38.0","63e51ddb19fccd05514c629c","64de8479e698a32640e38af8","","","","","14111",""," ","key"," ","16.700350710900462","500","250","inst","","","","","","",""
"","psychophysics","39","130402","0.0-39.0","63e51ddb19fccd05514c629c","64de8479e698a32640e38af8","","","","","4172",""," ","key"," ","16.682554216867434","500","250","instPog0","340","2","","370","0","0","340"
"","psychophysics","40","135111","0.0-40.0","63e51ddb19fccd05514c629c","64de8479e698a32640e38af8","","","","","4707",""," ","key"," ","16.668975177304905","500","250","instPog1","348","2","","370","0","0","340"
"","psychophysics","41","139072","0.0-41.0","63e51ddb19fccd05514c629c","64de8479e698a32640e38af8","","","","","3960",""," ","key"," ","16.68064830508463","500","250","instPog2","322","2","","340","0","0","340"
"","psychophysics","42","140336","0.0-42.0","63e51ddb19fccd05514c629c","64de8479e698a32640e38af8","","","","","1262",""," ","key"," ","16.68155999999998","500","250","inst","","","","","","",""
"","psychophysics","43","142241","0.0-43.0","63e51ddb19fccd05514c629c","64de8479e698a32640e38af8","","","","","1904",""," ","key"," ","16.683495575221116","500","250","pog","311","2","0","337","0","0","330"
"","psychophysics","44","150244","0.0-44.0","63e51ddb19fccd05514c629c","64de8479e698a32640e38af8","","","","","null","","null","key","null","16.680997912317338","500","250","pog","292","2","0","362","0","0","309"
"","psychophysics","45","153846","0.0-45.0","63e51ddb19fccd05514c629c","64de8479e698a32640e38af8","","","","","3599",""," ","key"," ","16.679623255813983","500","250","pog","346","2","0","378","0","0","363"
"","psychophysics","46","156098","0.0-46.0","63e51ddb19fccd05514c629c","64de8479e698a32640e38af8","","","","","2250",""," ","key"," ","16.678328358209015","500","250","pog","339","2","0","375","0","0","355"
"","psychophysics","47","161609","0.0-47.0","63e51ddb19fccd05514c629c","64de8479e698a32640e38af8","","","","","5509",""," ","key"," ","16.68063829787232","500","250","pog","352","2","0","388","0","0","373"
"","psychophysics","48","169040","0.0-48.0","63e51ddb19fccd05514c629c","64de8479e698a32640e38af8","","","","","7429",""," ","key"," ","16.679191011236","500","250","pog","336","2","0","342","0","0","370"
"","psychophysics","49","171814","0.0-49.0","63e51ddb19fccd05514c629c","64de8479e698a32640e38af8","","","","","2772",""," ","key"," ","16.680787878787978","500","250","pog","315","2","0","345","0","0","342"
"","psychophysics","50","177028","0.0-50.0","63e51ddb19fccd05514c629c","64de8479e698a32640e38af8","","","","","5211",""," ","key"," ","16.680810897435897","500","250","pog","324","2","0","370","0","0","354"
"","psychophysics","51","179948","0.0-51.0","63e51ddb19fccd05514c629c","64de8479e698a32640e38af8","","","","","2918",""," ","key"," ","16.679304597701112","500","250","pog","327","2","0","367","0","0","351"
"","psychophysics","52","187951","0.0-52.0","63e51ddb19fccd05514c629c","64de8479e698a32640e38af8","","","","","null","","null","key","null","16.680054279749445","500","250","pog","311","2","0","385","0","0","343"
"","psychophysics","53","190648","0.0-53.0","63e51ddb19fccd05514c629c","64de8479e698a32640e38af8","","","","","2693",""," ","key"," ","16.681950000000143","500","250","pog","291","2","0","307","0","0","320"
"","psychophysics","54","191962","0.0-54.0","63e51ddb19fccd05514c629c","64de8479e698a32640e38af8","","","","","1312",""," ","key"," ","16.68155128205119","500","250","pog","318","2","0","318","0","0","336"
"","psychophysics","55","199963","0.0-55.0","63e51ddb19fccd05514c629c","64de8479e698a32640e38af8","","","","","null","","null","key","null","16.680736951983306","500","250","pog","313","2","0","361","0","0","320"
"","psychophysics","56","200294","0.0-56.0","63e51ddb19fccd05514c629c","64de8479e698a32640e38af8","","","","","330",""," ","key"," ","16.67627777777832","500","250","pog","357","2","0","357","0","0","316"
"","psychophysics","57","204057","0.0-57.0","63e51ddb19fccd05514c629c","64de8479e698a32640e38af8","","","","","3758",""," ","key"," ","16.68072000000005","500","250","pog","301","2","0","307","0","0","325"
"","psychophysics","58","214336","0.0-58.0","63e51ddb19fccd05514c629c","64de8479e698a32640e38af8","","","","","10278",""," ","key"," ","16.680385365853667","500","250","inst","","","","","","",""
"","psychophysics","59","216588","0.0-59.0","63e51ddb19fccd05514c629c","64de8479e698a32640e38af8","","","","","2250",""," ","key"," ","16.679238805970012","500","250","instZol0","0","","","0","0","0",""
"","psychophysics","60","221967","0.0-60.0","63e51ddb19fccd05514c629c","64de8479e698a32640e38af8","","","","","5377",""," ","key"," ","16.681142857142884","500","250","instZol1","2.7755575615628914e-17","","","-1.3","0","0",""
"","psychophysics","61","231118","0.0-61.0","63e51ddb19fccd05514c629c","64de8479e698a32640e38af8","","","","","9149",""," ","key"," ","16.679678244972603","500","250","instZol2","-1.6999999999999997","2","","2","0","0",""
"","psychophysics","62","232402","0.0-62.0","63e51ddb19fccd05514c629c","64de8479e698a32640e38af8","","","","","1283",""," ","key"," ","16.68611842105288","500","250","inst","","","","","","",""
"","psychophysics","63","236058","0.0-63.0","63e51ddb19fccd05514c629c","64de8479e698a32640e38af8","","","","","3654",""," ","key"," ","16.680614678899133","500","250","zol","-1.17","2","0","-0.33","-29","2",""
"","psychophysics","64","240932","0.0-64.0","63e51ddb19fccd05514c629c","64de8479e698a32640e38af8","","","","","4871",""," ","key"," ","16.67976369863017","500","250","zol","-1.37","2","0","0.17","-8","-15",""
"","psychophysics","65","244329","0.0-65.0","63e51ddb19fccd05514c629c","64de8479e698a32640e38af8","","","","","3395",""," ","key"," ","16.678579207920812","500","250","zol","-2.1100000000000008","2","0","-0.29","23","12",""
"","psychophysics","66","248725","0.0-66.0","63e51ddb19fccd05514c629c","64de8479e698a32640e38af8","","","","","4394",""," ","key"," ","16.67973384030414","500","250","zol","-1.0899999999999999","2","0","-0.01","13","-8",""
"","psychophysics","67","251031","0.0-67.0","63e51ddb19fccd05514c629c","64de8479e698a32640e38af8","","","","","2304",""," ","key"," ","16.68065693430657","500","250","zol","-1.4600000000000002","2","0","-0.24","13","16",""
"","psychophysics","68","254569","0.0-68.0","63e51ddb19fccd05514c629c","64de8479e698a32640e38af8","","","","","3536",""," ","key"," ","16.680350710900353","500","250","zol","-1.8900000000000008","2","0","-0.41","12","-12",""
"","psychophysics","69","261660","0.0-69.0","63e51ddb19fccd05514c629c","64de8479e698a32640e38af8","","","","","7089",""," ","key"," ","16.681327830188682","500","250","zol","-2.0800000000000005","2","0","0.48","-7","22",""
"","psychophysics","70","265248","0.0-70.0","63e51ddb19fccd05514c629c","64de8479e698a32640e38af8","","","","","3585",""," ","key"," ","16.68205607476618","500","250","zol","-1.5","2","0","0.7","-27","-30",""
"","psychophysics","71","269022","0.0-71.0","63e51ddb19fccd05514c629c","64de8479e698a32640e38af8","","","","","3771",""," ","key"," ","16.680610619469153","500","250","zol","-1.8600000000000005","2","0","0.26","11","-17",""
"","psychophysics","72","272741","0.0-72.0","63e51ddb19fccd05514c629c","64de8479e698a32640e38af8","","","","","3716",""," ","key"," ","16.679621621621834","500","250","zol","-1.4100000000000001","2","0","-0.59","26","-19",""
"","psychophysics","73","275157","0.0-73.0","63e51ddb19fccd05514c629c","64de8479e698a32640e38af8","","","","","2414",""," ","key"," ","16.677916666666633","500","250","zol","-1.37","2","0","-0.73","-10","22",""
"","psychophysics","74","283160","0.0-74.0","63e51ddb19fccd05514c629c","64de8479e698a32640e38af8","","","","","null","","null","key","null","16.68119037656903","500","250","zol","-1.3900000000000001","2","0","-0.71","6","-13",""
"","psychophysics","75","285432","0.0-75.0","63e51ddb19fccd05514c629c","64de8479e698a32640e38af8","","","","","2268",""," ","key"," ","16.680725925926257","500","250","zol","-0.9799999999999999","2","0","-0.52","-26","5",""
"","psychophysics","76","288989","0.0-76.0","63e51ddb19fccd05514c629c","64de8479e698a32640e38af8","","","","","3554",""," ","key"," ","16.680558685446158","500","250","zol","-1.5500000000000003","2","0","-0.55","23","-7",""
"","psychophysics","77","294337","0.0-77.0","63e51ddb19fccd05514c629c","64de8479e698a32640e38af8","","","","","5346",""," ","key"," ","16.679905956112897","500","250","zol","-2.020000000000001","2","0","-0.18","-21","15",""
"","psychophysics","78","296890","0.0-78.0","63e51ddb19fccd05514c629c","64de8479e698a32640e38af8","","","","","2552",""," ","key"," ","16.679052631579044","500","250","inst","","","","","","",""
"","psychophysics","79","298054","0.0-79.0","63e51ddb19fccd05514c629c","64de8479e698a32640e38af8","","","","","1163",""," ","key"," ","16.675797101449344","500","250","instPzPre","50","0","","50","","","50"
"","psychophysics","80","300239","0.0-80.0","63e51ddb19fccd05514c629c","64de8479e698a32640e38af8","","","","","2184",""," ","key"," ","16.68209999999963","500","250","instPz0","33","2","","50","","","50"
"","psychophysics","81","301202","0.0-81.0","63e51ddb19fccd05514c629c","64de8479e698a32640e38af8","","","","","962",""," ","key"," ","16.682315789473552","500","250","instPz1","25","2","","25","","","50"
"","psychophysics","82","302256","0.0-82.0","63e51ddb19fccd05514c629c","64de8479e698a32640e38af8","","","","","1053",""," ","key"," ","16.680322580645047","500","250","instPz2","20","2","","20","","","35"
"","psychophysics","83","307326","0.0-83.0","63e51ddb19fccd05514c629c","64de8479e698a32640e38af8","","","","","5068",""," ","key"," ","16.680231023102262","500","250","instPz3","68","2","","30","","","100"
"","psychophysics","84","313639","0.0-84.0","63e51ddb19fccd05514c629c","64de8479e698a32640e38af8","","","","","6312",""," ","key"," ","16.68098941798939","500","250","instPz4","81","2","","30","","","100"
"","psychophysics","85","320951","0.0-85.0","63e51ddb19fccd05514c629c","64de8479e698a32640e38af8","","","","","7310",""," ","key"," ","16.68072768878719","500","250","inst","","","","","","",""
"","psychophysics","86","324644","0.0-86.0","63e51ddb19fccd05514c629c","64de8479e698a32640e38af8","","","","","3691",""," ","key"," ","16.680340909090855","500","250","pz","28","2","0","41","","","37"
"","psychophysics","87","326657","0.0-87.0","63e51ddb19fccd05514c629c","64de8479e698a32640e38af8","","","","","2011",""," ","key"," ","16.68111666666664","500","250","pz","40","2","0","45","","","56"
"","psychophysics","88","329080","0.0-88.0","63e51ddb19fccd05514c629c","64de8479e698a32640e38af8","","","","","2422",""," ","key"," ","16.680729166666424","500","250","pz","46","2","0","35","","","57"
"","psychophysics","89","333647","0.0-89.0","63e51ddb19fccd05514c629c","64de8479e698a32640e38af8","","","","","4566",""," ","key"," ","16.68006593406592","500","250","pz","46","2","0","47","","","57"
"","psychophysics","90","335402","0.0-90.0","63e51ddb19fccd05514c629c","64de8479e698a32640e38af8","","","","","1754",""," ","key"," ","16.679115384615077","500","250","pz","41","2","0","45","","","43"
"","psychophysics","91","341611","0.0-91.0","63e51ddb19fccd05514c629c","64de8479e698a32640e38af8","","","","","6208",""," ","key"," ","16.680274932614665","500","250","pz","45","2","0","32","","","50"
"","psychophysics","92","344822","0.0-92.0","63e51ddb19fccd05514c629c","64de8479e698a32640e38af8","","","","","3208",""," ","key"," ","16.681994791666813","500","250","pz","36","2","0","24","","","39"
"","psychophysics","93","352824","0.0-93.0","63e51ddb19fccd05514c629c","64de8479e698a32640e38af8","","","","","null","","null","key","null","16.680311064718175","500","250","pz","21","2","0","52","","","23"
"","psychophysics","94","354200","0.0-94.0","63e51ddb19fccd05514c629c","64de8479e698a32640e38af8","","","","","1373",""," ","key"," ","16.680530864197795","500","250","pz","27","2","0","24","","","31"
"","psychophysics","95","356559","0.0-95.0","63e51ddb19fccd05514c629c","64de8479e698a32640e38af8","","","","","2358",""," ","key"," ","16.67866666666653","500","250","pz","34","2","0","24","","","41"
"","psychophysics","96","358463","0.0-96.0","63e51ddb19fccd05514c629c","64de8479e698a32640e38af8","","","","","1902",""," ","key"," ","16.68213274336288","500","250","pz","47","2","0","48","","","54"
"","psychophysics","97","364791","0.0-97.0","63e51ddb19fccd05514c629c","64de8479e698a32640e38af8","","","","","6326",""," ","key"," ","16.680423280423312","500","250","pz","33","2","0","40","","","39"
"","psychophysics","98","372792","0.0-98.0","63e51ddb19fccd05514c629c","64de8479e698a32640e38af8","","","","","null","","null","key","null","16.681139874739046","500","250","pz","39","2","0","39","","","39"
"","psychophysics","99","375214","0.0-99.0","63e51ddb19fccd05514c629c","64de8479e698a32640e38af8","","","","","2420",""," ","key"," ","16.682749999999942","500","250","pz","51","2","0","60","","","46"
"","psychophysics","100","379953","0.0-100.0","63e51ddb19fccd05514c629c","64de8479e698a32640e38af8","","","","","4737",""," ","key"," ","16.68031095406357","500","250","pz","26","2","0","53","","","31"
"","psychophysics","101","386315","0.0-101.0","63e51ddb19fccd05514c629c","64de8479e698a32640e38af8","","","","","6361",""," ","key"," ","16.68135263157892","500","250","inst","","","","","","",""
"","psychophysics","102","393245","0.0-102.0","63e51ddb19fccd05514c629c","64de8479e698a32640e38af8","","","","","6927",""," ","key"," ","16.68065301204824","500","250","instBr0","0","","","0","0","0","300"
"","psychophysics","103","402500","0.0-103.0","63e51ddb19fccd05514c629c","64de8479e698a32640e38af8","","","","","9253",""," ","key"," ","16.680178700361044","500","250","instBr1","1","","","-40","0","0","300"
"","psychophysics","104","407405","0.0-104.0","63e51ddb19fccd05514c629c","64de8479e698a32640e38af8","","","","","4904",""," ","key"," ","16.67936860068257","500","250","instBr3","15","2","","40","0","0","300"
"","psychophysics","105","447733","0.0-105.0","63e51ddb19fccd05514c629c","64de8479e698a32640e38af8","","","","","40328",""," ","key"," ","16.680507864238418","500","250","inst","","","","","","",""
"","psychophysics","106","452387","0.0-106.0","63e51ddb19fccd05514c629c","64de8479e698a32640e38af8","","","","","4652",""," ","key"," ","16.67928057553945","500","250","br","16","2","0","-11","-8","-19","233"
"","psychophysics","107","459168","0.0-107.0","63e51ddb19fccd05514c629c","64de8479e698a32640e38af8","","","","","6778",""," ","key"," ","16.680805418719228","500","250","br","29","2","0","18","28","-25","218"
"","psychophysics","108","462301","0.0-108.0","63e51ddb19fccd05514c629c","64de8479e698a32640e38af8","","","","","3132",""," ","key"," ","16.67937433155083","500","250","br","22","2","0","30","-30","12","218"
"","psychophysics","109","470303","0.0-109.0","63e51ddb19fccd05514c629c","64de8479e698a32640e38af8","","","","","null","","null","key","null","16.680104602510514","500","250","br","21","2","0","-6","0","-5","254"
"","psychophysics","110","470916","0.0-110.0","63e51ddb19fccd05514c629c","64de8479e698a32640e38af8","","","","","611",""," ","key"," ","16.67027777777791","500","250","br","-12","2","0","-12","-5","-15","234"
"","psychophysics","111","472591","0.0-111.0","63e51ddb19fccd05514c629c","64de8479e698a32640e38af8","","","","","1674",""," ","key"," ","16.681549999999696","500","250","br","20","2","0","14","-30","17","216"
"","psychophysics","112","474735","0.0-112.0","63e51ddb19fccd05514c629c","64de8479e698a32640e38af8","","","","","2142",""," ","key"," ","16.680393700787658","500","250","br","31","2","0","24","11","12","261"
"","psychophysics","113","476661","0.0-113.0","63e51ddb19fccd05514c629c","64de8479e698a32640e38af8","","","","","1925",""," ","key"," ","16.680434782608696","500","250","br","26","2","0","19","30","6","233"
"","psychophysics","114","479584","0.0-114.0","63e51ddb19fccd05514c629c","64de8479e698a32640e38af8","","","","","2922",""," ","key"," ","16.679505747126417","500","250","br","23","2","0","14","-4","8","223"
"","psychophysics","115","482291","0.0-115.0","63e51ddb19fccd05514c629c","64de8479e698a32640e38af8","","","","","2706",""," ","key"," ","16.679080745341583","500","250","br","31","2","0","19","-23","8","300"
"","psychophysics","116","484607","0.0-116.0","63e51ddb19fccd05514c629c","64de8479e698a32640e38af8","","","","","2314",""," ","key"," ","16.681804347825928","500","250","br","32","2","0","16","-21","-8","276"
"","psychophysics","117","487272","0.0-117.0","63e51ddb19fccd05514c629c","64de8479e698a32640e38af8","","","","","2665",""," ","key"," ","16.680937106918424","500","250","br","18","2","0","-23","16","7","261"
"","psychophysics","118","489975","0.0-118.0","63e51ddb19fccd05514c629c","64de8479e698a32640e38af8","","","","","2701",""," ","key"," ","16.6794037267082","500","250","br","30","2","0","9","-15","22","294"
"","psychophysics","119","491203","0.0-119.0","63e51ddb19fccd05514c629c","64de8479e698a32640e38af8","","","","","1227",""," ","key"," ","16.67645833333356","500","250","br","31","2","0","30","-1","-10","264"
"","psychophysics","120","494133","0.0-120.0","63e51ddb19fccd05514c629c","64de8479e698a32640e38af8","","","","","2928",""," ","key"," ","16.682234285714305","500","250","br","21","2","0","-19","18","-16","254"
"","psychophysics","121","495254","0.0-121.0","63e51ddb19fccd05514c629c","64de8479e698a32640e38af8","","","","","1121",""," ","key"," ","16.681727272727365","500","250","inst","","","","","","",""
"","psychophysics","122","497641","0.0-122.0","63e51ddb19fccd05514c629c","64de8479e698a32640e38af8","","","","","2384",""," ","key"," ","16.68130985915523","500","250","instPz1","24","1","","25","","","50"
"","psychophysics","123","498052","0.0-123.0","63e51ddb19fccd05514c629c","64de8479e698a32640e38af8","","","","","410",""," ","key"," ","16.68458333333304","500","250","instPz2","35","1","","35","","","20"
"","psychophysics","124","498722","0.0-124.0","63e51ddb19fccd05514c629c","64de8479e698a32640e38af8","","","","","669",""," ","key"," ","16.67720512820569","500","250","instPz3","100","1","","100","","","30"
"","psychophysics","125","499145","0.0-125.0","63e51ddb19fccd05514c629c","64de8479e698a32640e38af8","","","","","422",""," ","key"," ","16.507160000000148","500","250","instPz4","100","1","","100","","","30"
"","psychophysics","126","499731","0.0-126.0","63e51ddb19fccd05514c629c","64de8479e698a32640e38af8","","","","","585",""," ","key"," ","16.68132352941286","500","250","inst","","","","","","",""
"","psychophysics","127","503452","0.0-127.0","63e51ddb19fccd05514c629c","64de8479e698a32640e38af8","","","","","3719",""," ","key"," ","16.680364864864984","500","250","pz","38","1","1","21","","","27"
"","psychophysics","128","505506","0.0-128.0","63e51ddb19fccd05514c629c","64de8479e698a32640e38af8","","","","","2053",""," ","key"," ","16.682245901639316","500","250","pz","37","1","1","31","","","29"
"","psychophysics","129","507010","0.0-129.0","63e51ddb19fccd05514c629c","64de8479e698a32640e38af8","","","","","1502",""," ","key"," ","16.681134831461154","500","250","pz","45","1","1","31","","","41"
"","psychophysics","130","508642","0.0-130.0","63e51ddb19fccd05514c629c","64de8479e698a32640e38af8","","","","","1631",""," ","key"," ","16.665453608247415","500","250","pz","46","1","1","52","","","34"
"","psychophysics","131","511657","0.0-131.0","63e51ddb19fccd05514c629c","64de8479e698a32640e38af8","","","","","3013",""," ","key"," ","16.681827777777734","500","250","pz","49","1","1","48","","","40"
"","psychophysics","132","514127","0.0-132.0","63e51ddb19fccd05514c629c","64de8479e698a32640e38af8","","","","","2469",""," ","key"," ","16.682034013605183","500","250","pz","42","1","1","59","","","29"
"","psychophysics","133","518012","0.0-133.0","63e51ddb19fccd05514c629c","64de8479e698a32640e38af8","","","","","3879",""," ","key"," ","16.68103448275862","500","250","pz","51","1","1","44","","","38"
"","psychophysics","134","522377","0.0-134.0","63e51ddb19fccd05514c629c","64de8479e698a32640e38af8","","","","","4364",""," ","key"," ","16.680530769230636","500","250","pz","67","1","1","47","","","53"
"","psychophysics","135","525950","0.0-135.0","63e51ddb19fccd05514c629c","64de8479e698a32640e38af8","","","","","3572",""," ","key"," ","16.679635514018873","500","250","pz","34","1","1","51","","","25"
"","psychophysics","136","529459","0.0-136.0","63e51ddb19fccd05514c629c","64de8479e698a32640e38af8","","","","","3507",""," ","key"," ","16.679311004784804","500","250","pz","49","1","1","40","","","37"
"","psychophysics","137","532370","0.0-137.0","63e51ddb19fccd05514c629c","64de8479e698a32640e38af8","","","","","2906",""," ","key"," ","16.68174566474011","500","250","pz","54","1","1","38","","","51"
"","psychophysics","138","535981","0.0-138.0","63e51ddb19fccd05514c629c","64de8479e698a32640e38af8","","","","","3611",""," ","key"," ","16.69126851851858","500","250","pz","58","1","1","56","","","51"
"","psychophysics","139","540128","0.0-139.0","63e51ddb19fccd05514c629c","64de8479e698a32640e38af8","","","","","4146",""," ","key"," ","16.68012500000036","500","250","pz","30","1","1","48","","","21"
"","psychophysics","140","543312","0.0-140.0","63e51ddb19fccd05514c629c","64de8479e698a32640e38af8","","","","","3182",""," ","key"," ","16.68119047619045","500","250","pz","34","1","1","38","","","31"
"","psychophysics","141","547365","0.0-141.0","63e51ddb19fccd05514c629c","64de8479e698a32640e38af8","","","","","4051",""," ","key"," ","16.68042148760335","500","250","pz","62","1","1","44","","","59"
"","psychophysics","142","630895","0.0-142.0","63e51ddb19fccd05514c629c","64de8479e698a32640e38af8","","","","","83528",""," ","key"," ","16.678804473736765","500","250","inst","","","","","","",""
"","psychophysics","143","634913","0.0-143.0","63e51ddb19fccd05514c629c","64de8479e698a32640e38af8","","","","","4017",""," ","key"," ","16.679387499999816","500","250","instEB1","37","2","","30","0","0","40"
"","psychophysics","144","636344","0.0-144.0","63e51ddb19fccd05514c629c","64de8479e698a32640e38af8","","","","","1430",""," ","key"," ","16.679000000000986","500","250","instEB2","34","2","","40","0","0","30"
"","psychophysics","145","638781","0.0-145.0","63e51ddb19fccd05514c629c","64de8479e698a32640e38af8","","","","","2436",""," ","key"," ","16.680593103448988","500","250","instEB3","36","2","","45","0","0","27"
"","psychophysics","146","641394","0.0-146.0","63e51ddb19fccd05514c629c","64de8479e698a32640e38af8","","","","","2612",""," ","key"," ","16.680864516128935","500","250","instEB4","46","2","","30","0","0","40"
"","psychophysics","147","662101","0.0-147.0","63e51ddb19fccd05514c629c","64de8479e698a32640e38af8","","","","","20704",""," ","key"," ","16.680792103142636","500","250","inst","","","","","","",""
"","psychophysics","148","664771","0.0-148.0","63e51ddb19fccd05514c629c","64de8479e698a32640e38af8","","","","","2669",""," ","key"," ","16.680654088050602","500","250","eb","52","2","","27","0","0","36"
"","psychophysics","149","666392","0.0-149.0","63e51ddb19fccd05514c629c","64de8479e698a32640e38af8","","","","","1619",""," ","key"," ","16.683541666666617","500","250","eb","46","2","","43","0","0","29"
"","psychophysics","150","668159","0.0-150.0","63e51ddb19fccd05514c629c","64de8479e698a32640e38af8","","","","","1766",""," ","key"," ","16.678409523809595","500","250","eb","46","2","","34","0","0","37"
"","psychophysics","151","670956","0.0-151.0","63e51ddb19fccd05514c629c","64de8479e698a32640e38af8","","","","","2796",""," ","key"," ","16.680550898203602","500","250","eb","46","2","","26","0","0","43"
"","psychophysics","152","672631","0.0-152.0","63e51ddb19fccd05514c629c","64de8479e698a32640e38af8","","","","","1674",""," ","key"," ","16.679989898990076","500","250","eb","62","2","","54","0","0","50"
"","psychophysics","153","674649","0.0-153.0","63e51ddb19fccd05514c629c","64de8479e698a32640e38af8","","","","","2016",""," ","key"," ","16.679533333334255","500","250","eb","52","2","","48","0","0","40"
"","psychophysics","154","676796","0.0-154.0","63e51ddb19fccd05514c629c","64de8479e698a32640e38af8","","","","","2145",""," ","key"," ","16.680390625000655","500","250","eb","58","2","","46","0","0","53"
"","psychophysics","155","678494","0.0-155.0","63e51ddb19fccd05514c629c","64de8479e698a32640e38af8","","","","","1696",""," ","key"," ","16.678490000000455","500","250","eb","51","2","","46","0","0","33"
"","psychophysics","156","680808","0.0-156.0","63e51ddb19fccd05514c629c","64de8479e698a32640e38af8","","","","","2312",""," ","key"," ","16.680181159420222","500","250","eb","47","2","","50","0","0","33"
"","psychophysics","157","684356","0.0-157.0","63e51ddb19fccd05514c629c","64de8479e698a32640e38af8","","","","","3547",""," ","key"," ","16.680599056603825","500","250","eb","43","2","","32","0","0","32"
"","psychophysics","158","688039","0.0-158.0","63e51ddb19fccd05514c629c","64de8479e698a32640e38af8","","","","","3681",""," ","key"," ","16.681499999999705","500","250","eb","68","2","","47","0","0","54"
"","psychophysics","159","691045","0.0-159.0","63e51ddb19fccd05514c629c","64de8479e698a32640e38af8","","","","","3004",""," ","key"," ","16.680787709497395","500","250","eb","47","2","","37","0","0","32"
"","psychophysics","160","693857","0.0-160.0","63e51ddb19fccd05514c629c","64de8479e698a32640e38af8","","","","","2810",""," ","key"," ","16.679821428571206","500","250","eb","60","2","","50","0","0","48"
"","psychophysics","161","701141","0.0-161.0","63e51ddb19fccd05514c629c","64de8479e698a32640e38af8","","","","","7283",""," ","key"," ","16.719592165898515","500","250","eb","32","2","","49","0","0","24"
"","psychophysics","162","704449","0.0-162.0","63e51ddb19fccd05514c629c","64de8479e698a32640e38af8","","","","","3306",""," ","key"," ","16.6802639593908","500","250","eb","48","2","","51","0","0","39"
"","psychophysics","163","706031","0.0-163.0","63e51ddb19fccd05514c629c","64de8479e698a32640e38af8","","","","","1580",""," ","key"," ","16.6789468085106","500","250","inst","","","","","","",""
"","psychophysics","164","709346","0.0-164.0","63e51ddb19fccd05514c629c","64de8479e698a32640e38af8","","","","","3312",""," ","key"," ","16.6808282828283","500","250","instBr3","-10","1","","40","0","0","300"
"","psychophysics","165","709924","0.0-165.0","63e51ddb19fccd05514c629c","64de8479e698a32640e38af8","","","","","577",""," ","key"," ","16.68226470588364","500","250","inst","","","","","","",""
"","psychophysics","166","711138","0.0-166.0","63e51ddb19fccd05514c629c","64de8479e698a32640e38af8","","","","","1213",""," ","key"," ","16.678694444444975","500","250","br","-13","1","1","-4","-21","-3","290"
"","psychophysics","167","712612","0.0-167.0","63e51ddb19fccd05514c629c","64de8479e698a32640e38af8","","","","","1472",""," ","key"," ","16.67737931034383","500","250","br","-21","1","1","-17","22","12","295"
"","psychophysics","168","715969","0.0-168.0","63e51ddb19fccd05514c629c","64de8479e698a32640e38af8","","","","","3356",""," ","key"," ","16.679415000000155","500","250","br","-15","1","1","17","-27","-17","233"
"","psychophysics","169","717712","0.0-169.0","63e51ddb19fccd05514c629c","64de8479e698a32640e38af8","","","","","1742",""," ","key"," ","16.68109615384534","500","250","br","-25","1","1","-28","-29","29","284"
"","psychophysics","170","721588","0.0-170.0","63e51ddb19fccd05514c629c","64de8479e698a32640e38af8","","","","","3875",""," ","key"," ","16.68042857142859","500","250","br","-18","1","1","2","-5","-26","262"
"","psychophysics","171","726597","0.0-171.0","63e51ddb19fccd05514c629c","64de8479e698a32640e38af8","","","","","5007",""," ","key"," ","16.67958193979955","500","250","br","-19","1","1","22","-7","3","246"
"","psychophysics","172","730961","0.0-172.0","63e51ddb19fccd05514c629c","64de8479e698a32640e38af8","","","","","4363",""," ","key"," ","16.680065134099962","500","250","br","-13","1","1","21","-23","15","205"
"","psychophysics","173","733880","0.0-173.0","63e51ddb19fccd05514c629c","64de8479e698a32640e38af8","","","","","2916",""," ","key"," ","16.68181034482764","500","250","br","-14","1","1","16","7","2","227"
"","psychophysics","174","739044","0.0-174.0","63e51ddb19fccd05514c629c","64de8479e698a32640e38af8","","","","","5163",""," ","key"," ","16.73412337662333","500","250","br","-18","1","1","11","12","20","207"
"","psychophysics","175","743291","0.0-175.0","63e51ddb19fccd05514c629c","64de8479e698a32640e38af8","","","","","4245",""," ","key"," ","16.681743083004065","500","250","br","-21","1","1","3","29","-15","201"
"","psychophysics","176","746324","0.0-176.0","63e51ddb19fccd05514c629c","64de8479e698a32640e38af8","","","","","3031",""," ","key"," ","16.680696132596715","500","250","br","-23","1","1","18","7","19","298"
"","psychophysics","177","748957","0.0-177.0","63e51ddb19fccd05514c629c","64de8479e698a32640e38af8","","","","","2631",""," ","key"," ","16.68021656051026","500","250","br","-28","1","1","-20","13","-28","281"
"","psychophysics","178","752299","0.0-178.0","63e51ddb19fccd05514c629c","64de8479e698a32640e38af8","","","","","3341",""," ","key"," ","16.679321608040482","500","250","br","-29","1","1","-20","24","2","254"
"","psychophysics","179","759615","0.0-179.0","63e51ddb19fccd05514c629c","64de8479e698a32640e38af8","","","","","7315",""," ","key"," ","16.67967351598157","500","250","br","-18","1","1","-13","-17","-29","288"
"","psychophysics","180","764401","0.0-180.0","63e51ddb19fccd05514c629c","64de8479e698a32640e38af8","","","","","4784",""," ","key"," ","16.681437062937277","500","250","br","-18","1","1","4","3","-14","214"
"","psychophysics","181","765752","0.0-181.0","63e51ddb19fccd05514c629c","64de8479e698a32640e38af8","","","","","1350",""," ","key"," ","16.679062500000875","500","250","inst","","","","","","",""
"","psychophysics","182","768339","0.0-182.0","63e51ddb19fccd05514c629c","64de8479e698a32640e38af8","","","","","2586",""," ","key"," ","16.787529411765266","500","250","instPog0","190","1","","190","0","0","160"
"","psychophysics","183","769382","0.0-183.0","63e51ddb19fccd05514c629c","64de8479e698a32640e38af8","","","","","1041",""," ","key"," ","16.686754098360534","500","250","instPog1","190","1","","190","0","0","160"
"","psychophysics","184","771931","0.0-184.0","63e51ddb19fccd05514c629c","64de8479e698a32640e38af8","","","","","2548",""," ","key"," ","16.68188157894704","500","250","instPog2","176","1","","160","0","0","160"
"","psychophysics","185","772513","0.0-185.0","63e51ddb19fccd05514c629c","64de8479e698a32640e38af8","","","","","581",""," ","key"," ","16.685558823529657","500","250","inst","","","","","","",""
"","psychophysics","186","775333","0.0-186.0","63e51ddb19fccd05514c629c","64de8479e698a32640e38af8","","","","","2819",""," ","key"," ","16.68030952380962","500","250","pog","211","1","1","181","0","0","192"
"","psychophysics","187","781227","0.0-187.0","63e51ddb19fccd05514c629c","64de8479e698a32640e38af8","","","","","5891",""," ","key"," ","16.679821022727","500","250","pog","202","1","1","126","0","0","176"
"","psychophysics","188","784518","0.0-188.0","63e51ddb19fccd05514c629c","64de8479e698a32640e38af8","","","","","3287",""," ","key"," ","16.67977157360366","500","250","pog","193","1","1","181","0","0","168"
"","psychophysics","189","787904","0.0-189.0","63e51ddb19fccd05514c629c","64de8479e698a32640e38af8","","","","","3384",""," ","key"," ","16.67791089108894","500","250","pog","180","1","1","200","0","0","127"
"","psychophysics","190","792990","0.0-190.0","63e51ddb19fccd05514c629c","64de8479e698a32640e38af8","","","","","5085",""," ","key"," ","16.679726973684172","500","250","pog","195","1","1","165","0","0","172"
"","psychophysics","191","797140","0.0-191.0","63e51ddb19fccd05514c629c","64de8479e698a32640e38af8","","","","","4148",""," ","key"," ","16.67984615384624","500","250","pog","181","1","1","105","0","0","157"
"","psychophysics","192","800317","0.0-192.0","63e51ddb19fccd05514c629c","64de8479e698a32640e38af8","","","","","3175",""," ","key"," ","16.680794736842234","500","250","pog","181","1","1","187","0","0","139"
"","psychophysics","193","803526","0.0-193.0","63e51ddb19fccd05514c629c","64de8479e698a32640e38af8","","","","","3208",""," ","key"," ","16.680115183246084","500","250","pog","216","1","1","192","0","0","191"
"","psychophysics","194","808165","0.0-194.0","63e51ddb19fccd05514c629c","64de8479e698a32640e38af8","","","","","4632",""," ","key"," ","16.68036823104714","500","250","pog","222","1","1","126","0","0","193"
"","psychophysics","195","810031","0.0-195.0","63e51ddb19fccd05514c629c","64de8479e698a32640e38af8","","","","","1865",""," ","key"," ","16.68031531531439","500","250","pog","201","1","1","209","0","0","161"
"","psychophysics","196","812404","0.0-196.0","63e51ddb19fccd05514c629c","64de8479e698a32640e38af8","","","","","2372",""," ","key"," ","16.678645390071015","500","250","pog","180","1","1","174","0","0","155"
"","psychophysics","197","817765","0.0-197.0","63e51ddb19fccd05514c629c","64de8479e698a32640e38af8","","","","","5359",""," ","key"," ","16.681317757009282","500","250","pog","190","1","1","160","0","0","154"
"","psychophysics","198","823244","0.0-198.0","63e51ddb19fccd05514c629c","64de8479e698a32640e38af8","","","","","5477",""," ","key"," ","16.680581039755495","500","250","pog","191","1","1","163","0","0","164"
"","psychophysics","199","830430","0.0-199.0","63e51ddb19fccd05514c629c","64de8479e698a32640e38af8","","","","","7185",""," ","key"," ","16.68121860465116","500","250","pog","187","1","1","115","0","0","157"
"","psychophysics","200","833493","0.0-200.0","63e51ddb19fccd05514c629c","64de8479e698a32640e38af8","","","","","3062",""," ","key"," ","16.680885245901393","500","250","pog","215","1","1","125","0","0","177"
"","psychophysics","201","835334","0.0-201.0","63e51ddb19fccd05514c629c","64de8479e698a32640e38af8","","","","","1840",""," ","key"," ","16.679064220182784","500","250","inst","","","","","","",""
"","psychophysics","202","837263","0.0-202.0","63e51ddb19fccd05514c629c","64de8479e698a32640e38af8","","","","","1928",""," ","key"," ","16.679930434781937","500","250","instZol1","0.20000000000000004","","","-1.3","0","0",""
"","psychophysics","203","843321","0.0-203.0","63e51ddb19fccd05514c629c","64de8479e698a32640e38af8","","","","","6057",""," ","key"," ","16.68127071823203","500","250","instZol2","0.5000000000000007","1","","2","0","0",""
"","psychophysics","204","844082","0.0-204.0","63e51ddb19fccd05514c629c","64de8479e698a32640e38af8","","","","","759",""," ","key"," ","16.676599999998384","500","250","inst","","","","","","",""
"","psychophysics","205","847701","0.0-205.0","63e51ddb19fccd05514c629c","64de8479e698a32640e38af8","","","","","3616",""," ","key"," ","16.67995370370422","500","250","zol","0.38","1","1","-0.48","29","-12",""
"","psychophysics","206","849941","0.0-206.0","63e51ddb19fccd05514c629c","64de8479e698a32640e38af8","","","","","2238",""," ","key"," ","16.68085714285717","500","250","zol","1.4200000000000004","1","1","0.28","23","-25",""
"","psychophysics","207","854927","0.0-207.0","63e51ddb19fccd05514c629c","64de8479e698a32640e38af8","","","","","4984",""," ","key"," ","16.68082214765104","500","250","zol","1.23","1","1","0.67","-26","12",""
"","psychophysics","208","857018","0.0-208.0","63e51ddb19fccd05514c629c","64de8479e698a32640e38af8","","","","","2089",""," ","key"," ","16.680814516128816","500","250","zol","1.4600000000000002","1","1","-0.06","22","-2",""
"","psychophysics","209","858229","0.0-209.0","63e51ddb19fccd05514c629c","64de8479e698a32640e38af8","","","","","1209",""," ","key"," ","16.683486111109637","500","250","zol","0.71","1","1","-0.01","20","0",""
"","psychophysics","210","859317","0.0-210.0","63e51ddb19fccd05514c629c","64de8479e698a32640e38af8","","","","","1081",""," ","key"," ","16.68407812500118","500","250","zol","1.1600000000000001","1","1","-0.46","-5","-18",""
"","psychophysics","211","860464","0.0-211.0","63e51ddb19fccd05514c629c","64de8479e698a32640e38af8","","","","","1145",""," ","key"," ","16.67947058823569","500","250","zol","1.7100000000000006","1","1","-0.71","-1","-7",""
"","psychophysics","212","864059","0.0-212.0","63e51ddb19fccd05514c629c","64de8479e698a32640e38af8","","","","","3593",""," ","key"," ","16.679607476635454","500","250","zol","1.2300000000000002","1","1","-0.63","-1","20",""
"","psychophysics","213","866425","0.0-213.0","63e51ddb19fccd05514c629c","64de8479e698a32640e38af8","","","","","2363",""," ","key"," ","16.679290780141216","500","250","zol","1.0699999999999998","1","1","0.73","21","5",""
"","psychophysics","214","868889","0.0-214.0","63e51ddb19fccd05514c629c","64de8479e698a32640e38af8","","","","","2463",""," ","key"," ","16.68237414965992","500","250","zol","1.6700000000000006","1","1","-0.67","-5","11",""
"","psychophysics","215","870568","0.0-215.0","63e51ddb19fccd05514c629c","64de8479e698a32640e38af8","","","","","1676",""," ","key"," ","16.67743434343426","500","250","zol","2.0500000000000007","1","1","-0.75","-23","-4",""
"","psychophysics","216","872450","0.0-216.0","63e51ddb19fccd05514c629c","64de8479e698a32640e38af8","","","","","1879",""," ","key"," ","16.681089285714343","500","250","zol","1.9000000000000006","1","1","-0.4","-7","29",""
"","psychophysics","217","874216","0.0-217.0","63e51ddb19fccd05514c629c","64de8479e698a32640e38af8","","","","","1764",""," ","key"," ","16.6828571428567","500","250","zol","1.3100000000000003","1","1","-0.21","-27","3",""
"","psychophysics","218","878963","0.0-218.0","63e51ddb19fccd05514c629c","64de8479e698a32640e38af8","","","","","4745",""," ","key"," ","16.680257042253825","500","250","zol","1.2","1","1","0.4","6","-14",""
"","psychophysics","219","883749","0.0-219.0","63e51ddb19fccd05514c629c","64de8479e698a32640e38af8","","","","","4784",""," ","key"," ","16.680989510489635","500","250","zol","1.26","1","1","-0.06","-13","5",""
