"success","trial_type","trial_index","time_elapsed","internal_node_id","pid","sid","timeout","failed_images","failed_audio","failed_video","rt","stimulus","response","response_type","key_press","avg_frame_time","center_x","center_y","task","resp","version","block","start","jitterX","jitterY","parA"
"true","fullscreen","0","3443","0.0-0.0","5fe1bda08bcb1fc65fe89d91","64de822296cc2d3c83b23ca2","","","","","","","","","","","","","","","","","","","",""
"true","preload","1","3694","0.0-1.0","5fe1bda08bcb1fc65fe89d91","64de822296cc2d3c83b23ca2","false","[]","[]","[]","","","","","","","","","","","","","","","",""
"","html-button-response","2","51354","0.0-2.0","5fe1bda08bcb1fc65fe89d91","64de822296cc2d3c83b23ca2","","","","","47656","Please Make Sure Your Audio Is On.","0","","","","","","","","","","","","",""
"","psychophysics","3","55441","0.0-3.0","5fe1bda08bcb1fc65fe89d91","64de822296cc2d3c83b23ca2","","","","","3820",""," ","key"," ","17.83289473684211","684","250","","","","","","","",""
"","psychophysics","4","58068","0.0-4.0","5fe1bda08bcb1fc65fe89d91","64de822296cc2d3c83b23ca2","","","","","2563",""," ","key"," ","16.893290322580686","500","250","inst","","","","","","",""
"","psychophysics","5","60807","0.0-5.0","5fe1bda08bcb1fc65fe89d91","64de822296cc2d3c83b23ca2","","","","","2698",""," ","key"," ","16.78037037037036","500","250","sample0","","","","","","",""
"","psychophysics","6","63679","0.0-6.0","5fe1bda08bcb1fc65fe89d91","64de822296cc2d3c83b23ca2","","","","","2851",""," ","key"," ","16.678479532163724","500","250","sample1","","","","","","",""
"","psychophysics","7","70506","0.0-7.0","5fe1bda08bcb1fc65fe89d91","64de822296cc2d3c83b23ca2","","","","","6781",""," ","key"," ","16.677897310513433","500","250","sample2","130","","","","","",""
"","psychophysics","8","76025","0.0-8.0","5fe1bda08bcb1fc65fe89d91","64de822296cc2d3c83b23ca2","","","","","5514",""," ","key"," ","16.67812121212121","500","250","sample3","70","","","","","",""
"","psychophysics","9","78563","0.0-9.0","5fe1bda08bcb1fc65fe89d91","64de822296cc2d3c83b23ca2","","","","","2532",""," ","key"," ","16.678410596026506","500","250","sample4","130","","","","","",""
"","psychophysics","10","81214","0.0-10.0","5fe1bda08bcb1fc65fe89d91","64de822296cc2d3c83b23ca2","","","","","2649",""," ","key"," ","16.678101265822782","500","250","sample5","","","","","","",""
"","psychophysics","11","84606","0.0-11.0","5fe1bda08bcb1fc65fe89d91","64de822296cc2d3c83b23ca2","","","","","3387",""," ","key"," ","16.676831683168324","500","250","sample6","450","","","","","",""
"","psychophysics","12","89371","0.0-12.0","5fe1bda08bcb1fc65fe89d91","64de822296cc2d3c83b23ca2","","","","","4721",""," ","key"," ","16.737676056338028","500","250","inst","","","","","","",""
"","psychophysics","13","94442","0.0-13.0","5fe1bda08bcb1fc65fe89d91","64de822296cc2d3c83b23ca2","","","","","5043",""," ","key"," ","16.678085808580878","500","250","inst","","","","","","",""
"","psychophysics","14","97772","0.0-14.0","5fe1bda08bcb1fc65fe89d91","64de822296cc2d3c83b23ca2","","","","","3304",""," ","key"," ","16.678080808080853","500","250","inst","","","","","","",""
"","psychophysics","15","99957","0.0-15.0","5fe1bda08bcb1fc65fe89d91","64de822296cc2d3c83b23ca2","","","","","2152",""," ","key"," ","16.76434108527136","500","250","inst","","","","","","",""
"","psychophysics","16","101344","0.0-16.0","5fe1bda08bcb1fc65fe89d91","64de822296cc2d3c83b23ca2","","","","","1319",""," ","key"," ","17.094750000000023","500","250","inst","","","","","","",""
"","psychophysics","17","107384","0.0-17.0","5fe1bda08bcb1fc65fe89d91","64de822296cc2d3c83b23ca2","","","","","6011",""," ","key"," ","16.77052924791085","500","250","instPog0","340","2","","370","0","0","340"
"","psychophysics","18","120594","0.0-18.0","5fe1bda08bcb1fc65fe89d91","64de822296cc2d3c83b23ca2","","","","","13144",""," ","key"," ","16.76299872935198","500","250","instPog1","348","2","","370","0","0","340"
"","psychophysics","19","130039","0.0-19.0","5fe1bda08bcb1fc65fe89d91","64de822296cc2d3c83b23ca2","","","","","9410",""," ","key"," ","16.67794690265488","500","250","instPog2","338","2","","340","0","0","340"
"","psychophysics","20","132486","0.0-20.0","5fe1bda08bcb1fc65fe89d91","64de822296cc2d3c83b23ca2","","","","","2426",""," ","key"," ","16.679315068493104","500","250","inst","","","","","","",""
"","psychophysics","21","136699","0.0-21.0","5fe1bda08bcb1fc65fe89d91","64de822296cc2d3c83b23ca2","","","","","4182",""," ","key"," ","16.678007968127577","500","250","pog","318","2","0","330","0","0","327"
"","psychophysics","22","142001","0.0-22.0","5fe1bda08bcb1fc65fe89d91","64de822296cc2d3c83b23ca2","","","","","5263",""," ","key"," ","16.94525641025645","500","250","pog","327","2","0","283","0","0","343"
"","psychophysics","23","147422","0.0-23.0","5fe1bda08bcb1fc65fe89d91","64de822296cc2d3c83b23ca2","","","","","5386",""," ","key"," ","16.729845201238362","500","250","pog","346","2","0","380","0","0","353"
"","psychophysics","24","149992","0.0-24.0","5fe1bda08bcb1fc65fe89d91","64de822296cc2d3c83b23ca2","","","","","2545",""," ","key"," ","16.678169934640582","500","250","pog","328","2","0","334","0","0","329"
"","psychophysics","25","153842","0.0-25.0","5fe1bda08bcb1fc65fe89d91","64de822296cc2d3c83b23ca2","","","","","3815",""," ","key"," ","16.74061135371169","500","250","pog","302","2","0","310","0","0","312"
"","psychophysics","26","156165","0.0-26.0","5fe1bda08bcb1fc65fe89d91","64de822296cc2d3c83b23ca2","","","","","2286",""," ","key"," ","16.79956521739128","500","250","pog","300","2","0","296","0","0","311"
"","psychophysics","27","162123","0.0-27.0","5fe1bda08bcb1fc65fe89d91","64de822296cc2d3c83b23ca2","","","","","5954",""," ","key"," ","16.725014084506974","500","250","pog","372","2","0","394","0","0","376"
"","psychophysics","28","166588","0.0-28.0","5fe1bda08bcb1fc65fe89d91","64de822296cc2d3c83b23ca2","","","","","4425",""," ","key"," ","16.741132075471786","500","250","pog","343","2","0","359","0","0","350"
"","psychophysics","29","171576","0.0-29.0","5fe1bda08bcb1fc65fe89d91","64de822296cc2d3c83b23ca2","","","","","4968",""," ","key"," ","16.678187919463106","500","250","pog","293","2","0","321","0","0","305"
"","psychophysics","30","175659","0.0-30.0","5fe1bda08bcb1fc65fe89d91","64de822296cc2d3c83b23ca2","","","","","4037",""," ","key"," ","16.747107438016602","500","250","pog","306","2","0","360","0","0","307"
"","psychophysics","31","181369","0.0-31.0","5fe1bda08bcb1fc65fe89d91","64de822296cc2d3c83b23ca2","","","","","5692",""," ","key"," ","16.77617647058822","500","250","pog","342","2","0","312","0","0","347"
"","psychophysics","32","187720","0.0-32.0","5fe1bda08bcb1fc65fe89d91","64de822296cc2d3c83b23ca2","","","","","6312",""," ","key"," ","16.678205804749286","500","250","pog","340","2","0","280","0","0","359"
"","psychophysics","33","191949","0.0-33.0","5fe1bda08bcb1fc65fe89d91","64de822296cc2d3c83b23ca2","","","","","4225",""," ","key"," ","16.74430278884465","500","250","pog","319","2","0","329","0","0","333"
"","psychophysics","34","197774","0.0-34.0","5fe1bda08bcb1fc65fe89d91","64de822296cc2d3c83b23ca2","","","","","5786",""," ","key"," ","16.82121739130437","500","250","pog","339","2","0","371","0","0","341"
"","psychophysics","35","202847","0.0-35.0","5fe1bda08bcb1fc65fe89d91","64de822296cc2d3c83b23ca2","","","","","5042",""," ","key"," ","16.733201320132025","500","250","pog","305","2","0","363","0","0","311"
"","psychophysics","36","204835","0.0-36.0","5fe1bda08bcb1fc65fe89d91","64de822296cc2d3c83b23ca2","","","","","1983",""," ","key"," ","16.67846153846158","500","250","inst","","","","","","",""
"","psychophysics","37","207010","0.0-37.0","5fe1bda08bcb1fc65fe89d91","64de822296cc2d3c83b23ca2","","","","","2128",""," ","key"," ","16.67798449612397","500","250","instZol0","0","","","0","0","0",""
"","psychophysics","38","216226","0.0-38.0","5fe1bda08bcb1fc65fe89d91","64de822296cc2d3c83b23ca2","","","","","9194",""," ","key"," ","16.678079710144907","500","250","instZol1","-2.7755575615628914e-17","","","-1.3","0","0",""
"","psychophysics","39","227913","0.0-39.0","5fe1bda08bcb1fc65fe89d91","64de822296cc2d3c83b23ca2","","","","","11654",""," ","key"," ","16.701945636623755","500","250","instZol2","0.7000000000000006","1","","2","0","0",""
"","psychophysics","40","229867","0.0-40.0","5fe1bda08bcb1fc65fe89d91","64de822296cc2d3c83b23ca2","","","","","1949",""," ","key"," ","16.67844827586217","500","250","inst","","","","","","",""
"","psychophysics","41","237337","0.0-41.0","5fe1bda08bcb1fc65fe89d91","64de822296cc2d3c83b23ca2","","","","","7441",""," ","key"," ","16.6781655480984","500","250","zol","0.5499999999999998","1","0","0.45","30","7",""
"","psychophysics","42","240421","0.0-42.0","5fe1bda08bcb1fc65fe89d91","64de822296cc2d3c83b23ca2","","","","","3047",""," ","key"," ","16.67804347826076","500","250","zol","0.76","1","0","0.44","16","27",""
"","psychophysics","43","248445","0.0-43.0","5fe1bda08bcb1fc65fe89d91","64de822296cc2d3c83b23ca2","","","","","null","","null","key","null","16.712776617954038","500","250","zol","0.7500000000000001","1","0","-0.65","-29","-15",""
"","psychophysics","44","252230","0.0-44.0","5fe1bda08bcb1fc65fe89d91","64de822296cc2d3c83b23ca2","","","","","3758",""," ","key"," ","16.678141592920394","500","250","zol","0.73","1","0","-0.43","-4","-9",""
"","psychophysics","45","257217","0.0-45.0","5fe1bda08bcb1fc65fe89d91","64de822296cc2d3c83b23ca2","","","","","4982",""," ","key"," ","16.67805369127516","500","250","zol","0.29","1","0","0.01","-3","22",""
"","psychophysics","46","261209","0.0-46.0","5fe1bda08bcb1fc65fe89d91","64de822296cc2d3c83b23ca2","","","","","3989",""," ","key"," ","16.891148936170143","500","250","zol","0.5499999999999999","1","0","0.75","-7","-18",""
"","psychophysics","47","265761","0.0-47.0","5fe1bda08bcb1fc65fe89d91","64de822296cc2d3c83b23ca2","","","","","4503",""," ","key"," ","16.739630996309973","500","250","zol","1.18","1","0","-0.48","-6","9",""
"","psychophysics","48","270940","0.0-48.0","5fe1bda08bcb1fc65fe89d91","64de822296cc2d3c83b23ca2","","","","","5155",""," ","key"," ","16.67806451612907","500","250","zol","0.8200000000000001","1","0","-0.42","30","-4",""
"","psychophysics","49","276397","0.0-49.0","5fe1bda08bcb1fc65fe89d91","64de822296cc2d3c83b23ca2","","","","","5453",""," ","key"," ","16.678159509202505","500","250","zol","0.45999999999999996","1","0","0.54","-22","3",""
"","psychophysics","50","281938","0.0-50.0","5fe1bda08bcb1fc65fe89d91","64de822296cc2d3c83b23ca2","","","","","5536",""," ","key"," ","16.67776435045325","500","250","zol","0.5599999999999999","1","0","0.04","16","-11",""
"","psychophysics","51","286340","0.0-51.0","5fe1bda08bcb1fc65fe89d91","64de822296cc2d3c83b23ca2","","","","","4371",""," ","key"," ","16.678555133079705","500","250","zol","0.59","1","0","-0.39","-14","10",""
"","psychophysics","52","292305","0.0-52.0","5fe1bda08bcb1fc65fe89d91","64de822296cc2d3c83b23ca2","","","","","5934",""," ","key"," ","16.677977528089848","500","250","zol","0.69","1","0","0.71","-2","-24",""
"","psychophysics","53","297082","0.0-53.0","5fe1bda08bcb1fc65fe89d91","64de822296cc2d3c83b23ca2","","","","","4740",""," ","key"," ","16.73669014084497","500","250","zol","0.7799999999999999","1","0","-0.48","6","-15",""
"","psychophysics","54","301014","0.0-54.0","5fe1bda08bcb1fc65fe89d91","64de822296cc2d3c83b23ca2","","","","","3908",""," ","key"," ","16.678127659574656","500","250","zol","0.6699999999999999","1","0","0.63","7","-15",""
"","psychophysics","55","305850","0.0-55.0","5fe1bda08bcb1fc65fe89d91","64de822296cc2d3c83b23ca2","","","","","4833",""," ","key"," ","16.677993079584784","500","250","zol","0.6299999999999999","1","0","0.67","4","5",""
"","psychophysics","56","306988","0.0-56.0","5fe1bda08bcb1fc65fe89d91","64de822296cc2d3c83b23ca2","","","","","1135",""," ","key"," ","16.679402985074905","500","250","inst","","","","","","",""
"","psychophysics","57","308768","0.0-57.0","5fe1bda08bcb1fc65fe89d91","64de822296cc2d3c83b23ca2","","","","","1731",""," ","key"," ","16.678113207547213","500","250","instEB0","40","2","","40","0","0","40"
"","psychophysics","58","313040","0.0-58.0","5fe1bda08bcb1fc65fe89d91","64de822296cc2d3c83b23ca2","","","","","4268",""," ","key"," ","16.677882352941122","500","250","instEB1","30","2","","30","0","0","40"
"","psychophysics","59","316359","0.0-59.0","5fe1bda08bcb1fc65fe89d91","64de822296cc2d3c83b23ca2","","","","","3318",""," ","key"," ","16.763045685279224","500","250","instEB2","40","2","","40","0","0","30"
"","psychophysics","60","320380","0.0-60.0","5fe1bda08bcb1fc65fe89d91","64de822296cc2d3c83b23ca2","","","","","4018",""," ","key"," ","16.889198312236246","500","250","instEB3","45","2","","45","0","0","27"
"","psychophysics","61","330350","0.0-61.0","5fe1bda08bcb1fc65fe89d91","64de822296cc2d3c83b23ca2","","","","","9938",""," ","key"," ","16.67809045226132","500","250","instEB4","41","2","","30","0","0","40"
"","psychophysics","62","338790","0.0-62.0","5fe1bda08bcb1fc65fe89d91","64de822296cc2d3c83b23ca2","","","","","8435",""," ","key"," ","16.67861386138616","500","250","inst","","","","","","",""
"","psychophysics","63","345979","0.0-63.0","5fe1bda08bcb1fc65fe89d91","64de822296cc2d3c83b23ca2","","","","","7158",""," ","key"," ","16.677860465116236","500","250","eb","31","2","","48","0","0","25"
"","psychophysics","64","348549","0.0-64.0","5fe1bda08bcb1fc65fe89d91","64de822296cc2d3c83b23ca2","","","","","2530",""," ","key"," ","16.787500000000076","500","250","eb","36","2","","35","0","0","33"
"","psychophysics","65","352581","0.0-65.0","5fe1bda08bcb1fc65fe89d91","64de822296cc2d3c83b23ca2","","","","","3998",""," ","key"," ","16.747500000000098","500","250","eb","50","2","","54","0","0","45"
"","psychophysics","66","355600","0.0-66.0","5fe1bda08bcb1fc65fe89d91","64de822296cc2d3c83b23ca2","","","","","3013",""," ","key"," ","16.678324022346278","500","250","eb","48","2","","42","0","0","44"
"","psychophysics","67","362684","0.0-67.0","5fe1bda08bcb1fc65fe89d91","64de822296cc2d3c83b23ca2","","","","","7050",""," ","key"," ","16.67815602836876","500","250","eb","51","2","","41","0","0","45"
"","psychophysics","68","367852","0.0-68.0","5fe1bda08bcb1fc65fe89d91","64de822296cc2d3c83b23ca2","","","","","5145",""," ","key"," ","16.678187702265365","500","250","eb","43","2","","37","0","0","34"
"","psychophysics","69","373179","0.0-69.0","5fe1bda08bcb1fc65fe89d91","64de822296cc2d3c83b23ca2","","","","","5307",""," ","key"," ","16.678119122257076","500","250","eb","44","2","","52","0","0","35"
"","psychophysics","70","377533","0.0-70.0","5fe1bda08bcb1fc65fe89d91","64de822296cc2d3c83b23ca2","","","","","4349",""," ","key"," ","16.87245136186782","500","250","eb","35","2","","42","0","0","28"
"","psychophysics","71","381753","0.0-71.0","5fe1bda08bcb1fc65fe89d91","64de822296cc2d3c83b23ca2","","","","","4190",""," ","key"," ","16.678095238095256","500","250","eb","49","2","","41","0","0","47"
"","psychophysics","72","387088","0.0-72.0","5fe1bda08bcb1fc65fe89d91","64de822296cc2d3c83b23ca2","","","","","5328",""," ","key"," ","16.67811320754703","500","250","eb","48","2","","29","0","0","44"
"","psychophysics","73","392004","0.0-73.0","5fe1bda08bcb1fc65fe89d91","64de822296cc2d3c83b23ca2","","","","","4892",""," ","key"," ","16.678639455782378","500","250","eb","60","2","","49","0","0","54"
"","psychophysics","74","396690","0.0-74.0","5fe1bda08bcb1fc65fe89d91","64de822296cc2d3c83b23ca2","","","","","4646",""," ","key"," ","16.67771428571432","500","250","eb","34","2","","30","0","0","26"
"","psychophysics","75","398791","0.0-75.0","5fe1bda08bcb1fc65fe89d91","64de822296cc2d3c83b23ca2","","","","","2076",""," ","key"," ","16.677759999999775","500","250","eb","35","2","","33","0","0","29"
"","psychophysics","76","405536","0.0-76.0","5fe1bda08bcb1fc65fe89d91","64de822296cc2d3c83b23ca2","","","","","6715",""," ","key"," ","16.887167919799598","500","250","eb","39","2","","24","0","0","32"
"","psychophysics","77","409806","0.0-77.0","5fe1bda08bcb1fc65fe89d91","64de822296cc2d3c83b23ca2","","","","","4266",""," ","key"," ","16.678039215686137","500","250","eb","58","2","","46","0","0","54"
"","psychophysics","78","410841","0.0-78.0","5fe1bda08bcb1fc65fe89d91","64de822296cc2d3c83b23ca2","","","","","1032",""," ","key"," ","16.67803278688597","500","250","inst","","","","","","",""
"","psychophysics","79","412640","0.0-79.0","5fe1bda08bcb1fc65fe89d91","64de822296cc2d3c83b23ca2","","","","","1771",""," ","key"," ","16.678130841121472","500","250","instPzPre","50","0","","50","","","50"
"","psychophysics","80","415510","0.0-80.0","5fe1bda08bcb1fc65fe89d91","64de822296cc2d3c83b23ca2","","","","","2866",""," ","key"," ","16.678128654970884","500","250","instPz0","50","2","","50","","","50"
"","psychophysics","81","425470","0.0-81.0","5fe1bda08bcb1fc65fe89d91","64de822296cc2d3c83b23ca2","","","","","9958",""," ","key"," ","16.734208754208748","500","250","instPz1","48","2","","25","","","50"
"","psychophysics","82","431751","0.0-82.0","5fe1bda08bcb1fc65fe89d91","64de822296cc2d3c83b23ca2","","","","","6256",""," ","key"," ","16.678085106383033","500","250","instPz2","33","2","","20","","","35"
"","psychophysics","83","441591","0.0-83.0","5fe1bda08bcb1fc65fe89d91","64de822296cc2d3c83b23ca2","","","","","9833",""," ","key"," ","16.820821917808196","500","250","instPz3","31","2","","30","","","100"
"","psychophysics","84","455906","0.0-84.0","5fe1bda08bcb1fc65fe89d91","64de822296cc2d3c83b23ca2","","","","","14312",""," ","key"," ","16.89501182033096","500","250","instPz4","78","2","","30","","","100"
"","psychophysics","85","457039","0.0-85.0","5fe1bda08bcb1fc65fe89d91","64de822296cc2d3c83b23ca2","","","","","1130",""," ","key"," ","16.677272727272904","500","250","inst","","","","","","",""
"","psychophysics","86","465088","0.0-86.0","5fe1bda08bcb1fc65fe89d91","64de822296cc2d3c83b23ca2","","","","","null","","null","key","null","16.782887029288766","500","250","pz","42","2","0","54","","","49"
"","psychophysics","87","465336","0.0-87.0","5fe1bda08bcb1fc65fe89d91","64de822296cc2d3c83b23ca2","","","","","201",""," ","key"," ","16.67571428571578","500","250","pz","49","2","0","49","","","58"
"","psychophysics","88","470377","0.0-88.0","5fe1bda08bcb1fc65fe89d91","64de822296cc2d3c83b23ca2","","","","","5017",""," ","key"," ","17.017355932203373","500","250","pz","46","2","0","32","","","58"
"","psychophysics","89","478387","0.0-89.0","5fe1bda08bcb1fc65fe89d91","64de822296cc2d3c83b23ca2","","","","","null","","null","key","null","16.678000000000004","500","250","pz","24","2","0","42","","","29"
"","psychophysics","90","481137","0.0-90.0","5fe1bda08bcb1fc65fe89d91","64de822296cc2d3c83b23ca2","","","","","2703",""," ","key"," ","16.6784146341464","500","250","pz","28","2","0","23","","","48"
"","psychophysics","91","485016","0.0-91.0","5fe1bda08bcb1fc65fe89d91","64de822296cc2d3c83b23ca2","","","","","3851",""," ","key"," ","16.677922077921977","500","250","pz","17","2","0","25","","","23"
"","psychophysics","92","488536","0.0-92.0","5fe1bda08bcb1fc65fe89d91","64de822296cc2d3c83b23ca2","","","","","3492",""," ","key"," ","16.678285714285725","500","250","pz","15","2","0","51","","","21"
"","psychophysics","93","491862","0.0-93.0","5fe1bda08bcb1fc65fe89d91","64de822296cc2d3c83b23ca2","","","","","3302",""," ","key"," ","16.76222222222214","500","250","pz","47","2","0","33","","","55"
"","psychophysics","94","495534","0.0-94.0","5fe1bda08bcb1fc65fe89d91","64de822296cc2d3c83b23ca2","","","","","3669",""," ","key"," ","16.678173515981822","500","250","pz","42","2","0","34","","","50"
"","psychophysics","95","500769","0.0-95.0","5fe1bda08bcb1fc65fe89d91","64de822296cc2d3c83b23ca2","","","","","5216",""," ","key"," ","16.678076923076915","500","250","pz","25","2","0","55","","","28"
"","psychophysics","96","504632","0.0-96.0","5fe1bda08bcb1fc65fe89d91","64de822296cc2d3c83b23ca2","","","","","3816",""," ","key"," ","16.824298245614045","500","250","pz","19","2","0","32","","","21"
"","psychophysics","97","508135","0.0-97.0","5fe1bda08bcb1fc65fe89d91","64de822296cc2d3c83b23ca2","","","","","3483",""," ","key"," ","16.758269230769095","500","250","pz","40","2","0","28","","","44"
"","psychophysics","98","510168","0.0-98.0","5fe1bda08bcb1fc65fe89d91","64de822296cc2d3c83b23ca2","","","","","2013",""," ","key"," ","16.677851239669575","500","250","pz","45","2","0","41","","","49"
"","psychophysics","99","514372","0.0-99.0","5fe1bda08bcb1fc65fe89d91","64de822296cc2d3c83b23ca2","","","","","4180",""," ","key"," ","16.744800000000048","500","250","pz","38","2","0","59","","","46"
"","psychophysics","100","517292","0.0-100.0","5fe1bda08bcb1fc65fe89d91","64de822296cc2d3c83b23ca2","","","","","2888",""," ","key"," ","16.67804597701172","500","250","pz","36","2","0","48","","","42"
"","psychophysics","101","518627","0.0-101.0","5fe1bda08bcb1fc65fe89d91","64de822296cc2d3c83b23ca2","","","","","1329",""," ","key"," ","16.67846153846133","500","250","inst","","","","","","",""
"","psychophysics","102","521177","0.0-102.0","5fe1bda08bcb1fc65fe89d91","64de822296cc2d3c83b23ca2","","","","","2526",""," ","key"," ","16.677894736841967","500","250","instBr0","0","","","0","0","0","300"
"","psychophysics","103","535935","0.0-103.0","5fe1bda08bcb1fc65fe89d91","64de822296cc2d3c83b23ca2","","","","","14736",""," ","key"," ","16.68106334841622","500","250","instBr1","1","","","-40","0","0","300"
"","psychophysics","104","544928","0.0-104.0","5fe1bda08bcb1fc65fe89d91","64de822296cc2d3c83b23ca2","","","","","8967",""," ","key"," ","16.67791821561355","500","250","instBr3","27","2","","40","0","0","300"
"","psychophysics","105","545983","0.0-105.0","5fe1bda08bcb1fc65fe89d91","64de822296cc2d3c83b23ca2","","","","","1035",""," ","key"," ","16.94774193548402","500","250","inst","","","","","","",""
"","psychophysics","106","547598","0.0-106.0","5fe1bda08bcb1fc65fe89d91","64de822296cc2d3c83b23ca2","","","","","1612",""," ","key"," ","16.85574468085047","500","250","br","29","2","0","28","-27","3","285"
"","psychophysics","107","551036","0.0-107.0","5fe1bda08bcb1fc65fe89d91","64de822296cc2d3c83b23ca2","","","","","3405",""," ","key"," ","16.92403940886679","500","250","br","24","2","0","25","-6","24","257"
"","psychophysics","108","554058","0.0-108.0","5fe1bda08bcb1fc65fe89d91","64de822296cc2d3c83b23ca2","","","","","3019",""," ","key"," ","16.772067039105885","500","250","br","17","2","0","11","10","-24","258"
"","psychophysics","109","558442","0.0-109.0","5fe1bda08bcb1fc65fe89d91","64de822296cc2d3c83b23ca2","","","","","4339",""," ","key"," ","17.271146245059196","500","250","br","15","2","0","-5","-1","-13","230"
"","psychophysics","110","562127","0.0-110.0","5fe1bda08bcb1fc65fe89d91","64de822296cc2d3c83b23ca2","","","","","3651",""," ","key"," ","16.678090909090614","500","250","br","16","2","0","6","-13","-5","235"
"","psychophysics","111","566463","0.0-111.0","5fe1bda08bcb1fc65fe89d91","64de822296cc2d3c83b23ca2","","","","","4303",""," ","key"," ","16.743112840466853","500","250","br","16","2","0","-10","-24","-12","298"
"","psychophysics","112","570750","0.0-112.0","5fe1bda08bcb1fc65fe89d91","64de822296cc2d3c83b23ca2","","","","","4257",""," ","key"," ","16.743294117647206","500","250","br","13","2","0","-30","7","-28","266"
"","psychophysics","113","573703","0.0-113.0","5fe1bda08bcb1fc65fe89d91","64de822296cc2d3c83b23ca2","","","","","2922",""," ","key"," ","16.67806818181866","500","250","br","17","2","0","10","23","17","231"
"","psychophysics","114","579871","0.0-114.0","5fe1bda08bcb1fc65fe89d91","64de822296cc2d3c83b23ca2","","","","","6139",""," ","key"," ","16.72376021798364","500","250","br","18","2","0","5","-20","-7","240"
"","psychophysics","115","583924","0.0-115.0","5fe1bda08bcb1fc65fe89d91","64de822296cc2d3c83b23ca2","","","","","4017",""," ","key"," ","16.887364016736225","500","250","br","20","2","0","-2","10","9","296"
"","psychophysics","116","586308","0.0-116.0","5fe1bda08bcb1fc65fe89d91","64de822296cc2d3c83b23ca2","","","","","2323",""," ","key"," ","16.79742857142867","500","250","br","21","2","0","19","-13","8","296"
"","psychophysics","117","589724","0.0-117.0","5fe1bda08bcb1fc65fe89d91","64de822296cc2d3c83b23ca2","","","","","3387",""," ","key"," ","16.76109452736367","500","250","br","17","2","0","-6","-15","9","285"
"","psychophysics","118","592283","0.0-118.0","5fe1bda08bcb1fc65fe89d91","64de822296cc2d3c83b23ca2","","","","","2544",""," ","key"," ","16.649736842105323","500","250","br","18","2","0","10","-22","21","256"
"","psychophysics","119","595467","0.0-119.0","5fe1bda08bcb1fc65fe89d91","64de822296cc2d3c83b23ca2","","","","","3167",""," ","key"," ","16.6648421052635","500","250","br","18","2","0","13","0","10","291"
"","psychophysics","120","597434","0.0-120.0","5fe1bda08bcb1fc65fe89d91","64de822296cc2d3c83b23ca2","","","","","1940",""," ","key"," ","16.678103448276143","500","250","br","18","2","0","14","1","-14","287"
"","psychophysics","121","614228","0.0-121.0","5fe1bda08bcb1fc65fe89d91","64de822296cc2d3c83b23ca2","","","","","16764",""," ","key"," ","16.72503984063751","500","250","inst","","","","","","",""
"","psychophysics","122","623035","0.0-122.0","5fe1bda08bcb1fc65fe89d91","64de822296cc2d3c83b23ca2","","","","","8802",""," ","key"," ","16.773587786259515","500","250","instPz1","49","1","","25","","","50"
"","psychophysics","123","627474","0.0-123.0","5fe1bda08bcb1fc65fe89d91","64de822296cc2d3c83b23ca2","","","","","4419",""," ","key"," ","16.67826415094336","500","250","instPz2","24","1","","35","","","20"
"","psychophysics","124","633902","0.0-124.0","5fe1bda08bcb1fc65fe89d91","64de822296cc2d3c83b23ca2","","","","","6377",""," ","key"," ","16.987639257294344","500","250","instPz3","51","1","","100","","","30"
"","psychophysics","125","639706","0.0-125.0","5fe1bda08bcb1fc65fe89d91","64de822296cc2d3c83b23ca2","","","","","5784",""," ","key"," ","16.872594752186384","500","250","instPz4","56","1","","100","","","30"
"","psychophysics","126","642046","0.0-126.0","5fe1bda08bcb1fc65fe89d91","64de822296cc2d3c83b23ca2","","","","","2333",""," ","key"," ","16.677999999999468","500","250","inst","","","","","","",""
"","psychophysics","127","647071","0.0-127.0","5fe1bda08bcb1fc65fe89d91","64de822296cc2d3c83b23ca2","","","","","5020",""," ","key"," ","16.96081355932224","500","250","pz","79","1","1","22","","","57"
"","psychophysics","128","650898","0.0-128.0","5fe1bda08bcb1fc65fe89d91","64de822296cc2d3c83b23ca2","","","","","3810",""," ","key"," ","16.67815789473682","500","250","pz","54","1","1","49","","","43"
"","psychophysics","129","653957","0.0-129.0","5fe1bda08bcb1fc65fe89d91","64de822296cc2d3c83b23ca2","","","","","3038",""," ","key"," ","16.677704918032887","500","250","pz","51","1","1","49","","","38"
"","psychophysics","130","658946","0.0-130.0","5fe1bda08bcb1fc65fe89d91","64de822296cc2d3c83b23ca2","","","","","4962",""," ","key"," ","16.678255033557033","500","250","pz","53","1","1","37","","","41"
"","psychophysics","131","662543","0.0-131.0","5fe1bda08bcb1fc65fe89d91","64de822296cc2d3c83b23ca2","","","","","3569",""," ","key"," ","16.67803738317746","500","250","pz","45","1","1","36","","","37"
"","psychophysics","132","666541","0.0-132.0","5fe1bda08bcb1fc65fe89d91","64de822296cc2d3c83b23ca2","","","","","3974",""," ","key"," ","16.890084745762948","500","250","pz","66","1","1","23","","","49"
"","psychophysics","133","670701","0.0-133.0","5fe1bda08bcb1fc65fe89d91","64de822296cc2d3c83b23ca2","","","","","4135",""," ","key"," ","16.677991967871748","500","250","pz","52","1","1","41","","","41"
"","psychophysics","134","675570","0.0-134.0","5fe1bda08bcb1fc65fe89d91","64de822296cc2d3c83b23ca2","","","","","4839",""," ","key"," ","16.678144329897194","500","250","pz","58","1","1","37","","","48"
"","psychophysics","135","678870","0.0-135.0","5fe1bda08bcb1fc65fe89d91","64de822296cc2d3c83b23ca2","","","","","3294",""," ","key"," ","16.678163265306335","500","250","pz","52","1","1","39","","","29"
"","psychophysics","136","683923","0.0-136.0","5fe1bda08bcb1fc65fe89d91","64de822296cc2d3c83b23ca2","","","","","5031",""," ","key"," ","16.73348837209273","500","250","pz","69","1","1","27","","","55"
"","psychophysics","137","688109","0.0-137.0","5fe1bda08bcb1fc65fe89d91","64de822296cc2d3c83b23ca2","","","","","4155",""," ","key"," ","16.880647773279428","500","250","pz","40","1","1","48","","","31"
"","psychophysics","138","691299","0.0-138.0","5fe1bda08bcb1fc65fe89d91","64de822296cc2d3c83b23ca2","","","","","3165",""," ","key"," ","16.67801047120419","500","250","pz","37","1","1","40","","","27"
"","psychophysics","139","693734","0.0-139.0","5fe1bda08bcb1fc65fe89d91","64de822296cc2d3c83b23ca2","","","","","2412",""," ","key"," ","16.67806896551689","500","250","pz","34","1","1","37","","","25"
"","psychophysics","140","697937","0.0-140.0","5fe1bda08bcb1fc65fe89d91","64de822296cc2d3c83b23ca2","","","","","4199",""," ","key"," ","16.74506024096393","500","250","pz","41","1","1","27","","","39"
"","psychophysics","141","699932","0.0-141.0","5fe1bda08bcb1fc65fe89d91","64de822296cc2d3c83b23ca2","","","","","1959",""," ","key"," ","16.963247863247464","500","250","pz","51","1","1","55","","","42"
"","psychophysics","142","700899","0.0-142.0","5fe1bda08bcb1fc65fe89d91","64de822296cc2d3c83b23ca2","","","","","914",""," ","key"," ","17.283999999999914","500","250","inst","","","","","","",""
"","psychophysics","143","705726","0.0-143.0","5fe1bda08bcb1fc65fe89d91","64de822296cc2d3c83b23ca2","","","","","4800",""," ","key"," ","17.031731448763185","500","250","instZol1","0.10000000000000003","","","-1.3","0","0",""
"","psychophysics","144","711245","0.0-144.0","5fe1bda08bcb1fc65fe89d91","64de822296cc2d3c83b23ca2","","","","","5504",""," ","key"," ","16.67811550152004","500","250","instZol2","-0.7999999999999993","2","","2","0","0",""
"","psychophysics","145","713083","0.0-145.0","5fe1bda08bcb1fc65fe89d91","64de822296cc2d3c83b23ca2","","","","","1815",""," ","key"," ","16.831376146788948","500","250","inst","","","","","","",""
"","psychophysics","146","718980","0.0-146.0","5fe1bda08bcb1fc65fe89d91","64de822296cc2d3c83b23ca2","","","","","5870",""," ","key"," ","16.678124999999866","500","250","zol","-0.39","2","1","-0.21","17","10",""
"","psychophysics","147","724303","0.0-147.0","5fe1bda08bcb1fc65fe89d91","64de822296cc2d3c83b23ca2","","","","","5289",""," ","key"," ","16.730188679245135","500","250","zol","-0.48","2","1","-0.42","13","-22",""
"","psychophysics","148","729668","0.0-148.0","5fe1bda08bcb1fc65fe89d91","64de822296cc2d3c83b23ca2","","","","","5361",""," ","key"," ","16.678312499999812","500","250","zol","-0.47","2","1","-0.13","-8","-7",""
"","psychophysics","149","732609","0.0-149.0","5fe1bda08bcb1fc65fe89d91","64de822296cc2d3c83b23ca2","","","","","2902",""," ","key"," ","16.678068181817995","500","250","zol","-0.5499999999999999","2","1","0.35","16","2",""
"","psychophysics","150","736528","0.0-150.0","5fe1bda08bcb1fc65fe89d91","64de822296cc2d3c83b23ca2","","","","","3914",""," ","key"," ","16.749871244635074","500","250","zol","-0.63","2","1","-0.27","-5","25",""
"","psychophysics","151","740366","0.0-151.0","5fe1bda08bcb1fc65fe89d91","64de822296cc2d3c83b23ca2","","","","","3833",""," ","key"," ","16.677729257642227","500","250","zol","-0.57","2","1","0.17","29","4",""
"","psychophysics","152","744030","0.0-152.0","5fe1bda08bcb1fc65fe89d91","64de822296cc2d3c83b23ca2","","","","","3662",""," ","key"," ","16.67798165137636","500","250","zol","-0.6500000000000001","2","1","0.45","-28","4",""
"","psychophysics","153","748770","0.0-153.0","5fe1bda08bcb1fc65fe89d91","64de822296cc2d3c83b23ca2","","","","","4715",""," ","key"," ","16.67823943662011","500","250","zol","-0.3400000000000001","2","1","-0.26","-13","9",""
"","psychophysics","154","752707","0.0-154.0","5fe1bda08bcb1fc65fe89d91","64de822296cc2d3c83b23ca2","","","","","3933",""," ","key"," ","16.678127659574407","500","250","zol","-0.5","2","1","0.7","-8","-19",""
"","psychophysics","155","757071","0.0-155.0","5fe1bda08bcb1fc65fe89d91","64de822296cc2d3c83b23ca2","","","","","4360",""," ","key"," ","16.678076923076656","500","250","zol","-0.59","2","1","-0.41","-24","12",""
"","psychophysics","156","761897","0.0-156.0","5fe1bda08bcb1fc65fe89d91","64de822296cc2d3c83b23ca2","","","","","4788",""," ","key"," ","16.735763888888968","500","250","zol","-0.72","2","1","-0.28","-12","-20",""
"","psychophysics","157","766132","0.0-157.0","5fe1bda08bcb1fc65fe89d91","64de822296cc2d3c83b23ca2","","","","","4231",""," ","key"," ","16.678181818182114","500","250","zol","-0.42000000000000004","2","1","-0.18","-18","15",""
"","psychophysics","158","772023","0.0-158.0","5fe1bda08bcb1fc65fe89d91","64de822296cc2d3c83b23ca2","","","","","5889",""," ","key"," ","16.678465909091095","500","250","zol","-0.7600000000000001","2","1","0.46","28","-6",""
"","psychophysics","159","776724","0.0-159.0","5fe1bda08bcb1fc65fe89d91","64de822296cc2d3c83b23ca2","","","","","4667",""," ","key"," ","16.677785714285815","500","250","zol","-0.36","2","1","-0.04","-23","29",""
"","psychophysics","160","780708","0.0-160.0","5fe1bda08bcb1fc65fe89d91","64de822296cc2d3c83b23ca2","","","","","3949",""," ","key"," ","16.677983193277253","500","250","zol","-0.56","2","1","0.56","-4","19",""
"","psychophysics","161","781642","0.0-161.0","5fe1bda08bcb1fc65fe89d91","64de822296cc2d3c83b23ca2","","","","","931",""," ","key"," ","16.678181818182665","500","250","inst","","","","","","",""
"","psychophysics","162","789817","0.0-162.0","5fe1bda08bcb1fc65fe89d91","64de822296cc2d3c83b23ca2","","","","","8172",""," ","key"," ","16.678159509202445","500","250","instBr3","-13","1","","40","0","0","300"
"","psychophysics","163","798685","0.0-163.0","5fe1bda08bcb1fc65fe89d91","64de822296cc2d3c83b23ca2","","","","","8865",""," ","key"," ","16.93371647509583","500","250","inst","","","","","","",""
"","psychophysics","164","805614","0.0-164.0","5fe1bda08bcb1fc65fe89d91","64de822296cc2d3c83b23ca2","","","","","6898",""," ","key"," ","16.758886198547316","500","250","br","-12","1","1","15","-9","27","214"
"","psychophysics","165","806247","0.0-165.0","5fe1bda08bcb1fc65fe89d91","64de822296cc2d3c83b23ca2","","","","","603",""," ","key"," ","16.677297297298807","500","250","br","23","1","1","23","-6","13","233"
"","psychophysics","166","811229","0.0-166.0","5fe1bda08bcb1fc65fe89d91","64de822296cc2d3c83b23ca2","","","","","4958",""," ","key"," ","16.677979797980143","500","250","br","-16","1","1","7","3","-21","299"
"","psychophysics","167","813680","0.0-167.0","5fe1bda08bcb1fc65fe89d91","64de822296cc2d3c83b23ca2","","","","","2420",""," ","key"," ","16.678493150684517","500","250","br","-16","1","1","-15","-1","11","239"
"","psychophysics","168","817868","0.0-168.0","5fe1bda08bcb1fc65fe89d91","64de822296cc2d3c83b23ca2","","","","","4182",""," ","key"," ","16.678080000000076","500","250","br","-10","1","1","21","-13","3","227"
"","psychophysics","169","822330","0.0-169.0","5fe1bda08bcb1fc65fe89d91","64de822296cc2d3c83b23ca2","","","","","4459",""," ","key"," ","16.677969924811908","500","250","br","-15","1","1","-21","20","19","228"
"","psychophysics","170","825884","0.0-170.0","5fe1bda08bcb1fc65fe89d91","64de822296cc2d3c83b23ca2","","","","","3541",""," ","key"," ","16.757251184834256","500","250","br","-11","1","1","14","9","20","290"
"","psychophysics","171","829673","0.0-171.0","5fe1bda08bcb1fc65fe89d91","64de822296cc2d3c83b23ca2","","","","","3755",""," ","key"," ","16.752177777777735","500","250","br","-16","1","1","-28","-19","27","212"
"","psychophysics","172","833412","0.0-172.0","5fe1bda08bcb1fc65fe89d91","64de822296cc2d3c83b23ca2","","","","","3710",""," ","key"," ","16.730852017937135","500","250","br","-14","1","1","12","0","17","237"
"","psychophysics","173","836468","0.0-173.0","5fe1bda08bcb1fc65fe89d91","64de822296cc2d3c83b23ca2","","","","","3052",""," ","key"," ","16.678571428571427","500","250","br","-9","1","1","6","-19","10","235"
"","psychophysics","174","839096","0.0-174.0","5fe1bda08bcb1fc65fe89d91","64de822296cc2d3c83b23ca2","","","","","2599",""," ","key"," ","16.677820512820453","500","250","br","-18","1","1","-23","-17","2","257"
"","psychophysics","175","841718","0.0-175.0","5fe1bda08bcb1fc65fe89d91","64de822296cc2d3c83b23ca2","","","","","2585",""," ","key"," ","16.678064516129634","500","250","br","-12","1","1","2","10","12","239"
"","psychophysics","176","845588","0.0-176.0","5fe1bda08bcb1fc65fe89d91","64de822296cc2d3c83b23ca2","","","","","3841",""," ","key"," ","16.823755458515343","500","250","br","-11","1","1","11","17","30","203"
"","psychophysics","177","847504","0.0-177.0","5fe1bda08bcb1fc65fe89d91","64de822296cc2d3c83b23ca2","","","","","1914",""," ","key"," ","16.67736842105341","500","250","br","-22","1","1","-23","-28","15","228"
"","psychophysics","178","850824","0.0-178.0","5fe1bda08bcb1fc65fe89d91","64de822296cc2d3c83b23ca2","","","","","3316",""," ","key"," ","16.678181818181958","500","250","br","-15","1","1","10","-28","-5","298"
"","psychophysics","179","852328","0.0-179.0","5fe1bda08bcb1fc65fe89d91","64de822296cc2d3c83b23ca2","","","","","1500",""," ","key"," ","16.678876404494854","500","250","inst","","","","","","",""
"","psychophysics","180","860081","0.0-180.0","5fe1bda08bcb1fc65fe89d91","64de822296cc2d3c83b23ca2","","","","","7740",""," ","key"," ","16.67818965517227","500","250","instEB1","31","1","","40","0","0","30"
"","psychophysics","181","864546","0.0-181.0","5fe1bda08bcb1fc65fe89d91","64de822296cc2d3c83b23ca2","","","","","4462",""," ","key"," ","16.804318181818058","500","250","instEB2","41","1","","30","0","0","40"
"","psychophysics","182","871608","0.0-182.0","5fe1bda08bcb1fc65fe89d91","64de822296cc2d3c83b23ca2","","","","","7042",""," ","key"," ","16.678014184396996","500","250","instEB3","39","1","","27","0","0","45"
"","psychophysics","183","878479","0.0-183.0","5fe1bda08bcb1fc65fe89d91","64de822296cc2d3c83b23ca2","","","","","6842",""," ","key"," ","16.67810218978091","500","250","instEB4","26","1","","40","0","0","30"
"","psychophysics","184","881124","0.0-184.0","5fe1bda08bcb1fc65fe89d91","64de822296cc2d3c83b23ca2","","","","","2644",""," ","key"," ","16.78471337579588","500","250","inst","","","","","","",""
"","psychophysics","185","884226","0.0-185.0","5fe1bda08bcb1fc65fe89d91","64de822296cc2d3c83b23ca2","","","","","3094",""," ","key"," ","17.43579545454519","500","250","eb","20","1","","24","0","0","25"
"","psychophysics","186","889851","0.0-186.0","5fe1bda08bcb1fc65fe89d91","64de822296cc2d3c83b23ca2","","","","","5587",""," ","key"," ","16.678160237388834","500","250","eb","43","1","","32","0","0","52"
"","psychophysics","187","893820","0.0-187.0","5fe1bda08bcb1fc65fe89d91","64de822296cc2d3c83b23ca2","","","","","3938",""," ","key"," ","16.678565400844157","500","250","eb","22","1","","26","0","0","25"
"","psychophysics","188","898510","0.0-188.0","5fe1bda08bcb1fc65fe89d91","64de822296cc2d3c83b23ca2","","","","","4686",""," ","key"," ","16.67785714285731","500","250","eb","44","1","","24","0","0","53"
"","psychophysics","189","901509","0.0-189.0","5fe1bda08bcb1fc65fe89d91","64de822296cc2d3c83b23ca2","","","","","2965",""," ","key"," ","16.677877094972537","500","250","eb","47","1","","35","0","0","52"
"","psychophysics","190","906357","0.0-190.0","5fe1bda08bcb1fc65fe89d91","64de822296cc2d3c83b23ca2","","","","","4842",""," ","key"," ","16.67820069204152","500","250","eb","32","1","","43","0","0","36"
"","psychophysics","191","909275","0.0-191.0","5fe1bda08bcb1fc65fe89d91","64de822296cc2d3c83b23ca2","","","","","2881",""," ","key"," ","16.774335260115393","500","250","eb","22","1","","27","0","0","28"
"","psychophysics","192","913344","0.0-192.0","5fe1bda08bcb1fc65fe89d91","64de822296cc2d3c83b23ca2","","","","","4036",""," ","key"," ","16.679094650205837","500","250","eb","35","1","","41","0","0","45"
"","psychophysics","193","915920","0.0-193.0","5fe1bda08bcb1fc65fe89d91","64de822296cc2d3c83b23ca2","","","","","2552",""," ","key"," ","16.676493506493838","500","250","eb","33","1","","37","0","0","41"
"","psychophysics","194","921540","0.0-194.0","5fe1bda08bcb1fc65fe89d91","64de822296cc2d3c83b23ca2","","","","","5617",""," ","key"," ","16.678452380952617","500","250","eb","36","1","","39","0","0","43"
"","psychophysics","195","925326","0.0-195.0","5fe1bda08bcb1fc65fe89d91","64de822296cc2d3c83b23ca2","","","","","3783",""," ","key"," ","16.67761061946909","500","250","eb","46","1","","42","0","0","53"
"","psychophysics","196","927754","0.0-196.0","5fe1bda08bcb1fc65fe89d91","64de822296cc2d3c83b23ca2","","","","","2387",""," ","key"," ","16.795804195803708","500","250","eb","44","1","","46","0","0","50"
"","psychophysics","197","932142","0.0-197.0","5fe1bda08bcb1fc65fe89d91","64de822296cc2d3c83b23ca2","","","","","4364",""," ","key"," ","16.66992366412221","500","250","eb","21","1","","39","0","0","26"
"","psychophysics","198","934532","0.0-198.0","5fe1bda08bcb1fc65fe89d91","64de822296cc2d3c83b23ca2","","","","","2364",""," ","key"," ","16.678041958042513","500","250","eb","28","1","","30","0","0","35"
"","psychophysics","199","936880","0.0-199.0","5fe1bda08bcb1fc65fe89d91","64de822296cc2d3c83b23ca2","","","","","2343",""," ","key"," ","16.678129496402946","500","250","eb","34","1","","39","0","0","42"
"","psychophysics","200","937962","0.0-200.0","5fe1bda08bcb1fc65fe89d91","64de822296cc2d3c83b23ca2","","","","","1060",""," ","key"," ","16.677230769231056","500","250","inst","","","","","","",""
"","psychophysics","201","942452","0.0-201.0","5fe1bda08bcb1fc65fe89d91","64de822296cc2d3c83b23ca2","","","","","4488",""," ","key"," ","16.678358208954965","500","250","instPog0","160","1","","190","0","0","160"
"","psychophysics","202","947992","0.0-202.0","5fe1bda08bcb1fc65fe89d91","64de822296cc2d3c83b23ca2","","","","","5535",""," ","key"," ","16.830609756097747","500","250","instPog1","164","1","","190","0","0","160"
"","psychophysics","203","951777","0.0-203.0","5fe1bda08bcb1fc65fe89d91","64de822296cc2d3c83b23ca2","","","","","3764",""," ","key"," ","16.67795555555572","500","250","instPog2","164","1","","160","0","0","160"
"","psychophysics","204","953128","0.0-204.0","5fe1bda08bcb1fc65fe89d91","64de822296cc2d3c83b23ca2","","","","","1332",""," ","key"," ","16.677999999999884","500","250","inst","","","","","","",""
"","psychophysics","205","958381","0.0-205.0","5fe1bda08bcb1fc65fe89d91","64de822296cc2d3c83b23ca2","","","","","5235",""," ","key"," ","16.678662420382093","500","250","pog","160","1","1","192","0","0","146"
"","psychophysics","206","962298","0.0-206.0","5fe1bda08bcb1fc65fe89d91","64de822296cc2d3c83b23ca2","","","","","3913",""," ","key"," ","16.700512820513","500","250","pog","164","1","1","184","0","0","159"
"","psychophysics","207","967341","0.0-207.0","5fe1bda08bcb1fc65fe89d91","64de822296cc2d3c83b23ca2","","","","","5039",""," ","key"," ","16.733866666666774","500","250","pog","179","1","1","105","0","0","173"
"","psychophysics","208","973586","0.0-208.0","5fe1bda08bcb1fc65fe89d91","64de822296cc2d3c83b23ca2","","","","","6203",""," ","key"," ","16.813243243243306","500","250","pog","153","1","1","215","0","0","138"
"","psychophysics","209","978224","0.0-209.0","5fe1bda08bcb1fc65fe89d91","64de822296cc2d3c83b23ca2","","","","","4617",""," ","key"," ","16.678194945848325","500","250","pog","189","1","1","101","0","0","185"
"","psychophysics","210","980748","0.0-210.0","5fe1bda08bcb1fc65fe89d91","64de822296cc2d3c83b23ca2","","","","","2505",""," ","key"," ","16.78946666666617","500","250","pog","195","1","1","179","0","0","188"
"","psychophysics","211","986070","0.0-211.0","5fe1bda08bcb1fc65fe89d91","64de822296cc2d3c83b23ca2","","","","","5288",""," ","key"," ","16.730788643533227","500","250","pog","146","1","1","102","0","0","139"
"","psychophysics","212","989297","0.0-212.0","5fe1bda08bcb1fc65fe89d91","64de822296cc2d3c83b23ca2","","","","","3188",""," ","key"," ","16.765026178010448","500","250","pog","162","1","1","140","0","0","160"
"","psychophysics","213","991767","0.0-213.0","5fe1bda08bcb1fc65fe89d91","64de822296cc2d3c83b23ca2","","","","","2443",""," ","key"," ","16.678095238094794","500","250","pog","176","1","1","178","0","0","168"
"","psychophysics","214","996833","0.0-214.0","5fe1bda08bcb1fc65fe89d91","64de822296cc2d3c83b23ca2","","","","","5043",""," ","key"," ","16.67796052631571","500","250","pog","204","1","1","104","0","0","197"
"","psychophysics","215","998225","0.0-215.0","5fe1bda08bcb1fc65fe89d91","64de822296cc2d3c83b23ca2","","","","","1387",""," ","key"," ","16.678780487803856","500","250","pog","156","1","1","152","0","0","150"
"","psychophysics","216","1000263","0.0-216.0","5fe1bda08bcb1fc65fe89d91","64de822296cc2d3c83b23ca2","","","","","2032",""," ","key"," ","17.101864406779818","500","250","pog","129","1","1","131","0","0","120"
"","psychophysics","217","1002345","0.0-217.0","5fe1bda08bcb1fc65fe89d91","64de822296cc2d3c83b23ca2","","","","","2049",""," ","key"," ","16.678387096774156","500","250","pog","208","1","1","204","0","0","199"
"","psychophysics","218","1007352","0.0-218.0","5fe1bda08bcb1fc65fe89d91","64de822296cc2d3c83b23ca2","","","","","4977",""," ","key"," ","16.790774410774365","500","250","pog","163","1","1","105","0","0","145"
"","psychophysics","219","1010414","0.0-219.0","5fe1bda08bcb1fc65fe89d91","64de822296cc2d3c83b23ca2","","","","","3016",""," ","key"," ","16.677472527472784","500","250","pog","166","1","1","150","0","0","153"
