"success","trial_type","trial_index","time_elapsed","internal_node_id","pid","sid","timeout","failed_images","failed_audio","failed_video","rt","stimulus","response","response_type","key_press","avg_frame_time","center_x","center_y","task","resp","version","block","jitterX","jitterY","start","parA"
"true","fullscreen","0","119363","0.0-0.0","614f89c684db5a8edbbd8ab8","64de7e890fb366e7dc8c0322","","","","","","","","","","","","","","","","","","","",""
"true","preload","1","119603","0.0-1.0","614f89c684db5a8edbbd8ab8","64de7e890fb366e7dc8c0322","false","[]","[]","[]","","","","","","","","","","","","","","","",""
"","html-button-response","2","120847","0.0-2.0","614f89c684db5a8edbbd8ab8","64de7e890fb366e7dc8c0322","","","","","1243","Please Make Sure Your Audio Is On.","0","","","","","","","","","","","","",""
"","psychophysics","3","145562","0.0-3.0","614f89c684db5a8edbbd8ab8","64de7e890fb366e7dc8c0322","","","","","24697",""," ","key"," ","16.649958894878708","720","250","","","","","","","",""
"","psychophysics","4","149348","0.0-4.0","614f89c684db5a8edbbd8ab8","64de7e890fb366e7dc8c0322","","","","","3785",""," ","key"," ","16.654999999999994","500","250","inst","","","","","","",""
"","psychophysics","5","152346","0.0-5.0","614f89c684db5a8edbbd8ab8","64de7e890fb366e7dc8c0322","","","","","2996",""," ","key"," ","16.654999999999973","500","250","sample0","","","","","","",""
"","psychophysics","6","153895","0.0-6.0","614f89c684db5a8edbbd8ab8","64de7e890fb366e7dc8c0322","","","","","1547",""," ","key"," ","16.6550000000001","500","250","sample1","","","","","","",""
"","psychophysics","7","167655","0.0-7.0","614f89c684db5a8edbbd8ab8","64de7e890fb366e7dc8c0322","","","","","13752",""," ","key"," ","16.6716715151515","500","250","sample2","102","","","","","",""
"","psychophysics","8","173783","0.0-8.0","614f89c684db5a8edbbd8ab8","64de7e890fb366e7dc8c0322","","","","","6126",""," ","key"," ","16.65500000000003","500","250","sample3","100","","","","","",""
"","psychophysics","9","183054","0.0-9.0","614f89c684db5a8edbbd8ab8","64de7e890fb366e7dc8c0322","","","","","9267",""," ","key"," ","16.66737410071942","500","250","sample4","102","","","","","",""
"","psychophysics","10","190988","0.0-10.0","614f89c684db5a8edbbd8ab8","64de7e890fb366e7dc8c0322","","","","","7930",""," ","key"," ","16.669484210526324","500","250","sample5","","","","","","",""
"","psychophysics","11","201972","0.0-11.0","614f89c684db5a8edbbd8ab8","64de7e890fb366e7dc8c0322","","","","","10981",""," ","key"," ","16.66547112462007","500","250","sample6","500","","","","","",""
"","psychophysics","12","206063","0.0-12.0","614f89c684db5a8edbbd8ab8","64de7e890fb366e7dc8c0322","","","","","4089",""," ","key"," ","16.683143442622974","500","250","inst","","","","","","",""
"","psychophysics","13","210434","0.0-13.0","614f89c684db5a8edbbd8ab8","64de7e890fb366e7dc8c0322","","","","","4369",""," ","key"," ","16.65499999999995","500","250","inst","","","","","","",""
"","psychophysics","14","213742","0.0-14.0","614f89c684db5a8edbbd8ab8","64de7e890fb366e7dc8c0322","","","","","3300",""," ","key"," ","16.655000000000012","500","250","inst","","","","","","",""
"","psychophysics","15","215961","0.0-15.0","614f89c684db5a8edbbd8ab8","64de7e890fb366e7dc8c0322","","","","","2216",""," ","key"," ","16.707250000000137","500","250","inst","","","","","","",""
"","psychophysics","16","217439","0.0-16.0","614f89c684db5a8edbbd8ab8","64de7e890fb366e7dc8c0322","","","","","1476",""," ","key"," ","16.654999999999827","500","250","inst","","","","","","",""
"","psychophysics","17","221040","0.0-17.0","614f89c684db5a8edbbd8ab8","64de7e890fb366e7dc8c0322","","","","","3599",""," ","key"," ","16.655000000000054","500","250","instBr0","0","","","0","0","0","300"
"","psychophysics","18","233416","0.0-18.0","614f89c684db5a8edbbd8ab8","64de7e890fb366e7dc8c0322","","","","","12374",""," ","key"," ","16.664264507422402","500","250","instBr1","-2","","","0","0","-40","300"
"","psychophysics","19","243733","0.0-19.0","614f89c684db5a8edbbd8ab8","64de7e890fb366e7dc8c0322","","","","","10307",""," ","key"," ","16.66611954765748","500","250","instBr3","-4","1","","0","0","40","300"
"","psychophysics","20","246606","0.0-20.0","614f89c684db5a8edbbd8ab8","64de7e890fb366e7dc8c0322","","","","","2870",""," ","key"," ","16.695228070175386","500","250","inst","","","","","","",""
"","psychophysics","21","252012","0.0-21.0","614f89c684db5a8edbbd8ab8","64de7e890fb366e7dc8c0322","","","","","5401",""," ","key"," ","16.65500000000001","500","250","br","-9","1","0","29","-11","-5","294"
"","psychophysics","22","259035","0.0-22.0","614f89c684db5a8edbbd8ab8","64de7e890fb366e7dc8c0322","","","","","7021",""," ","key"," ","16.651486935866945","500","250","br","-6","1","0","19","8","28","284"
"","psychophysics","23","263582","0.0-23.0","614f89c684db5a8edbbd8ab8","64de7e890fb366e7dc8c0322","","","","","4544",""," ","key"," ","16.65500000000012","500","250","br","-7","1","0","-6","-29","22","264"
"","psychophysics","24","267559","0.0-24.0","614f89c684db5a8edbbd8ab8","64de7e890fb366e7dc8c0322","","","","","3974",""," ","key"," ","16.683987341772074","500","250","br","-14","1","0","-3","-28","-16","232"
"","psychophysics","25","275563","0.0-25.0","614f89c684db5a8edbbd8ab8","64de7e890fb366e7dc8c0322","","","","","null","","null","key","null","16.66938830897701","500","250","br","-14","1","0","-20","1","16","274"
"","psychophysics","26","279946","0.0-26.0","614f89c684db5a8edbbd8ab8","64de7e890fb366e7dc8c0322","","","","","4380",""," ","key"," ","16.655000000000054","500","250","br","-23","1","0","-18","14","-28","240"
"","psychophysics","27","284433","0.0-27.0","614f89c684db5a8edbbd8ab8","64de7e890fb366e7dc8c0322","","","","","4483",""," ","key"," ","16.654999999999923","500","250","br","-14","1","0","-15","-7","-22","228"
"","psychophysics","28","289146","0.0-28.0","614f89c684db5a8edbbd8ab8","64de7e890fb366e7dc8c0322","","","","","4711",""," ","key"," ","16.679375886524728","500","250","br","-12","1","0","18","23","8","269"
"","psychophysics","29","292850","0.0-29.0","614f89c684db5a8edbbd8ab8","64de7e890fb366e7dc8c0322","","","","","3700",""," ","key"," ","16.655000000000022","500","250","br","-13","1","0","18","2","-2","227"
"","psychophysics","30","297809","0.0-30.0","614f89c684db5a8edbbd8ab8","64de7e890fb366e7dc8c0322","","","","","4956",""," ","key"," ","16.678287162162313","500","250","br","-12","1","0","26","14","8","240"
"","psychophysics","31","301015","0.0-31.0","614f89c684db5a8edbbd8ab8","64de7e890fb366e7dc8c0322","","","","","3203",""," ","key"," ","16.655000000000047","500","250","br","-13","1","0","21","-9","-1","223"
"","psychophysics","32","306438","0.0-32.0","614f89c684db5a8edbbd8ab8","64de7e890fb366e7dc8c0322","","","","","5420",""," ","key"," ","16.676234567901343","500","250","br","-8","1","0","-21","21","18","293"
"","psychophysics","33","312196","0.0-33.0","614f89c684db5a8edbbd8ab8","64de7e890fb366e7dc8c0322","","","","","5754",""," ","key"," ","16.6550000000001","500","250","br","-13","1","0","-14","28","21","240"
"","psychophysics","34","315091","0.0-34.0","614f89c684db5a8edbbd8ab8","64de7e890fb366e7dc8c0322","","","","","2893",""," ","key"," ","16.695023255813922","500","250","br","-23","1","0","-17","-15","-28","204"
"","psychophysics","35","319571","0.0-35.0","614f89c684db5a8edbbd8ab8","64de7e890fb366e7dc8c0322","","","","","4477",""," ","key"," ","16.654999999999923","500","250","br","-10","1","0","25","10","2","248"
"","psychophysics","36","325234","0.0-36.0","614f89c684db5a8edbbd8ab8","64de7e890fb366e7dc8c0322","","","","","5662",""," ","key"," ","16.654899705014746","500","250","inst","","","","","","",""
"","psychophysics","37","329758","0.0-37.0","614f89c684db5a8edbbd8ab8","64de7e890fb366e7dc8c0322","","","","","4522",""," ","key"," ","16.65500000000002","500","250","instZol0","0","","","0","0","0",""
"","psychophysics","38","345459","0.0-38.0","614f89c684db5a8edbbd8ab8","64de7e890fb366e7dc8c0322","","","","","15699",""," ","key"," ","16.66961636556854","500","250","instZol1","2.7755575615628914e-17","","","0","0","-1.3",""
"","psychophysics","39","371915","0.0-39.0","614f89c684db5a8edbbd8ab8","64de7e890fb366e7dc8c0322","","","","","26454",""," ","key"," ","16.663676748582233","500","250","instZol2","1.500000000000001","1","","0","0","2",""
"","psychophysics","40","373379","0.0-40.0","614f89c684db5a8edbbd8ab8","64de7e890fb366e7dc8c0322","","","","","1462",""," ","key"," ","16.654999999999514","500","250","inst","","","","","","",""
"","psychophysics","41","379008","0.0-41.0","614f89c684db5a8edbbd8ab8","64de7e890fb366e7dc8c0322","","","","","5617",""," ","key"," ","16.675382789317485","500","250","zol","0.41000000000000003","1","0","-22","-17","0.49",""
"","psychophysics","42","385214","0.0-42.0","614f89c684db5a8edbbd8ab8","64de7e890fb366e7dc8c0322","","","","","6201",""," ","key"," ","16.673522911051155","500","250","zol","0.9999999999999999","1","0","-15","-25","0.1",""
"","psychophysics","43","390949","0.0-43.0","614f89c684db5a8edbbd8ab8","64de7e890fb366e7dc8c0322","","","","","5729",""," ","key"," ","16.654999999999852","500","250","zol","1.4300000000000004","1","0","26","-30","0.17",""
"","psychophysics","44","397400","0.0-44.0","614f89c684db5a8edbbd8ab8","64de7e890fb366e7dc8c0322","","","","","6381",""," ","key"," ","16.673015706806293","500","250","zol","1.17","1","0","-1","-25","0.53",""
"","psychophysics","45","405269","0.0-45.0","614f89c684db5a8edbbd8ab8","64de7e890fb366e7dc8c0322","","","","","7866",""," ","key"," ","16.669653927813176","500","250","zol","1.2200000000000002","1","0","-7","2","-0.72",""
"","psychophysics","46","412728","0.0-46.0","614f89c684db5a8edbbd8ab8","64de7e890fb366e7dc8c0322","","","","","7455",""," ","key"," ","16.655000000000012","500","250","zol","1.2200000000000002","1","0","-1","1","0.38",""
"","psychophysics","47","417941","0.0-47.0","614f89c684db5a8edbbd8ab8","64de7e890fb366e7dc8c0322","","","","","5207",""," ","key"," ","16.677019230769357","500","250","zol","0.7899999999999999","1","0","-21","0","0.71",""
"","psychophysics","48","425946","0.0-48.0","614f89c684db5a8edbbd8ab8","64de7e890fb366e7dc8c0322","","","","","null","","null","key","null","16.66937578288099","500","250","zol","1.8000000000000003","1","0","-30","-26","-0.3",""
"","psychophysics","49","431271","0.0-49.0","614f89c684db5a8edbbd8ab8","64de7e890fb366e7dc8c0322","","","","","5319",""," ","key"," ","16.655000000000022","500","250","zol","1.8600000000000008","1","0","-3","1","-0.66",""
"","psychophysics","50","435706","0.0-50.0","614f89c684db5a8edbbd8ab8","64de7e890fb366e7dc8c0322","","","","","4431",""," ","key"," ","16.680928301886777","500","250","zol","1.1300000000000001","1","0","17","-9","-0.03",""
"","psychophysics","51","442481","0.0-51.0","614f89c684db5a8edbbd8ab8","64de7e890fb366e7dc8c0322","","","","","6773",""," ","key"," ","16.654999999999983","500","250","zol","0.9799999999999999","1","0","26","28","0.52",""
"","psychophysics","52","448608","0.0-52.0","614f89c684db5a8edbbd8ab8","64de7e890fb366e7dc8c0322","","","","","6121",""," ","key"," ","16.673827868852577","500","250","zol","1.5100000000000005","1","0","-2","-19","0.29",""
"","psychophysics","53","451894","0.0-53.0","614f89c684db5a8edbbd8ab8","64de7e890fb366e7dc8c0322","","","","","3282",""," ","key"," ","16.655000000000022","500","250","zol","1.6800000000000004","1","0","23","24","-0.18",""
"","psychophysics","54","457756","0.0-54.0","614f89c684db5a8edbbd8ab8","64de7e890fb366e7dc8c0322","","","","","5855",""," ","key"," ","16.674552706552653","500","250","zol","1.4900000000000002","1","0","-9","19","0.01",""
"","psychophysics","55","463077","0.0-55.0","614f89c684db5a8edbbd8ab8","64de7e890fb366e7dc8c0322","","","","","5317",""," ","key"," ","16.65500000000012","500","250","zol","1.37","1","0","-18","-10","0.63",""
"","psychophysics","56","463888","0.0-56.0","614f89c684db5a8edbbd8ab8","64de7e890fb366e7dc8c0322","","","","","808",""," ","key"," ","16.655000000000047","500","250","inst","","","","","","",""
"","psychophysics","57","474289","0.0-57.0","614f89c684db5a8edbbd8ab8","64de7e890fb366e7dc8c0322","","","","","10398",""," ","key"," ","16.649862179487126","500","250","instPog0","340","2","","0","0","370","340"
"","psychophysics","58","485147","0.0-58.0","614f89c684db5a8edbbd8ab8","64de7e890fb366e7dc8c0322","","","","","10855",""," ","key"," ","16.665570769230747","500","250","instPog1","336","2","","0","0","370","340"
"","psychophysics","59","493114","0.0-59.0","614f89c684db5a8edbbd8ab8","64de7e890fb366e7dc8c0322","","","","","7963",""," ","key"," ","16.669419287211667","500","250","instPog2","326","2","","0","0","340","340"
"","psychophysics","60","494782","0.0-60.0","614f89c684db5a8edbbd8ab8","64de7e890fb366e7dc8c0322","","","","","1666",""," ","key"," ","16.654999999999717","500","250","inst","","","","","","",""
"","psychophysics","61","498849","0.0-61.0","614f89c684db5a8edbbd8ab8","64de7e890fb366e7dc8c0322","","","","","4063",""," ","key"," ","16.683292181069874","500","250","pog","354","2","0","0","0","388","365"
"","psychophysics","62","503225","0.0-62.0","614f89c684db5a8edbbd8ab8","64de7e890fb366e7dc8c0322","","","","","4373",""," ","key"," ","16.654999999999948","500","250","pog","331","2","0","0","0","363","345"
"","psychophysics","63","511228","0.0-63.0","614f89c684db5a8edbbd8ab8","64de7e890fb366e7dc8c0322","","","","","null","","null","key","null","16.647469728601326","500","250","pog","286","2","0","0","0","348","302"
"","psychophysics","64","515070","0.0-64.0","614f89c684db5a8edbbd8ab8","64de7e890fb366e7dc8c0322","","","","","3837",""," ","key"," ","16.6550000000001","500","250","pog","315","2","0","0","0","325","331"
"","psychophysics","65","522765","0.0-65.0","614f89c684db5a8edbbd8ab8","64de7e890fb366e7dc8c0322","","","","","7685",""," ","key"," ","16.66991540130153","500","250","pog","317","2","0","0","0","315","346"
"","psychophysics","66","530770","0.0-66.0","614f89c684db5a8edbbd8ab8","64de7e890fb366e7dc8c0322","","","","","null","","null","key","null","16.652054279749546","500","250","pog","287","2","0","0","0","387","315"
"","psychophysics","67","538780","0.0-67.0","614f89c684db5a8edbbd8ab8","64de7e890fb366e7dc8c0322","","","","","null","","null","key","null","16.669325000000146","500","250","pog","324","2","0","0","0","288","354"
"","psychophysics","68","545828","0.0-68.0","614f89c684db5a8edbbd8ab8","64de7e890fb366e7dc8c0322","","","","","7046",""," ","key"," ","16.671303317535358","500","250","pog","289","2","0","0","0","321","311"
"","psychophysics","69","548408","0.0-69.0","614f89c684db5a8edbbd8ab8","64de7e890fb366e7dc8c0322","","","","","2578",""," ","key"," ","16.65499999999997","500","250","pog","311","2","0","0","0","309","340"
"","psychophysics","70","554718","0.0-70.0","614f89c684db5a8edbbd8ab8","64de7e890fb366e7dc8c0322","","","","","6308",""," ","key"," ","16.654999999999912","500","250","pog","275","2","0","0","0","329","303"
"","psychophysics","71","561299","0.0-71.0","614f89c684db5a8edbbd8ab8","64de7e890fb366e7dc8c0322","","","","","6578",""," ","key"," ","16.672486005089088","500","250","pog","332","2","0","0","0","372","352"
"","psychophysics","72","565349","0.0-72.0","614f89c684db5a8edbbd8ab8","64de7e890fb366e7dc8c0322","","","","","4046",""," ","key"," ","16.654999999999557","500","250","pog","339","2","0","0","0","333","365"
"","psychophysics","73","572732","0.0-73.0","614f89c684db5a8edbbd8ab8","64de7e890fb366e7dc8c0322","","","","","7381",""," ","key"," ","16.654999999999756","500","250","pog","292","2","0","0","0","388","310"
"","psychophysics","74","577979","0.0-74.0","614f89c684db5a8edbbd8ab8","64de7e890fb366e7dc8c0322","","","","","5243",""," ","key"," ","16.67687579617831","500","250","pog","295","2","0","0","0","331","312"
"","psychophysics","75","581658","0.0-75.0","614f89c684db5a8edbbd8ab8","64de7e890fb366e7dc8c0322","","","","","3676",""," ","key"," ","16.654999999999895","500","250","pog","359","2","0","0","0","367","373"
"","psychophysics","76","582399","0.0-76.0","614f89c684db5a8edbbd8ab8","64de7e890fb366e7dc8c0322","","","","","739",""," ","key"," ","16.655000000000868","500","250","inst","","","","","","",""
"","psychophysics","77","585595","0.0-77.0","614f89c684db5a8edbbd8ab8","64de7e890fb366e7dc8c0322","","","","","3189",""," ","key"," ","16.691005235602493","500","250","instEB0","40","2","","0","0","40","40"
"","psychophysics","78","591649","0.0-78.0","614f89c684db5a8edbbd8ab8","64de7e890fb366e7dc8c0322","","","","","6051",""," ","key"," ","16.654999999999962","500","250","instEB1","41","2","","0","0","30","40"
"","psychophysics","79","601062","0.0-79.0","614f89c684db5a8edbbd8ab8","64de7e890fb366e7dc8c0322","","","","","9406",""," ","key"," ","16.66720390070935","500","250","instEB2","37","2","","0","0","40","30"
"","psychophysics","80","610770","0.0-80.0","614f89c684db5a8edbbd8ab8","64de7e890fb366e7dc8c0322","","","","","9706",""," ","key"," ","16.66680068728519","500","250","instEB3","36","2","","0","0","45","27"
"","psychophysics","81","621127","0.0-81.0","614f89c684db5a8edbbd8ab8","64de7e890fb366e7dc8c0322","","","","","10353",""," ","key"," ","16.66609838709682","500","250","instEB4","53","2","","0","0","30","40"
"","psychophysics","82","624322","0.0-82.0","614f89c684db5a8edbbd8ab8","64de7e890fb366e7dc8c0322","","","","","3193",""," ","key"," ","16.6549999999999","500","250","inst","","","","","","",""
"","psychophysics","83","628457","0.0-83.0","614f89c684db5a8edbbd8ab8","64de7e890fb366e7dc8c0322","","","","","4132",""," ","key"," ","16.682821862348206","500","250","eb","36","2","","0","0","26","25"
"","psychophysics","84","635453","0.0-84.0","614f89c684db5a8edbbd8ab8","64de7e890fb366e7dc8c0322","","","","","6993",""," ","key"," ","16.654999999999877","500","250","eb","58","2","","0","0","42","50"
"","psychophysics","85","641927","0.0-85.0","614f89c684db5a8edbbd8ab8","64de7e890fb366e7dc8c0322","","","","","6471",""," ","key"," ","16.654999999999966","500","250","eb","61","2","","0","0","42","52"
"","psychophysics","86","644214","0.0-86.0","614f89c684db5a8edbbd8ab8","64de7e890fb366e7dc8c0322","","","","","2283",""," ","key"," ","16.654999999999692","500","250","eb","45","2","","0","0","44","35"
"","psychophysics","87","647431","0.0-87.0","614f89c684db5a8edbbd8ab8","64de7e890fb366e7dc8c0322","","","","","3215",""," ","key"," ","16.690864583333678","500","250","eb","48","2","","0","0","47","37"
"","psychophysics","88","651055","0.0-88.0","614f89c684db5a8edbbd8ab8","64de7e890fb366e7dc8c0322","","","","","3619",""," ","key"," ","16.655000000000044","500","250","eb","48","2","","0","0","49","42"
"","psychophysics","89","656218","0.0-89.0","614f89c684db5a8edbbd8ab8","64de7e890fb366e7dc8c0322","","","","","5160",""," ","key"," ","16.638326860841477","500","250","eb","56","2","","0","0","34","47"
"","psychophysics","90","660331","0.0-90.0","614f89c684db5a8edbbd8ab8","64de7e890fb366e7dc8c0322","","","","","4109",""," ","key"," ","16.65500000000002","500","250","eb","31","2","","0","0","27","25"
"","psychophysics","91","666073","0.0-91.0","614f89c684db5a8edbbd8ab8","64de7e890fb366e7dc8c0322","","","","","5739",""," ","key"," ","16.675075801749546","500","250","eb","32","2","","0","0","39","25"
"","psychophysics","92","671182","0.0-92.0","614f89c684db5a8edbbd8ab8","64de7e890fb366e7dc8c0322","","","","","5106",""," ","key"," ","16.655000000000168","500","250","eb","49","2","","0","0","46","39"
"","psychophysics","93","677090","0.0-93.0","614f89c684db5a8edbbd8ab8","64de7e890fb366e7dc8c0322","","","","","5905",""," ","key"," ","16.67446742209615","500","250","eb","50","2","","0","0","27","36"
"","psychophysics","94","680969","0.0-94.0","614f89c684db5a8edbbd8ab8","64de7e890fb366e7dc8c0322","","","","","3872",""," ","key"," ","16.654999999999838","500","250","eb","53","2","","0","0","35","41"
"","psychophysics","95","685297","0.0-95.0","614f89c684db5a8edbbd8ab8","64de7e890fb366e7dc8c0322","","","","","4322",""," ","key"," ","16.655000000000072","500","250","eb","47","2","","0","0","26","34"
"","psychophysics","96","690689","0.0-96.0","614f89c684db5a8edbbd8ab8","64de7e890fb366e7dc8c0322","","","","","5389",""," ","key"," ","16.676450310558767","500","250","eb","51","2","","0","0","26","39"
"","psychophysics","97","695352","0.0-97.0","614f89c684db5a8edbbd8ab8","64de7e890fb366e7dc8c0322","","","","","4656",""," ","key"," ","16.654999999999983","500","250","eb","40","2","","0","0","26","29"
"","psychophysics","98","696179","0.0-98.0","614f89c684db5a8edbbd8ab8","64de7e890fb366e7dc8c0322","","","","","825",""," ","key"," ","16.79508163265371","500","250","inst","","","","","","",""
"","psychophysics","99","698919","0.0-99.0","614f89c684db5a8edbbd8ab8","64de7e890fb366e7dc8c0322","","","","","2737",""," ","key"," ","16.655000000000086","500","250","instPzPre","50","0","","","","50","50"
"","psychophysics","100","701323","0.0-100.0","614f89c684db5a8edbbd8ab8","64de7e890fb366e7dc8c0322","","","","","2368",""," ","key"," ","16.65500000000026","500","250","instPz0","51","2","","","","50","50"
"","psychophysics","101","713091","0.0-101.0","614f89c684db5a8edbbd8ab8","64de7e890fb366e7dc8c0322","","","","","11765",""," ","key"," ","16.664760623229455","500","250","instPz1","50","2","","","","25","50"
"","psychophysics","102","720815","0.0-102.0","614f89c684db5a8edbbd8ab8","64de7e890fb366e7dc8c0322","","","","","7721",""," ","key"," ","16.669841991342125","500","250","instPz2","33","2","","","","20","35"
"","psychophysics","103","733754","0.0-103.0","614f89c684db5a8edbbd8ab8","64de7e890fb366e7dc8c0322","","","","","12934",""," ","key"," ","16.66387354838722","500","250","instPz3","47","2","","","","30","100"
"","psychophysics","104","745654","0.0-104.0","614f89c684db5a8edbbd8ab8","64de7e890fb366e7dc8c0322","","","","","11895",""," ","key"," ","16.66465918653577","500","250","instPz4","53","2","","","","30","100"
"","psychophysics","105","746928","0.0-105.0","614f89c684db5a8edbbd8ab8","64de7e890fb366e7dc8c0322","","","","","1272",""," ","key"," ","16.655000000000367","500","250","inst","","","","","","",""
"","psychophysics","106","752497","0.0-106.0","614f89c684db5a8edbbd8ab8","64de7e890fb366e7dc8c0322","","","","","5564",""," ","key"," ","16.654999999999973","500","250","pz","29","2","0","","","39","46"
"","psychophysics","107","760503","0.0-107.0","614f89c684db5a8edbbd8ab8","64de7e890fb366e7dc8c0322","","","","","null","","null","key","null","16.669323590814255","500","250","pz","33","2","0","","","55","46"
"","psychophysics","108","767216","0.0-108.0","614f89c684db5a8edbbd8ab8","64de7e890fb366e7dc8c0322","","","","","6709",""," ","key"," ","16.65969154228855","500","250","pz","15","2","0","","","51","22"
"","psychophysics","109","773007","0.0-109.0","614f89c684db5a8edbbd8ab8","64de7e890fb366e7dc8c0322","","","","","5789",""," ","key"," ","16.65499999999976","500","250","pz","31","2","0","","","20","55"
"","psychophysics","110","776544","0.0-110.0","614f89c684db5a8edbbd8ab8","64de7e890fb366e7dc8c0322","","","","","3533",""," ","key"," ","16.687582938388978","500","250","pz","29","2","0","","","20","39"
"","psychophysics","111","782371","0.0-111.0","614f89c684db5a8edbbd8ab8","64de7e890fb366e7dc8c0322","","","","","5824",""," ","key"," ","16.655000000000253","500","250","pz","31","2","0","","","59","42"
"","psychophysics","112","789299","0.0-112.0","614f89c684db5a8edbbd8ab8","64de7e890fb366e7dc8c0322","","","","","6926",""," ","key"," ","16.671657004830898","500","250","pz","29","2","0","","","55","52"
"","psychophysics","113","795012","0.0-113.0","614f89c684db5a8edbbd8ab8","64de7e890fb366e7dc8c0322","","","","","5707",""," ","key"," ","16.655000000000026","500","250","pz","11","2","0","","","33","21"
"","psychophysics","114","797112","0.0-114.0","614f89c684db5a8edbbd8ab8","64de7e890fb366e7dc8c0322","","","","","2095",""," ","key"," ","16.709935999999754","500","250","pz","30","2","0","","","30","44"
"","psychophysics","115","800068","0.0-115.0","614f89c684db5a8edbbd8ab8","64de7e890fb366e7dc8c0322","","","","","2946",""," ","key"," ","16.654999999999657","500","250","pz","29","2","0","","","31","48"
"","psychophysics","116","806615","0.0-116.0","614f89c684db5a8edbbd8ab8","64de7e890fb366e7dc8c0322","","","","","6543",""," ","key"," ","16.672647058823543","500","250","pz","14","2","0","","","32","24"
"","psychophysics","117","809622","0.0-117.0","614f89c684db5a8edbbd8ab8","64de7e890fb366e7dc8c0322","","","","","3004",""," ","key"," ","16.65500000000013","500","250","pz","26","2","0","","","27","44"
"","psychophysics","118","817295","0.0-118.0","614f89c684db5a8edbbd8ab8","64de7e890fb366e7dc8c0322","","","","","7668",""," ","key"," ","16.669954248366185","500","250","pz","23","2","0","","","57","46"
"","psychophysics","119","820065","0.0-119.0","614f89c684db5a8edbbd8ab8","64de7e890fb366e7dc8c0322","","","","","2767",""," ","key"," ","16.654999999999717","500","250","pz","25","2","0","","","34","48"
"","psychophysics","120","824581","0.0-120.0","614f89c684db5a8edbbd8ab8","64de7e890fb366e7dc8c0322","","","","","4505",""," ","key"," ","16.654999999999912","500","250","pz","26","2","0","","","44","49"
"","psychophysics","121","825566","0.0-121.0","614f89c684db5a8edbbd8ab8","64de7e890fb366e7dc8c0322","","","","","983",""," ","key"," ","16.654999999998342","500","250","inst","","","","","","",""
"","psychophysics","122","831145","0.0-122.0","614f89c684db5a8edbbd8ab8","64de7e890fb366e7dc8c0322","","","","","5575",""," ","key"," ","16.675669669669734","500","250","instBr3","40","2","","0","0","40","300"
"","psychophysics","123","833910","0.0-123.0","614f89c684db5a8edbbd8ab8","64de7e890fb366e7dc8c0322","","","","","2763",""," ","key"," ","16.654999999999717","500","250","inst","","","","","","",""
"","psychophysics","124","837535","0.0-124.0","614f89c684db5a8edbbd8ab8","64de7e890fb366e7dc8c0322","","","","","3622",""," ","key"," ","16.686810185185298","500","250","br","21","2","1","-8","6","19","286"
"","psychophysics","125","839991","0.0-125.0","614f89c684db5a8edbbd8ab8","64de7e890fb366e7dc8c0322","","","","","2452",""," ","key"," ","16.65499999999943","500","250","br","10","2","1","8","-15","10","258"
"","psychophysics","126","845757","0.0-126.0","614f89c684db5a8edbbd8ab8","64de7e890fb366e7dc8c0322","","","","","5762",""," ","key"," ","16.654999999999934","500","250","br","19","2","1","24","-5","-25","291"
"","psychophysics","127","849986","0.0-127.0","614f89c684db5a8edbbd8ab8","64de7e890fb366e7dc8c0322","","","","","4225",""," ","key"," ","16.68224110671921","500","250","br","13","2","1","-6","-9","-10","221"
"","psychophysics","128","854192","0.0-128.0","614f89c684db5a8edbbd8ab8","64de7e890fb366e7dc8c0322","","","","","4202",""," ","key"," ","16.65500000000011","500","250","br","15","2","1","-2","-8","-20","234"
"","psychophysics","129","859778","0.0-129.0","614f89c684db5a8edbbd8ab8","64de7e890fb366e7dc8c0322","","","","","5582",""," ","key"," ","16.67554790419136","500","250","br","15","2","1","14","-25","-28","206"
"","psychophysics","130","861820","0.0-130.0","614f89c684db5a8edbbd8ab8","64de7e890fb366e7dc8c0322","","","","","2039",""," ","key"," ","16.655000000000268","500","250","br","7","2","1","-28","9","3","263"
"","psychophysics","131","866530","0.0-131.0","614f89c684db5a8edbbd8ab8","64de7e890fb366e7dc8c0322","","","","","4707",""," ","key"," ","16.679537366547876","500","250","br","15","2","1","-11","-30","10","273"
"","psychophysics","132","870318","0.0-132.0","614f89c684db5a8edbbd8ab8","64de7e890fb366e7dc8c0322","","","","","3784",""," ","key"," ","16.654999999999607","500","250","br","8","2","1","-6","-1","7","238"
"","psychophysics","133","874561","0.0-133.0","614f89c684db5a8edbbd8ab8","64de7e890fb366e7dc8c0322","","","","","4233",""," ","key"," ","16.654999999999983","500","250","br","10","2","1","-13","-10","-17","286"
"","psychophysics","134","878425","0.0-134.0","614f89c684db5a8edbbd8ab8","64de7e890fb366e7dc8c0322","","","","","3860",""," ","key"," ","16.684753246753058","500","250","br","16","2","1","6","20","30","241"
"","psychophysics","135","881284","0.0-135.0","614f89c684db5a8edbbd8ab8","64de7e890fb366e7dc8c0322","","","","","2857",""," ","key"," ","16.654999999999863","500","250","br","21","2","1","3","-17","27","277"
"","psychophysics","136","887109","0.0-136.0","614f89c684db5a8edbbd8ab8","64de7e890fb366e7dc8c0322","","","","","5820",""," ","key"," ","16.674713467048644","500","250","br","14","2","1","-20","-18","-29","224"
"","psychophysics","137","895117","0.0-137.0","614f89c684db5a8edbbd8ab8","64de7e890fb366e7dc8c0322","","","","","null","","null","key","null","16.65499999999999","500","250","br","23","2","1","-28","-21","-13","232"
"","psychophysics","138","902480","0.0-138.0","614f89c684db5a8edbbd8ab8","64de7e890fb366e7dc8c0322","","","","","7360",""," ","key"," ","16.670571428571318","500","250","br","23","2","1","-6","28","-23","287"
"","psychophysics","139","903559","0.0-139.0","614f89c684db5a8edbbd8ab8","64de7e890fb366e7dc8c0322","","","","","1068",""," ","key"," ","16.655000000000655","500","250","inst","","","","","","",""
"","psychophysics","140","912538","0.0-140.0","614f89c684db5a8edbbd8ab8","64de7e890fb366e7dc8c0322","","","","","8977",""," ","key"," ","16.66782899628256","500","250","instEB1","31","1","","0","0","40","30"
"","psychophysics","141","918262","0.0-141.0","614f89c684db5a8edbbd8ab8","64de7e890fb366e7dc8c0322","","","","","5720",""," ","key"," ","16.67506725146205","500","250","instEB2","42","1","","0","0","30","40"
"","psychophysics","142","922892","0.0-142.0","614f89c684db5a8edbbd8ab8","64de7e890fb366e7dc8c0322","","","","","4627",""," ","key"," ","16.65499999999978","500","250","instEB3","42","1","","0","0","27","45"
"","psychophysics","143","926444","0.0-143.0","614f89c684db5a8edbbd8ab8","64de7e890fb366e7dc8c0322","","","","","3549",""," ","key"," ","16.687490566037837","500","250","instEB4","25","1","","0","0","40","30"
"","psychophysics","144","928050","0.0-144.0","614f89c684db5a8edbbd8ab8","64de7e890fb366e7dc8c0322","","","","","1603",""," ","key"," ","16.654999999999756","500","250","inst","","","","","","",""
"","psychophysics","145","934313","0.0-145.0","614f89c684db5a8edbbd8ab8","64de7e890fb366e7dc8c0322","","","","","6248",""," ","key"," ","16.655","500","250","eb","28","1","","0","0","32","31"
"","psychophysics","146","936747","0.0-146.0","614f89c684db5a8edbbd8ab8","64de7e890fb366e7dc8c0322","","","","","2432",""," ","key"," ","16.702351724138033","500","250","eb","53","1","","0","0","53","52"
"","psychophysics","147","939913","0.0-147.0","614f89c684db5a8edbbd8ab8","64de7e890fb366e7dc8c0322","","","","","3163",""," ","key"," ","16.65500000000022","500","250","eb","37","1","","0","0","37","43"
"","psychophysics","148","945203","0.0-148.0","614f89c684db5a8edbbd8ab8","64de7e890fb366e7dc8c0322","","","","","5287",""," ","key"," ","16.65500000000003","500","250","eb","28","1","","0","0","41","38"
"","psychophysics","149","948790","0.0-149.0","614f89c684db5a8edbbd8ab8","64de7e890fb366e7dc8c0322","","","","","3583",""," ","key"," ","16.68722429906538","500","250","eb","35","1","","0","0","37","38"
"","psychophysics","150","953274","0.0-150.0","614f89c684db5a8edbbd8ab8","64de7e890fb366e7dc8c0322","","","","","4480",""," ","key"," ","16.654999999999706","500","250","eb","48","1","","0","0","34","54"
"","psychophysics","151","957545","0.0-151.0","614f89c684db5a8edbbd8ab8","64de7e890fb366e7dc8c0322","","","","","4267",""," ","key"," ","16.681890196078367","500","250","eb","32","1","","0","0","46","37"
"","psychophysics","152","965549","0.0-152.0","614f89c684db5a8edbbd8ab8","64de7e890fb366e7dc8c0322","","","","","null","","null","key","null","16.655000000000047","500","250","eb","37","1","","0","0","27","43"
"","psychophysics","153","969126","0.0-153.0","614f89c684db5a8edbbd8ab8","64de7e890fb366e7dc8c0322","","","","","3575",""," ","key"," ","16.687394366196813","500","250","eb","31","1","","0","0","34","36"
"","psychophysics","154","972712","0.0-154.0","614f89c684db5a8edbbd8ab8","64de7e890fb366e7dc8c0322","","","","","3584",""," ","key"," ","16.655000000000197","500","250","eb","31","1","","0","0","26","36"
"","psychophysics","155","974310","0.0-155.0","614f89c684db5a8edbbd8ab8","64de7e890fb366e7dc8c0322","","","","","1594",""," ","key"," ","16.654999999999756","500","250","eb","41","1","","0","0","41","46"
"","psychophysics","156","978826","0.0-156.0","614f89c684db5a8edbbd8ab8","64de7e890fb366e7dc8c0322","","","","","4504",""," ","key"," ","16.680440740740462","500","250","eb","31","1","","0","0","32","36"
"","psychophysics","157","982808","0.0-157.0","614f89c684db5a8edbbd8ab8","64de7e890fb366e7dc8c0322","","","","","3978",""," ","key"," ","16.655000000000058","500","250","eb","31","1","","0","0","44","35"
"","psychophysics","158","987861","0.0-158.0","614f89c684db5a8edbbd8ab8","64de7e890fb366e7dc8c0322","","","","","5050",""," ","key"," ","16.67778807946994","500","250","eb","26","1","","0","0","49","33"
"","psychophysics","159","989641","0.0-159.0","614f89c684db5a8edbbd8ab8","64de7e890fb366e7dc8c0322","","","","","1776",""," ","key"," ","16.655000000000484","500","250","eb","46","1","","0","0","46","47"
"","psychophysics","160","993271","0.0-160.0","614f89c684db5a8edbbd8ab8","64de7e890fb366e7dc8c0322","","","","","3627",""," ","key"," ","16.655000000000044","500","250","inst","","","","","","",""
"","psychophysics","161","999286","0.0-161.0","614f89c684db5a8edbbd8ab8","64de7e890fb366e7dc8c0322","","","","","6012",""," ","key"," ","16.67417270195","500","250","instZol1","-0.09999999999999998","","","0","0","-1.3",""
"","psychophysics","162","1002095","0.0-162.0","614f89c684db5a8edbbd8ab8","64de7e890fb366e7dc8c0322","","","","","2796",""," ","key"," ","16.65500000000022","500","250","instZol2","-2.8000000000000007","2","","0","0","2",""
"","psychophysics","163","1003659","0.0-163.0","614f89c684db5a8edbbd8ab8","64de7e890fb366e7dc8c0322","","","","","1561",""," ","key"," ","16.65499999999915","500","250","inst","","","","","","",""
"","psychophysics","164","1010576","0.0-164.0","614f89c684db5a8edbbd8ab8","64de7e890fb366e7dc8c0322","","","","","6912",""," ","key"," ","16.6716449275362","500","250","zol","-1.4200000000000004","2","1","-28","20","-0.28",""
"","psychophysics","165","1016787","0.0-165.0","614f89c684db5a8edbbd8ab8","64de7e890fb366e7dc8c0322","","","","","6207",""," ","key"," ","16.65998387096765","500","250","zol","-1.8100000000000007","2","1","8","-10","0.31",""
"","psychophysics","166","1024794","0.0-166.0","614f89c684db5a8edbbd8ab8","64de7e890fb366e7dc8c0322","","","","","null","","null","key","null","16.65499999999999","500","250","zol","-2.150000000000001","2","1","23","-23","0.75",""
"","psychophysics","167","1032801","0.0-167.0","614f89c684db5a8edbbd8ab8","64de7e890fb366e7dc8c0322","","","","","null","","null","key","null","16.66933333333339","500","250","zol","-1.3800000000000001","2","1","-30","22","-0.62",""
"","psychophysics","168","1040810","0.0-168.0","614f89c684db5a8edbbd8ab8","64de7e890fb366e7dc8c0322","","","","","null","","null","key","null","16.66934237995847","500","250","zol","-1.7100000000000006","2","1","-14","-14","-0.59",""
"","psychophysics","169","1046127","0.0-169.0","614f89c684db5a8edbbd8ab8","64de7e890fb366e7dc8c0322","","","","","5312",""," ","key"," ","16.655000000000204","500","250","zol","-1.7200000000000006","2","1","2","-2","-0.08",""
"","psychophysics","170","1054135","0.0-170.0","614f89c684db5a8edbbd8ab8","64de7e890fb366e7dc8c0322","","","","","null","","null","key","null","16.647438413361215","500","250","zol","-1.9100000000000008","2","1","4","9","-0.69",""
"","psychophysics","171","1057420","0.0-171.0","614f89c684db5a8edbbd8ab8","64de7e890fb366e7dc8c0322","","","","","3278",""," ","key"," ","16.690127551019884","500","250","zol","-0.8799999999999999","2","1","-20","-6","-0.22",""
"","psychophysics","172","1060360","0.0-172.0","614f89c684db5a8edbbd8ab8","64de7e890fb366e7dc8c0322","","","","","2936",""," ","key"," ","16.655000000000157","500","250","zol","-1.3200000000000003","2","1","10","-2","0.62",""
"","psychophysics","173","1064961","0.0-173.0","614f89c684db5a8edbbd8ab8","64de7e890fb366e7dc8c0322","","","","","4598",""," ","key"," ","16.655","500","250","zol","-1.5900000000000005","2","1","-2","-30","-0.41",""
"","psychophysics","174","1072969","0.0-174.0","614f89c684db5a8edbbd8ab8","64de7e890fb366e7dc8c0322","","","","","null","","null","key","null","16.669373695198097","500","250","zol","-1.11","2","1","5","-7","-0.39",""
"","psychophysics","175","1073418","0.0-175.0","614f89c684db5a8edbbd8ab8","64de7e890fb366e7dc8c0322","","","","","443",""," ","key"," ","16.65500000000207","500","250","zol","-0.03","2","1","13","7","0.03",""
"","psychophysics","176","1081426","0.0-176.0","614f89c684db5a8edbbd8ab8","64de7e890fb366e7dc8c0322","","","","","null","","null","key","null","16.653841336116795","500","250","zol","-1.5300000000000005","2","1","-10","8","0.63",""
"","psychophysics","177","1086534","0.0-177.0","614f89c684db5a8edbbd8ab8","64de7e890fb366e7dc8c0322","","","","","5102",""," ","key"," ","16.677545751633694","500","250","zol","-1.4200000000000002","2","1","6","24","-0.68",""
"","psychophysics","178","1091961","0.0-178.0","614f89c684db5a8edbbd8ab8","64de7e890fb366e7dc8c0322","","","","","5422",""," ","key"," ","16.655","500","250","zol","-1.5000000000000002","2","1","26","-13","-0.7",""
"","psychophysics","179","1092964","0.0-179.0","614f89c684db5a8edbbd8ab8","64de7e890fb366e7dc8c0322","","","","","1000",""," ","key"," ","16.655000000000317","500","250","inst","","","","","","",""
"","psychophysics","180","1106836","0.0-180.0","614f89c684db5a8edbbd8ab8","64de7e890fb366e7dc8c0322","","","","","13869",""," ","key"," ","16.671552346570465","500","250","instPz1","25","1","","","","25","50"
"","psychophysics","181","1109469","0.0-181.0","614f89c684db5a8edbbd8ab8","64de7e890fb366e7dc8c0322","","","","","2630",""," ","key"," ","16.654999999999763","500","250","instPz2","24","1","","","","35","20"
"","psychophysics","182","1114768","0.0-182.0","614f89c684db5a8edbbd8ab8","64de7e890fb366e7dc8c0322","","","","","5296",""," ","key"," ","16.65500000000003","500","250","instPz3","64","1","","","","100","30"
"","psychophysics","183","1120610","0.0-183.0","614f89c684db5a8edbbd8ab8","64de7e890fb366e7dc8c0322","","","","","5839",""," ","key"," ","16.674661891117296","500","250","instPz4","61","1","","","","100","30"
"","psychophysics","184","1121395","0.0-184.0","614f89c684db5a8edbbd8ab8","64de7e890fb366e7dc8c0322","","","","","781",""," ","key"," ","16.654999999998218","500","250","inst","","","","","","",""
"","psychophysics","185","1125476","0.0-185.0","614f89c684db5a8edbbd8ab8","64de7e890fb366e7dc8c0322","","","","","4073",""," ","key"," ","16.655000000000154","500","250","pz","75","1","1","","","58","37"
"","psychophysics","186","1133479","0.0-186.0","614f89c684db5a8edbbd8ab8","64de7e890fb366e7dc8c0322","","","","","null","","null","key","null","16.669373695198097","500","250","pz","108","1","1","","","40","53"
"","psychophysics","187","1138622","0.0-187.0","614f89c684db5a8edbbd8ab8","64de7e890fb366e7dc8c0322","","","","","5137",""," ","key"," ","16.677311688311573","500","250","pz","82","1","1","","","48","38"
"","psychophysics","188","1144399","0.0-188.0","614f89c684db5a8edbbd8ab8","64de7e890fb366e7dc8c0322","","","","","5774",""," ","key"," ","16.65500000000035","500","250","pz","99","1","1","","","57","55"
"","psychophysics","189","1149750","0.0-189.0","614f89c684db5a8edbbd8ab8","64de7e890fb366e7dc8c0322","","","","","5349",""," ","key"," ","16.67654062500005","500","250","pz","90","1","1","","","51","56"
"","psychophysics","190","1156788","0.0-190.0","614f89c684db5a8edbbd8ab8","64de7e890fb366e7dc8c0322","","","","","7034",""," ","key"," ","16.671315914489476","500","250","pz","61","1","1","","","42","32"
"","psychophysics","191","1161060","0.0-191.0","614f89c684db5a8edbbd8ab8","64de7e890fb366e7dc8c0322","","","","","4268",""," ","key"," ","16.654999999999635","500","250","pz","63","1","1","","","50","35"
"","psychophysics","192","1164902","0.0-192.0","614f89c684db5a8edbbd8ab8","64de7e890fb366e7dc8c0322","","","","","3837",""," ","key"," ","16.65500000000061","500","250","pz","63","1","1","","","49","32"
"","psychophysics","193","1169128","0.0-193.0","614f89c684db5a8edbbd8ab8","64de7e890fb366e7dc8c0322","","","","","4223",""," ","key"," ","16.682285714285662","500","250","pz","57","1","1","","","53","33"
"","psychophysics","194","1177133","0.0-194.0","614f89c684db5a8edbbd8ab8","64de7e890fb366e7dc8c0322","","","","","null","","null","key","null","16.669382045929183","500","250","pz","101","1","1","","","24","56"
"","psychophysics","195","1182390","0.0-195.0","614f89c684db5a8edbbd8ab8","64de7e890fb366e7dc8c0322","","","","","5243",""," ","key"," ","16.654999999999852","500","250","pz","78","1","1","","","54","32"
"","psychophysics","196","1189859","0.0-196.0","614f89c684db5a8edbbd8ab8","64de7e890fb366e7dc8c0322","","","","","7467",""," ","key"," ","16.670395973154136","500","250","pz","66","1","1","","","21","26"
"","psychophysics","197","1196477","0.0-197.0","614f89c684db5a8edbbd8ab8","64de7e890fb366e7dc8c0322","","","","","6616",""," ","key"," ","16.67237373737376","500","250","pz","92","1","1","","","37","43"
"","psychophysics","198","1202395","0.0-198.0","614f89c684db5a8edbbd8ab8","64de7e890fb366e7dc8c0322","","","","","5914",""," ","key"," ","16.655000000000317","500","250","pz","108","1","1","","","60","56"
"","psychophysics","199","1205302","0.0-199.0","614f89c684db5a8edbbd8ab8","64de7e890fb366e7dc8c0322","","","","","2904",""," ","key"," ","16.654999999999838","500","250","pz","60","1","1","","","53","31"
"","psychophysics","200","1206193","0.0-200.0","614f89c684db5a8edbbd8ab8","64de7e890fb366e7dc8c0322","","","","","888",""," ","key"," ","16.654999999997187","500","250","inst","","","","","","",""
"","psychophysics","201","1210962","0.0-201.0","614f89c684db5a8edbbd8ab8","64de7e890fb366e7dc8c0322","","","","","4766",""," ","key"," ","16.679235915492722","500","250","instPog0","196","1","","0","0","190","160"
"","psychophysics","202","1211638","0.0-202.0","614f89c684db5a8edbbd8ab8","64de7e890fb366e7dc8c0322","","","","","671",""," ","key"," ","16.654999999998836","500","250","instPog1","190","1","","0","0","190","160"
"","psychophysics","203","1216413","0.0-203.0","614f89c684db5a8edbbd8ab8","64de7e890fb366e7dc8c0322","","","","","4772",""," ","key"," ","16.65500000000026","500","250","instPog2","172","1","","0","0","160","160"
"","psychophysics","204","1217089","0.0-204.0","614f89c684db5a8edbbd8ab8","64de7e890fb366e7dc8c0322","","","","","674",""," ","key"," ","16.831564102560662","500","250","inst","","","","","","",""
"","psychophysics","205","1220910","0.0-205.0","614f89c684db5a8edbbd8ab8","64de7e890fb366e7dc8c0322","","","","","3811",""," ","key"," ","16.655000000000367","500","250","pog","161","1","1","0","0","129","146"
"","psychophysics","206","1225218","0.0-206.0","614f89c684db5a8edbbd8ab8","64de7e890fb366e7dc8c0322","","","","","4304",""," ","key"," ","16.654999999999966","500","250","pog","173","1","1","0","0","101","167"
"","psychophysics","207","1231313","0.0-207.0","614f89c684db5a8edbbd8ab8","64de7e890fb366e7dc8c0322","","","","","6092",""," ","key"," ","16.67383561643823","500","250","pog","173","1","1","0","0","105","169"
"","psychophysics","208","1236678","0.0-208.0","614f89c684db5a8edbbd8ab8","64de7e890fb366e7dc8c0322","","","","","5361",""," ","key"," ","16.67652187499989","500","250","pog","153","1","1","0","0","215","149"
"","psychophysics","209","1240368","0.0-209.0","614f89c684db5a8edbbd8ab8","64de7e890fb366e7dc8c0322","","","","","3688",""," ","key"," ","16.654999999999493","500","250","pog","177","1","1","0","0","173","177"
"","psychophysics","210","1248125","0.0-210.0","614f89c684db5a8edbbd8ab8","64de7e890fb366e7dc8c0322","","","","","7755",""," ","key"," ","16.66979956896554","500","250","pog","201","1","1","0","0","117","192"
"","psychophysics","211","1254219","0.0-211.0","614f89c684db5a8edbbd8ab8","64de7e890fb366e7dc8c0322","","","","","6092",""," ","key"," ","16.654999999999873","500","250","pog","147","1","1","0","0","199","127"
"","psychophysics","212","1257796","0.0-212.0","614f89c684db5a8edbbd8ab8","64de7e890fb366e7dc8c0322","","","","","3573",""," ","key"," ","16.687286384976492","500","250","pog","183","1","1","0","0","157","170"
"","psychophysics","213","1262647","0.0-213.0","614f89c684db5a8edbbd8ab8","64de7e890fb366e7dc8c0322","","","","","4848",""," ","key"," ","16.654999999999937","500","250","pog","176","1","1","0","0","218","165"
"","psychophysics","214","1267685","0.0-214.0","614f89c684db5a8edbbd8ab8","64de7e890fb366e7dc8c0322","","","","","5034",""," ","key"," ","16.677860465116545","500","250","pog","170","1","1","0","0","124","154"
"","psychophysics","215","1271752","0.0-215.0","614f89c684db5a8edbbd8ab8","64de7e890fb366e7dc8c0322","","","","","4065",""," ","key"," ","16.654999999999195","500","250","pog","178","1","1","0","0","220","170"
"","psychophysics","216","1275379","0.0-216.0","614f89c684db5a8edbbd8ab8","64de7e890fb366e7dc8c0322","","","","","3625",""," ","key"," ","16.655000000000044","500","250","pog","155","1","1","0","0","129","143"
"","psychophysics","217","1277687","0.0-217.0","614f89c684db5a8edbbd8ab8","64de7e890fb366e7dc8c0322","","","","","2306",""," ","key"," ","16.7051751824813","500","250","pog","181","1","1","0","0","179","174"
"","psychophysics","218","1279121","0.0-218.0","614f89c684db5a8edbbd8ab8","64de7e890fb366e7dc8c0322","","","","","1426",""," ","key"," ","16.65500000000055","500","250","pog","196","1","1","0","0","194","170"
"","psychophysics","219","1283044","0.0-219.0","614f89c684db5a8edbbd8ab8","64de7e890fb366e7dc8c0322","","","","","3920",""," ","key"," ","16.655000000000197","500","250","pog","212","1","1","0","0","166","197"
