"success","trial_type","trial_index","time_elapsed","internal_node_id","pid","sid","timeout","failed_images","failed_audio","failed_video","rt","stimulus","response","response_type","key_press","avg_frame_time","center_x","center_y","task","resp","version","block","start","jitterX","jitterY","parA"
"true","fullscreen","0","3223","0.0-0.0","5f263a38f8e51635c1b87bcd","64e503ff68fdf17bf10f675d","","","","","","","","","","","","","","","","","","","",""
"true","preload","1","3491","0.0-1.0","5f263a38f8e51635c1b87bcd","64e503ff68fdf17bf10f675d","false","[]","[]","[]","","","","","","","","","","","","","","","",""
"","html-button-response","2","4865","0.0-2.0","5f263a38f8e51635c1b87bcd","64e503ff68fdf17bf10f675d","","","","","1372","Please Make Sure Your Audio Is On.","0","","","","","","","","","","","","",""
"","psychophysics","3","12757","0.0-3.0","5f263a38f8e51635c1b87bcd","64e503ff68fdf17bf10f675d","","","","","7885",""," ","key"," ","33.334113924050634","720","250","","","","","","","",""
"","psychophysics","4","15298","0.0-4.0","5f263a38f8e51635c1b87bcd","64e503ff68fdf17bf10f675d","","","","","2537",""," ","key"," ","33.331999999999994","500","250","inst","","","","","","",""
"","psychophysics","5","24151","0.0-5.0","5f263a38f8e51635c1b87bcd","64e503ff68fdf17bf10f675d","","","","","8849",""," ","key"," ","33.333901515151524","500","250","sample0","","","","","","",""
"","psychophysics","6","25918","0.0-6.0","5f263a38f8e51635c1b87bcd","64e503ff68fdf17bf10f675d","","","","","1762",""," ","key"," ","33.33200000000006","500","250","sample1","","","","","","",""
"","psychophysics","7","41043","0.0-7.0","5f263a38f8e51635c1b87bcd","64e503ff68fdf17bf10f675d","","","","","15118",""," ","key"," ","33.33310816777041","500","250","sample2","102","","","","","",""
"","psychophysics","8","45676","0.0-8.0","5f263a38f8e51635c1b87bcd","64e503ff68fdf17bf10f675d","","","","","4629",""," ","key"," ","33.33563043478263","500","250","sample3","104","","","","","",""
"","psychophysics","9","53425","0.0-9.0","5f263a38f8e51635c1b87bcd","64e503ff68fdf17bf10f675d","","","","","7746",""," ","key"," ","33.33416379310347","500","250","sample4","102","","","","","",""
"","psychophysics","10","57103","0.0-10.0","5f263a38f8e51635c1b87bcd","64e503ff68fdf17bf10f675d","","","","","3675",""," ","key"," ","33.332000000000015","500","250","sample5","","","","","","",""
"","psychophysics","11","65145","0.0-11.0","5f263a38f8e51635c1b87bcd","64e503ff68fdf17bf10f675d","","","","","8039",""," ","key"," ","33.33409166666667","500","250","sample6","500","","","","","",""
"","psychophysics","12","68829","0.0-12.0","5f263a38f8e51635c1b87bcd","64e503ff68fdf17bf10f675d","","","","","3681",""," ","key"," ","33.332000000000036","500","250","inst","","","","","","",""
"","psychophysics","13","72476","0.0-13.0","5f263a38f8e51635c1b87bcd","64e503ff68fdf17bf10f675d","","","","","3645",""," ","key"," ","33.33572222222224","500","250","inst","","","","","","",""
"","psychophysics","14","79210","0.0-14.0","5f263a38f8e51635c1b87bcd","64e503ff68fdf17bf10f675d","","","","","6731",""," ","key"," ","33.331999999999944","500","250","inst","","","","","","",""
"","psychophysics","15","81555","0.0-15.0","5f263a38f8e51635c1b87bcd","64e503ff68fdf17bf10f675d","","","","","2343",""," ","key"," ","33.338800000000006","500","250","inst","","","","","","",""
"","psychophysics","16","83942","0.0-16.0","5f263a38f8e51635c1b87bcd","64e503ff68fdf17bf10f675d","","","","","2385",""," ","key"," ","33.33200000000007","500","250","inst","","","","","","",""
"","psychophysics","17","90901","0.0-17.0","5f263a38f8e51635c1b87bcd","64e503ff68fdf17bf10f675d","","","","","6956",""," ","key"," ","33.33199999999999","500","250","instPog0","340","2","","370","0","0","340"
"","psychophysics","18","100488","0.0-18.0","5f263a38f8e51635c1b87bcd","64e503ff68fdf17bf10f675d","","","","","9585",""," ","key"," ","33.33366202090592","500","250","instPog1","340","2","","370","0","0","340"
"","psychophysics","19","103556","0.0-19.0","5f263a38f8e51635c1b87bcd","64e503ff68fdf17bf10f675d","","","","","3065",""," ","key"," ","33.33723076923071","500","250","instPog2","330","2","","340","0","0","340"
"","psychophysics","20","106585","0.0-20.0","5f263a38f8e51635c1b87bcd","64e503ff68fdf17bf10f675d","","","","","3028",""," ","key"," ","33.331999999999944","500","250","inst","","","","","","",""
"","psychophysics","21","111462","0.0-21.0","5f263a38f8e51635c1b87bcd","64e503ff68fdf17bf10f675d","","","","","4871",""," ","key"," ","33.33200000000006","500","250","pog","356","2","0","302","0","0","377"
"","psychophysics","22","115375","0.0-22.0","5f263a38f8e51635c1b87bcd","64e503ff68fdf17bf10f675d","","","","","3912",""," ","key"," ","33.33611206896553","500","250","pog","336","2","0","376","0","0","350"
"","psychophysics","23","118297","0.0-23.0","5f263a38f8e51635c1b87bcd","64e503ff68fdf17bf10f675d","","","","","2919",""," ","key"," ","33.332000000000065","500","250","pog","369","2","0","389","0","0","378"
"","psychophysics","24","126308","0.0-24.0","5f263a38f8e51635c1b87bcd","64e503ff68fdf17bf10f675d","","","","","null","","null","key","null","33.333991631799194","500","250","pog","309","2","0","395","0","0","318"
"","psychophysics","25","131367","0.0-25.0","5f263a38f8e51635c1b87bcd","64e503ff68fdf17bf10f675d","","","","","5057",""," ","key"," ","33.33200000000008","500","250","pog","329","2","0","387","0","0","348"
"","psychophysics","26","135581","0.0-26.0","5f263a38f8e51635c1b87bcd","64e503ff68fdf17bf10f675d","","","","","4212",""," ","key"," ","33.33661599999992","500","250","pog","352","2","0","296","0","0","376"
"","psychophysics","27","138716","0.0-27.0","5f263a38f8e51635c1b87bcd","64e503ff68fdf17bf10f675d","","","","","3126",""," ","key"," ","33.3320000000002","500","250","pog","340","2","0","314","0","0","372"
"","psychophysics","28","143730","0.0-28.0","5f263a38f8e51635c1b87bcd","64e503ff68fdf17bf10f675d","","","","","5009",""," ","key"," ","33.335340000000045","500","250","pog","305","2","0","379","0","0","318"
"","psychophysics","29","151274","0.0-29.0","5f263a38f8e51635c1b87bcd","64e503ff68fdf17bf10f675d","","","","","7542",""," ","key"," ","33.33199999999992","500","250","pog","315","2","0","389","0","0","336"
"","psychophysics","30","155101","0.0-30.0","5f263a38f8e51635c1b87bcd","64e503ff68fdf17bf10f675d","","","","","3824",""," ","key"," ","50.004605263157586","500","250","pog","307","2","0","307","0","0","337"
"","psychophysics","31","159135","0.0-31.0","5f263a38f8e51635c1b87bcd","64e503ff68fdf17bf10f675d","","","","","4032",""," ","key"," ","33.33199999999997","500","250","pog","354","2","0","310","0","0","380"
"","psychophysics","32","167138","0.0-32.0","5f263a38f8e51635c1b87bcd","64e503ff68fdf17bf10f675d","","","","","null","","null","key","null","70.03084210526319","500","250","pog","341","2","0","381","0","0","325"
"","psychophysics","33","169725","0.0-33.0","5f263a38f8e51635c1b87bcd","64e503ff68fdf17bf10f675d","","","","","2585",""," ","key"," ","33.33199999999986","500","250","pog","345","2","0","349","0","0","366"
"","psychophysics","34","171472","0.0-34.0","5f263a38f8e51635c1b87bcd","64e503ff68fdf17bf10f675d","","","","","1745",""," ","key"," ","33.33200000000048","500","250","pog","357","2","0","359","0","0","375"
"","psychophysics","35","174093","0.0-35.0","5f263a38f8e51635c1b87bcd","64e503ff68fdf17bf10f675d","","","","","2615",""," ","key"," ","33.33850649350652","500","250","pog","278","2","0","288","0","0","304"
"","psychophysics","36","176228","0.0-36.0","5f263a38f8e51635c1b87bcd","64e503ff68fdf17bf10f675d","","","","","2132",""," ","key"," ","33.33199999999996","500","250","inst","","","","","","",""
"","psychophysics","37","178600","0.0-37.0","5f263a38f8e51635c1b87bcd","64e503ff68fdf17bf10f675d","","","","","2369",""," ","key"," ","33.332000000000285","500","250","instZol0","-0.1","","","0","0","0",""
"","psychophysics","38","184360","0.0-38.0","5f263a38f8e51635c1b87bcd","64e503ff68fdf17bf10f675d","","","","","5753",""," ","key"," ","33.334918604651165","500","250","instZol1","2.7755575615628914e-17","","","-1.3","0","0",""
"","psychophysics","39","194037","0.0-39.0","5f263a38f8e51635c1b87bcd","64e503ff68fdf17bf10f675d","","","","","9672",""," ","key"," ","33.33373103448278","500","250","instZol2","-1.9","2","","2","0","0",""
"","psychophysics","40","195748","0.0-40.0","5f263a38f8e51635c1b87bcd","64e503ff68fdf17bf10f675d","","","","","1709",""," ","key"," ","33.332000000000114","500","250","inst","","","","","","",""
"","psychophysics","41","203017","0.0-41.0","5f263a38f8e51635c1b87bcd","64e503ff68fdf17bf10f675d","","","","","7263",""," ","key"," ","33.33381566820274","500","250","zol","-1.13","2","0","0.43","23","-11",""
"","psychophysics","42","211028","0.0-42.0","5f263a38f8e51635c1b87bcd","64e503ff68fdf17bf10f675d","","","","","null","","null","key","null","33.331999999999994","500","250","zol","-0.6099999999999999","2","0","0.41","9","12",""
"","psychophysics","43","219033","0.0-43.0","5f263a38f8e51635c1b87bcd","64e503ff68fdf17bf10f675d","","","","","null","","null","key","null","33.33399163179926","500","250","zol","-0.8599999999999998","2","0","-0.74","0","17",""
"","psychophysics","44","227041","0.0-44.0","5f263a38f8e51635c1b87bcd","64e503ff68fdf17bf10f675d","","","","","null","","null","key","null","33.33398750000003","500","250","zol","-1.3","2","0","0.1","27","2",""
"","psychophysics","45","231043","0.0-45.0","5f263a38f8e51635c1b87bcd","64e503ff68fdf17bf10f675d","","","","","3997",""," ","key"," ","33.332000000000015","500","250","zol","-1.5400000000000005","2","0","-0.26","20","7",""
"","psychophysics","46","237934","0.0-46.0","5f263a38f8e51635c1b87bcd","64e503ff68fdf17bf10f675d","","","","","6887",""," ","key"," ","33.33431067961159","500","250","zol","-1.19","2","0","-0.41","-15","2",""
"","psychophysics","47","244004","0.0-47.0","5f263a38f8e51635c1b87bcd","64e503ff68fdf17bf10f675d","","","","","6065",""," ","key"," ","33.33463535911612","500","250","zol","-1.5200000000000005","2","0","-0.38","-29","-11",""
"","psychophysics","48","252011","0.0-48.0","5f263a38f8e51635c1b87bcd","64e503ff68fdf17bf10f675d","","","","","null","","null","key","null","49.998000000000005","500","250","zol","-1.2200000000000002","2","0","-0.28","2","1",""
"","psychophysics","49","257167","0.0-49.0","5f263a38f8e51635c1b87bcd","64e503ff68fdf17bf10f675d","","","","","5151",""," ","key"," ","33.33509740259747","500","250","zol","-1.2300000000000002","2","0","-0.07","1","-3",""
"","psychophysics","50","262241","0.0-50.0","5f263a38f8e51635c1b87bcd","64e503ff68fdf17bf10f675d","","","","","5069",""," ","key"," ","33.33572185430456","500","250","zol","-1.17","2","0","0.37","-14","30",""
"","psychophysics","51","265540","0.0-51.0","5f263a38f8e51635c1b87bcd","64e503ff68fdf17bf10f675d","","","","","3294",""," ","key"," ","33.33200000000022","500","250","zol","-0.8699999999999999","2","0","-0.73","21","8",""
"","psychophysics","52","268448","0.0-52.0","5f263a38f8e51635c1b87bcd","64e503ff68fdf17bf10f675d","","","","","2903",""," ","key"," ","33.33200000000029","500","250","zol","-1.28","2","0","-0.02","-18","13",""
"","psychophysics","53","275530","0.0-53.0","5f263a38f8e51635c1b87bcd","64e503ff68fdf17bf10f675d","","","","","7076",""," ","key"," ","33.3342452830188","500","250","zol","-2.0300000000000007","2","0","-0.47","2","-13",""
"","psychophysics","54","283538","0.0-54.0","5f263a38f8e51635c1b87bcd","64e503ff68fdf17bf10f675d","","","","","null","","null","key","null","33.33399581589963","500","250","zol","-1.2100000000000002","2","0","-0.09","-28","-9",""
"","psychophysics","55","290265","0.0-55.0","5f263a38f8e51635c1b87bcd","64e503ff68fdf17bf10f675d","","","","","6724",""," ","key"," ","33.33200000000009","500","250","zol","-1.0099999999999998","2","0","0.41","-28","17",""
"","psychophysics","56","309084","0.0-56.0","5f263a38f8e51635c1b87bcd","64e503ff68fdf17bf10f675d","","","","","18817",""," ","key"," ","60.01129392971238","500","250","inst","","","","","","",""
"","psychophysics","57","311464","0.0-57.0","5f263a38f8e51635c1b87bcd","64e503ff68fdf17bf10f675d","","","","","2379",""," ","key"," ","33.331999999999866","500","250","instEB0","41","1","","40","0","0","40"
"","psychophysics","58","317446","0.0-58.0","5f263a38f8e51635c1b87bcd","64e503ff68fdf17bf10f675d","","","","","5973",""," ","key"," ","33.33466480446943","500","250","instEB1","30","1","","40","0","0","30"
"","psychophysics","59","321692","0.0-59.0","5f263a38f8e51635c1b87bcd","64e503ff68fdf17bf10f675d","","","","","4242",""," ","key"," ","33.33199999999996","500","250","instEB2","41","1","","30","0","0","40"
"","psychophysics","60","329298","0.0-60.0","5f263a38f8e51635c1b87bcd","64e503ff68fdf17bf10f675d","","","","","7603",""," ","key"," ","33.33409691629967","500","250","instEB3","43","1","","27","0","0","45"
"","psychophysics","61","335570","0.0-61.0","5f263a38f8e51635c1b87bcd","64e503ff68fdf17bf10f675d","","","","","6267",""," ","key"," ","33.33453723404246","500","250","instEB4","30","1","","40","0","0","30"
"","psychophysics","62","337283","0.0-62.0","5f263a38f8e51635c1b87bcd","64e503ff68fdf17bf10f675d","","","","","1711",""," ","key"," ","33.3320000000007","500","250","inst","","","","","","",""
"","psychophysics","63","341370","0.0-63.0","5f263a38f8e51635c1b87bcd","64e503ff68fdf17bf10f675d","","","","","4080",""," ","key"," ","33.331999999999645","500","250","eb","31","1","","49","0","0","33"
"","psychophysics","64","345458","0.0-64.0","5f263a38f8e51635c1b87bcd","64e503ff68fdf17bf10f675d","","","","","4084",""," ","key"," ","33.336628099173225","500","250","eb","43","1","","25","0","0","46"
"","psychophysics","65","348295","0.0-65.0","5f263a38f8e51635c1b87bcd","64e503ff68fdf17bf10f675d","","","","","2831",""," ","key"," ","33.33200000000042","500","250","eb","24","1","","27","0","0","29"
"","psychophysics","66","351930","0.0-66.0","5f263a38f8e51635c1b87bcd","64e503ff68fdf17bf10f675d","","","","","3630",""," ","key"," ","33.33199999999973","500","250","eb","21","1","","31","0","0","24"
"","psychophysics","67","358291","0.0-67.0","5f263a38f8e51635c1b87bcd","64e503ff68fdf17bf10f675d","","","","","6353",""," ","key"," ","33.33450526315811","500","250","eb","25","1","","48","0","0","28"
"","psychophysics","68","362775","0.0-68.0","5f263a38f8e51635c1b87bcd","64e503ff68fdf17bf10f675d","","","","","4479",""," ","key"," ","33.33555970149229","500","250","eb","28","1","","52","0","0","31"
"","psychophysics","69","367793","0.0-69.0","5f263a38f8e51635c1b87bcd","64e503ff68fdf17bf10f675d","","","","","5015",""," ","key"," ","33.33200000000035","500","250","eb","40","1","","41","0","0","42"
"","psychophysics","70","372693","0.0-70.0","5f263a38f8e51635c1b87bcd","64e503ff68fdf17bf10f675d","","","","","4897",""," ","key"," ","33.33526712328742","500","250","eb","42","1","","43","0","0","45"
"","psychophysics","71","377326","0.0-71.0","5f263a38f8e51635c1b87bcd","64e503ff68fdf17bf10f675d","","","","","4629",""," ","key"," ","33.33200000000036","500","250","eb","41","1","","53","0","0","43"
"","psychophysics","72","382391","0.0-72.0","5f263a38f8e51635c1b87bcd","64e503ff68fdf17bf10f675d","","","","","5061",""," ","key"," ","33.33199999999989","500","250","eb","43","1","","47","0","0","47"
"","psychophysics","73","388966","0.0-73.0","5f263a38f8e51635c1b87bcd","64e503ff68fdf17bf10f675d","","","","","6571",""," ","key"," ","33.33441624365484","500","250","eb","23","1","","53","0","0","25"
"","psychophysics","74","392664","0.0-74.0","5f263a38f8e51635c1b87bcd","64e503ff68fdf17bf10f675d","","","","","3693",""," ","key"," ","33.3363761467888","500","250","eb","41","1","","34","0","0","50"
"","psychophysics","75","396414","0.0-75.0","5f263a38f8e51635c1b87bcd","64e503ff68fdf17bf10f675d","","","","","3748",""," ","key"," ","33.33200000000007","500","250","eb","24","1","","40","0","0","26"
"","psychophysics","76","399137","0.0-76.0","5f263a38f8e51635c1b87bcd","64e503ff68fdf17bf10f675d","","","","","2719",""," ","key"," ","33.33199999999991","500","250","eb","35","1","","46","0","0","38"
"","psychophysics","77","403104","0.0-77.0","5f263a38f8e51635c1b87bcd","64e503ff68fdf17bf10f675d","","","","","3965",""," ","key"," ","33.336033898305104","500","250","eb","44","1","","38","0","0","47"
"","psychophysics","78","406490","0.0-78.0","5f263a38f8e51635c1b87bcd","64e503ff68fdf17bf10f675d","","","","","3384",""," ","key"," ","33.33199999999953","500","250","inst","","","","","","",""
"","psychophysics","79","408301","0.0-79.0","5f263a38f8e51635c1b87bcd","64e503ff68fdf17bf10f675d","","","","","1808",""," ","key"," ","33.33199999999919","500","250","instPzPre","50","0","","50","","","50"
"","psychophysics","80","411125","0.0-80.0","5f263a38f8e51635c1b87bcd","64e503ff68fdf17bf10f675d","","","","","2821",""," ","key"," ","33.33200000000049","500","250","instPz0","54","2","","50","","","50"
"","psychophysics","81","415736","0.0-81.0","5f263a38f8e51635c1b87bcd","64e503ff68fdf17bf10f675d","","","","","4608",""," ","key"," ","33.336173913043424","500","250","instPz1","43","2","","25","","","50"
"","psychophysics","82","418913","0.0-82.0","5f263a38f8e51635c1b87bcd","64e503ff68fdf17bf10f675d","","","","","3175",""," ","key"," ","33.33199999999983","500","250","instPz2","32","2","","20","","","35"
"","psychophysics","83","425529","0.0-83.0","5f263a38f8e51635c1b87bcd","64e503ff68fdf17bf10f675d","","","","","6610",""," ","key"," ","33.33454822335034","500","250","instPz3","72","2","","30","","","100"
"","psychophysics","84","433809","0.0-84.0","5f263a38f8e51635c1b87bcd","64e503ff68fdf17bf10f675d","","","","","8275",""," ","key"," ","33.334024193548345","500","250","instPz4","72","2","","30","","","100"
"","psychophysics","85","435702","0.0-85.0","5f263a38f8e51635c1b87bcd","64e503ff68fdf17bf10f675d","","","","","1890",""," ","key"," ","33.33200000000007","500","250","inst","","","","","","",""
"","psychophysics","86","440130","0.0-86.0","5f263a38f8e51635c1b87bcd","64e503ff68fdf17bf10f675d","","","","","4422",""," ","key"," ","33.33200000000021","500","250","pz","15","2","0","22","","","20"
"","psychophysics","87","446923","0.0-87.0","5f263a38f8e51635c1b87bcd","64e503ff68fdf17bf10f675d","","","","","6789",""," ","key"," ","33.33446798029555","500","250","pz","22","2","0","51","","","27"
"","psychophysics","88","450823","0.0-88.0","5f263a38f8e51635c1b87bcd","64e503ff68fdf17bf10f675d","","","","","3896",""," ","key"," ","33.331999999999894","500","250","pz","36","2","0","42","","","47"
"","psychophysics","89","455501","0.0-89.0","5f263a38f8e51635c1b87bcd","64e503ff68fdf17bf10f675d","","","","","4675",""," ","key"," ","33.33558571428584","500","250","pz","33","2","0","44","","","39"
"","psychophysics","90","461849","0.0-90.0","5f263a38f8e51635c1b87bcd","64e503ff68fdf17bf10f675d","","","","","6344",""," ","key"," ","33.332000000000114","500","250","pz","22","2","0","56","","","26"
"","psychophysics","91","463713","0.0-91.0","5f263a38f8e51635c1b87bcd","64e503ff68fdf17bf10f675d","","","","","1860",""," ","key"," ","33.34112727272705","500","250","pz","22","2","0","22","","","27"
"","psychophysics","92","472617","0.0-92.0","5f263a38f8e51635c1b87bcd","64e503ff68fdf17bf10f675d","","","","","null","","null","key","null","33.33199999999991","500","250","pz","26","2","0","26","","","28"
"","psychophysics","93","478490","0.0-93.0","5f263a38f8e51635c1b87bcd","64e503ff68fdf17bf10f675d","","","","","5871",""," ","key"," ","33.332000000000086","500","250","pz","39","2","0","20","","","45"
"","psychophysics","94","481661","0.0-94.0","5f263a38f8e51635c1b87bcd","64e503ff68fdf17bf10f675d","","","","","3168",""," ","key"," ","33.33199999999983","500","250","pz","24","2","0","30","","","30"
"","psychophysics","95","485557","0.0-95.0","5f263a38f8e51635c1b87bcd","64e503ff68fdf17bf10f675d","","","","","3891",""," ","key"," ","33.33611206896553","500","250","pz","35","2","0","57","","","46"
"","psychophysics","96","488513","0.0-96.0","5f263a38f8e51635c1b87bcd","64e503ff68fdf17bf10f675d","","","","","2953",""," ","key"," ","33.33200000000017","500","250","pz","29","2","0","24","","","34"
"","psychophysics","97","492196","0.0-97.0","5f263a38f8e51635c1b87bcd","64e503ff68fdf17bf10f675d","","","","","3676",""," ","key"," ","33.33200000000022","500","250","pz","50","2","0","39","","","60"
"","psychophysics","98","493356","0.0-98.0","5f263a38f8e51635c1b87bcd","64e503ff68fdf17bf10f675d","","","","","1156",""," ","key"," ","33.345999999999016","500","250","pz","50","2","0","50","","","47"
"","psychophysics","99","496557","0.0-99.0","5f263a38f8e51635c1b87bcd","64e503ff68fdf17bf10f675d","","","","","3197",""," ","key"," ","33.33200000000039","500","250","pz","45","2","0","32","","","58"
"","psychophysics","100","500090","0.0-100.0","5f263a38f8e51635c1b87bcd","64e503ff68fdf17bf10f675d","","","","","3526",""," ","key"," ","33.331999999999866","500","250","pz","32","2","0","27","","","37"
"","psychophysics","101","505481","0.0-101.0","5f263a38f8e51635c1b87bcd","64e503ff68fdf17bf10f675d","","","","","5389",""," ","key"," ","33.33496273291928","500","250","inst","","","","","","",""
"","psychophysics","102","507537","0.0-102.0","5f263a38f8e51635c1b87bcd","64e503ff68fdf17bf10f675d","","","","","2052",""," ","key"," ","33.332000000000605","500","250","instBr0","0","","","0","0","0","300"
"","psychophysics","103","517002","0.0-103.0","5f263a38f8e51635c1b87bcd","64e503ff68fdf17bf10f675d","","","","","9463",""," ","key"," ","33.33368551236735","500","250","instBr1","3","","","-40","0","0","300"
"","psychophysics","104","526575","0.0-104.0","5f263a38f8e51635c1b87bcd","64e503ff68fdf17bf10f675d","","","","","9570",""," ","key"," ","33.33366433566439","500","250","instBr3","-16","1","","40","0","0","300"
"","psychophysics","105","527677","0.0-105.0","5f263a38f8e51635c1b87bcd","64e503ff68fdf17bf10f675d","","","","","1100",""," ","key"," ","33.331999999998516","500","250","inst","","","","","","",""
"","psychophysics","106","533011","0.0-106.0","5f263a38f8e51635c1b87bcd","64e503ff68fdf17bf10f675d","","","","","5326",""," ","key"," ","33.334999999999354","500","250","br","-11","1","0","29","7","-30","289"
"","psychophysics","107","536035","0.0-107.0","5f263a38f8e51635c1b87bcd","64e503ff68fdf17bf10f675d","","","","","3020",""," ","key"," ","33.33200000000005","500","250","br","-12","1","0","7","-9","25","298"
"","psychophysics","108","539590","0.0-108.0","5f263a38f8e51635c1b87bcd","64e503ff68fdf17bf10f675d","","","","","3552",""," ","key"," ","33.331999999999866","500","250","br","-20","1","0","-22","20","-17","264"
"","psychophysics","109","544130","0.0-109.0","5f263a38f8e51635c1b87bcd","64e503ff68fdf17bf10f675d","","","","","4536",""," ","key"," ","33.33552592592572","500","250","br","-12","1","0","16","-13","9","208"
"","psychophysics","110","546633","0.0-110.0","5f263a38f8e51635c1b87bcd","64e503ff68fdf17bf10f675d","","","","","2499",""," ","key"," ","33.33200000000031","500","250","br","-6","1","0","11","16","-7","300"
"","psychophysics","111","552011","0.0-111.0","5f263a38f8e51635c1b87bcd","64e503ff68fdf17bf10f675d","","","","","5375",""," ","key"," ","33.33199999999997","500","250","br","-10","1","0","-29","10","17","287"
"","psychophysics","112","555020","0.0-112.0","5f263a38f8e51635c1b87bcd","64e503ff68fdf17bf10f675d","","","","","3005",""," ","key"," ","33.33829213483155","500","250","br","-6","1","0","2","1","-28","215"
"","psychophysics","113","557347","0.0-113.0","5f263a38f8e51635c1b87bcd","64e503ff68fdf17bf10f675d","","","","","2325",""," ","key"," ","33.33200000000078","500","250","br","-3","1","0","13","-2","9","216"
"","psychophysics","114","561101","0.0-114.0","5f263a38f8e51635c1b87bcd","64e503ff68fdf17bf10f675d","","","","","3750",""," ","key"," ","33.33200000000007","500","250","br","-15","1","0","-28","-22","14","246"
"","psychophysics","115","565508","0.0-115.0","5f263a38f8e51635c1b87bcd","64e503ff68fdf17bf10f675d","","","","","4404",""," ","key"," ","33.33564122137436","500","250","br","-6","1","0","21","27","9","221"
"","psychophysics","116","570233","0.0-116.0","5f263a38f8e51635c1b87bcd","64e503ff68fdf17bf10f675d","","","","","4721",""," ","key"," ","33.33200000000024","500","250","br","-11","1","0","19","-25","-12","252"
"","psychophysics","117","572255","0.0-117.0","5f263a38f8e51635c1b87bcd","64e503ff68fdf17bf10f675d","","","","","2019",""," ","key"," ","33.33199999999981","500","250","br","-15","1","0","-8","-13","-30","239"
"","psychophysics","118","578331","0.0-118.0","5f263a38f8e51635c1b87bcd","64e503ff68fdf17bf10f675d","","","","","6073",""," ","key"," ","33.33462983425398","500","250","br","-14","1","0","-3","18","-6","258"
"","psychophysics","119","580423","0.0-119.0","5f263a38f8e51635c1b87bcd","64e503ff68fdf17bf10f675d","","","","","2088",""," ","key"," ","33.33200000000051","500","250","br","-17","1","0","-5","27","-7","212"
"","psychophysics","120","583865","0.0-120.0","5f263a38f8e51635c1b87bcd","64e503ff68fdf17bf10f675d","","","","","3440",""," ","key"," ","33.336631067961825","500","250","br","-8","1","0","21","-20","-4","215"
"","psychophysics","121","585498","0.0-121.0","5f263a38f8e51635c1b87bcd","64e503ff68fdf17bf10f675d","","","","","1631",""," ","key"," ","33.33199999999973","500","250","inst","","","","","","",""
"","psychophysics","122","595922","0.0-122.0","5f263a38f8e51635c1b87bcd","64e503ff68fdf17bf10f675d","","","","","10421",""," ","key"," ","33.33353376205766","500","250","instPz1","51","1","","25","","","50"
"","psychophysics","123","599862","0.0-123.0","5f263a38f8e51635c1b87bcd","64e503ff68fdf17bf10f675d","","","","","3937",""," ","key"," ","33.331999999999354","500","250","instPz2","19","1","","35","","","20"
"","psychophysics","124","604534","0.0-124.0","5f263a38f8e51635c1b87bcd","64e503ff68fdf17bf10f675d","","","","","4667",""," ","key"," ","33.33540000000004","500","250","instPz3","82","1","","100","","","30"
"","psychophysics","125","615146","0.0-125.0","5f263a38f8e51635c1b87bcd","64e503ff68fdf17bf10f675d","","","","","10610",""," ","key"," ","33.33350473186089","500","250","instPz4","43","1","","100","","","30"
"","psychophysics","126","616497","0.0-126.0","5f263a38f8e51635c1b87bcd","64e503ff68fdf17bf10f675d","","","","","1347",""," ","key"," ","33.331999999999354","500","250","inst","","","","","","",""
"","psychophysics","127","619708","0.0-127.0","5f263a38f8e51635c1b87bcd","64e503ff68fdf17bf10f675d","","","","","3204",""," ","key"," ","33.33199999999973","500","250","pz","38","1","1","22","","","29"
"","psychophysics","128","622246","0.0-128.0","5f263a38f8e51635c1b87bcd","64e503ff68fdf17bf10f675d","","","","","2535",""," ","key"," ","33.33200000000031","500","250","pz","57","1","1","45","","","41"
"","psychophysics","129","625856","0.0-129.0","5f263a38f8e51635c1b87bcd","64e503ff68fdf17bf10f675d","","","","","3607",""," ","key"," ","33.33735514018645","500","250","pz","62","1","1","51","","","44"
"","psychophysics","130","630531","0.0-130.0","5f263a38f8e51635c1b87bcd","64e503ff68fdf17bf10f675d","","","","","4668",""," ","key"," ","33.331999999999866","500","250","pz","57","1","1","21","","","42"
"","psychophysics","131","633305","0.0-131.0","5f263a38f8e51635c1b87bcd","64e503ff68fdf17bf10f675d","","","","","2771",""," ","key"," ","33.332000000000555","500","250","pz","38","1","1","31","","","30"
"","psychophysics","132","635694","0.0-132.0","5f263a38f8e51635c1b87bcd","64e503ff68fdf17bf10f675d","","","","","2385",""," ","key"," ","33.331999999999866","500","250","pz","37","1","1","26","","","26"
"","psychophysics","133","642727","0.0-133.0","5f263a38f8e51635c1b87bcd","64e503ff68fdf17bf10f675d","","","","","7026",""," ","key"," ","33.331999999999866","500","250","pz","84","1","1","22","","","52"
"","psychophysics","134","649055","0.0-134.0","5f263a38f8e51635c1b87bcd","64e503ff68fdf17bf10f675d","","","","","6323",""," ","key"," ","33.33465608465608","500","250","pz","66","1","1","21","","","50"
"","psychophysics","135","653691","0.0-135.0","5f263a38f8e51635c1b87bcd","64e503ff68fdf17bf10f675d","","","","","4633",""," ","key"," ","33.335637681159206","500","250","pz","57","1","1","58","","","37"
"","psychophysics","136","658707","0.0-136.0","5f263a38f8e51635c1b87bcd","64e503ff68fdf17bf10f675d","","","","","5013",""," ","key"," ","33.33200000000031","500","250","pz","58","1","1","31","","","41"
"","psychophysics","137","661829","0.0-137.0","5f263a38f8e51635c1b87bcd","64e503ff68fdf17bf10f675d","","","","","3119",""," ","key"," ","33.33199999999994","500","250","pz","56","1","1","51","","","48"
"","psychophysics","138","667433","0.0-138.0","5f263a38f8e51635c1b87bcd","64e503ff68fdf17bf10f675d","","","","","5596",""," ","key"," ","33.3349880952377","500","250","pz","69","1","1","21","","","55"
"","psychophysics","139","675444","0.0-139.0","5f263a38f8e51635c1b87bcd","64e503ff68fdf17bf10f675d","","","","","null","","null","key","null","33.33409623430933","500","250","pz","39","1","1","39","","","41"
"","psychophysics","140","680255","0.0-140.0","5f263a38f8e51635c1b87bcd","64e503ff68fdf17bf10f675d","","","","","4808",""," ","key"," ","33.33200000000017","500","250","pz","54","1","1","39","","","34"
"","psychophysics","141","688258","0.0-141.0","5f263a38f8e51635c1b87bcd","64e503ff68fdf17bf10f675d","","","","","null","","null","key","null","33.3336820083682","500","250","pz","44","1","1","44","","","48"
"","psychophysics","142","691469","0.0-142.0","5f263a38f8e51635c1b87bcd","64e503ff68fdf17bf10f675d","","","","","3209",""," ","key"," ","33.33199999999973","500","250","inst","","","","","","",""
"","psychophysics","143","697408","0.0-143.0","5f263a38f8e51635c1b87bcd","64e503ff68fdf17bf10f675d","","","","","5935",""," ","key"," ","33.3346949152538","500","250","instPog0","160","1","","190","0","0","160"
"","psychophysics","144","701432","0.0-144.0","5f263a38f8e51635c1b87bcd","64e503ff68fdf17bf10f675d","","","","","4021",""," ","key"," ","33.33199999999973","500","250","instPog1","162","1","","190","0","0","160"
"","psychophysics","145","707188","0.0-145.0","5f263a38f8e51635c1b87bcd","64e503ff68fdf17bf10f675d","","","","","5755",""," ","key"," ","33.334789473683934","500","250","instPog2","176","1","","160","0","0","160"
"","psychophysics","146","708121","0.0-146.0","5f263a38f8e51635c1b87bcd","64e503ff68fdf17bf10f675d","","","","","930",""," ","key"," ","33.33199999999703","500","250","inst","","","","","","",""
"","psychophysics","147","711174","0.0-147.0","5f263a38f8e51635c1b87bcd","64e503ff68fdf17bf10f675d","","","","","3050",""," ","key"," ","33.331999999999354","500","250","pog","167","1","1","149","0","0","156"
"","psychophysics","148","715308","0.0-148.0","5f263a38f8e51635c1b87bcd","64e503ff68fdf17bf10f675d","","","","","4132",""," ","key"," ","33.335869918699466","500","250","pog","136","1","1","194","0","0","123"
"","psychophysics","149","717524","0.0-149.0","5f263a38f8e51635c1b87bcd","64e503ff68fdf17bf10f675d","","","","","2213",""," ","key"," ","33.331999999999354","500","250","pog","146","1","1","166","0","0","127"
"","psychophysics","150","723410","0.0-150.0","5f263a38f8e51635c1b87bcd","64e503ff68fdf17bf10f675d","","","","","5878",""," ","key"," ","33.33200000000017","500","250","pog","139","1","1","207","0","0","122"
"","psychophysics","151","728020","0.0-151.0","5f263a38f8e51635c1b87bcd","64e503ff68fdf17bf10f675d","","","","","4607",""," ","key"," ","33.335481751824894","500","250","pog","202","1","1","152","0","0","184"
"","psychophysics","152","736026","0.0-152.0","5f263a38f8e51635c1b87bcd","64e503ff68fdf17bf10f675d","","","","","null","","null","key","null","33.33399163179926","500","250","pog","207","1","1","125","0","0","189"
"","psychophysics","153","736160","0.0-153.0","5f263a38f8e51635c1b87bcd","64e503ff68fdf17bf10f675d","","","","","132",""," ","key"," ","33.33200000001428","500","250","pog","138","1","1","138","0","0","159"
"","psychophysics","154","739612","0.0-154.0","5f263a38f8e51635c1b87bcd","64e503ff68fdf17bf10f675d","","","","","3450",""," ","key"," ","33.331999999999965","500","250","pog","147","1","1","155","0","0","120"
"","psychophysics","155","743319","0.0-155.0","5f263a38f8e51635c1b87bcd","64e503ff68fdf17bf10f675d","","","","","3702",""," ","key"," ","33.33200000000017","500","250","pog","196","1","1","152","0","0","178"
"","psychophysics","156","748154","0.0-156.0","5f263a38f8e51635c1b87bcd","64e503ff68fdf17bf10f675d","","","","","4833",""," ","key"," ","33.33531250000023","500","250","pog","180","1","1","112","0","0","165"
"","psychophysics","157","752026","0.0-157.0","5f263a38f8e51635c1b87bcd","64e503ff68fdf17bf10f675d","","","","","3870",""," ","key"," ","33.33199999999943","500","250","pog","208","1","1","172","0","0","199"
"","psychophysics","158","754166","0.0-158.0","5f263a38f8e51635c1b87bcd","64e503ff68fdf17bf10f675d","","","","","2137",""," ","key"," ","33.339437499998894","500","250","pog","198","1","1","192","0","0","187"
"","psychophysics","159","758091","0.0-159.0","5f263a38f8e51635c1b87bcd","64e503ff68fdf17bf10f675d","","","","","3923",""," ","key"," ","33.331999999999894","500","250","pog","157","1","1","201","0","0","142"
"","psychophysics","160","761020","0.0-160.0","5f263a38f8e51635c1b87bcd","64e503ff68fdf17bf10f675d","","","","","2922",""," ","key"," ","33.332000000000896","500","250","pog","134","1","1","158","0","0","121"
"","psychophysics","161","764979","0.0-161.0","5f263a38f8e51635c1b87bcd","64e503ff68fdf17bf10f675d","","","","","3956",""," ","key"," ","33.33604237288177","500","250","pog","186","1","1","148","0","0","163"
"","psychophysics","162","766177","0.0-162.0","5f263a38f8e51635c1b87bcd","64e503ff68fdf17bf10f675d","","","","","1196",""," ","key"," ","33.331999999999866","500","250","inst","","","","","","",""
"","psychophysics","163","775892","0.0-163.0","5f263a38f8e51635c1b87bcd","64e503ff68fdf17bf10f675d","","","","","9710",""," ","key"," ","33.333931034482646","500","250","instZol1","0.19999999999999982","","","-1.3","0","0",""
"","psychophysics","164","784388","0.0-164.0","5f263a38f8e51635c1b87bcd","64e503ff68fdf17bf10f675d","","","","","8491",""," ","key"," ","33.33387795275565","500","250","instZol2","1.400000000000001","1","","2","0","0",""
"","psychophysics","165","785312","0.0-165.0","5f263a38f8e51635c1b87bcd","64e503ff68fdf17bf10f675d","","","","","923",""," ","key"," ","33.332000000001344","500","250","inst","","","","","","",""
"","psychophysics","166","789406","0.0-166.0","5f263a38f8e51635c1b87bcd","64e503ff68fdf17bf10f675d","","","","","4085",""," ","key"," ","33.332000000000605","500","250","zol","0.7899999999999999","1","1","-0.39","-26","-18",""
"","psychophysics","167","795365","0.0-167.0","5f263a38f8e51635c1b87bcd","64e503ff68fdf17bf10f675d","","","","","5955",""," ","key"," ","33.33467415730362","500","250","zol","1.26","1","1","0.24","10","-21",""
"","psychophysics","168","799853","0.0-168.0","5f263a38f8e51635c1b87bcd","64e503ff68fdf17bf10f675d","","","","","4484",""," ","key"," ","33.33200000000057","500","250","zol","0.9400000000000001","1","1","0.16","25","29",""
"","psychophysics","169","806898","0.0-169.0","5f263a38f8e51635c1b87bcd","64e503ff68fdf17bf10f675d","","","","","7040",""," ","key"," ","33.33426066350702","500","250","zol","0.7599999999999999","1","1","-0.46","27","17",""
"","psychophysics","170","811621","0.0-170.0","5f263a38f8e51635c1b87bcd","64e503ff68fdf17bf10f675d","","","","","4719",""," ","key"," ","33.331999999999866","500","250","zol","1.9200000000000008","1","1","-0.02","-20","21",""
"","psychophysics","171","817220","0.0-171.0","5f263a38f8e51635c1b87bcd","64e503ff68fdf17bf10f675d","","","","","5594",""," ","key"," ","33.33485029940075","500","250","zol","0.9099999999999999","1","1","0.19","-5","7",""
"","psychophysics","172","823189","0.0-172.0","5f263a38f8e51635c1b87bcd","64e503ff68fdf17bf10f675d","","","","","5965",""," ","key"," ","33.33200000000011","500","250","zol","1.6700000000000004","1","1","-0.47","22","13",""
"","psychophysics","173","828888","0.0-173.0","5f263a38f8e51635c1b87bcd","64e503ff68fdf17bf10f675d","","","","","5694",""," ","key"," ","33.33480588235303","500","250","zol","1.4300000000000002","1","1","-0.43","21","11",""
"","psychophysics","174","832503","0.0-174.0","5f263a38f8e51635c1b87bcd","64e503ff68fdf17bf10f675d","","","","","3610",""," ","key"," ","33.33199999999919","500","250","zol","1.4500000000000004","1","1","-0.75","-27","29",""
"","psychophysics","175","838028","0.0-175.0","5f263a38f8e51635c1b87bcd","64e503ff68fdf17bf10f675d","","","","","5521",""," ","key"," ","33.33490243902438","500","250","zol","0.7100000000000001","1","1","-0.41","20","-11",""
"","psychophysics","176","841453","0.0-176.0","5f263a38f8e51635c1b87bcd","64e503ff68fdf17bf10f675d","","","","","3420",""," ","key"," ","33.33200000000058","500","250","zol","1.4700000000000002","1","1","-0.37","9","24",""
"","psychophysics","177","845687","0.0-177.0","5f263a38f8e51635c1b87bcd","64e503ff68fdf17bf10f675d","","","","","4230",""," ","key"," ","33.33662698412728","500","250","zol","1.5800000000000003","1","1","-0.38","22","12",""
"","psychophysics","178","852123","0.0-178.0","5f263a38f8e51635c1b87bcd","64e503ff68fdf17bf10f675d","","","","","6431",""," ","key"," ","33.33199999999973","500","250","zol","0.8799999999999999","1","1","-0.38","0","-24",""
"","psychophysics","179","858596","0.0-179.0","5f263a38f8e51635c1b87bcd","64e503ff68fdf17bf10f675d","","","","","6467",""," ","key"," ","33.33458247422673","500","250","zol","1.05","1","1","0.05","-11","14",""
"","psychophysics","180","861954","0.0-180.0","5f263a38f8e51635c1b87bcd","64e503ff68fdf17bf10f675d","","","","","3353",""," ","key"," ","33.33200000000017","500","250","zol","0.9599999999999999","1","1","0.04","-22","7",""
"","psychophysics","181","863743","0.0-181.0","5f263a38f8e51635c1b87bcd","64e503ff68fdf17bf10f675d","","","","","1786",""," ","key"," ","33.33200000000037","500","250","inst","","","","","","",""
"","psychophysics","182","883541","0.0-182.0","5f263a38f8e51635c1b87bcd","64e503ff68fdf17bf10f675d","","","","","19795",""," ","key"," ","98.83405499999994","500","250","instEB1","39","2","","30","0","0","40"
"","psychophysics","183","886227","0.0-183.0","5f263a38f8e51635c1b87bcd","64e503ff68fdf17bf10f675d","","","","","2683",""," ","key"," ","33.33912500000006","500","250","instEB2","30","2","","40","0","0","30"
"","psychophysics","184","890743","0.0-184.0","5f263a38f8e51635c1b87bcd","64e503ff68fdf17bf10f675d","","","","","4512",""," ","key"," ","33.33200000000009","500","250","instEB3","31","2","","45","0","0","27"
"","psychophysics","185","894364","0.0-185.0","5f263a38f8e51635c1b87bcd","64e503ff68fdf17bf10f675d","","","","","3617",""," ","key"," ","33.33565740740677","500","250","instEB4","49","2","","30","0","0","40"
"","psychophysics","186","913810","0.0-186.0","5f263a38f8e51635c1b87bcd","64e503ff68fdf17bf10f675d","","","","","19445",""," ","key"," ","64.02541584158416","500","250","inst","","","","","","",""
"","psychophysics","187","918173","0.0-187.0","5f263a38f8e51635c1b87bcd","64e503ff68fdf17bf10f675d","","","","","4357",""," ","key"," ","33.33566153846198","500","250","eb","54","2","","33","0","0","48"
"","psychophysics","188","921918","0.0-188.0","5f263a38f8e51635c1b87bcd","64e503ff68fdf17bf10f675d","","","","","3743",""," ","key"," ","33.33200000000065","500","250","eb","45","2","","24","0","0","39"
"","psychophysics","189","924686","0.0-189.0","5f263a38f8e51635c1b87bcd","64e503ff68fdf17bf10f675d","","","","","2764",""," ","key"," ","33.33781707317074","500","250","eb","48","2","","54","0","0","36"
"","psychophysics","190","928551","0.0-190.0","5f263a38f8e51635c1b87bcd","64e503ff68fdf17bf10f675d","","","","","3863",""," ","key"," ","33.33199999999943","500","250","eb","30","2","","50","0","0","30"
"","psychophysics","191","933204","0.0-191.0","5f263a38f8e51635c1b87bcd","64e503ff68fdf17bf10f675d","","","","","4649",""," ","key"," ","33.33200000000032","500","250","eb","59","2","","33","0","0","54"
"","psychophysics","192","938960","0.0-192.0","5f263a38f8e51635c1b87bcd","64e503ff68fdf17bf10f675d","","","","","5753",""," ","key"," ","33.33476744186022","500","250","eb","60","2","","42","0","0","51"
"","psychophysics","193","943209","0.0-193.0","5f263a38f8e51635c1b87bcd","64e503ff68fdf17bf10f675d","","","","","4246",""," ","key"," ","33.33200000000042","500","250","eb","48","2","","30","0","0","40"
"","psychophysics","194","945205","0.0-194.0","5f263a38f8e51635c1b87bcd","64e503ff68fdf17bf10f675d","","","","","1991",""," ","key"," ","33.34008474576374","500","250","eb","49","2","","51","0","0","40"
"","psychophysics","195","948832","0.0-195.0","5f263a38f8e51635c1b87bcd","64e503ff68fdf17bf10f675d","","","","","3624",""," ","key"," ","33.33200000000027","500","250","eb","29","2","","41","0","0","28"
"","psychophysics","196","952377","0.0-196.0","5f263a38f8e51635c1b87bcd","64e503ff68fdf17bf10f675d","","","","","3543",""," ","key"," ","33.332000000000974","500","250","eb","44","2","","28","0","0","37"
"","psychophysics","197","954577","0.0-197.0","5f263a38f8e51635c1b87bcd","64e503ff68fdf17bf10f675d","","","","","2194",""," ","key"," ","33.3393230769228","500","250","eb","57","2","","52","0","0","44"
"","psychophysics","198","957677","0.0-198.0","5f263a38f8e51635c1b87bcd","64e503ff68fdf17bf10f675d","","","","","3096",""," ","key"," ","33.33199999999994","500","250","eb","60","2","","46","0","0","48"
"","psychophysics","199","963498","0.0-199.0","5f263a38f8e51635c1b87bcd","64e503ff68fdf17bf10f675d","","","","","5818",""," ","key"," ","33.33200000000023","500","250","eb","61","2","","24","0","0","52"
"","psychophysics","200","965828","0.0-200.0","5f263a38f8e51635c1b87bcd","64e503ff68fdf17bf10f675d","","","","","2326",""," ","key"," ","33.33891304347671","500","250","eb","43","2","","37","0","0","39"
"","psychophysics","201","969039","0.0-201.0","5f263a38f8e51635c1b87bcd","64e503ff68fdf17bf10f675d","","","","","3208",""," ","key"," ","33.33200000000039","500","250","eb","57","2","","38","0","0","46"
"","psychophysics","202","983208","0.0-202.0","5f263a38f8e51635c1b87bcd","64e503ff68fdf17bf10f675d","","","","","14164",""," ","key"," ","124.92547787610643","500","250","inst","","","","","","",""
"","psychophysics","203","989421","0.0-203.0","5f263a38f8e51635c1b87bcd","64e503ff68fdf17bf10f675d","","","","","6210",""," ","key"," ","33.334559139784965","500","250","instBr3","13","2","","40","0","0","300"
"","psychophysics","204","990395","0.0-204.0","5f263a38f8e51635c1b87bcd","64e503ff68fdf17bf10f675d","","","","","972",""," ","key"," ","33.331999999999034","500","250","inst","","","","","","",""
"","psychophysics","205","993319","0.0-205.0","5f263a38f8e51635c1b87bcd","64e503ff68fdf17bf10f675d","","","","","2920",""," ","key"," ","33.33199999999956","500","250","br","20","2","1","11","30","8","250"
"","psychophysics","206","998548","0.0-206.0","5f263a38f8e51635c1b87bcd","64e503ff68fdf17bf10f675d","","","","","5223",""," ","key"," ","33.33550322580662","500","250","br","14","2","1","-27","6","26","263"
"","psychophysics","207","1001018","0.0-207.0","5f263a38f8e51635c1b87bcd","64e503ff68fdf17bf10f675d","","","","","2465",""," ","key"," ","33.331999999999596","500","250","br","17","2","1","3","14","-19","225"
"","psychophysics","208","1003610","0.0-208.0","5f263a38f8e51635c1b87bcd","64e503ff68fdf17bf10f675d","","","","","2589",""," ","key"," ","33.331999999999475","500","250","br","18","2","1","0","26","1","245"
"","psychophysics","209","1009697","0.0-209.0","5f263a38f8e51635c1b87bcd","64e503ff68fdf17bf10f675d","","","","","6083",""," ","key"," ","33.33447802197802","500","250","br","15","2","1","-30","-24","-11","234"
"","psychophysics","210","1012161","0.0-210.0","5f263a38f8e51635c1b87bcd","64e503ff68fdf17bf10f675d","","","","","2461",""," ","key"," ","33.33200000000046","500","250","br","18","2","1","4","-13","-10","206"
"","psychophysics","211","1018154","0.0-211.0","5f263a38f8e51635c1b87bcd","64e503ff68fdf17bf10f675d","","","","","5991",""," ","key"," ","33.3350167597765","500","250","br","16","2","1","-24","19","9","239"
"","psychophysics","212","1023809","0.0-212.0","5f263a38f8e51635c1b87bcd","64e503ff68fdf17bf10f675d","","","","","5651",""," ","key"," ","33.33200000000042","500","250","br","22","2","1","-19","-21","-11","246"
"","psychophysics","213","1027553","0.0-213.0","5f263a38f8e51635c1b87bcd","64e503ff68fdf17bf10f675d","","","","","3741",""," ","key"," ","33.336258928571105","500","250","br","14","2","1","28","27","23","249"
"","psychophysics","214","1032575","0.0-214.0","5f263a38f8e51635c1b87bcd","64e503ff68fdf17bf10f675d","","","","","5019",""," ","key"," ","33.33199999999996","500","250","br","18","2","1","25","-12","18","266"
"","psychophysics","215","1035362","0.0-215.0","5f263a38f8e51635c1b87bcd","64e503ff68fdf17bf10f675d","","","","","2783",""," ","key"," ","33.33773493975771","500","250","br","16","2","1","29","22","-28","260"
"","psychophysics","216","1040284","0.0-216.0","5f263a38f8e51635c1b87bcd","64e503ff68fdf17bf10f675d","","","","","4920",""," ","key"," ","33.33200000000002","500","250","br","25","2","1","-19","-20","-22","234"
"","psychophysics","217","1043785","0.0-217.0","5f263a38f8e51635c1b87bcd","64e503ff68fdf17bf10f675d","","","","","3497",""," ","key"," ","33.331999999999354","500","250","br","17","2","1","0","-11","15","251"
"","psychophysics","218","1049030","0.0-218.0","5f263a38f8e51635c1b87bcd","64e503ff68fdf17bf10f675d","","","","","5242",""," ","key"," ","33.33505769230751","500","250","br","27","2","1","-14","-19","-7","262"
"","psychophysics","219","1051318","0.0-219.0","5f263a38f8e51635c1b87bcd","64e503ff68fdf17bf10f675d","","","","","2284",""," ","key"," ","33.33200000000173","500","250","br","25","2","1","26","-8","-30","262"
