"success","trial_type","trial_index","time_elapsed","internal_node_id","pid","sid","timeout","failed_images","failed_audio","failed_video","rt","stimulus","response","response_type","key_press","avg_frame_time","center_x","center_y","task","resp","version","block","jitterX","jitterY","start","parA"
"true","fullscreen","0","3440","0.0-0.0","62d4abc05c64e581f78b1ade","64de83a5bb4c26154eb83b5d","","","","","","","","","","","","","","","","","","","",""
"true","preload","1","3517","0.0-1.0","62d4abc05c64e581f78b1ade","64de83a5bb4c26154eb83b5d","false","[]","[]","[]","","","","","","","","","","","","","","","",""
"","html-button-response","2","5212","0.0-2.0","62d4abc05c64e581f78b1ade","64de83a5bb4c26154eb83b5d","","","","","1693","Please Make Sure Your Audio Is On.","0","","","","","","","","","","","","",""
"","psychophysics","3","9993","0.0-3.0","62d4abc05c64e581f78b1ade","64de83a5bb4c26154eb83b5d","","","","","4763",""," ","key"," ","16.66763763066202","683","250","","","","","","","",""
"","psychophysics","4","12892","0.0-4.0","62d4abc05c64e581f78b1ade","64de83a5bb4c26154eb83b5d","","","","","2897",""," ","key"," ","16.666000000000004","500","250","inst","","","","","","",""
"","psychophysics","5","17364","0.0-5.0","62d4abc05c64e581f78b1ade","64de83a5bb4c26154eb83b5d","","","","","4469",""," ","key"," ","16.667501872659177","500","250","sample0","","","","","","",""
"","psychophysics","6","23953","0.0-6.0","62d4abc05c64e581f78b1ade","64de83a5bb4c26154eb83b5d","","","","","6586",""," ","key"," ","16.665999999999997","500","250","sample1","","","","","","",""
"","psychophysics","7","29275","0.0-7.0","62d4abc05c64e581f78b1ade","64de83a5bb4c26154eb83b5d","","","","","5316",""," ","key"," ","16.667125391849524","500","250","sample2","130","","","","","",""
"","psychophysics","8","43557","0.0-8.0","62d4abc05c64e581f78b1ade","64de83a5bb4c26154eb83b5d","","","","","14280",""," ","key"," ","16.666550233644863","500","250","sample3","100","","","","","",""
"","psychophysics","9","53829","0.0-9.0","62d4abc05c64e581f78b1ade","64de83a5bb4c26154eb83b5d","","","","","10269",""," ","key"," ","16.66665528455285","500","250","sample4","100","","","","","",""
"","psychophysics","10","61969","0.0-10.0","62d4abc05c64e581f78b1ade","64de83a5bb4c26154eb83b5d","","","","","8137",""," ","key"," ","16.6667864476386","500","250","sample5","","","","","","",""
"","psychophysics","11","70003","0.0-11.0","62d4abc05c64e581f78b1ade","64de83a5bb4c26154eb83b5d","","","","","8029",""," ","key"," ","16.66691891891892","500","250","sample6","504","","","","","",""
"","psychophysics","12","76697","0.0-12.0","62d4abc05c64e581f78b1ade","64de83a5bb4c26154eb83b5d","","","","","6689",""," ","key"," ","16.666000000000015","500","250","inst","","","","","","",""
"","psychophysics","13","81754","0.0-13.0","62d4abc05c64e581f78b1ade","64de83a5bb4c26154eb83b5d","","","","","5055",""," ","key"," ","16.665999999999993","500","250","inst","","","","","","",""
"","psychophysics","14","85391","0.0-14.0","62d4abc05c64e581f78b1ade","64de83a5bb4c26154eb83b5d","","","","","3632",""," ","key"," ","16.666000000000043","500","250","inst","","","","","","",""
"","psychophysics","15","87724","0.0-15.0","62d4abc05c64e581f78b1ade","64de83a5bb4c26154eb83b5d","","","","","2331",""," ","key"," ","16.66880575539563","500","250","inst","","","","","","",""
"","psychophysics","16","89494","0.0-16.0","62d4abc05c64e581f78b1ade","64de83a5bb4c26154eb83b5d","","","","","1768",""," ","key"," ","16.66600000000007","500","250","inst","","","","","","",""
"","psychophysics","17","95798","0.0-17.0","62d4abc05c64e581f78b1ade","64de83a5bb4c26154eb83b5d","","","","","6301",""," ","key"," ","16.665999999999986","500","250","instZol0","0.20000000000000004","","","0","0","0",""
"","psychophysics","18","109507","0.0-18.0","62d4abc05c64e581f78b1ade","64de83a5bb4c26154eb83b5d","","","","","13707",""," ","key"," ","16.667076642335765","500","250","instZol1","2.7755575615628914e-17","","","0","0","-1.3",""
"","psychophysics","19","114413","0.0-19.0","62d4abc05c64e581f78b1ade","64de83a5bb4c26154eb83b5d","","","","","4901",""," ","key"," ","16.665999999999972","500","250","instZol2","-2","2","","0","0","2",""
"","psychophysics","20","116841","0.0-20.0","62d4abc05c64e581f78b1ade","64de83a5bb4c26154eb83b5d","","","","","2426",""," ","key"," ","16.668765517241315","500","250","inst","","","","","","",""
"","psychophysics","21","124848","0.0-21.0","62d4abc05c64e581f78b1ade","64de83a5bb4c26154eb83b5d","","","","","null","","null","key","null","16.66600000000002","500","250","zol","-1.56","2","0","0","8","0.36",""
"","psychophysics","22","125247","0.0-22.0","62d4abc05c64e581f78b1ade","64de83a5bb4c26154eb83b5d","","","","","395",""," ","key"," ","16.66599999999997","500","250","zol","-0.18","2","0","3","-3","0.18",""
"","psychophysics","23","131391","0.0-23.0","62d4abc05c64e581f78b1ade","64de83a5bb4c26154eb83b5d","","","","","6140",""," ","key"," ","16.667000000000016","500","250","zol","-1.4000000000000001","2","0","12","-6","-0.4",""
"","psychophysics","24","139400","0.0-24.0","62d4abc05c64e581f78b1ade","64de83a5bb4c26154eb83b5d","","","","","null","","null","key","null","16.666974947807933","500","250","zol","-1.5400000000000005","2","0","13","27","0.74",""
"","psychophysics","25","139428","0.0-25.0","62d4abc05c64e581f78b1ade","64de83a5bb4c26154eb83b5d","","","","","22",""," ","key"," ","16.66599999999744","500","250","zol","0.31","2","0","14","-23","-0.31",""
"","psychophysics","26","145716","0.0-26.0","62d4abc05c64e581f78b1ade","64de83a5bb4c26154eb83b5d","","","","","6285",""," ","key"," ","16.665999999999993","500","250","zol","-0.24000000000000007","2","0","16","3","-0.46",""
"","psychophysics","27","152274","0.0-27.0","62d4abc05c64e581f78b1ade","64de83a5bb4c26154eb83b5d","","","","","6552",""," ","key"," ","16.667017811704852","500","250","zol","-0.82","2","0","-8","29","0.42",""
"","psychophysics","28","157633","0.0-28.0","62d4abc05c64e581f78b1ade","64de83a5bb4c26154eb83b5d","","","","","5354",""," ","key"," ","16.667271875000004","500","250","zol","-1.4000000000000001","2","0","19","8","0.7",""
"","psychophysics","29","164472","0.0-29.0","62d4abc05c64e581f78b1ade","64de83a5bb4c26154eb83b5d","","","","","6833",""," ","key"," ","16.665999999999993","500","250","zol","-0.7","2","0","30","-1","0.4",""
"","psychophysics","30","171090","0.0-30.0","62d4abc05c64e581f78b1ade","64de83a5bb4c26154eb83b5d","","","","","6614",""," ","key"," ","16.667037878787944","500","250","zol","-1.3800000000000001","2","0","23","-20","0.18",""
"","psychophysics","31","178509","0.0-31.0","62d4abc05c64e581f78b1ade","64de83a5bb4c26154eb83b5d","","","","","7414",""," ","key"," ","16.66685135135134","500","250","zol","-1.8500000000000005","2","0","5","-24","0.05",""
"","psychophysics","32","185053","0.0-32.0","62d4abc05c64e581f78b1ade","64de83a5bb4c26154eb83b5d","","","","","6540",""," ","key"," ","16.66599999999997","500","250","zol","-1.0999999999999999","2","0","0","6","0.3",""
"","psychophysics","33","193059","0.0-33.0","62d4abc05c64e581f78b1ade","64de83a5bb4c26154eb83b5d","","","","","null","","null","key","null","16.666929166666705","500","250","zol","-0.63","2","0","6","-18","-0.47",""
"","psychophysics","34","197575","0.0-34.0","62d4abc05c64e581f78b1ade","64de83a5bb4c26154eb83b5d","","","","","4512",""," ","key"," ","16.66742592592588","500","250","zol","-2.350000000000001","2","0","-17","26","0.75",""
"","psychophysics","35","203241","0.0-35.0","62d4abc05c64e581f78b1ade","64de83a5bb4c26154eb83b5d","","","","","5662",""," ","key"," ","16.666000000000015","500","250","zol","-1.8700000000000006","2","0","-28","-15","0.67",""
"","psychophysics","36","205276","0.0-36.0","62d4abc05c64e581f78b1ade","64de83a5bb4c26154eb83b5d","","","","","2033",""," ","key"," ","16.666000000000086","500","250","inst","","","","","","",""
"","psychophysics","37","219589","0.0-37.0","62d4abc05c64e581f78b1ade","64de83a5bb4c26154eb83b5d","","","","","14311",""," ","key"," ","16.72546900584797","500","250","instPog0","160","1","","0","0","190","160"
"","psychophysics","38","228786","0.0-38.0","62d4abc05c64e581f78b1ade","64de83a5bb4c26154eb83b5d","","","","","9194",""," ","key"," ","16.666663636363598","500","250","instPog1","160","1","","0","0","190","160"
"","psychophysics","39","230631","0.0-39.0","62d4abc05c64e581f78b1ade","64de83a5bb4c26154eb83b5d","","","","","1843",""," ","key"," ","16.66599999999982","500","250","instPog2","160","1","","0","0","160","160"
"","psychophysics","40","231743","0.0-40.0","62d4abc05c64e581f78b1ade","64de83a5bb4c26154eb83b5d","","","","","1110",""," ","key"," ","16.666000000000086","500","250","inst","","","","","","",""
"","psychophysics","41","235817","0.0-41.0","62d4abc05c64e581f78b1ade","64de83a5bb4c26154eb83b5d","","","","","4071",""," ","key"," ","16.666000000000075","500","250","pog","170","1","0","0","0","154","158"
"","psychophysics","42","243822","0.0-42.0","62d4abc05c64e581f78b1ade","64de83a5bb4c26154eb83b5d","","","","","null","","null","key","null","16.666951983298542","500","250","pog","147","1","0","0","0","215","123"
"","psychophysics","43","246177","0.0-43.0","62d4abc05c64e581f78b1ade","64de83a5bb4c26154eb83b5d","","","","","2350",""," ","key"," ","16.665999999999915","500","250","pog","133","1","0","0","0","131","136"
"","psychophysics","44","251116","0.0-44.0","62d4abc05c64e581f78b1ade","64de83a5bb4c26154eb83b5d","","","","","4937",""," ","key"," ","16.667396610169533","500","250","pog","172","1","0","0","0","208","145"
"","psychophysics","45","257012","0.0-45.0","62d4abc05c64e581f78b1ade","64de83a5bb4c26154eb83b5d","","","","","5893",""," ","key"," ","16.665999999999993","500","250","pog","198","1","0","0","0","218","182"
"","psychophysics","46","264525","0.0-46.0","62d4abc05c64e581f78b1ade","64de83a5bb4c26154eb83b5d","","","","","7511",""," ","key"," ","16.666935555555586","500","250","pog","192","1","0","0","0","134","166"
"","psychophysics","47","267025","0.0-47.0","62d4abc05c64e581f78b1ade","64de83a5bb4c26154eb83b5d","","","","","2497",""," ","key"," ","16.66599999999998","500","250","pog","145","1","0","0","0","153","123"
"","psychophysics","48","271733","0.0-48.0","62d4abc05c64e581f78b1ade","64de83a5bb4c26154eb83b5d","","","","","4706",""," ","key"," ","16.667416370106743","500","250","pog","145","1","0","0","0","107","141"
"","psychophysics","49","274960","0.0-49.0","62d4abc05c64e581f78b1ade","64de83a5bb4c26154eb83b5d","","","","","3224",""," ","key"," ","16.666000000000004","500","250","pog","185","1","0","0","0","197","157"
"","psychophysics","50","280152","0.0-50.0","62d4abc05c64e581f78b1ade","64de83a5bb4c26154eb83b5d","","","","","5189",""," ","key"," ","16.667190322580733","500","250","pog","160","1","0","0","0","104","140"
"","psychophysics","51","285268","0.0-51.0","62d4abc05c64e581f78b1ade","64de83a5bb4c26154eb83b5d","","","","","5112",""," ","key"," ","16.666000000000103","500","250","pog","137","1","0","0","0","101","123"
"","psychophysics","52","288192","0.0-52.0","62d4abc05c64e581f78b1ade","64de83a5bb4c26154eb83b5d","","","","","2922",""," ","key"," ","16.66857714285708","500","250","pog","214","1","0","0","0","204","198"
"","psychophysics","53","293227","0.0-53.0","62d4abc05c64e581f78b1ade","64de83a5bb4c26154eb83b5d","","","","","5032",""," ","key"," ","16.66600000000005","500","250","pog","168","1","0","0","0","144","152"
"","psychophysics","54","297039","0.0-54.0","62d4abc05c64e581f78b1ade","64de83a5bb4c26154eb83b5d","","","","","3810",""," ","key"," ","16.665999999999993","500","250","pog","203","1","0","0","0","219","175"
"","psychophysics","55","301295","0.0-55.0","62d4abc05c64e581f78b1ade","64de83a5bb4c26154eb83b5d","","","","","4253",""," ","key"," ","16.667618110236265","500","250","pog","172","1","0","0","0","188","149"
"","psychophysics","56","302212","0.0-56.0","62d4abc05c64e581f78b1ade","64de83a5bb4c26154eb83b5d","","","","","915",""," ","key"," ","16.665999999999595","500","250","inst","","","","","","",""
"","psychophysics","57","306346","0.0-57.0","62d4abc05c64e581f78b1ade","64de83a5bb4c26154eb83b5d","","","","","4131",""," ","key"," ","16.66599999999991","500","250","instBr0","0","","","0","0","0","300"
"","psychophysics","58","316416","0.0-58.0","62d4abc05c64e581f78b1ade","64de83a5bb4c26154eb83b5d","","","","","10067",""," ","key"," ","16.66669983416255","500","250","instBr1","12","","","0","0","-40","300"
"","psychophysics","59","323652","0.0-59.0","62d4abc05c64e581f78b1ade","64de83a5bb4c26154eb83b5d","","","","","7234",""," ","key"," ","16.666923787528848","500","250","instBr3","19","2","","0","0","40","300"
"","psychophysics","60","325528","0.0-60.0","62d4abc05c64e581f78b1ade","64de83a5bb4c26154eb83b5d","","","","","1874",""," ","key"," ","16.666000000000036","500","250","inst","","","","","","",""
"","psychophysics","61","333003","0.0-61.0","62d4abc05c64e581f78b1ade","64de83a5bb4c26154eb83b5d","","","","","7473",""," ","key"," ","16.66683221476515","500","250","br","8","2","0","1","19","-9","236"
"","psychophysics","62","337754","0.0-62.0","62d4abc05c64e581f78b1ade","64de83a5bb4c26154eb83b5d","","","","","4746",""," ","key"," ","16.667644366197095","500","250","br","18","2","0","-3","15","3","280"
"","psychophysics","63","342503","0.0-63.0","62d4abc05c64e581f78b1ade","64de83a5bb4c26154eb83b5d","","","","","4744",""," ","key"," ","16.666000000000103","500","250","br","19","2","0","-11","-26","14","270"
"","psychophysics","64","348992","0.0-64.0","62d4abc05c64e581f78b1ade","64de83a5bb4c26154eb83b5d","","","","","6484",""," ","key"," ","16.66702313624666","500","250","br","15","2","0","2","-9","-26","300"
"","psychophysics","65","354695","0.0-65.0","62d4abc05c64e581f78b1ade","64de83a5bb4c26154eb83b5d","","","","","5700",""," ","key"," ","16.665999999999915","500","250","br","18","2","0","-10","2","-21","252"
"","psychophysics","66","361021","0.0-66.0","62d4abc05c64e581f78b1ade","64de83a5bb4c26154eb83b5d","","","","","6323",""," ","key"," ","16.667074074074023","500","250","br","20","2","0","-8","-6","11","203"
"","psychophysics","67","369023","0.0-67.0","62d4abc05c64e581f78b1ade","64de83a5bb4c26154eb83b5d","","","","","null","","null","key","null","16.666866666666586","500","250","br","23","2","0","13","8","26","289"
"","psychophysics","68","369266","0.0-68.0","62d4abc05c64e581f78b1ade","64de83a5bb4c26154eb83b5d","","","","","239",""," ","key"," ","16.665999999999677","500","250","br","0","2","0","-5","-24","0","278"
"","psychophysics","69","373958","0.0-69.0","62d4abc05c64e581f78b1ade","64de83a5bb4c26154eb83b5d","","","","","4690",""," ","key"," ","16.66600000000003","500","250","br","17","2","0","-20","-25","6","210"
"","psychophysics","70","378471","0.0-70.0","62d4abc05c64e581f78b1ade","64de83a5bb4c26154eb83b5d","","","","","4510",""," ","key"," ","16.667460966542826","500","250","br","7","2","0","-8","6","18","212"
"","psychophysics","71","382174","0.0-71.0","62d4abc05c64e581f78b1ade","64de83a5bb4c26154eb83b5d","","","","","3699",""," ","key"," ","16.66600000000006","500","250","br","20","2","0","16","29","23","209"
"","psychophysics","72","386678","0.0-72.0","62d4abc05c64e581f78b1ade","64de83a5bb4c26154eb83b5d","","","","","4500",""," ","key"," ","16.665999999999926","500","250","br","16","2","0","26","-1","4","203"
"","psychophysics","73","394681","0.0-73.0","62d4abc05c64e581f78b1ade","64de83a5bb4c26154eb83b5d","","","","","null","","null","key","null","16.666891440501146","500","250","br","23","2","0","-4","-10","-27","225"
"","psychophysics","74","401602","0.0-74.0","62d4abc05c64e581f78b1ade","64de83a5bb4c26154eb83b5d","","","","","6918",""," ","key"," ","16.666992753623212","500","250","br","18","2","0","-15","30","-28","272"
"","psychophysics","75","407537","0.0-75.0","62d4abc05c64e581f78b1ade","64de83a5bb4c26154eb83b5d","","","","","5931",""," ","key"," ","16.66599999999998","500","250","br","22","2","0","22","-9","-5","226"
"","psychophysics","76","408660","0.0-76.0","62d4abc05c64e581f78b1ade","64de83a5bb4c26154eb83b5d","","","","","1120",""," ","key"," ","16.672194029850914","500","250","inst","","","","","","",""
"","psychophysics","77","414359","0.0-77.0","62d4abc05c64e581f78b1ade","64de83a5bb4c26154eb83b5d","","","","","5696",""," ","key"," ","16.665999999999915","500","250","instPzPre","50","0","","","","50","50"
"","psychophysics","78","423000","0.0-78.0","62d4abc05c64e581f78b1ade","64de83a5bb4c26154eb83b5d","","","","","8638",""," ","key"," ","16.666682785299784","500","250","instPz0","45","2","","","","50","50"
"","psychophysics","79","432315","0.0-79.0","62d4abc05c64e581f78b1ade","64de83a5bb4c26154eb83b5d","","","","","9312",""," ","key"," ","16.66680107526884","500","250","instPz1","47","2","","","","25","50"
"","psychophysics","80","434394","0.0-80.0","62d4abc05c64e581f78b1ade","64de83a5bb4c26154eb83b5d","","","","","2077",""," ","key"," ","16.665999999999787","500","250","instPz2","20","2","","","","20","35"
"","psychophysics","81","449678","0.0-81.0","62d4abc05c64e581f78b1ade","64de83a5bb4c26154eb83b5d","","","","","15280",""," ","key"," ","27.4583920863309","500","250","instPz3","55","2","","","","30","100"
"","psychophysics","82","456890","0.0-82.0","62d4abc05c64e581f78b1ade","64de83a5bb4c26154eb83b5d","","","","","7209",""," ","key"," ","33.33200000000002","500","250","instPz4","30","2","","","","30","100"
"","psychophysics","83","458178","0.0-83.0","62d4abc05c64e581f78b1ade","64de83a5bb4c26154eb83b5d","","","","","1287",""," ","key"," ","33.34363157894787","500","250","inst","","","","","","",""
"","psychophysics","84","463042","0.0-84.0","62d4abc05c64e581f78b1ade","64de83a5bb4c26154eb83b5d","","","","","4860",""," ","key"," ","33.33200000000009","500","250","pz","13","2","0","","","23","24"
"","psychophysics","85","470263","0.0-85.0","62d4abc05c64e581f78b1ade","64de83a5bb4c26154eb83b5d","","","","","7218",""," ","key"," ","33.33388837209286","500","250","pz","15","2","0","","","45","22"
"","psychophysics","86","477133","0.0-86.0","62d4abc05c64e581f78b1ade","64de83a5bb4c26154eb83b5d","","","","","6867",""," ","key"," ","33.33199999999999","500","250","pz","19","2","0","","","31","33"
"","psychophysics","87","483216","0.0-87.0","62d4abc05c64e581f78b1ade","64de83a5bb4c26154eb83b5d","","","","","6078",""," ","key"," ","33.33412087912087","500","250","pz","23","2","0","","","55","34"
"","psychophysics","88","490897","0.0-88.0","62d4abc05c64e581f78b1ade","64de83a5bb4c26154eb83b5d","","","","","7676",""," ","key"," ","33.33391266375527","500","250","pz","25","2","0","","","47","45"
"","psychophysics","89","497503","0.0-89.0","62d4abc05c64e581f78b1ade","64de83a5bb4c26154eb83b5d","","","","","6602",""," ","key"," ","33.3319999999999","500","250","pz","20","2","0","","","57","29"
"","psychophysics","90","502239","0.0-90.0","62d4abc05c64e581f78b1ade","64de83a5bb4c26154eb83b5d","","","","","4733",""," ","key"," ","33.33492907801402","500","250","pz","35","2","0","","","53","54"
"","psychophysics","91","506123","0.0-91.0","62d4abc05c64e581f78b1ade","64de83a5bb4c26154eb83b5d","","","","","3881",""," ","key"," ","33.3320000000004","500","250","pz","36","2","0","","","44","59"
"","psychophysics","92","512968","0.0-92.0","62d4abc05c64e581f78b1ade","64de83a5bb4c26154eb83b5d","","","","","6842",""," ","key"," ","33.33399509803926","500","250","pz","16","2","0","","","52","20"
"","psychophysics","93","519778","0.0-93.0","62d4abc05c64e581f78b1ade","64de83a5bb4c26154eb83b5d","","","","","6807",""," ","key"," ","33.334083743842164","500","250","pz","31","2","0","","","52","54"
"","psychophysics","94","524411","0.0-94.0","62d4abc05c64e581f78b1ade","64de83a5bb4c26154eb83b5d","","","","","4629",""," ","key"," ","33.3319999999999","500","250","pz","36","2","0","","","25","54"
"","psychophysics","95","527649","0.0-95.0","62d4abc05c64e581f78b1ade","64de83a5bb4c26154eb83b5d","","","","","3236",""," ","key"," ","33.33199999999973","500","250","pz","34","2","0","","","40","45"
"","psychophysics","96","531373","0.0-96.0","62d4abc05c64e581f78b1ade","64de83a5bb4c26154eb83b5d","","","","","3721",""," ","key"," ","33.33541818181772","500","250","pz","29","2","0","","","23","50"
"","psychophysics","97","534306","0.0-97.0","62d4abc05c64e581f78b1ade","64de83a5bb4c26154eb83b5d","","","","","2930",""," ","key"," ","33.33199999999956","500","250","pz","29","2","0","","","23","47"
"","psychophysics","98","538114","0.0-98.0","62d4abc05c64e581f78b1ade","64de83a5bb4c26154eb83b5d","","","","","3805",""," ","key"," ","33.332000000001","500","250","pz","16","2","0","","","31","22"
"","psychophysics","99","548485","0.0-99.0","62d4abc05c64e581f78b1ade","64de83a5bb4c26154eb83b5d","","","","","10369",""," ","key"," ","33.334738709677325","500","250","inst","","","","","","",""
"","psychophysics","100","551117","0.0-100.0","62d4abc05c64e581f78b1ade","64de83a5bb4c26154eb83b5d","","","","","2629",""," ","key"," ","33.331999999999354","500","250","instEB0","38","1","","0","0","40","40"
"","psychophysics","101","556515","0.0-101.0","62d4abc05c64e581f78b1ade","64de83a5bb4c26154eb83b5d","","","","","5396",""," ","key"," ","33.331999999999574","500","250","instEB1","33","1","","0","0","40","30"
"","psychophysics","102","567616","0.0-102.0","62d4abc05c64e581f78b1ade","64de83a5bb4c26154eb83b5d","","","","","11097",""," ","key"," ","33.333237951807256","500","250","instEB2","73","1","","0","0","30","40"
"","psychophysics","103","577687","0.0-103.0","62d4abc05c64e581f78b1ade","64de83a5bb4c26154eb83b5d","","","","","10068",""," ","key"," ","33.33336544850496","500","250","instEB3","71","1","","0","0","27","45"
"","psychophysics","104","588304","0.0-104.0","62d4abc05c64e581f78b1ade","64de83a5bb4c26154eb83b5d","","","","","10615",""," ","key"," ","33.33320504731876","500","250","instEB4","84","1","","0","0","40","30"
"","psychophysics","105","589131","0.0-105.0","62d4abc05c64e581f78b1ade","64de83a5bb4c26154eb83b5d","","","","","825",""," ","key"," ","33.35012500000206","500","250","inst","","","","","","",""
"","psychophysics","106","597135","0.0-106.0","62d4abc05c64e581f78b1ade","64de83a5bb4c26154eb83b5d","","","","","null","","null","key","null","33.331999999999994","500","250","eb","91","1","","0","0","34","25"
"","psychophysics","107","603904","0.0-107.0","62d4abc05c64e581f78b1ade","64de83a5bb4c26154eb83b5d","","","","","6765",""," ","key"," ","33.33384653465364","500","250","eb","86","1","","0","0","41","52"
"","psychophysics","108","611912","0.0-108.0","62d4abc05c64e581f78b1ade","64de83a5bb4c26154eb83b5d","","","","","null","","null","key","null","33.33368619246882","500","250","eb","15","1","","0","0","27","41"
"","psychophysics","109","612005","0.0-109.0","62d4abc05c64e581f78b1ade","64de83a5bb4c26154eb83b5d","","","","","89",""," ","key"," ","33.33199999999488","500","250","eb","31","1","","0","0","31","24"
"","psychophysics","110","616358","0.0-110.0","62d4abc05c64e581f78b1ade","64de83a5bb4c26154eb83b5d","","","","","4350",""," ","key"," ","33.33200000000025","500","250","eb","17","1","","0","0","30","29"
"","psychophysics","111","624259","0.0-111.0","62d4abc05c64e581f78b1ade","64de83a5bb4c26154eb83b5d","","","","","7898",""," ","key"," ","33.33395338983036","500","250","eb","40","1","","0","0","51","44"
"","psychophysics","112","631759","0.0-112.0","62d4abc05c64e581f78b1ade","64de83a5bb4c26154eb83b5d","","","","","7495",""," ","key"," ","33.333611607143084","500","250","eb","10","1","","0","0","29","27"
"","psychophysics","113","638587","0.0-113.0","62d4abc05c64e581f78b1ade","64de83a5bb4c26154eb83b5d","","","","","6825",""," ","key"," ","33.33425490196061","500","250","eb","13","1","","0","0","42","27"
"","psychophysics","114","645779","0.0-114.0","62d4abc05c64e581f78b1ade","64de83a5bb4c26154eb83b5d","","","","","7189",""," ","key"," ","33.33199999999977","500","250","eb","15","1","","0","0","40","27"
"","psychophysics","115","651003","0.0-115.0","62d4abc05c64e581f78b1ade","64de83a5bb4c26154eb83b5d","","","","","5218",""," ","key"," ","33.33463461538448","500","250","eb","18","1","","0","0","40","40"
"","psychophysics","116","655887","0.0-116.0","62d4abc05c64e581f78b1ade","64de83a5bb4c26154eb83b5d","","","","","4881",""," ","key"," ","33.33199999999966","500","250","eb","16","1","","0","0","31","35"
"","psychophysics","117","662911","0.0-117.0","62d4abc05c64e581f78b1ade","64de83a5bb4c26154eb83b5d","","","","","7021",""," ","key"," ","33.33399999999992","500","250","eb","18","1","","0","0","54","41"
"","psychophysics","118","669815","0.0-118.0","62d4abc05c64e581f78b1ade","64de83a5bb4c26154eb83b5d","","","","","6899",""," ","key"," ","33.33395652173949","500","250","eb","17","1","","0","0","35","37"
"","psychophysics","119","675536","0.0-119.0","62d4abc05c64e581f78b1ade","64de83a5bb4c26154eb83b5d","","","","","5718",""," ","key"," ","33.332000000000356","500","250","eb","14","1","","0","0","45","26"
"","psychophysics","120","680957","0.0-120.0","62d4abc05c64e581f78b1ade","64de83a5bb4c26154eb83b5d","","","","","5418",""," ","key"," ","33.334351851852084","500","250","eb","13","1","","0","0","33","25"
"","psychophysics","121","681978","0.0-121.0","62d4abc05c64e581f78b1ade","64de83a5bb4c26154eb83b5d","","","","","1019",""," ","key"," ","33.332000000000896","500","250","inst","","","","","","",""
"","psychophysics","122","685609","0.0-122.0","62d4abc05c64e581f78b1ade","64de83a5bb4c26154eb83b5d","","","","","3629",""," ","key"," ","33.33199999999919","500","250","instZol1","1.3","","","0","0","-1.3",""
"","psychophysics","123","695780","0.0-123.0","62d4abc05c64e581f78b1ade","64de83a5bb4c26154eb83b5d","","","","","10165",""," ","key"," ","33.33347039473684","500","250","instZol2","0.5000000000000007","1","","0","0","2",""
"","psychophysics","124","696760","0.0-124.0","62d4abc05c64e581f78b1ade","64de83a5bb4c26154eb83b5d","","","","","977",""," ","key"," ","33.33199999999688","500","250","inst","","","","","","",""
"","psychophysics","125","701954","0.0-125.0","62d4abc05c64e581f78b1ade","64de83a5bb4c26154eb83b5d","","","","","5189",""," ","key"," ","33.33463870967708","500","250","zol","0.9599999999999999","1","1","-10","-2","-0.16",""
"","psychophysics","126","708594","0.0-126.0","62d4abc05c64e581f78b1ade","64de83a5bb4c26154eb83b5d","","","","","6634",""," ","key"," ","33.33200000000017","500","250","zol","2.270000000000001","1","1","-18","-28","-0.17",""
"","psychophysics","127","715385","0.0-127.0","62d4abc05c64e581f78b1ade","64de83a5bb4c26154eb83b5d","","","","","6786",""," ","key"," ","33.333758620689785","500","250","zol","1.9400000000000008","1","1","-11","2","-0.34",""
"","psychophysics","128","722065","0.0-128.0","62d4abc05c64e581f78b1ade","64de83a5bb4c26154eb83b5d","","","","","6676",""," ","key"," ","33.33414070351791","500","250","zol","1.8600000000000003","1","1","-13","14","0.14",""
"","psychophysics","129","728919","0.0-129.0","62d4abc05c64e581f78b1ade","64de83a5bb4c26154eb83b5d","","","","","6850",""," ","key"," ","33.333946341463566","500","250","zol","2.170000000000001","1","1","8","20","0.43",""
"","psychophysics","130","736928","0.0-130.0","62d4abc05c64e581f78b1ade","64de83a5bb4c26154eb83b5d","","","","","null","","null","key","null","33.331999999999994","500","250","zol","2.340000000000001","1","1","-23","-2","-0.64",""
"","psychophysics","131","737280","0.0-131.0","62d4abc05c64e581f78b1ade","64de83a5bb4c26154eb83b5d","","","","","347",""," ","key"," ","33.332000000001344","500","250","zol","-0.13","1","1","-14","9","0.13",""
"","psychophysics","132","743749","0.0-132.0","62d4abc05c64e581f78b1ade","64de83a5bb4c26154eb83b5d","","","","","6464",""," ","key"," ","33.334103092783465","500","250","zol","1.7400000000000007","1","1","23","19","0.16",""
"","psychophysics","133","748057","0.0-133.0","62d4abc05c64e581f78b1ade","64de83a5bb4c26154eb83b5d","","","","","4303",""," ","key"," ","33.332000000000335","500","250","zol","1.9200000000000008","1","1","-29","-29","0.28",""
"","psychophysics","134","753145","0.0-134.0","62d4abc05c64e581f78b1ade","64de83a5bb4c26154eb83b5d","","","","","5084",""," ","key"," ","33.33501324503273","500","250","zol","2.0500000000000007","1","1","15","8","-0.55",""
"","psychophysics","135","758329","0.0-135.0","62d4abc05c64e581f78b1ade","64de83a5bb4c26154eb83b5d","","","","","5178",""," ","key"," ","33.33199999999976","500","250","zol","2.0300000000000007","1","1","-3","-13","0.47",""
"","psychophysics","136","763836","0.0-136.0","62d4abc05c64e581f78b1ade","64de83a5bb4c26154eb83b5d","","","","","5502",""," ","key"," ","33.33450609756131","500","250","zol","2.340000000000001","1","1","-10","1","-0.14",""
"","psychophysics","137","769485","0.0-137.0","62d4abc05c64e581f78b1ade","64de83a5bb4c26154eb83b5d","","","","","5645",""," ","key"," ","33.33442603550319","500","250","zol","2.510000000000001","1","1","28","-19","-0.01",""
"","psychophysics","138","777497","0.0-138.0","62d4abc05c64e581f78b1ade","64de83a5bb4c26154eb83b5d","","","","","null","","null","key","null","33.331999999999994","500","250","zol","2.610000000000001","1","1","25","28","-0.41",""
"","psychophysics","139","777676","0.0-139.0","62d4abc05c64e581f78b1ade","64de83a5bb4c26154eb83b5d","","","","","174",""," ","key"," ","33.33199999999488","500","250","zol","-0.46","1","1","-9","12","0.46",""
"","psychophysics","140","779136","0.0-140.0","62d4abc05c64e581f78b1ade","64de83a5bb4c26154eb83b5d","","","","","1458",""," ","key"," ","33.341674418605564","500","250","inst","","","","","","",""
"","psychophysics","141","787019","0.0-141.0","62d4abc05c64e581f78b1ade","64de83a5bb4c26154eb83b5d","","","","","7880",""," ","key"," ","33.332000000000306","500","250","instPz1","56","1","","","","25","50"
"","psychophysics","142","795106","0.0-142.0","62d4abc05c64e581f78b1ade","64de83a5bb4c26154eb83b5d","","","","","8085",""," ","key"," ","33.333705394191156","500","250","instPz2","22","1","","","","35","20"
"","psychophysics","143","798095","0.0-143.0","62d4abc05c64e581f78b1ade","64de83a5bb4c26154eb83b5d","","","","","2985",""," ","key"," ","33.331999999999454","500","250","instPz3","100","1","","","","100","30"
"","psychophysics","144","809549","0.0-144.0","62d4abc05c64e581f78b1ade","64de83a5bb4c26154eb83b5d","","","","","11451",""," ","key"," ","33.334431486880355","500","250","instPz4","57","1","","","","100","30"
"","psychophysics","145","827279","0.0-145.0","62d4abc05c64e581f78b1ade","64de83a5bb4c26154eb83b5d","","","","","17727",""," ","key"," ","33.33276037735851","500","250","inst","","","","","","",""
"","psychophysics","146","835281","0.0-146.0","62d4abc05c64e581f78b1ade","64de83a5bb4c26154eb83b5d","","","","","null","","null","key","null","33.33348333333367","500","250","pz","75","1","1","","","30","45"
"","psychophysics","147","835728","0.0-147.0","62d4abc05c64e581f78b1ade","64de83a5bb4c26154eb83b5d","","","","","444",""," ","key"," ","33.33200000000458","500","250","pz","40","1","1","","","40","50"
"","psychophysics","148","843737","0.0-148.0","62d4abc05c64e581f78b1ade","64de83a5bb4c26154eb83b5d","","","","","null","","null","key","null","33.33371966527229","500","250","pz","74","1","1","","","21","38"
"","psychophysics","149","843928","0.0-149.0","62d4abc05c64e581f78b1ade","64de83a5bb4c26154eb83b5d","","","","","188",""," ","key"," ","33.332000000006516","500","250","pz","35","1","1","","","35","45"
"","psychophysics","150","850074","0.0-150.0","62d4abc05c64e581f78b1ade","64de83a5bb4c26154eb83b5d","","","","","6142",""," ","key"," ","33.3345191256834","500","250","pz","91","1","1","","","55","48"
"","psychophysics","151","857574","0.0-151.0","62d4abc05c64e581f78b1ade","64de83a5bb4c26154eb83b5d","","","","","7498",""," ","key"," ","33.33200000000007","500","250","pz","82","1","1","","","39","51"
"","psychophysics","152","865583","0.0-152.0","62d4abc05c64e581f78b1ade","64de83a5bb4c26154eb83b5d","","","","","null","","null","key","null","33.33349999999967","500","250","pz","89","1","1","","","21","51"
"","psychophysics","153","865698","0.0-153.0","62d4abc05c64e581f78b1ade","64de83a5bb4c26154eb83b5d","","","","","111",""," ","key"," ","33.33199999999488","500","250","pz","57","1","1","","","57","36"
"","psychophysics","154","870177","0.0-154.0","62d4abc05c64e581f78b1ade","64de83a5bb4c26154eb83b5d","","","","","4476",""," ","key"," ","33.335473684210655","500","250","pz","81","1","1","","","54","46"
"","psychophysics","155","878179","0.0-155.0","62d4abc05c64e581f78b1ade","64de83a5bb4c26154eb83b5d","","","","","null","","null","key","null","33.331999999999994","500","250","pz","96","1","1","","","20","53"
"","psychophysics","156","878304","0.0-156.0","62d4abc05c64e581f78b1ade","64de83a5bb4c26154eb83b5d","","","","","120",""," ","key"," ","33.33199999997547","500","250","pz","23","1","1","","","24","49"
"","psychophysics","157","886152","0.0-157.0","62d4abc05c64e581f78b1ade","64de83a5bb4c26154eb83b5d","","","","","7846",""," ","key"," ","33.33356170212761","500","250","pz","50","1","1","","","25","39"
"","psychophysics","158","891166","0.0-158.0","62d4abc05c64e581f78b1ade","64de83a5bb4c26154eb83b5d","","","","","5011",""," ","key"," ","33.335053691275625","500","250","pz","31","1","1","","","59","20"
"","psychophysics","159","895217","0.0-159.0","62d4abc05c64e581f78b1ade","64de83a5bb4c26154eb83b5d","","","","","4047",""," ","key"," ","33.33200000000017","500","250","pz","44","1","1","","","27","28"
"","psychophysics","160","897356","0.0-160.0","62d4abc05c64e581f78b1ade","64de83a5bb4c26154eb83b5d","","","","","2136",""," ","key"," ","33.331999999999496","500","250","pz","43","1","1","","","43","43"
"","psychophysics","161","898486","0.0-161.0","62d4abc05c64e581f78b1ade","64de83a5bb4c26154eb83b5d","","","","","1128",""," ","key"," ","33.33200000000017","500","250","inst","","","","","","",""
"","psychophysics","162","907218","0.0-162.0","62d4abc05c64e581f78b1ade","64de83a5bb4c26154eb83b5d","","","","","8729",""," ","key"," ","33.33337931034478","500","250","instEB1","40","2","","0","0","30","40"
"","psychophysics","163","915596","0.0-163.0","62d4abc05c64e581f78b1ade","64de83a5bb4c26154eb83b5d","","","","","8375",""," ","key"," ","33.33387199999997","500","250","instEB2","40","2","","0","0","40","30"
"","psychophysics","164","925114","0.0-164.0","62d4abc05c64e581f78b1ade","64de83a5bb4c26154eb83b5d","","","","","9515",""," ","key"," ","33.33341901408448","500","250","instEB3","45","2","","0","0","45","27"
"","psychophysics","165","931329","0.0-165.0","62d4abc05c64e581f78b1ade","64de83a5bb4c26154eb83b5d","","","","","6211",""," ","key"," ","33.33397311827929","500","250","instEB4","30","2","","0","0","30","40"
"","psychophysics","166","932700","0.0-166.0","62d4abc05c64e581f78b1ade","64de83a5bb4c26154eb83b5d","","","","","1368",""," ","key"," ","33.3320000000007","500","250","inst","","","","","","",""
"","psychophysics","167","938943","0.0-167.0","62d4abc05c64e581f78b1ade","64de83a5bb4c26154eb83b5d","","","","","6240",""," ","key"," ","33.33199999999989","500","250","eb","67","2","","0","0","52","52"
"","psychophysics","168","945861","0.0-168.0","62d4abc05c64e581f78b1ade","64de83a5bb4c26154eb83b5d","","","","","6914",""," ","key"," ","33.33420772946852","500","250","eb","44","2","","0","0","28","34"
"","psychophysics","169","950619","0.0-169.0","62d4abc05c64e581f78b1ade","64de83a5bb4c26154eb83b5d","","","","","4754",""," ","key"," ","33.33486619718294","500","250","eb","42","2","","0","0","52","30"
"","psychophysics","170","954857","0.0-170.0","62d4abc05c64e581f78b1ade","64de83a5bb4c26154eb83b5d","","","","","4234",""," ","key"," ","33.33200000000042","500","250","eb","50","2","","0","0","49","37"
"","psychophysics","171","959227","0.0-171.0","62d4abc05c64e581f78b1ade","64de83a5bb4c26154eb83b5d","","","","","4367",""," ","key"," ","33.33200000000025","500","250","eb","45","2","","0","0","27","38"
"","psychophysics","172","964310","0.0-172.0","62d4abc05c64e581f78b1ade","64de83a5bb4c26154eb83b5d","","","","","5080",""," ","key"," ","33.33473509933725","500","250","eb","49","2","","0","0","30","46"
"","psychophysics","173","970117","0.0-173.0","62d4abc05c64e581f78b1ade","64de83a5bb4c26154eb83b5d","","","","","5805",""," ","key"," ","33.334356321838825","500","250","eb","37","2","","0","0","51","30"
"","psychophysics","174","974750","0.0-174.0","62d4abc05c64e581f78b1ade","64de83a5bb4c26154eb83b5d","","","","","4629",""," ","key"," ","33.33199999999994","500","250","eb","53","2","","0","0","39","51"
"","psychophysics","175","981073","0.0-175.0","62d4abc05c64e581f78b1ade","64de83a5bb4c26154eb83b5d","","","","","6314",""," ","key"," ","33.33395744680905","500","250","eb","54","2","","0","0","34","51"
"","psychophysics","176","987884","0.0-176.0","62d4abc05c64e581f78b1ade","64de83a5bb4c26154eb83b5d","","","","","6809",""," ","key"," ","33.332000000000015","500","250","eb","52","2","","0","0","32","49"
"","psychophysics","177","992106","0.0-177.0","62d4abc05c64e581f78b1ade","64de83a5bb4c26154eb83b5d","","","","","4218",""," ","key"," ","33.335631999999286","500","250","eb","50","2","","0","0","50","46"
"","psychophysics","178","998863","0.0-178.0","62d4abc05c64e581f78b1ade","64de83a5bb4c26154eb83b5d","","","","","6754",""," ","key"," ","33.332000000000065","500","250","eb","54","2","","0","0","37","54"
"","psychophysics","179","1005618","0.0-179.0","62d4abc05c64e581f78b1ade","64de83a5bb4c26154eb83b5d","","","","","6751",""," ","key"," ","33.334029702970525","500","250","eb","34","2","","0","0","27","30"
"","psychophysics","180","1012641","0.0-180.0","62d4abc05c64e581f78b1ade","64de83a5bb4c26154eb83b5d","","","","","7019",""," ","key"," ","33.333971291865694","500","250","eb","51","2","","0","0","42","50"
"","psychophysics","181","1020650","0.0-181.0","62d4abc05c64e581f78b1ade","64de83a5bb4c26154eb83b5d","","","","","null","","null","key","null","33.403456066945516","500","250","eb","53","2","","0","0","38","51"
"","psychophysics","182","1020705","0.0-182.0","62d4abc05c64e581f78b1ade","64de83a5bb4c26154eb83b5d","","","","","53",""," ","key"," ","33.332000000053085","500","250","inst","","","","","","",""
"","psychophysics","183","1033754","0.0-183.0","62d4abc05c64e581f78b1ade","64de83a5bb4c26154eb83b5d","","","","","13046",""," ","key"," ","33.3329410256409","500","250","instPog0","340","2","","0","0","370","340"
"","psychophysics","184","1039414","0.0-184.0","62d4abc05c64e581f78b1ade","64de83a5bb4c26154eb83b5d","","","","","5658",""," ","key"," ","33.331999999999354","500","250","instPog1","338","2","","0","0","370","340"
"","psychophysics","185","1044887","0.0-185.0","62d4abc05c64e581f78b1ade","64de83a5bb4c26154eb83b5d","","","","","5471",""," ","key"," ","33.33477300613479","500","250","instPog2","328","2","","0","0","340","340"
"","psychophysics","186","1045913","0.0-186.0","62d4abc05c64e581f78b1ade","64de83a5bb4c26154eb83b5d","","","","","1024",""," ","key"," ","33.33199999999876","500","250","inst","","","","","","",""
"","psychophysics","187","1051041","0.0-187.0","62d4abc05c64e581f78b1ade","64de83a5bb4c26154eb83b5d","","","","","5124",""," ","key"," ","33.334699346405436","500","250","pog","311","2","1","0","0","391","319"
"","psychophysics","188","1056141","0.0-188.0","62d4abc05c64e581f78b1ade","64de83a5bb4c26154eb83b5d","","","","","5097",""," ","key"," ","33.331999999999475","500","250","pog","301","2","1","0","0","349","310"
"","psychophysics","189","1060436","0.0-189.0","62d4abc05c64e581f78b1ade","64de83a5bb4c26154eb83b5d","","","","","4292",""," ","key"," ","33.335226562499884","500","250","pog","371","2","1","0","0","395","380"
"","psychophysics","190","1062968","0.0-190.0","62d4abc05c64e581f78b1ade","64de83a5bb4c26154eb83b5d","","","","","2529",""," ","key"," ","33.33199999999876","500","250","pog","355","2","1","0","0","359","364"
"","psychophysics","191","1069425","0.0-191.0","62d4abc05c64e581f78b1ade","64de83a5bb4c26154eb83b5d","","","","","6454",""," ","key"," ","33.33199999999973","500","250","pog","314","2","1","0","0","394","328"
"","psychophysics","192","1075836","0.0-192.0","62d4abc05c64e581f78b1ade","64de83a5bb4c26154eb83b5d","","","","","6408",""," ","key"," ","33.33390625000053","500","250","pog","351","2","1","0","0","395","359"
"","psychophysics","193","1079201","0.0-193.0","62d4abc05c64e581f78b1ade","64de83a5bb4c26154eb83b5d","","","","","3363",""," ","key"," ","33.33199999999953","500","250","pog","368","2","1","0","0","386","378"
"","psychophysics","194","1083208","0.0-194.0","62d4abc05c64e581f78b1ade","64de83a5bb4c26154eb83b5d","","","","","4004",""," ","key"," ","33.335445378151796","500","250","pog","363","2","1","0","0","339","372"
"","psychophysics","195","1086508","0.0-195.0","62d4abc05c64e581f78b1ade","64de83a5bb4c26154eb83b5d","","","","","3297",""," ","key"," ","33.33200000000082","500","250","pog","348","2","1","0","0","352","360"
"","psychophysics","196","1091234","0.0-196.0","62d4abc05c64e581f78b1ade","64de83a5bb4c26154eb83b5d","","","","","4724",""," ","key"," ","33.33522695035456","500","250","pog","361","2","1","0","0","341","374"
"","psychophysics","197","1097436","0.0-197.0","62d4abc05c64e581f78b1ade","64de83a5bb4c26154eb83b5d","","","","","6198",""," ","key"," ","33.331999999999596","500","250","pog","343","2","1","0","0","287","360"
"","psychophysics","198","1103927","0.0-198.0","62d4abc05c64e581f78b1ade","64de83a5bb4c26154eb83b5d","","","","","6489",""," ","key"," ","33.33412953367857","500","250","pog","292","2","1","0","0","362","308"
"","psychophysics","199","1111368","0.0-199.0","62d4abc05c64e581f78b1ade","64de83a5bb4c26154eb83b5d","","","","","7439",""," ","key"," ","33.33385201793732","500","250","pog","318","2","1","0","0","382","328"
"","psychophysics","200","1118670","0.0-200.0","62d4abc05c64e581f78b1ade","64de83a5bb4c26154eb83b5d","","","","","7299",""," ","key"," ","33.33199999999968","500","250","pog","325","2","1","0","0","393","333"
"","psychophysics","201","1123263","0.0-201.0","62d4abc05c64e581f78b1ade","64de83a5bb4c26154eb83b5d","","","","","4590",""," ","key"," ","33.33499264705974","500","250","pog","350","2","1","0","0","342","366"
"","psychophysics","202","1124199","0.0-202.0","62d4abc05c64e581f78b1ade","64de83a5bb4c26154eb83b5d","","","","","934",""," ","key"," ","33.33199999999703","500","250","inst","","","","","","",""
"","psychophysics","203","1132342","0.0-203.0","62d4abc05c64e581f78b1ade","64de83a5bb4c26154eb83b5d","","","","","8141",""," ","key"," ","33.333573770491775","500","250","instBr3","-8","1","","0","0","40","300"
"","psychophysics","204","1133496","0.0-204.0","62d4abc05c64e581f78b1ade","64de83a5bb4c26154eb83b5d","","","","","1152",""," ","key"," ","33.33200000000017","500","250","inst","","","","","","",""
"","psychophysics","205","1137292","0.0-205.0","62d4abc05c64e581f78b1ade","64de83a5bb4c26154eb83b5d","","","","","3794",""," ","key"," ","33.33200000000054","500","250","br","-10","1","1","18","-5","-20","213"
"","psychophysics","206","1141983","0.0-206.0","62d4abc05c64e581f78b1ade","64de83a5bb4c26154eb83b5d","","","","","4688",""," ","key"," ","33.33515000000064","500","250","br","-10","1","1","-3","9","-7","267"
"","psychophysics","207","1147781","0.0-207.0","62d4abc05c64e581f78b1ade","64de83a5bb4c26154eb83b5d","","","","","5795",""," ","key"," ","33.33199999999992","500","250","br","-8","1","1","-7","-15","23","289"
"","psychophysics","208","1153125","0.0-208.0","62d4abc05c64e581f78b1ade","64de83a5bb4c26154eb83b5d","","","","","5341",""," ","key"," ","33.33455345911888","500","250","br","-3","1","1","-10","5","-10","248"
"","psychophysics","209","1157058","0.0-209.0","62d4abc05c64e581f78b1ade","64de83a5bb4c26154eb83b5d","","","","","3930",""," ","key"," ","33.33200000000035","500","250","br","-14","1","1","-28","-14","-9","250"
"","psychophysics","210","1160787","0.0-210.0","62d4abc05c64e581f78b1ade","64de83a5bb4c26154eb83b5d","","","","","3726",""," ","key"," ","33.335828828828845","500","250","br","-14","1","1","-30","5","-8","252"
"","psychophysics","211","1167769","0.0-211.0","62d4abc05c64e581f78b1ade","64de83a5bb4c26154eb83b5d","","","","","6979",""," ","key"," ","33.331999999999056","500","250","br","-17","1","1","12","18","-6","289"
"","psychophysics","212","1171509","0.0-212.0","62d4abc05c64e581f78b1ade","64de83a5bb4c26154eb83b5d","","","","","3736",""," ","key"," ","33.335585585585584","500","250","br","-12","1","1","-17","30","-11","297"
"","psychophysics","213","1178052","0.0-213.0","62d4abc05c64e581f78b1ade","64de83a5bb4c26154eb83b5d","","","","","6540",""," ","key"," ","33.33199999999995","500","250","br","-10","1","1","-14","-14","16","276"
"","psychophysics","214","1184108","0.0-214.0","62d4abc05c64e581f78b1ade","64de83a5bb4c26154eb83b5d","","","","","6051",""," ","key"," ","33.33403867403385","500","250","br","-12","1","1","-19","27","-29","237"
"","psychophysics","215","1188289","0.0-215.0","62d4abc05c64e581f78b1ade","64de83a5bb4c26154eb83b5d","","","","","4179",""," ","key"," ","33.33200000000051","500","250","br","-3","1","1","-10","26","-3","225"
"","psychophysics","216","1193388","0.0-216.0","62d4abc05c64e581f78b1ade","64de83a5bb4c26154eb83b5d","","","","","5096",""," ","key"," ","33.33498684210568","500","250","br","-8","1","1","-8","23","13","267"
"","psychophysics","217","1198861","0.0-217.0","62d4abc05c64e581f78b1ade","64de83a5bb4c26154eb83b5d","","","","","5470",""," ","key"," ","33.33199999999952","500","250","br","-15","1","1","-4","3","17","263"
"","psychophysics","218","1204591","0.0-218.0","62d4abc05c64e581f78b1ade","64de83a5bb4c26154eb83b5d","","","","","5727",""," ","key"," ","33.33439766081753","500","250","br","-16","1","1","20","-9","1","215"
"","psychophysics","219","1210198","0.0-219.0","62d4abc05c64e581f78b1ade","64de83a5bb4c26154eb83b5d","","","","","5603",""," ","key"," ","33.33199999999941","500","250","br","-13","1","1","23","-19","16","230"
