"success","trial_type","trial_index","time_elapsed","internal_node_id","pid","sid","timeout","failed_images","failed_audio","failed_video","rt","stimulus","response","response_type","key_press","avg_frame_time","center_x","center_y","task","resp","version","block","start","jitterX","jitterY","parA"
"true","fullscreen","0","4067","0.0-0.0","614cc724954cd9386b81a3af","64de8040d12ca220c80ed075","","","","","","","","","","","","","","","","","","","",""
"true","preload","1","4108","0.0-1.0","614cc724954cd9386b81a3af","64de8040d12ca220c80ed075","false","[]","[]","[]","","","","","","","","","","","","","","","",""
"","html-button-response","2","6149","0.0-2.0","614cc724954cd9386b81a3af","64de8040d12ca220c80ed075","","","","","2041","Please Make Sure Your Audio Is On.","0","","","","","","","","","","","","",""
"","psychophysics","3","14622","0.0-3.0","614cc724954cd9386b81a3af","64de8040d12ca220c80ed075","","","","","8466",""," ","key"," ","6.94427131147541","640","250","","","","","","","",""
"","psychophysics","4","18212","0.0-4.0","614cc724954cd9386b81a3af","64de8040d12ca220c80ed075","","","","","3580",""," ","key"," ","6.944265503875973","500","250","inst","","","","","","",""
"","psychophysics","5","23212","0.0-5.0","614cc724954cd9386b81a3af","64de8040d12ca220c80ed075","","","","","4997",""," ","key"," ","6.944281337047352","500","250","sample0","","","","","","",""
"","psychophysics","6","26851","0.0-6.0","614cc724954cd9386b81a3af","64de8040d12ca220c80ed075","","","","","3637",""," ","key"," ","6.94427724665392","500","250","sample1","","","","","","",""
"","psychophysics","7","45295","0.0-7.0","614cc724954cd9386b81a3af","64de8040d12ca220c80ed075","","","","","18438",""," ","key"," ","6.94689110776187","500","250","sample2","98","","","","","",""
"","psychophysics","8","50156","0.0-8.0","614cc724954cd9386b81a3af","64de8040d12ca220c80ed075","","","","","4853",""," ","key"," ","6.9442761087267515","500","250","sample3","98","","","","","",""
"","psychophysics","9","56011","0.0-9.0","614cc724954cd9386b81a3af","64de8040d12ca220c80ed075","","","","","5850",""," ","key"," ","6.9442755344418075","500","250","sample4","100","","","","","",""
"","psychophysics","10","70405","0.0-10.0","614cc724954cd9386b81a3af","64de8040d12ca220c80ed075","","","","","14389",""," ","key"," ","6.944277027027024","500","250","sample5","","","","","","",""
"","psychophysics","11","75482","0.0-11.0","614cc724954cd9386b81a3af","64de8040d12ca220c80ed075","","","","","5072",""," ","key"," ","6.944273972602749","500","250","sample6","500","","","","","",""
"","psychophysics","12","76293","0.0-12.0","614cc724954cd9386b81a3af","64de8040d12ca220c80ed075","","","","","805",""," ","key"," ","6.9442672413793405","500","250","inst","","","","","","",""
"","psychophysics","13","76821","0.0-13.0","614cc724954cd9386b81a3af","64de8040d12ca220c80ed075","","","","","522",""," ","key"," ","6.944239999999991","500","250","inst","","","","","","",""
"","psychophysics","14","87765","0.0-14.0","614cc724954cd9386b81a3af","64de8040d12ca220c80ed075","","","","","10938",""," ","key"," ","6.944273650793651","500","250","inst","","","","","","",""
"","psychophysics","15","89501","0.0-15.0","614cc724954cd9386b81a3af","64de8040d12ca220c80ed075","","","","","1732",""," ","key"," ","6.94429718875498","500","250","inst","","","","","","",""
"","psychophysics","16","93091","0.0-16.0","614cc724954cd9386b81a3af","64de8040d12ca220c80ed075","","","","","3587",""," ","key"," ","6.944282945736434","500","250","inst","","","","","","",""
"","psychophysics","17","97653","0.0-17.0","614cc724954cd9386b81a3af","64de8040d12ca220c80ed075","","","","","4560",""," ","key"," ","6.94426829268293","500","250","instEB0","40","1","","40","0","0","40"
"","psychophysics","18","108188","0.0-18.0","614cc724954cd9386b81a3af","64de8040d12ca220c80ed075","","","","","10532",""," ","key"," ","6.944275725593675","500","250","instEB1","30","1","","40","0","0","30"
"","psychophysics","19","116043","0.0-19.0","614cc724954cd9386b81a3af","64de8040d12ca220c80ed075","","","","","7851",""," ","key"," ","6.94427168141593","500","250","instEB2","38","1","","30","0","0","40"
"","psychophysics","20","126475","0.0-20.0","614cc724954cd9386b81a3af","64de8040d12ca220c80ed075","","","","","10426",""," ","key"," ","6.953538358905941","500","250","instEB3","38","1","","27","0","0","45"
"","psychophysics","21","134458","0.0-21.0","614cc724954cd9386b81a3af","64de8040d12ca220c80ed075","","","","","7979",""," ","key"," ","6.944283724978245","500","250","instEB4","27","1","","40","0","0","30"
"","psychophysics","22","139042","0.0-22.0","614cc724954cd9386b81a3af","64de8040d12ca220c80ed075","","","","","4581",""," ","key"," ","6.944285280728354","500","250","inst","","","","","","",""
"","psychophysics","23","145041","0.0-23.0","614cc724954cd9386b81a3af","64de8040d12ca220c80ed075","","","","","5993",""," ","key"," ","6.944269988412513","500","250","eb","34","1","","49","0","0","37"
"","psychophysics","24","149667","0.0-24.0","614cc724954cd9386b81a3af","64de8040d12ca220c80ed075","","","","","4620",""," ","key"," ","6.9442646616541595","500","250","eb","26","1","","45","0","0","30"
"","psychophysics","25","153235","0.0-25.0","614cc724954cd9386b81a3af","64de8040d12ca220c80ed075","","","","","3561",""," ","key"," ","6.9442846003898735","500","250","eb","40","1","","47","0","0","47"
"","psychophysics","26","155346","0.0-26.0","614cc724954cd9386b81a3af","64de8040d12ca220c80ed075","","","","","2106",""," ","key"," ","6.944264026402619","500","250","eb","37","1","","31","0","0","41"
"","psychophysics","27","162075","0.0-27.0","614cc724954cd9386b81a3af","64de8040d12ca220c80ed075","","","","","6723",""," ","key"," ","6.94428099173552","500","250","eb","23","1","","38","0","0","24"
"","psychophysics","28","163750","0.0-28.0","614cc724954cd9386b81a3af","64de8040d12ca220c80ed075","","","","","1671",""," ","key"," ","6.944254166666602","500","250","eb","25","1","","27","0","0","28"
"","psychophysics","29","165804","0.0-29.0","614cc724954cd9386b81a3af","64de8040d12ca220c80ed075","","","","","2047",""," ","key"," ","6.944291525423701","500","250","eb","23","1","","25","0","0","29"
"","psychophysics","30","169763","0.0-30.0","614cc724954cd9386b81a3af","64de8040d12ca220c80ed075","","","","","3953",""," ","key"," ","6.944275922671363","500","250","eb","46","1","","40","0","0","52"
"","psychophysics","31","172209","0.0-31.0","614cc724954cd9386b81a3af","64de8040d12ca220c80ed075","","","","","2440",""," ","key"," ","6.944259259259253","500","250","eb","43","1","","49","0","0","53"
"","psychophysics","32","175700","0.0-32.0","614cc724954cd9386b81a3af","64de8040d12ca220c80ed075","","","","","3486",""," ","key"," ","6.944276892430283","500","250","eb","37","1","","24","0","0","39"
"","psychophysics","33","178162","0.0-33.0","614cc724954cd9386b81a3af","64de8040d12ca220c80ed075","","","","","2456",""," ","key"," ","6.944283286118965","500","250","eb","35","1","","28","0","0","40"
"","psychophysics","34","184162","0.0-34.0","614cc724954cd9386b81a3af","64de8040d12ca220c80ed075","","","","","5995",""," ","key"," ","6.944273464658164","500","250","eb","36","1","","49","0","0","41"
"","psychophysics","35","190011","0.0-35.0","614cc724954cd9386b81a3af","64de8040d12ca220c80ed075","","","","","5843",""," ","key"," ","6.944282660332553","500","250","eb","29","1","","49","0","0","33"
"","psychophysics","36","195314","0.0-36.0","614cc724954cd9386b81a3af","64de8040d12ca220c80ed075","","","","","5298",""," ","key"," ","6.944279527559051","500","250","eb","26","1","","47","0","0","25"
"","psychophysics","37","200362","0.0-37.0","614cc724954cd9386b81a3af","64de8040d12ca220c80ed075","","","","","5043",""," ","key"," ","6.944271349862255","500","250","eb","54","1","","29","0","0","54"
"","psychophysics","38","203586","0.0-38.0","614cc724954cd9386b81a3af","64de8040d12ca220c80ed075","","","","","3220",""," ","key"," ","6.974409978308045","500","250","inst","","","","","","",""
"","psychophysics","39","208353","0.0-39.0","614cc724954cd9386b81a3af","64de8040d12ca220c80ed075","","","","","4764",""," ","key"," ","6.944275510204062","500","250","instPog0","190","1","","190","0","0","160"
"","psychophysics","40","210353","0.0-40.0","614cc724954cd9386b81a3af","64de8040d12ca220c80ed075","","","","","1995",""," ","key"," ","6.9442648083623215","500","250","instPog1","190","1","","190","0","0","160"
"","psychophysics","41","212570","0.0-41.0","614cc724954cd9386b81a3af","64de8040d12ca220c80ed075","","","","","2212",""," ","key"," ","6.9442798742138905","500","250","instPog2","160","1","","160","0","0","160"
"","psychophysics","42","213298","0.0-42.0","614cc724954cd9386b81a3af","64de8040d12ca220c80ed075","","","","","722",""," ","key"," ","6.944259615384419","500","250","inst","","","","","","",""
"","psychophysics","43","221303","0.0-43.0","614cc724954cd9386b81a3af","64de8040d12ca220c80ed075","","","","","null","","null","key","null","6.944272569444441","500","250","pog","184","1","0","188","0","0","160"
"","psychophysics","44","223906","0.0-44.0","614cc724954cd9386b81a3af","64de8040d12ca220c80ed075","","","","","2598",""," ","key"," ","6.944288770053449","500","250","pog","216","1","0","216","0","0","197"
"","psychophysics","45","227698","0.0-45.0","614cc724954cd9386b81a3af","64de8040d12ca220c80ed075","","","","","3788",""," ","key"," ","6.944273394495441","500","250","pog","210","1","0","144","0","0","199"
"","psychophysics","46","230796","0.0-46.0","614cc724954cd9386b81a3af","64de8040d12ca220c80ed075","","","","","3094",""," ","key"," ","6.944276404494401","500","250","pog","180","1","0","106","0","0","171"
"","psychophysics","47","232074","0.0-47.0","614cc724954cd9386b81a3af","64de8040d12ca220c80ed075","","","","","1275",""," ","key"," ","6.944289617486301","500","250","pog","208","1","0","206","0","0","197"
"","psychophysics","48","234146","0.0-48.0","614cc724954cd9386b81a3af","64de8040d12ca220c80ed075","","","","","2070",""," ","key"," ","6.944269360269374","500","250","pog","191","1","0","153","0","0","186"
"","psychophysics","49","237587","0.0-49.0","614cc724954cd9386b81a3af","64de8040d12ca220c80ed075","","","","","3437",""," ","key"," ","6.944282828282854","500","250","pog","209","1","0","131","0","0","200"
"","psychophysics","50","239212","0.0-50.0","614cc724954cd9386b81a3af","64de8040d12ca220c80ed075","","","","","1621",""," ","key"," ","6.944257510729562","500","250","pog","172","1","0","164","0","0","160"
"","psychophysics","51","240955","0.0-51.0","614cc724954cd9386b81a3af","64de8040d12ca220c80ed075","","","","","1740",""," ","key"," ","6.94426000000001","500","250","pog","189","1","0","153","0","0","171"
"","psychophysics","52","244698","0.0-52.0","614cc724954cd9386b81a3af","64de8040d12ca220c80ed075","","","","","3739",""," ","key"," ","6.944284386617089","500","250","pog","204","1","0","156","0","0","197"
"","psychophysics","53","247865","0.0-53.0","614cc724954cd9386b81a3af","64de8040d12ca220c80ed075","","","","","3161",""," ","key"," ","6.944263736263767","500","250","pog","202","1","0","220","0","0","187"
"","psychophysics","54","250817","0.0-54.0","614cc724954cd9386b81a3af","64de8040d12ca220c80ed075","","","","","2947",""," ","key"," ","6.9442924528302","500","250","pog","155","1","0","207","0","0","144"
"","psychophysics","55","252673","0.0-55.0","614cc724954cd9386b81a3af","64de8040d12ca220c80ed075","","","","","1851",""," ","key"," ","6.94427443609032","500","250","pog","151","1","0","167","0","0","139"
"","psychophysics","56","254401","0.0-56.0","614cc724954cd9386b81a3af","64de8040d12ca220c80ed075","","","","","1724",""," ","key"," ","6.944270161290338","500","250","pog","178","1","0","186","0","0","163"
"","psychophysics","57","256138","0.0-57.0","614cc724954cd9386b81a3af","64de8040d12ca220c80ed075","","","","","1730",""," ","key"," ","6.944265060240859","500","250","pog","202","1","0","182","0","0","194"
"","psychophysics","58","257226","0.0-58.0","614cc724954cd9386b81a3af","64de8040d12ca220c80ed075","","","","","1083",""," ","key"," ","6.944262820512776","500","250","inst","","","","","","",""
"","psychophysics","59","260561","0.0-59.0","614cc724954cd9386b81a3af","64de8040d12ca220c80ed075","","","","","3330",""," ","key"," ","6.944290187891445","500","250","instBr0","0","","","0","0","0","300"
"","psychophysics","60","261573","0.0-60.0","614cc724954cd9386b81a3af","64de8040d12ca220c80ed075","","","","","1008",""," ","key"," ","6.944282758620704","500","250","instBr1","-40","","","-40","0","0","300"
"","psychophysics","61","265266","0.0-61.0","614cc724954cd9386b81a3af","64de8040d12ca220c80ed075","","","","","3685",""," ","key"," ","6.944278719397385","500","250","instBr3","39","2","","40","0","0","300"
"","psychophysics","62","266162","0.0-62.0","614cc724954cd9386b81a3af","64de8040d12ca220c80ed075","","","","","893",""," ","key"," ","6.944273437500215","500","250","inst","","","","","","",""
"","psychophysics","63","270017","0.0-63.0","614cc724954cd9386b81a3af","64de8040d12ca220c80ed075","","","","","3852",""," ","key"," ","6.944274368230989","500","250","br","19","2","0","3","6","0","247"
"","psychophysics","64","274571","0.0-64.0","614cc724954cd9386b81a3af","64de8040d12ca220c80ed075","","","","","4549",""," ","key"," ","6.944282442748099","500","250","br","23","2","0","-1","19","26","238"
"","psychophysics","65","278969","0.0-65.0","614cc724954cd9386b81a3af","64de8040d12ca220c80ed075","","","","","4394",""," ","key"," ","6.9442768987342625","500","250","br","25","2","0","-10","-26","4","238"
"","psychophysics","66","282946","0.0-66.0","614cc724954cd9386b81a3af","64de8040d12ca220c80ed075","","","","","3973",""," ","key"," ","6.944610139860208","500","250","br","16","2","0","-16","-4","-7","293"
"","psychophysics","67","286073","0.0-67.0","614cc724954cd9386b81a3af","64de8040d12ca220c80ed075","","","","","3123",""," ","key"," ","6.988670403587411","500","250","br","14","2","0","-13","-25","28","207"
"","psychophysics","68","288738","0.0-68.0","614cc724954cd9386b81a3af","64de8040d12ca220c80ed075","","","","","2660",""," ","key"," ","6.9458093994777945","500","250","br","20","2","0","-3","-5","3","291"
"","psychophysics","69","291009","0.0-69.0","614cc724954cd9386b81a3af","64de8040d12ca220c80ed075","","","","","2269",""," ","key"," ","6.94376993865029","500","250","br","23","2","0","10","12","-3","246"
"","psychophysics","70","293940","0.0-70.0","614cc724954cd9386b81a3af","64de8040d12ca220c80ed075","","","","","2927",""," ","key"," ","6.944247030878839","500","250","br","15","2","0","-29","-3","19","259"
"","psychophysics","71","295787","0.0-71.0","614cc724954cd9386b81a3af","64de8040d12ca220c80ed075","","","","","1844",""," ","key"," ","6.944260377358461","500","250","br","20","2","0","8","6","27","286"
"","psychophysics","72","297489","0.0-72.0","614cc724954cd9386b81a3af","64de8040d12ca220c80ed075","","","","","1699",""," ","key"," ","6.944249999999989","500","250","br","16","2","0","1","28","-26","274"
"","psychophysics","73","299842","0.0-73.0","614cc724954cd9386b81a3af","64de8040d12ca220c80ed075","","","","","2348",""," ","key"," ","6.944272189349082","500","250","br","14","2","0","-15","15","17","288"
"","psychophysics","74","303617","0.0-74.0","614cc724954cd9386b81a3af","64de8040d12ca220c80ed075","","","","","3772",""," ","key"," ","6.9442767527675455","500","250","br","22","2","0","29","-19","-10","223"
"","psychophysics","75","306281","0.0-75.0","614cc724954cd9386b81a3af","64de8040d12ca220c80ed075","","","","","2660",""," ","key"," ","6.944279373368107","500","250","br","17","2","0","4","-18","-16","291"
"","psychophysics","76","310113","0.0-76.0","614cc724954cd9386b81a3af","64de8040d12ca220c80ed075","","","","","3827",""," ","key"," ","6.944279491833049","500","250","br","16","2","0","-17","2","-24","287"
"","psychophysics","77","312793","0.0-77.0","614cc724954cd9386b81a3af","64de8040d12ca220c80ed075","","","","","2678",""," ","key"," ","6.944264935064976","500","250","br","18","2","0","12","-26","-9","271"
"","psychophysics","78","313785","0.0-78.0","614cc724954cd9386b81a3af","64de8040d12ca220c80ed075","","","","","990",""," ","key"," ","6.944323943661851","500","250","inst","","","","","","",""
"","psychophysics","79","315737","0.0-79.0","614cc724954cd9386b81a3af","64de8040d12ca220c80ed075","","","","","1949",""," ","key"," ","6.944267857142716","500","250","instPzPre","50","0","","50","","","50"
"","psychophysics","80","316697","0.0-80.0","614cc724954cd9386b81a3af","64de8040d12ca220c80ed075","","","","","956",""," ","key"," ","6.944248175182648","500","250","instPz0","50","2","","50","","","50"
"","psychophysics","81","318225","0.0-81.0","614cc724954cd9386b81a3af","64de8040d12ca220c80ed075","","","","","1523",""," ","key"," ","6.944260273972626","500","250","instPz1","25","2","","25","","","50"
"","psychophysics","82","319522","0.0-82.0","614cc724954cd9386b81a3af","64de8040d12ca220c80ed075","","","","","1292",""," ","key"," ","6.944311827956949","500","250","instPz2","20","2","","20","","","35"
"","psychophysics","83","321329","0.0-83.0","614cc724954cd9386b81a3af","64de8040d12ca220c80ed075","","","","","1802",""," ","key"," ","6.944270270270238","500","250","instPz3","30","2","","30","","","100"
"","psychophysics","84","322113","0.0-84.0","614cc724954cd9386b81a3af","64de8040d12ca220c80ed075","","","","","772",""," ","key"," ","6.944258928571279","500","250","instPz4","30","2","","30","","","100"
"","psychophysics","85","322873","0.0-85.0","614cc724954cd9386b81a3af","64de8040d12ca220c80ed075","","","","","755",""," ","key"," ","6.944268518518786","500","250","inst","","","","","","",""
"","psychophysics","86","329189","0.0-86.0","614cc724954cd9386b81a3af","64de8040d12ca220c80ed075","","","","","6310",""," ","key"," ","6.944276127612707","500","250","pz","19","2","0","35","","","22"
"","psychophysics","87","335419","0.0-87.0","614cc724954cd9386b81a3af","64de8040d12ca220c80ed075","","","","","6223",""," ","key"," ","6.959809843400455","500","250","pz","18","2","0","48","","","21"
"","psychophysics","88","343156","0.0-88.0","614cc724954cd9386b81a3af","64de8040d12ca220c80ed075","","","","","7729",""," ","key"," ","6.95052068345323","500","250","pz","25","2","0","54","","","29"
"","psychophysics","89","347106","0.0-89.0","614cc724954cd9386b81a3af","64de8040d12ca220c80ed075","","","","","3943",""," ","key"," ","6.944269366197134","500","250","pz","47","2","0","58","","","57"
"","psychophysics","90","349044","0.0-90.0","614cc724954cd9386b81a3af","64de8040d12ca220c80ed075","","","","","1928",""," ","key"," ","6.944294964028866","500","250","pz","49","2","0","60","","","57"
"","psychophysics","91","351363","0.0-91.0","614cc724954cd9386b81a3af","64de8040d12ca220c80ed075","","","","","2312",""," ","key"," ","6.944267267267242","500","250","pz","23","2","0","20","","","28"
"","psychophysics","92","356780","0.0-92.0","614cc724954cd9386b81a3af","64de8040d12ca220c80ed075","","","","","5411",""," ","key"," ","6.944263157894744","500","250","pz","22","2","0","59","","","25"
"","psychophysics","93","358224","0.0-93.0","614cc724954cd9386b81a3af","64de8040d12ca220c80ed075","","","","","1437",""," ","key"," ","6.944280193236787","500","250","pz","29","2","0","31","","","38"
"","psychophysics","94","362177","0.0-94.0","614cc724954cd9386b81a3af","64de8040d12ca220c80ed075","","","","","3946",""," ","key"," ","6.944278169014043","500","250","pz","18","2","0","59","","","21"
"","psychophysics","95","365105","0.0-95.0","614cc724954cd9386b81a3af","64de8040d12ca220c80ed075","","","","","2922",""," ","key"," ","6.944282660332553","500","250","pz","44","2","0","24","","","56"
"","psychophysics","96","368329","0.0-96.0","614cc724954cd9386b81a3af","64de8040d12ca220c80ed075","","","","","3217",""," ","key"," ","6.95931601731595","500","250","pz","23","2","0","34","","","32"
"","psychophysics","97","371300","0.0-97.0","614cc724954cd9386b81a3af","64de8040d12ca220c80ed075","","","","","2965",""," ","key"," ","6.944281030444928","500","250","pz","23","2","0","30","","","29"
"","psychophysics","98","374792","0.0-98.0","614cc724954cd9386b81a3af","64de8040d12ca220c80ed075","","","","","3485",""," ","key"," ","6.94427290836658","500","250","pz","48","2","0","23","","","60"
"","psychophysics","99","378786","0.0-99.0","614cc724954cd9386b81a3af","64de8040d12ca220c80ed075","","","","","3986",""," ","key"," ","6.944259581881541","500","250","pz","26","2","0","55","","","32"
"","psychophysics","100","381444","0.0-100.0","614cc724954cd9386b81a3af","64de8040d12ca220c80ed075","","","","","2651",""," ","key"," ","6.944287958115166","500","250","pz","41","2","0","28","","","46"
"","psychophysics","101","382432","0.0-101.0","614cc724954cd9386b81a3af","64de8040d12ca220c80ed075","","","","","983",""," ","key"," ","6.944290780141563","500","250","inst","","","","","","",""
"","psychophysics","102","383904","0.0-102.0","614cc724954cd9386b81a3af","64de8040d12ca220c80ed075","","","","","1467",""," ","key"," ","6.944293838862486","500","250","instZol0","0","","","0","0","0",""
"","psychophysics","103","385721","0.0-103.0","614cc724954cd9386b81a3af","64de8040d12ca220c80ed075","","","","","1813",""," ","key"," ","6.94427969348657","500","250","instZol1","1.3","","","-1.3","0","0",""
"","psychophysics","104","387729","0.0-104.0","614cc724954cd9386b81a3af","64de8040d12ca220c80ed075","","","","","2001",""," ","key"," ","6.944263888888802","500","250","instZol2","-2","1","","2","0","0",""
"","psychophysics","105","388536","0.0-105.0","614cc724954cd9386b81a3af","64de8040d12ca220c80ed075","","","","","804",""," ","key"," ","6.944269565217521","500","250","inst","","","","","","",""
"","psychophysics","106","396541","0.0-106.0","614cc724954cd9386b81a3af","64de8040d12ca220c80ed075","","","","","null","","null","key","null","6.944277777777744","500","250","zol","1.0399999999999998","1","0","0.66","-29","-22",""
"","psychophysics","107","401019","0.0-107.0","614cc724954cd9386b81a3af","64de8040d12ca220c80ed075","","","","","4475",""," ","key"," ","6.944274844720516","500","250","zol","1.5200000000000005","1","0","-0.22","30","6",""
"","psychophysics","108","405328","0.0-108.0","614cc724954cd9386b81a3af","64de8040d12ca220c80ed075","","","","","4305",""," ","key"," ","6.944277867528227","500","250","zol","1.5300000000000005","1","0","0.57","-29","1",""
"","psychophysics","109","407024","0.0-109.0","614cc724954cd9386b81a3af","64de8040d12ca220c80ed075","","","","","1691",""," ","key"," ","6.94428806584362","500","250","zol","1.6000000000000003","1","0","-0.3","-29","3",""
"","psychophysics","110","409026","0.0-110.0","614cc724954cd9386b81a3af","64de8040d12ca220c80ed075","","","","","1998",""," ","key"," ","6.944256944444431","500","250","zol","1.3800000000000001","1","0","0.52","28","-18",""
"","psychophysics","111","410744","0.0-111.0","614cc724954cd9386b81a3af","64de8040d12ca220c80ed075","","","","","1715",""," ","key"," ","6.944280487804899","500","250","zol","0.9899999999999999","1","0","0.21","13","-23",""
"","psychophysics","112","413280","0.0-112.0","614cc724954cd9386b81a3af","64de8040d12ca220c80ed075","","","","","2531",""," ","key"," ","6.944285714285797","500","250","zol","1.27","1","0","-0.57","26","29",""
"","psychophysics","113","415064","0.0-113.0","614cc724954cd9386b81a3af","64de8040d12ca220c80ed075","","","","","1779",""," ","key"," ","6.944269531249802","500","250","zol","1.2","1","0","0.3","-10","5",""
"","psychophysics","114","416665","0.0-114.0","614cc724954cd9386b81a3af","64de8040d12ca220c80ed075","","","","","1595",""," ","key"," ","6.944260869565187","500","250","zol","1.0599999999999998","1","0","-0.16","17","1",""
"","psychophysics","115","418241","0.0-115.0","614cc724954cd9386b81a3af","64de8040d12ca220c80ed075","","","","","1571",""," ","key"," ","6.944296460177088","500","250","zol","1.5500000000000005","1","0","-0.75","4","-24",""
"","psychophysics","116","420008","0.0-116.0","614cc724954cd9386b81a3af","64de8040d12ca220c80ed075","","","","","1764",""," ","key"," ","6.944252964426909","500","250","zol","1.4900000000000002","1","0","-0.09","-8","-12",""
"","psychophysics","117","421744","0.0-117.0","614cc724954cd9386b81a3af","64de8040d12ca220c80ed075","","","","","1731",""," ","key"," ","6.944297188755039","500","250","zol","2.160000000000001","1","0","-0.56","-12","-30",""
"","psychophysics","118","423435","0.0-118.0","614cc724954cd9386b81a3af","64de8040d12ca220c80ed075","","","","","1685",""," ","key"," ","6.944267489712153","500","250","zol","0.9499999999999998","1","0","0.25","-3","18",""
"","psychophysics","119","425064","0.0-119.0","614cc724954cd9386b81a3af","64de8040d12ca220c80ed075","","","","","1626",""," ","key"," ","6.9442789699570495","500","250","zol","1.5300000000000005","1","0","0.07","-22","1",""
"","psychophysics","120","426699","0.0-120.0","614cc724954cd9386b81a3af","64de8040d12ca220c80ed075","","","","","1630",""," ","key"," ","6.9442765957448","500","250","zol","1.05","1","0","0.45","30","2",""
"","psychophysics","121","427491","0.0-121.0","614cc724954cd9386b81a3af","64de8040d12ca220c80ed075","","","","","788",""," ","key"," ","6.944283185840947","500","250","inst","","","","","","",""
"","psychophysics","122","429193","0.0-122.0","614cc724954cd9386b81a3af","64de8040d12ca220c80ed075","","","","","1700",""," ","key"," ","6.944290983606584","500","250","instPz1","24","1","","25","","","50"
"","psychophysics","123","429714","0.0-123.0","614cc724954cd9386b81a3af","64de8040d12ca220c80ed075","","","","","513",""," ","key"," ","6.944256756756757","500","250","instPz2","35","1","","35","","","20"
"","psychophysics","124","432223","0.0-124.0","614cc724954cd9386b81a3af","64de8040d12ca220c80ed075","","","","","2504",""," ","key"," ","6.9442611111111345","500","250","instPz3","121","1","","100","","","30"
"","psychophysics","125","432687","0.0-125.0","614cc724954cd9386b81a3af","64de8040d12ca220c80ed075","","","","","458",""," ","key"," ","6.944318181817477","500","250","instPz4","100","1","","100","","","30"
"","psychophysics","126","433337","0.0-126.0","614cc724954cd9386b81a3af","64de8040d12ca220c80ed075","","","","","646",""," ","key"," ","6.9442903225808355","500","250","inst","","","","","","",""
"","psychophysics","127","436903","0.0-127.0","614cc724954cd9386b81a3af","64de8040d12ca220c80ed075","","","","","3558",""," ","key"," ","6.944271484375008","500","250","pz","63","1","1","56","","","50"
"","psychophysics","128","438915","0.0-128.0","614cc724954cd9386b81a3af","64de8040d12ca220c80ed075","","","","","2005",""," ","key"," ","6.944269896193873","500","250","pz","62","1","1","41","","","48"
"","psychophysics","129","440394","0.0-129.0","614cc724954cd9386b81a3af","64de8040d12ca220c80ed075","","","","","1472",""," ","key"," ","6.944283018867762","500","250","pz","61","1","1","52","","","44"
"","psychophysics","130","440964","0.0-130.0","614cc724954cd9386b81a3af","64de8040d12ca220c80ed075","","","","","563",""," ","key"," ","6.944308641975326","500","250","pz","58","1","1","58","","","48"
"","psychophysics","131","443652","0.0-131.0","614cc724954cd9386b81a3af","64de8040d12ca220c80ed075","","","","","2680",""," ","key"," ","6.944277202072487","500","250","pz","36","1","1","50","","","28"
"","psychophysics","132","445276","0.0-132.0","614cc724954cd9386b81a3af","64de8040d12ca220c80ed075","","","","","1614",""," ","key"," ","6.944253218884114","500","250","pz","56","1","1","45","","","43"
"","psychophysics","133","447359","0.0-133.0","614cc724954cd9386b81a3af","64de8040d12ca220c80ed075","","","","","2076",""," ","key"," ","6.94428428093631","500","250","pz","44","1","1","25","","","35"
"","psychophysics","134","449553","0.0-134.0","614cc724954cd9386b81a3af","64de8040d12ca220c80ed075","","","","","2187",""," ","key"," ","6.944260317460257","500","250","pz","40","1","1","51","","","31"
"","psychophysics","135","451352","0.0-135.0","614cc724954cd9386b81a3af","64de8040d12ca220c80ed075","","","","","1792",""," ","key"," ","6.944290697674561","500","250","pz","42","1","1","26","","","26"
"","psychophysics","136","453151","0.0-136.0","614cc724954cd9386b81a3af","64de8040d12ca220c80ed075","","","","","1792",""," ","key"," ","6.944271317829356","500","250","pz","44","1","1","55","","","20"
"","psychophysics","137","455088","0.0-137.0","614cc724954cd9386b81a3af","64de8040d12ca220c80ed075","","","","","1929",""," ","key"," ","6.944284172661866","500","250","pz","37","1","1","25","","","24"
"","psychophysics","138","457359","0.0-138.0","614cc724954cd9386b81a3af","64de8040d12ca220c80ed075","","","","","2264",""," ","key"," ","6.944279141104359","500","250","pz","54","1","1","48","","","33"
"","psychophysics","139","460904","0.0-139.0","614cc724954cd9386b81a3af","64de8040d12ca220c80ed075","","","","","3536",""," ","key"," ","6.944269155206233","500","250","pz","50","1","1","34","","","37"
"","psychophysics","140","464130","0.0-140.0","614cc724954cd9386b81a3af","64de8040d12ca220c80ed075","","","","","3220",""," ","key"," ","6.94427801724142","500","250","pz","42","1","1","48","","","31"
"","psychophysics","141","467952","0.0-141.0","614cc724954cd9386b81a3af","64de8040d12ca220c80ed075","","","","","3814",""," ","key"," ","6.944256830601088","500","250","pz","35","1","1","45","","","21"
"","psychophysics","142","468712","0.0-142.0","614cc724954cd9386b81a3af","64de8040d12ca220c80ed075","","","","","756",""," ","key"," ","6.944339449541459","500","250","inst","","","","","","",""
"","psychophysics","143","469663","0.0-143.0","614cc724954cd9386b81a3af","64de8040d12ca220c80ed075","","","","","949",""," ","key"," ","6.944338235294066","500","250","instZol1","1.3","","","-1.3","0","0",""
"","psychophysics","144","470199","0.0-144.0","614cc724954cd9386b81a3af","64de8040d12ca220c80ed075","","","","","533",""," ","key"," ","6.944276315789658","500","250","instZol2","-2","2","","2","0","0",""
"","psychophysics","145","470831","0.0-145.0","614cc724954cd9386b81a3af","64de8040d12ca220c80ed075","","","","","627",""," ","key"," ","6.9442000000000315","500","250","inst","","","","","","",""
"","psychophysics","146","473385","0.0-146.0","614cc724954cd9386b81a3af","64de8040d12ca220c80ed075","","","","","2549",""," ","key"," ","6.944277929155281","500","250","zol","-0.8699999999999999","2","1","0.27","-28","27",""
"","psychophysics","147","475199","0.0-147.0","614cc724954cd9386b81a3af","64de8040d12ca220c80ed075","","","","","1809",""," ","key"," ","6.944269230769266","500","250","zol","-1.1400000000000001","2","1","-0.36","20","-11",""
"","psychophysics","148","476808","0.0-148.0","614cc724954cd9386b81a3af","64de8040d12ca220c80ed075","","","","","1604",""," ","key"," ","6.944268398268352","500","250","zol","-1.4000000000000001","2","1","-0.1","15","19",""
"","psychophysics","149","478575","0.0-149.0","614cc724954cd9386b81a3af","64de8040d12ca220c80ed075","","","","","1764",""," ","key"," ","6.944268774703419","500","250","zol","-1.27","2","1","-0.53","4","1",""
"","psychophysics","150","480255","0.0-150.0","614cc724954cd9386b81a3af","64de8040d12ca220c80ed075","","","","","1673",""," ","key"," ","6.944286307054079","500","250","zol","-1.5200000000000005","2","1","-0.58","23","20",""
"","psychophysics","151","481887","0.0-151.0","614cc724954cd9386b81a3af","64de8040d12ca220c80ed075","","","","","1627",""," ","key"," ","6.944277777777821","500","250","zol","-1.8700000000000006","2","1","0.17","18","8",""
"","psychophysics","152","483407","0.0-152.0","614cc724954cd9386b81a3af","64de8040d12ca220c80ed075","","","","","1515",""," ","key"," ","6.944266055045765","500","250","zol","-2.130000000000001","2","1","0.73","-10","0",""
"","psychophysics","153","484936","0.0-153.0","614cc724954cd9386b81a3af","64de8040d12ca220c80ed075","","","","","1524",""," ","key"," ","6.944287671232872","500","250","zol","-1.8100000000000007","2","1","0.31","-21","-7",""
"","psychophysics","154","486503","0.0-154.0","614cc724954cd9386b81a3af","64de8040d12ca220c80ed075","","","","","1562",""," ","key"," ","6.944275555555554","500","250","zol","-1.4500000000000002","2","1","-0.05","-23","14",""
"","psychophysics","155","488040","0.0-155.0","614cc724954cd9386b81a3af","64de8040d12ca220c80ed075","","","","","1533",""," ","key"," ","6.944295454545434","500","250","zol","-0.9899999999999999","2","1","-0.61","-20","14",""
"","psychophysics","156","489434","0.0-156.0","614cc724954cd9386b81a3af","64de8040d12ca220c80ed075","","","","","1389",""," ","key"," ","6.944265000000014","500","250","zol","-1.7600000000000007","2","1","0.66","-22","12",""
"","psychophysics","157","490898","0.0-157.0","614cc724954cd9386b81a3af","64de8040d12ca220c80ed075","","","","","1457",""," ","key"," ","6.944271428571526","500","250","zol","-1.4800000000000004","2","1","0.68","17","17",""
"","psychophysics","158","492263","0.0-158.0","614cc724954cd9386b81a3af","64de8040d12ca220c80ed075","","","","","1362",""," ","key"," ","6.944266666666879","500","250","zol","-0.8699999999999999","2","1","-0.23","13","22",""
"","psychophysics","159","493671","0.0-159.0","614cc724954cd9386b81a3af","64de8040d12ca220c80ed075","","","","","1402",""," ","key"," ","6.94426732673281","500","250","zol","-0.47","2","1","-0.63","2","-2",""
"","psychophysics","160","495073","0.0-160.0","614cc724954cd9386b81a3af","64de8040d12ca220c80ed075","","","","","1396",""," ","key"," ","6.944283582089441","500","250","zol","-1.35","2","1","-0.05","27","14",""
"","psychophysics","161","495727","0.0-161.0","614cc724954cd9386b81a3af","64de8040d12ca220c80ed075","","","","","649",""," ","key"," ","6.944301075268893","500","250","inst","","","","","","",""
"","psychophysics","162","496967","0.0-162.0","614cc724954cd9386b81a3af","64de8040d12ca220c80ed075","","","","","1236",""," ","key"," ","6.944286516854171","500","250","instBr3","40","1","","40","0","0","300"
"","psychophysics","163","497488","0.0-163.0","614cc724954cd9386b81a3af","64de8040d12ca220c80ed075","","","","","518",""," ","key"," ","6.944270270270912","500","250","inst","","","","","","",""
"","psychophysics","164","498879","0.0-164.0","614cc724954cd9386b81a3af","64de8040d12ca220c80ed075","","","","","1388",""," ","key"," ","6.944261306532642","500","250","br","-36","1","1","-29","24","3","252"
"","psychophysics","165","500687","0.0-165.0","614cc724954cd9386b81a3af","64de8040d12ca220c80ed075","","","","","1804",""," ","key"," ","6.944262548262599","500","250","br","-28","1","1","-16","-3","-19","261"
"","psychophysics","166","503280","0.0-166.0","614cc724954cd9386b81a3af","64de8040d12ca220c80ed075","","","","","2589",""," ","key"," ","6.944294906166087","500","250","br","-17","1","1","29","2","-15","200"
"","psychophysics","167","505537","0.0-167.0","614cc724954cd9386b81a3af","64de8040d12ca220c80ed075","","","","","2254",""," ","key"," ","6.944274691358046","500","250","br","-21","1","1","-29","-16","25","262"
"","psychophysics","168","507879","0.0-168.0","614cc724954cd9386b81a3af","64de8040d12ca220c80ed075","","","","","2337",""," ","key"," ","6.944247023809502","500","250","br","-20","1","1","15","19","29","291"
"","psychophysics","169","510447","0.0-169.0","614cc724954cd9386b81a3af","64de8040d12ca220c80ed075","","","","","2563",""," ","key"," ","6.944303523035162","500","250","br","-20","1","1","28","10","27","284"
"","psychophysics","170","511511","0.0-170.0","614cc724954cd9386b81a3af","64de8040d12ca220c80ed075","","","","","1061",""," ","key"," ","6.944269736841977","500","250","br","-10","1","1","-11","-30","10","241"
"","psychophysics","171","513679","0.0-171.0","614cc724954cd9386b81a3af","64de8040d12ca220c80ed075","","","","","2163",""," ","key"," ","6.944247588424508","500","250","br","-15","1","1","-25","12","25","272"
"","psychophysics","172","514551","0.0-172.0","614cc724954cd9386b81a3af","64de8040d12ca220c80ed075","","","","","868",""," ","key"," ","6.944328000000213","500","250","br","-19","1","1","-19","1","11","248"
"","psychophysics","173","516072","0.0-173.0","614cc724954cd9386b81a3af","64de8040d12ca220c80ed075","","","","","1517",""," ","key"," ","6.944293577981517","500","250","br","-20","1","1","-11","6","22","271"
"","psychophysics","174","517752","0.0-174.0","614cc724954cd9386b81a3af","64de8040d12ca220c80ed075","","","","","1675",""," ","key"," ","6.94427800829874","500","250","br","-19","1","1","-11","29","-18","248"
"","psychophysics","175","519816","0.0-175.0","614cc724954cd9386b81a3af","64de8040d12ca220c80ed075","","","","","2061",""," ","key"," ","6.944256756756757","500","250","br","-16","1","1","17","17","1","274"
"","psychophysics","176","521511","0.0-176.0","614cc724954cd9386b81a3af","64de8040d12ca220c80ed075","","","","","1691",""," ","key"," ","6.944271604938446","500","250","br","-14","1","1","10","-6","19","242"
"","psychophysics","177","523439","0.0-177.0","614cc724954cd9386b81a3af","64de8040d12ca220c80ed075","","","","","1923",""," ","key"," ","6.944299638989156","500","250","br","-9","1","1","-15","23","19","272"
"","psychophysics","178","525671","0.0-178.0","614cc724954cd9386b81a3af","64de8040d12ca220c80ed075","","","","","2228",""," ","key"," ","6.944271874999868","500","250","br","-20","1","1","-28","-6","15","262"
"","psychophysics","179","526343","0.0-179.0","614cc724954cd9386b81a3af","64de8040d12ca220c80ed075","","","","","667",""," ","key"," ","6.944281250000738","500","250","inst","","","","","","",""
"","psychophysics","180","527335","0.0-180.0","614cc724954cd9386b81a3af","64de8040d12ca220c80ed075","","","","","988",""," ","key"," ","6.94427464788691","500","250","instPog0","370","2","","370","0","0","340"
"","psychophysics","181","528023","0.0-181.0","614cc724954cd9386b81a3af","64de8040d12ca220c80ed075","","","","","681",""," ","key"," ","6.944244897958813","500","250","instPog1","370","2","","370","0","0","340"
"","psychophysics","182","530432","0.0-182.0","614cc724954cd9386b81a3af","64de8040d12ca220c80ed075","","","","","2407",""," ","key"," ","6.9443005780346905","500","250","instPog2","340","2","","340","0","0","340"
"","psychophysics","183","530927","0.0-183.0","614cc724954cd9386b81a3af","64de8040d12ca220c80ed075","","","","","489",""," ","key"," ","6.944257142857116","500","250","inst","","","","","","",""
"","psychophysics","184","532455","0.0-184.0","614cc724954cd9386b81a3af","64de8040d12ca220c80ed075","","","","","1524",""," ","key"," ","6.944260273972892","500","250","pog","366","2","1","380","0","0","371"
"","psychophysics","185","534359","0.0-185.0","614cc724954cd9386b81a3af","64de8040d12ca220c80ed075","","","","","1900",""," ","key"," ","6.944271062270929","500","250","pog","293","2","1","343","0","0","301"
"","psychophysics","186","536272","0.0-186.0","614cc724954cd9386b81a3af","64de8040d12ca220c80ed075","","","","","1909",""," ","key"," ","6.9442800000000915","500","250","pog","352","2","1","332","0","0","378"
"","psychophysics","187","537711","0.0-187.0","614cc724954cd9386b81a3af","64de8040d12ca220c80ed075","","","","","1436",""," ","key"," ","6.944281553398045","500","250","pog","350","2","1","368","0","0","358"
"","psychophysics","188","538217","0.0-188.0","614cc724954cd9386b81a3af","64de8040d12ca220c80ed075","","","","","501",""," ","key"," ","6.944277777777946","500","250","pog","349","2","1","349","0","0","358"
"","psychophysics","189","540983","0.0-189.0","614cc724954cd9386b81a3af","64de8040d12ca220c80ed075","","","","","2763",""," ","key"," ","6.944282115869029","500","250","pog","353","2","1","293","0","0","375"
"","psychophysics","190","542439","0.0-190.0","614cc724954cd9386b81a3af","64de8040d12ca220c80ed075","","","","","1451",""," ","key"," ","6.944263157894853","500","250","pog","309","2","1","331","0","0","322"
"","psychophysics","191","544751","0.0-191.0","614cc724954cd9386b81a3af","64de8040d12ca220c80ed075","","","","","2309",""," ","key"," ","6.944286144578392","500","250","pog","346","2","1","384","0","0","349"
"","psychophysics","192","546599","0.0-192.0","614cc724954cd9386b81a3af","64de8040d12ca220c80ed075","","","","","1843",""," ","key"," ","6.944249056603865","500","250","pog","372","2","1","396","0","0","377"
"","psychophysics","193","548607","0.0-193.0","614cc724954cd9386b81a3af","64de8040d12ca220c80ed075","","","","","2004",""," ","key"," ","6.944284722221912","500","250","pog","314","2","1","280","0","0","316"
"","psychophysics","194","550168","0.0-194.0","614cc724954cd9386b81a3af","64de8040d12ca220c80ed075","","","","","1555",""," ","key"," ","6.9442767857144645","500","250","pog","364","2","1","378","0","0","378"
"","psychophysics","195","552190","0.0-195.0","614cc724954cd9386b81a3af","64de8040d12ca220c80ed075","","","","","2020",""," ","key"," ","6.944282758620905","500","250","pog","334","2","1","388","0","0","329"
"","psychophysics","196","553806","0.0-196.0","614cc724954cd9386b81a3af","64de8040d12ca220c80ed075","","","","","1612",""," ","key"," ","6.944280172414187","500","250","pog","314","2","1","338","0","0","314"
"","psychophysics","197","556454","0.0-197.0","614cc724954cd9386b81a3af","64de8040d12ca220c80ed075","","","","","2645",""," ","key"," ","6.944265789473675","500","250","pog","344","2","1","282","0","0","357"
"","psychophysics","198","558097","0.0-198.0","614cc724954cd9386b81a3af","64de8040d12ca220c80ed075","","","","","1639",""," ","key"," ","6.944283898305187","500","250","pog","305","2","1","329","0","0","313"
"","psychophysics","199","558751","0.0-199.0","614cc724954cd9386b81a3af","64de8040d12ca220c80ed075","","","","","650",""," ","key"," ","6.944290322579584","500","250","inst","","","","","","",""
"","psychophysics","200","559598","0.0-200.0","614cc724954cd9386b81a3af","64de8040d12ca220c80ed075","","","","","842",""," ","key"," ","6.944231404958501","500","250","instEB1","30","2","","30","0","0","40"
"","psychophysics","201","560030","0.0-201.0","614cc724954cd9386b81a3af","64de8040d12ca220c80ed075","","","","","426",""," ","key"," ","6.944262295081585","500","250","instEB2","40","2","","40","0","0","30"
"","psychophysics","202","560613","0.0-202.0","614cc724954cd9386b81a3af","64de8040d12ca220c80ed075","","","","","578",""," ","key"," ","6.944313253012362","500","250","instEB3","45","2","","45","0","0","27"
"","psychophysics","203","561271","0.0-203.0","614cc724954cd9386b81a3af","64de8040d12ca220c80ed075","","","","","652",""," ","key"," ","6.944276595744552","500","250","instEB4","30","2","","30","0","0","40"
"","psychophysics","204","561822","0.0-204.0","614cc724954cd9386b81a3af","64de8040d12ca220c80ed075","","","","","545",""," ","key"," ","6.944256410256434","500","250","inst","","","","","","",""
"","psychophysics","205","566127","0.0-205.0","614cc724954cd9386b81a3af","64de8040d12ca220c80ed075","","","","","4295",""," ","key"," ","6.944284329563793","500","250","eb","55","2","","40","0","0","45"
"","psychophysics","206","566246","0.0-206.0","614cc724954cd9386b81a3af","64de8040d12ca220c80ed075","","","","","114",""," ","key"," ","6.944187499997497","500","250","eb","27","2","","27","0","0","24"
"","psychophysics","207","569897","0.0-207.0","614cc724954cd9386b81a3af","64de8040d12ca220c80ed075","","","","","3646",""," ","key"," ","6.944264761904654","500","250","eb","38","2","","30","0","0","29"
"","psychophysics","208","572104","0.0-208.0","614cc724954cd9386b81a3af","64de8040d12ca220c80ed075","","","","","2200",""," ","key"," ","6.944280757097607","500","250","eb","46","2","","43","0","0","37"
"","psychophysics","209","575078","0.0-209.0","614cc724954cd9386b81a3af","64de8040d12ca220c80ed075","","","","","2968",""," ","key"," ","6.944290398126599","500","250","eb","35","2","","46","0","0","28"
"","psychophysics","210","577687","0.0-210.0","614cc724954cd9386b81a3af","64de8040d12ca220c80ed075","","","","","2604",""," ","key"," ","6.944258666666535","500","250","eb","31","2","","33","0","0","25"
"","psychophysics","211","580758","0.0-211.0","614cc724954cd9386b81a3af","64de8040d12ca220c80ed075","","","","","3065",""," ","key"," ","6.944278911564419","500","250","eb","51","2","","30","0","0","48"
"","psychophysics","212","584750","0.0-212.0","614cc724954cd9386b81a3af","64de8040d12ca220c80ed075","","","","","3986",""," ","key"," ","6.956397905759269","500","250","eb","32","2","","51","0","0","29"
"","psychophysics","213","588041","0.0-213.0","614cc724954cd9386b81a3af","64de8040d12ca220c80ed075","","","","","3286",""," ","key"," ","6.944283298097392","500","250","eb","32","2","","44","0","0","28"
"","psychophysics","214","589368","0.0-214.0","614cc724954cd9386b81a3af","64de8040d12ca220c80ed075","","","","","1321",""," ","key"," ","6.94427894736873","500","250","eb","34","2","","35","0","0","30"
"","psychophysics","215","592590","0.0-215.0","614cc724954cd9386b81a3af","64de8040d12ca220c80ed075","","","","","3216",""," ","key"," ","6.944261339093059","500","250","eb","54","2","","40","0","0","47"
"","psychophysics","216","594550","0.0-216.0","614cc724954cd9386b81a3af","64de8040d12ca220c80ed075","","","","","1954",""," ","key"," ","6.9442811387900125","500","250","eb","40","2","","51","0","0","35"
"","psychophysics","217","598926","0.0-217.0","614cc724954cd9386b81a3af","64de8040d12ca220c80ed075","","","","","4372",""," ","key"," ","6.944273449920469","500","250","eb","60","2","","38","0","0","53"
"","psychophysics","218","602110","0.0-218.0","614cc724954cd9386b81a3af","64de8040d12ca220c80ed075","","","","","3179",""," ","key"," ","6.944279475982492","500","250","eb","26","2","","44","0","0","24"
"","psychophysics","219","605624","0.0-219.0","614cc724954cd9386b81a3af","64de8040d12ca220c80ed075","","","","","3508",""," ","key"," ","6.9442633663366395","500","250","eb","45","2","","28","0","0","39"
