"success","trial_type","trial_index","time_elapsed","internal_node_id","pid","sid","timeout","failed_images","failed_audio","failed_video","rt","stimulus","response","response_type","key_press","avg_frame_time","center_x","center_y","task","resp","start","parA","version","block","jitterX","jitterY"
"true","fullscreen","0","2765","0.0-0.0","60fde5e29e585481874a9d16","64e50e6667bff343fec22505","","","","","","","","","","","","","","","","","","","",""
"true","preload","1","2933","0.0-1.0","60fde5e29e585481874a9d16","64e50e6667bff343fec22505","false","[]","[]","[]","","","","","","","","","","","","","","","",""
"","html-button-response","2","6184","0.0-2.0","60fde5e29e585481874a9d16","64e50e6667bff343fec22505","","","","","3247","Please Make Sure Your Audio Is On.","0","","","","","","","","","","","","",""
"","psychophysics","3","11531","0.0-3.0","60fde5e29e585481874a9d16","64e50e6667bff343fec22505","","","","","5337",""," ","key"," ","16.822433544303795","768","250","","","","","","","",""
"","psychophysics","4","13742","0.0-4.0","60fde5e29e585481874a9d16","64e50e6667bff343fec22505","","","","","2126",""," ","key"," ","17.178406249999995","500","250","inst","","","","","","",""
"","psychophysics","5","17477","0.0-5.0","60fde5e29e585481874a9d16","64e50e6667bff343fec22505","","","","","3658",""," ","key"," ","16.890786363636362","500","250","sample0","","","","","","",""
"","psychophysics","6","19098","0.0-6.0","60fde5e29e585481874a9d16","64e50e6667bff343fec22505","","","","","1576",""," ","key"," ","16.663742268041215","500","250","sample1","","","","","","",""
"","psychophysics","7","31279","0.0-7.0","60fde5e29e585481874a9d16","64e50e6667bff343fec22505","","","","","12159",""," ","key"," ","16.663383561643837","500","250","sample2","102","","","","","",""
"","psychophysics","8","37169","0.0-8.0","60fde5e29e585481874a9d16","64e50e6667bff343fec22505","","","","","5882",""," ","key"," ","16.663747159090917","500","250","sample3","100","","","","","",""
"","psychophysics","9","47673","0.0-9.0","60fde5e29e585481874a9d16","64e50e6667bff343fec22505","","","","","10472",""," ","key"," ","16.664476190476194","500","250","sample4","100","","","","","",""
"","psychophysics","10","52507","0.0-10.0","60fde5e29e585481874a9d16","64e50e6667bff343fec22505","","","","","4795",""," ","key"," ","16.663692041522495","500","250","sample5","","","","","","",""
"","psychophysics","11","59383","0.0-11.0","60fde5e29e585481874a9d16","64e50e6667bff343fec22505","","","","","6869",""," ","key"," ","16.663024330900235","500","250","sample6","504","","","","","",""
"","psychophysics","12","67106","0.0-12.0","60fde5e29e585481874a9d16","64e50e6667bff343fec22505","","","","","7718",""," ","key"," ","16.663933045356384","500","250","inst","","","","","","",""
"","psychophysics","13","71456","0.0-13.0","60fde5e29e585481874a9d16","64e50e6667bff343fec22505","","","","","4340",""," ","key"," ","16.663284615384665","500","250","inst","","","","","","",""
"","psychophysics","14","73672","0.0-14.0","60fde5e29e585481874a9d16","64e50e6667bff343fec22505","","","","","2198",""," ","key"," ","16.663954545454487","500","250","inst","","","","","","",""
"","psychophysics","15","75214","0.0-15.0","60fde5e29e585481874a9d16","64e50e6667bff343fec22505","","","","","1536",""," ","key"," ","16.664153846153788","500","250","inst","","","","","","",""
"","psychophysics","16","77158","0.0-16.0","60fde5e29e585481874a9d16","64e50e6667bff343fec22505","","","","","1933",""," ","key"," ","16.66441379310345","500","250","inst","","","","","","",""
"","psychophysics","17","79783","0.0-17.0","60fde5e29e585481874a9d16","64e50e6667bff343fec22505","","","","","2610",""," ","key"," ","16.664358974358972","500","250","instPzPre","50","50","50","0","","",""
"","psychophysics","18","83932","0.0-18.0","60fde5e29e585481874a9d16","64e50e6667bff343fec22505","","","","","4125",""," ","key"," ","16.662895582329323","500","250","instPz0","50","50","50","1","","",""
"","psychophysics","19","94378","0.0-19.0","60fde5e29e585481874a9d16","64e50e6667bff343fec22505","","","","","10437",""," ","key"," ","16.663364800000004","500","250","instPz1","49","25","50","1","","",""
"","psychophysics","20","100919","0.0-20.0","60fde5e29e585481874a9d16","64e50e6667bff343fec22505","","","","","6529",""," ","key"," ","16.66210459183673","500","250","instPz2","20","35","20","1","","",""
"","psychophysics","21","105868","0.0-21.0","60fde5e29e585481874a9d16","64e50e6667bff343fec22505","","","","","4923",""," ","key"," ","17.009065517241382","500","250","instPz3","100","100","30","1","","",""
"","psychophysics","22","121663","0.0-22.0","60fde5e29e585481874a9d16","64e50e6667bff343fec22505","","","","","15769",""," ","key"," ","16.663413938753973","500","250","instPz4","38","100","30","1","","",""
"","psychophysics","23","124975","0.0-23.0","60fde5e29e585481874a9d16","64e50e6667bff343fec22505","","","","","3292",""," ","key"," ","16.66311616161619","500","250","inst","","","","","","",""
"","psychophysics","24","131358","0.0-24.0","60fde5e29e585481874a9d16","64e50e6667bff343fec22505","","","","","6368",""," ","key"," ","16.66366230366496","500","250","pz","43","58","31","1","0","",""
"","psychophysics","25","133880","0.0-25.0","60fde5e29e585481874a9d16","64e50e6667bff343fec22505","","","","","2514",""," ","key"," ","16.664246666666585","500","250","pz","39","41","32","1","0","",""
"","psychophysics","26","138289","0.0-26.0","60fde5e29e585481874a9d16","64e50e6667bff343fec22505","","","","","4393",""," ","key"," ","16.663560606060578","500","250","pz","75","53","53","1","0","",""
"","psychophysics","27","141753","0.0-27.0","60fde5e29e585481874a9d16","64e50e6667bff343fec22505","","","","","3454",""," ","key"," ","16.663436893203908","500","250","pz","50","29","42","1","0","",""
"","psychophysics","28","146226","0.0-28.0","60fde5e29e585481874a9d16","64e50e6667bff343fec22505","","","","","4462",""," ","key"," ","16.6629104477611","500","250","pz","33","56","28","1","0","",""
"","psychophysics","29","150010","0.0-29.0","60fde5e29e585481874a9d16","64e50e6667bff343fec22505","","","","","3777",""," ","key"," ","16.664588495575288","500","250","pz","67","28","52","1","0","",""
"","psychophysics","30","153666","0.0-30.0","60fde5e29e585481874a9d16","64e50e6667bff343fec22505","","","","","3638",""," ","key"," ","16.663871559633105","500","250","pz","73","31","56","1","0","",""
"","psychophysics","31","155677","0.0-31.0","60fde5e29e585481874a9d16","64e50e6667bff343fec22505","","","","","1989",""," ","key"," ","16.660433333333398","500","250","pz","58","48","46","1","0","",""
"","psychophysics","32","157483","0.0-32.0","60fde5e29e585481874a9d16","64e50e6667bff343fec22505","","","","","1791",""," ","key"," ","16.664598130841064","500","250","pz","25","25","21","1","0","",""
"","psychophysics","33","159957","0.0-33.0","60fde5e29e585481874a9d16","64e50e6667bff343fec22505","","","","","2452",""," ","key"," ","16.65871621621635","500","250","pz","61","43","48","1","0","",""
"","psychophysics","34","161989","0.0-34.0","60fde5e29e585481874a9d16","64e50e6667bff343fec22505","","","","","2018",""," ","key"," ","16.664661157024785","500","250","pz","57","57","39","1","0","",""
"","psychophysics","35","166824","0.0-35.0","60fde5e29e585481874a9d16","64e50e6667bff343fec22505","","","","","4820",""," ","key"," ","16.663692041522495","500","250","pz","48","21","33","1","0","",""
"","psychophysics","36","168649","0.0-36.0","60fde5e29e585481874a9d16","64e50e6667bff343fec22505","","","","","1808",""," ","key"," ","16.821401869159008","500","250","pz","41","35","36","1","0","",""
"","psychophysics","37","170014","0.0-37.0","60fde5e29e585481874a9d16","64e50e6667bff343fec22505","","","","","1356",""," ","key"," ","16.66185185185168","500","250","pz","24","21","21","1","0","",""
"","psychophysics","38","171969","0.0-38.0","60fde5e29e585481874a9d16","64e50e6667bff343fec22505","","","","","1941",""," ","key"," ","16.662786324786342","500","250","pz","73","60","49","1","0","",""
"","psychophysics","39","173771","0.0-39.0","60fde5e29e585481874a9d16","64e50e6667bff343fec22505","","","","","1796",""," ","key"," ","16.663261682243103","500","250","inst","","","","","","",""
"","psychophysics","40","175634","0.0-40.0","60fde5e29e585481874a9d16","64e50e6667bff343fec22505","","","","","1843",""," ","key"," ","16.66729729729736","500","250","instBr0","0","0","300","","","0","0"
"","psychophysics","41","179083","0.0-41.0","60fde5e29e585481874a9d16","64e50e6667bff343fec22505","","","","","3428",""," ","key"," ","16.664019417475732","500","250","instBr1","-3","-40","300","","","0","0"
"","psychophysics","42","182869","0.0-42.0","60fde5e29e585481874a9d16","64e50e6667bff343fec22505","","","","","3771",""," ","key"," ","16.887515695067254","500","250","instBr3","26","40","300","2","","0","0"
"","psychophysics","43","194728","0.0-43.0","60fde5e29e585481874a9d16","64e50e6667bff343fec22505","","","","","11847",""," ","key"," ","16.66356118143462","500","250","inst","","","","","","",""
"","psychophysics","44","197827","0.0-44.0","60fde5e29e585481874a9d16","64e50e6667bff343fec22505","","","","","3079",""," ","key"," ","16.66371891891892","500","250","br","14","-4","230","2","0","5","-4"
"","psychophysics","45","198938","0.0-45.0","60fde5e29e585481874a9d16","64e50e6667bff343fec22505","","","","","1092",""," ","key"," ","16.66553846153816","500","250","br","24","24","265","2","0","17","0"
"","psychophysics","46","200544","0.0-46.0","60fde5e29e585481874a9d16","64e50e6667bff343fec22505","","","","","1594",""," ","key"," ","16.65979166666663","500","250","br","19","4","273","2","0","-27","5"
"","psychophysics","47","202479","0.0-47.0","60fde5e29e585481874a9d16","64e50e6667bff343fec22505","","","","","1927",""," ","key"," ","16.664791304347833","500","250","br","23","0","290","2","0","26","-20"
"","psychophysics","48","204764","0.0-48.0","60fde5e29e585481874a9d16","64e50e6667bff343fec22505","","","","","2271",""," ","key"," ","16.663463235294117","500","250","br","20","-17","204","2","0","-26","29"
"","psychophysics","49","207208","0.0-49.0","60fde5e29e585481874a9d16","64e50e6667bff343fec22505","","","","","2418",""," ","key"," ","16.66420547945197","500","250","br","29","-14","296","2","0","15","-17"
"","psychophysics","50","208815","0.0-50.0","60fde5e29e585481874a9d16","64e50e6667bff343fec22505","","","","","1598",""," ","key"," ","16.664431578947514","500","250","br","21","8","296","2","0","15","6"
"","psychophysics","51","211486","0.0-51.0","60fde5e29e585481874a9d16","64e50e6667bff343fec22505","","","","","2664",""," ","key"," ","16.663631250000073","500","250","br","18","-30","245","2","0","20","-28"
"","psychophysics","52","212964","0.0-52.0","60fde5e29e585481874a9d16","64e50e6667bff343fec22505","","","","","1459",""," ","key"," ","16.663287356321568","500","250","br","25","14","290","2","0","24","-26"
"","psychophysics","53","214657","0.0-53.0","60fde5e29e585481874a9d16","64e50e6667bff343fec22505","","","","","1682",""," ","key"," ","16.660287128712714","500","250","br","19","-1","254","2","0","-29","16"
"","psychophysics","54","216768","0.0-54.0","60fde5e29e585481874a9d16","64e50e6667bff343fec22505","","","","","2083",""," ","key"," ","16.664539682539594","500","250","br","24","-9","300","2","0","-9","-10"
"","psychophysics","55","218991","0.0-55.0","60fde5e29e585481874a9d16","64e50e6667bff343fec22505","","","","","2205",""," ","key"," ","16.659856060606025","500","250","br","10","-28","208","2","0","22","-2"
"","psychophysics","56","221429","0.0-56.0","60fde5e29e585481874a9d16","64e50e6667bff343fec22505","","","","","2422",""," ","key"," ","16.663731034482822","500","250","br","6","-26","232","2","0","-6","30"
"","psychophysics","57","222982","0.0-57.0","60fde5e29e585481874a9d16","64e50e6667bff343fec22505","","","","","1531",""," ","key"," ","16.66333333333336","500","250","br","17","2","206","2","0","-3","-7"
"","psychophysics","58","225738","0.0-58.0","60fde5e29e585481874a9d16","64e50e6667bff343fec22505","","","","","2748",""," ","key"," ","16.664402439024386","500","250","br","29","-25","295","2","0","-4","26"
"","psychophysics","59","233288","0.0-59.0","60fde5e29e585481874a9d16","64e50e6667bff343fec22505","","","","","7535",""," ","key"," ","16.700483370288197","500","250","inst","","","","","","",""
"","psychophysics","60","236147","0.0-60.0","60fde5e29e585481874a9d16","64e50e6667bff343fec22505","","","","","2845",""," ","key"," ","16.661912280701785","500","250","instZol0","0","0","","","","0","0"
"","psychophysics","61","246530","0.0-61.0","60fde5e29e585481874a9d16","64e50e6667bff343fec22505","","","","","10375",""," ","key"," ","16.663541800643085","500","250","instZol1","-2.7755575615628914e-17","-1.3","","","","0","0"
"","psychophysics","62","253399","0.0-62.0","60fde5e29e585481874a9d16","64e50e6667bff343fec22505","","","","","6836",""," ","key"," ","16.66359854014599","500","250","instZol2","-2","2","","2","","0","0"
"","psychophysics","63","254610","0.0-63.0","60fde5e29e585481874a9d16","64e50e6667bff343fec22505","","","","","1199",""," ","key"," ","16.66159722222235","500","250","inst","","","","","","",""
"","psychophysics","64","262637","0.0-64.0","60fde5e29e585481874a9d16","64e50e6667bff343fec22505","","","","","null","","null","key","null","16.66366666666672","500","250","zol","-1.01","0.61","","2","0","9","-27"
"","psychophysics","65","265732","0.0-65.0","60fde5e29e585481874a9d16","64e50e6667bff343fec22505","","","","","3074",""," ","key"," ","16.664264864864684","500","250","zol","-0.53","0.53","","2","0","1","-4"
"","psychophysics","66","273762","0.0-66.0","60fde5e29e585481874a9d16","64e50e6667bff343fec22505","","","","","null","","null","key","null","16.69817083333328","500","250","zol","0.51","0.09","","2","0","3","23"
"","psychophysics","67","277149","0.0-67.0","60fde5e29e585481874a9d16","64e50e6667bff343fec22505","","","","","3366",""," ","key"," ","16.663900990099048","500","250","zol","-0.17999999999999985","-0.32","","2","0","23","21"
"","psychophysics","68","278415","0.0-68.0","60fde5e29e585481874a9d16","64e50e6667bff343fec22505","","","","","1240",""," ","key"," ","16.66336000000049","500","250","zol","-0.69","0.69","","2","0","11","3"
"","psychophysics","69","280612","0.0-69.0","60fde5e29e585481874a9d16","64e50e6667bff343fec22505","","","","","2177",""," ","key"," ","16.66704580152651","500","250","zol","-0.72","0.72","","2","0","27","26"
"","psychophysics","70","283069","0.0-70.0","60fde5e29e585481874a9d16","64e50e6667bff343fec22505","","","","","2435",""," ","key"," ","16.664876712329068","500","250","zol","-0.38","-0.32","","2","0","25","-3"
"","psychophysics","71","285463","0.0-71.0","60fde5e29e585481874a9d16","64e50e6667bff343fec22505","","","","","2374",""," ","key"," ","16.663384615384626","500","250","zol","-0.71","0.11","","2","0","-26","26"
"","psychophysics","72","287527","0.0-72.0","60fde5e29e585481874a9d16","64e50e6667bff343fec22505","","","","","2047",""," ","key"," ","16.664520325203526","500","250","zol","-1.17","0.47","","2","0","-4","-1"
"","psychophysics","73","289360","0.0-73.0","60fde5e29e585481874a9d16","64e50e6667bff343fec22505","","","","","1809",""," ","key"," ","16.66497247706439","500","250","zol","-1.3900000000000001","0.49","","2","0","-20","28"
"","psychophysics","74","291377","0.0-74.0","60fde5e29e585481874a9d16","64e50e6667bff343fec22505","","","","","1998",""," ","key"," ","16.66304999999993","500","250","zol","-1.0899999999999999","0.09","","2","0","11","-16"
"","psychophysics","75","294076","0.0-75.0","60fde5e29e585481874a9d16","64e50e6667bff343fec22505","","","","","2676",""," ","key"," ","16.66298757763999","500","250","zol","-0.2199999999999999","-0.68","","2","0","-19","-13"
"","psychophysics","76","296464","0.0-76.0","60fde5e29e585481874a9d16","64e50e6667bff343fec22505","","","","","2364",""," ","key"," ","16.664084507042173","500","250","zol","-0.9699999999999999","-0.53","","2","0","-1","-26"
"","psychophysics","77","298244","0.0-77.0","60fde5e29e585481874a9d16","64e50e6667bff343fec22505","","","","","1764",""," ","key"," ","16.822066666667038","500","250","zol","-1.9500000000000008","0.65","","2","0","5","18"
"","psychophysics","78","299746","0.0-78.0","60fde5e29e585481874a9d16","64e50e6667bff343fec22505","","","","","1482",""," ","key"," ","16.663011235955402","500","250","zol","-1.8100000000000007","0.41","","2","0","-25","8"
"","psychophysics","79","300875","0.0-79.0","60fde5e29e585481874a9d16","64e50e6667bff343fec22505","","","","","1115",""," ","key"," ","16.66532835820881","500","250","inst","","","","","","",""
"","psychophysics","80","311281","0.0-80.0","60fde5e29e585481874a9d16","64e50e6667bff343fec22505","","","","","10388",""," ","key"," ","16.66348796147673","500","250","instPog0","340","370","340","2","","0","0"
"","psychophysics","81","317320","0.0-81.0","60fde5e29e585481874a9d16","64e50e6667bff343fec22505","","","","","6027",""," ","key"," ","16.663392265193334","500","250","instPog1","370","370","340","2","","0","0"
"","psychophysics","82","323718","0.0-82.0","60fde5e29e585481874a9d16","64e50e6667bff343fec22505","","","","","6390",""," ","key"," ","16.750845144356916","500","250","instPog2","320","340","340","2","","0","0"
"","psychophysics","83","324704","0.0-83.0","60fde5e29e585481874a9d16","64e50e6667bff343fec22505","","","","","978",""," ","key"," ","16.665620689655672","500","250","inst","","","","","","",""
"","psychophysics","84","330018","0.0-84.0","60fde5e29e585481874a9d16","64e50e6667bff343fec22505","","","","","5306",""," ","key"," ","16.663411949685614","500","250","pog","296","312","309","2","0","0","0"
"","psychophysics","85","332699","0.0-85.0","60fde5e29e585481874a9d16","64e50e6667bff343fec22505","","","","","2666",""," ","key"," ","16.66324999999997","500","250","pog","362","368","369","2","0","0","0"
"","psychophysics","86","336002","0.0-86.0","60fde5e29e585481874a9d16","64e50e6667bff343fec22505","","","","","3295",""," ","key"," ","16.66322335025395","500","250","pog","351","341","370","2","0","0","0"
"","psychophysics","87","341215","0.0-87.0","60fde5e29e585481874a9d16","64e50e6667bff343fec22505","","","","","5201",""," ","key"," ","16.77102903225797","500","250","pog","324","306","333","2","0","0","0"
"","psychophysics","88","346976","0.0-88.0","60fde5e29e585481874a9d16","64e50e6667bff343fec22505","","","","","5752",""," ","key"," ","16.663238372092966","500","250","pog","354","378","370","2","0","0","0"
"","psychophysics","89","352718","0.0-89.0","60fde5e29e585481874a9d16","64e50e6667bff343fec22505","","","","","5731",""," ","key"," ","16.663465116279124","500","250","pog","288","384","315","2","0","0","0"
"","psychophysics","90","353611","0.0-90.0","60fde5e29e585481874a9d16","64e50e6667bff343fec22505","","","","","879",""," ","key"," ","16.66559615384568","500","250","pog","322","322","338","2","0","0","0"
"","psychophysics","91","354287","0.0-91.0","60fde5e29e585481874a9d16","64e50e6667bff343fec22505","","","","","665",""," ","key"," ","16.665875000000234","500","250","pog","350","350","363","2","0","0","0"
"","psychophysics","92","360462","0.0-92.0","60fde5e29e585481874a9d16","64e50e6667bff343fec22505","","","","","6163",""," ","key"," ","16.70861788617881","500","250","pog","313","345","333","2","0","0","0"
"","psychophysics","93","363626","0.0-93.0","60fde5e29e585481874a9d16","64e50e6667bff343fec22505","","","","","3142",""," ","key"," ","16.7498351063832","500","250","pog","284","368","315","2","0","0","0"
"","psychophysics","94","366309","0.0-94.0","60fde5e29e585481874a9d16","64e50e6667bff343fec22505","","","","","2673",""," ","key"," ","16.66346874999981","500","250","pog","319","379","338","2","0","0","0"
"","psychophysics","95","367889","0.0-95.0","60fde5e29e585481874a9d16","64e50e6667bff343fec22505","","","","","1570",""," ","key"," ","16.663451612903234","500","250","pog","329","347","337","2","0","0","0"
"","psychophysics","96","371659","0.0-96.0","60fde5e29e585481874a9d16","64e50e6667bff343fec22505","","","","","3756",""," ","key"," ","16.663164444444444","500","250","pog","337","287","359","2","0","0","0"
"","psychophysics","97","374744","0.0-97.0","60fde5e29e585481874a9d16","64e50e6667bff343fec22505","","","","","3069",""," ","key"," ","16.664518918918848","500","250","pog","295","381","322","2","0","0","0"
"","psychophysics","98","376694","0.0-98.0","60fde5e29e585481874a9d16","64e50e6667bff343fec22505","","","","","1944",""," ","key"," ","16.66212068965502","500","250","pog","348","328","368","2","0","0","0"
"","psychophysics","99","379931","0.0-99.0","60fde5e29e585481874a9d16","64e50e6667bff343fec22505","","","","","3223",""," ","key"," ","16.66326424870471","500","250","inst","","","","","","",""
"","psychophysics","100","381288","0.0-100.0","60fde5e29e585481874a9d16","64e50e6667bff343fec22505","","","","","1340",""," ","key"," ","16.665000000000145","500","250","instEB0","40","40","40","1","","0","0"
"","psychophysics","101","386209","0.0-101.0","60fde5e29e585481874a9d16","64e50e6667bff343fec22505","","","","","4911",""," ","key"," ","16.719646258503406","500","250","instEB1","32","40","30","1","","0","0"
"","psychophysics","102","392048","0.0-102.0","60fde5e29e585481874a9d16","64e50e6667bff343fec22505","","","","","5822",""," ","key"," ","16.711626436781632","500","250","instEB2","36","30","40","1","","0","0"
"","psychophysics","103","396536","0.0-103.0","60fde5e29e585481874a9d16","64e50e6667bff343fec22505","","","","","4473",""," ","key"," ","16.663925650557477","500","250","instEB3","35","27","45","1","","0","0"
"","psychophysics","104","402188","0.0-104.0","60fde5e29e585481874a9d16","64e50e6667bff343fec22505","","","","","5645",""," ","key"," ","16.6631094674556","500","250","instEB4","24","40","30","1","","0","0"
"","psychophysics","105","403487","0.0-105.0","60fde5e29e585481874a9d16","64e50e6667bff343fec22505","","","","","1293",""," ","key"," ","16.662181818181974","500","250","inst","","","","","","",""
"","psychophysics","106","408210","0.0-106.0","60fde5e29e585481874a9d16","64e50e6667bff343fec22505","","","","","4714",""," ","key"," ","16.66269503546101","500","250","eb","32","52","43","1","","0","0"
"","psychophysics","107","411177","0.0-107.0","60fde5e29e585481874a9d16","64e50e6667bff343fec22505","","","","","2949",""," ","key"," ","16.8528057142856","500","250","eb","25","35","32","1","","0","0"
"","psychophysics","108","414766","0.0-108.0","60fde5e29e585481874a9d16","64e50e6667bff343fec22505","","","","","3585",""," ","key"," ","16.664427906976808","500","250","eb","27","37","34","1","","0","0"
"","psychophysics","109","417750","0.0-109.0","60fde5e29e585481874a9d16","64e50e6667bff343fec22505","","","","","2973",""," ","key"," ","16.663500000000017","500","250","eb","24","35","32","1","","0","0"
"","psychophysics","110","421436","0.0-110.0","60fde5e29e585481874a9d16","64e50e6667bff343fec22505","","","","","3670",""," ","key"," ","16.66326363636366","500","250","eb","38","24","48","1","","0","0"
"","psychophysics","111","424655","0.0-111.0","60fde5e29e585481874a9d16","64e50e6667bff343fec22505","","","","","3205",""," ","key"," ","16.663411458333332","500","250","eb","26","29","32","1","","0","0"
"","psychophysics","112","426932","0.0-112.0","60fde5e29e585481874a9d16","64e50e6667bff343fec22505","","","","","2267",""," ","key"," ","16.787525925925863","500","250","eb","40","42","51","1","","0","0"
"","psychophysics","113","429642","0.0-113.0","60fde5e29e585481874a9d16","64e50e6667bff343fec22505","","","","","2694",""," ","key"," ","16.663279503105592","500","250","eb","34","54","45","1","","0","0"
"","psychophysics","114","432729","0.0-114.0","60fde5e29e585481874a9d16","64e50e6667bff343fec22505","","","","","3081",""," ","key"," ","16.6645135135135","500","250","eb","28","45","35","1","","0","0"
"","psychophysics","115","435858","0.0-115.0","60fde5e29e585481874a9d16","64e50e6667bff343fec22505","","","","","3118",""," ","key"," ","16.663236559139907","500","250","eb","29","49","36","1","","0","0"
"","psychophysics","116","438053","0.0-116.0","60fde5e29e585481874a9d16","64e50e6667bff343fec22505","","","","","2181",""," ","key"," ","16.664106870229173","500","250","eb","21","38","27","1","","0","0"
"","psychophysics","117","440426","0.0-117.0","60fde5e29e585481874a9d16","64e50e6667bff343fec22505","","","","","2355",""," ","key"," ","16.663035460992994","500","250","eb","35","24","48","1","","0","0"
"","psychophysics","118","442746","0.0-118.0","60fde5e29e585481874a9d16","64e50e6667bff343fec22505","","","","","2304",""," ","key"," ","16.657323741006895","500","250","eb","28","40","35","1","","0","0"
"","psychophysics","119","444936","0.0-119.0","60fde5e29e585481874a9d16","64e50e6667bff343fec22505","","","","","2187",""," ","key"," ","16.66215384615397","500","250","eb","36","26","47","1","","0","0"
"","psychophysics","120","446987","0.0-120.0","60fde5e29e585481874a9d16","64e50e6667bff343fec22505","","","","","2045",""," ","key"," ","16.663778688524825","500","250","eb","35","29","49","1","","0","0"
"","psychophysics","121","451830","0.0-121.0","60fde5e29e585481874a9d16","64e50e6667bff343fec22505","","","","","4837",""," ","key"," ","16.663824137931105","500","250","inst","","","","","","",""
"","psychophysics","122","456228","0.0-122.0","60fde5e29e585481874a9d16","64e50e6667bff343fec22505","","","","","4385",""," ","key"," ","16.791590038314105","500","250","instEB1","40","30","40","2","","0","0"
"","psychophysics","123","461075","0.0-123.0","60fde5e29e585481874a9d16","64e50e6667bff343fec22505","","","","","4831",""," ","key"," ","16.664648275861943","500","250","instEB2","37","40","30","2","","0","0"
"","psychophysics","124","463926","0.0-124.0","60fde5e29e585481874a9d16","64e50e6667bff343fec22505","","","","","2843",""," ","key"," ","16.662429411764435","500","250","instEB3","39","45","27","2","","0","0"
"","psychophysics","125","468573","0.0-125.0","60fde5e29e585481874a9d16","64e50e6667bff343fec22505","","","","","4630",""," ","key"," ","16.66399640287775","500","250","instEB4","52","30","40","2","","0","0"
"","psychophysics","126","469336","0.0-126.0","60fde5e29e585481874a9d16","64e50e6667bff343fec22505","","","","","757",""," ","key"," ","16.663613636364143","500","250","inst","","","","","","",""
"","psychophysics","127","470731","0.0-127.0","60fde5e29e585481874a9d16","64e50e6667bff343fec22505","","","","","1376",""," ","key"," ","16.658879518072002","500","250","eb","48","48","36","2","","0","0"
"","psychophysics","128","474465","0.0-128.0","60fde5e29e585481874a9d16","64e50e6667bff343fec22505","","","","","3719",""," ","key"," ","16.739058558558543","500","250","eb","68","35","50","2","","0","0"
"","psychophysics","129","478240","0.0-129.0","60fde5e29e585481874a9d16","64e50e6667bff343fec22505","","","","","3759",""," ","key"," ","16.66349115044232","500","250","eb","58","27","44","2","","0","0"
"","psychophysics","130","480920","0.0-130.0","60fde5e29e585481874a9d16","64e50e6667bff343fec22505","","","","","2659",""," ","key"," ","16.66422012578601","500","250","eb","59","48","47","2","","0","0"
"","psychophysics","131","483948","0.0-131.0","60fde5e29e585481874a9d16","64e50e6667bff343fec22505","","","","","3012",""," ","key"," ","16.662845303867275","500","250","eb","46","24","33","2","","0","0"
"","psychophysics","132","486336","0.0-132.0","60fde5e29e585481874a9d16","64e50e6667bff343fec22505","","","","","2369",""," ","key"," ","16.663930069929936","500","250","eb","50","53","39","2","","0","0"
"","psychophysics","133","489556","0.0-133.0","60fde5e29e585481874a9d16","64e50e6667bff343fec22505","","","","","3202",""," ","key"," ","16.751434554973695","500","250","eb","44","52","31","2","","0","0"
"","psychophysics","134","491809","0.0-134.0","60fde5e29e585481874a9d16","64e50e6667bff343fec22505","","","","","2232",""," ","key"," ","16.66421641791048","500","250","eb","56","54","46","2","","0","0"
"","psychophysics","135","494923","0.0-135.0","60fde5e29e585481874a9d16","64e50e6667bff343fec22505","","","","","3101",""," ","key"," ","16.66303763440835","500","250","eb","49","40","35","2","","0","0"
"","psychophysics","136","498625","0.0-136.0","60fde5e29e585481874a9d16","64e50e6667bff343fec22505","","","","","3686",""," ","key"," ","16.663470588235196","500","250","eb","56","25","45","2","","0","0"
"","psychophysics","137","501873","0.0-137.0","60fde5e29e585481874a9d16","64e50e6667bff343fec22505","","","","","3232",""," ","key"," ","16.66243298969066","500","250","eb","59","43","46","2","","0","0"
"","psychophysics","138","504449","0.0-138.0","60fde5e29e585481874a9d16","64e50e6667bff343fec22505","","","","","2564",""," ","key"," ","16.773281045751858","500","250","eb","37","26","28","2","","0","0"
"","psychophysics","139","505802","0.0-139.0","60fde5e29e585481874a9d16","64e50e6667bff343fec22505","","","","","1335",""," ","key"," ","16.66553750000021","500","250","eb","38","38","28","2","","0","0"
"","psychophysics","140","510031","0.0-140.0","60fde5e29e585481874a9d16","64e50e6667bff343fec22505","","","","","4213",""," ","key"," ","16.663968379446626","500","250","eb","50","36","38","2","","0","0"
"","psychophysics","141","513138","0.0-141.0","60fde5e29e585481874a9d16","64e50e6667bff343fec22505","","","","","3090",""," ","key"," ","16.663475675675766","500","250","eb","45","42","32","2","","0","0"
"","psychophysics","142","514323","0.0-142.0","60fde5e29e585481874a9d16","64e50e6667bff343fec22505","","","","","1177",""," ","key"," ","16.66107142857093","500","250","inst","","","","","","",""
"","psychophysics","143","521980","0.0-143.0","60fde5e29e585481874a9d16","64e50e6667bff343fec22505","","","","","7642",""," ","key"," ","16.699731441048066","500","250","instPog0","160","190","160","1","","0","0"
"","psychophysics","144","523126","0.0-144.0","60fde5e29e585481874a9d16","64e50e6667bff343fec22505","","","","","1140",""," ","key"," ","16.661447761193745","500","250","instPog1","190","190","160","1","","0","0"
"","psychophysics","145","527078","0.0-145.0","60fde5e29e585481874a9d16","64e50e6667bff343fec22505","","","","","3943",""," ","key"," ","16.664683544303916","500","250","instPog2","174","160","160","1","","0","0"
"","psychophysics","146","527828","0.0-146.0","60fde5e29e585481874a9d16","64e50e6667bff343fec22505","","","","","745",""," ","key"," ","16.662681818183046","500","250","inst","","","","","","",""
"","psychophysics","147","531527","0.0-147.0","60fde5e29e585481874a9d16","64e50e6667bff343fec22505","","","","","3691",""," ","key"," ","16.663633484162634","500","250","pog","156","106","141","1","1","0","0"
"","psychophysics","148","534877","0.0-148.0","60fde5e29e585481874a9d16","64e50e6667bff343fec22505","","","","","3344",""," ","key"," ","16.746628140703653","500","250","pog","211","141","196","1","1","0","0"
"","psychophysics","149","536530","0.0-149.0","60fde5e29e585481874a9d16","64e50e6667bff343fec22505","","","","","1644",""," ","key"," ","16.66492857142917","500","250","pog","208","216","174","1","1","0","0"
"","psychophysics","150","539228","0.0-150.0","60fde5e29e585481874a9d16","64e50e6667bff343fec22505","","","","","2686",""," ","key"," ","16.663180124224308","500","250","pog","210","162","187","1","1","0","0"
"","psychophysics","151","540292","0.0-151.0","60fde5e29e585481874a9d16","64e50e6667bff343fec22505","","","","","1049",""," ","key"," ","16.66396825396759","500","250","pog","153","153","125","1","1","0","0"
"","psychophysics","152","541167","0.0-152.0","60fde5e29e585481874a9d16","64e50e6667bff343fec22505","","","","","869",""," ","key"," ","16.66617647058778","500","250","pog","214","214","195","1","1","0","0"
"","psychophysics","153","546210","0.0-153.0","60fde5e29e585481874a9d16","64e50e6667bff343fec22505","","","","","5031",""," ","key"," ","16.71949833887049","500","250","pog","179","125","156","1","1","0","0"
"","psychophysics","154","548708","0.0-154.0","60fde5e29e585481874a9d16","64e50e6667bff343fec22505","","","","","2485",""," ","key"," ","16.66334228187912","500","250","pog","200","136","167","1","1","0","0"
"","psychophysics","155","555117","0.0-155.0","60fde5e29e585481874a9d16","64e50e6667bff343fec22505","","","","","6400",""," ","key"," ","16.66316449086154","500","250","pog","176","210","147","1","1","0","0"
"","psychophysics","156","558352","0.0-156.0","60fde5e29e585481874a9d16","64e50e6667bff343fec22505","","","","","3223",""," ","key"," ","16.66365284974074","500","250","pog","237","195","196","1","1","0","0"
"","psychophysics","157","561682","0.0-157.0","60fde5e29e585481874a9d16","64e50e6667bff343fec22505","","","","","3317",""," ","key"," ","16.66398492462327","500","250","pog","234","198","195","1","1","0","0"
"","psychophysics","158","565642","0.0-158.0","60fde5e29e585481874a9d16","64e50e6667bff343fec22505","","","","","3950",""," ","key"," ","16.734546610169502","500","250","pog","212","118","176","1","1","0","0"
"","psychophysics","159","569366","0.0-159.0","60fde5e29e585481874a9d16","64e50e6667bff343fec22505","","","","","3711",""," ","key"," ","16.663927927927894","500","250","pog","212","106","188","1","1","0","0"
"","psychophysics","160","572361","0.0-160.0","60fde5e29e585481874a9d16","64e50e6667bff343fec22505","","","","","2985",""," ","key"," ","16.663050279329536","500","250","pog","200","126","174","1","1","0","0"
"","psychophysics","161","576274","0.0-161.0","60fde5e29e585481874a9d16","64e50e6667bff343fec22505","","","","","3900",""," ","key"," ","16.664192307692193","500","250","pog","197","105","171","1","1","0","0"
"","psychophysics","162","577082","0.0-162.0","60fde5e29e585481874a9d16","64e50e6667bff343fec22505","","","","","794",""," ","key"," ","16.66310638297805","500","250","inst","","","","","","",""
"","psychophysics","163","588034","0.0-163.0","60fde5e29e585481874a9d16","64e50e6667bff343fec22505","","","","","10903",""," ","key"," ","16.714262595419765","500","250","instPz1","47","25","50","2","","",""
"","psychophysics","164","591001","0.0-164.0","60fde5e29e585481874a9d16","64e50e6667bff343fec22505","","","","","2960",""," ","key"," ","16.66411864406779","500","250","instPz2","29","20","35","2","","",""
"","psychophysics","165","596891","0.0-165.0","60fde5e29e585481874a9d16","64e50e6667bff343fec22505","","","","","5870",""," ","key"," ","16.66291477272733","500","250","instPz3","58","30","100","2","","",""
"","psychophysics","166","601658","0.0-166.0","60fde5e29e585481874a9d16","64e50e6667bff343fec22505","","","","","4763",""," ","key"," ","16.663385964912084","500","250","instPz4","67","30","100","2","","",""
"","psychophysics","167","602496","0.0-167.0","60fde5e29e585481874a9d16","64e50e6667bff343fec22505","","","","","832",""," ","key"," ","16.665499999998136","500","250","inst","","","","","","",""
"","psychophysics","168","605069","0.0-168.0","60fde5e29e585481874a9d16","64e50e6667bff343fec22505","","","","","2564",""," ","key"," ","16.77380921052597","500","250","pz","17","20","20","2","1","",""
"","psychophysics","169","609202","0.0-169.0","60fde5e29e585481874a9d16","64e50e6667bff343fec22505","","","","","4119",""," ","key"," ","16.66404048583012","500","250","pz","21","40","27","2","1","",""
"","psychophysics","170","611587","0.0-170.0","60fde5e29e585481874a9d16","64e50e6667bff343fec22505","","","","","2371",""," ","key"," ","16.664345070422122","500","250","pz","23","29","28","2","1","",""
"","psychophysics","171","615043","0.0-171.0","60fde5e29e585481874a9d16","64e50e6667bff343fec22505","","","","","3441",""," ","key"," ","16.66359223300948","500","250","pz","25","52","28","2","1","",""
"","psychophysics","172","616427","0.0-172.0","60fde5e29e585481874a9d16","64e50e6667bff343fec22505","","","","","1369",""," ","key"," ","16.6634939759044","500","250","pz","22","21","36","2","1","",""
"","psychophysics","173","619208","0.0-173.0","60fde5e29e585481874a9d16","64e50e6667bff343fec22505","","","","","2774",""," ","key"," ","16.76402424242432","500","250","pz","33","38","47","2","1","",""
"","psychophysics","174","621399","0.0-174.0","60fde5e29e585481874a9d16","64e50e6667bff343fec22505","","","","","2182",""," ","key"," ","16.662676923077267","500","250","pz","40","30","53","2","1","",""
"","psychophysics","175","625262","0.0-175.0","60fde5e29e585481874a9d16","64e50e6667bff343fec22505","","","","","3850",""," ","key"," ","16.664173160173156","500","250","pz","35","20","48","2","1","",""
"","psychophysics","176","628807","0.0-176.0","60fde5e29e585481874a9d16","64e50e6667bff343fec22505","","","","","3531",""," ","key"," ","16.667273584905384","500","250","pz","25","34","30","2","1","",""
"","psychophysics","177","631159","0.0-177.0","60fde5e29e585481874a9d16","64e50e6667bff343fec22505","","","","","2343",""," ","key"," ","16.664114285714458","500","250","pz","38","32","59","2","1","",""
"","psychophysics","178","633778","0.0-178.0","60fde5e29e585481874a9d16","64e50e6667bff343fec22505","","","","","2612",""," ","key"," ","16.771245161290732","500","250","pz","34","26","53","2","1","",""
"","psychophysics","179","634877","0.0-179.0","60fde5e29e585481874a9d16","64e50e6667bff343fec22505","","","","","1084",""," ","key"," ","16.667615384615672","500","250","pz","39","39","59","2","1","",""
"","psychophysics","180","637590","0.0-180.0","60fde5e29e585481874a9d16","64e50e6667bff343fec22505","","","","","2701",""," ","key"," ","16.66338888888914","500","250","pz","29","36","40","2","1","",""
"","psychophysics","181","640659","0.0-181.0","60fde5e29e585481874a9d16","64e50e6667bff343fec22505","","","","","3061",""," ","key"," ","16.663355191256674","500","250","pz","39","44","55","2","1","",""
"","psychophysics","182","643729","0.0-182.0","60fde5e29e585481874a9d16","64e50e6667bff343fec22505","","","","","3054",""," ","key"," ","16.663229508196956","500","250","pz","21","25","26","2","1","",""
"","psychophysics","183","644482","0.0-183.0","60fde5e29e585481874a9d16","64e50e6667bff343fec22505","","","","","752",""," ","key"," ","16.662177777779288","500","250","inst","","","","","","",""
"","psychophysics","184","650372","0.0-184.0","60fde5e29e585481874a9d16","64e50e6667bff343fec22505","","","","","5887",""," ","key"," ","16.71176353276361","500","250","instBr3","-31","40","300","1","","0","0"
"","psychophysics","185","651120","0.0-185.0","60fde5e29e585481874a9d16","64e50e6667bff343fec22505","","","","","743",""," ","key"," ","16.662318181818012","500","250","inst","","","","","","",""
"","psychophysics","186","652451","0.0-186.0","60fde5e29e585481874a9d16","64e50e6667bff343fec22505","","","","","1322",""," ","key"," ","16.66165384615455","500","250","br","-14","-14","239","1","1","-8","-3"
"","psychophysics","187","654319","0.0-187.0","60fde5e29e585481874a9d16","64e50e6667bff343fec22505","","","","","1859",""," ","key"," ","16.66480357142843","500","250","br","-9","10","248","1","1","-28","2"
"","psychophysics","188","656192","0.0-188.0","60fde5e29e585481874a9d16","64e50e6667bff343fec22505","","","","","1857",""," ","key"," ","16.664585585585325","500","250","br","-9","-1","243","1","1","19","-6"
"","psychophysics","189","657940","0.0-189.0","60fde5e29e585481874a9d16","64e50e6667bff343fec22505","","","","","1693",""," ","key"," ","16.82673786407748","500","250","br","-13","-22","269","1","1","-6","10"
"","psychophysics","190","660102","0.0-190.0","60fde5e29e585481874a9d16","64e50e6667bff343fec22505","","","","","2148",""," ","key"," ","16.662674418604542","500","250","br","-5","26","226","1","1","15","-17"
"","psychophysics","191","662408","0.0-191.0","60fde5e29e585481874a9d16","64e50e6667bff343fec22505","","","","","2303",""," ","key"," ","16.664364963503093","500","250","br","-11","27","296","1","1","24","14"
"","psychophysics","192","663883","0.0-192.0","60fde5e29e585481874a9d16","64e50e6667bff343fec22505","","","","","1461",""," ","key"," ","16.66321839080406","500","250","br","-13","-2","268","1","1","-15","2"
"","psychophysics","193","665663","0.0-193.0","60fde5e29e585481874a9d16","64e50e6667bff343fec22505","","","","","1770",""," ","key"," ","16.66442452830192","500","250","br","-18","-26","262","1","1","20","23"
"","psychophysics","194","667784","0.0-194.0","60fde5e29e585481874a9d16","64e50e6667bff343fec22505","","","","","2110",""," ","key"," ","16.796492063492124","500","250","br","-9","21","202","1","1","-2","15"
"","psychophysics","195","669873","0.0-195.0","60fde5e29e585481874a9d16","64e50e6667bff343fec22505","","","","","2081",""," ","key"," ","16.662935483871184","500","250","br","-11","20","269","1","1","19","-18"
"","psychophysics","196","672041","0.0-196.0","60fde5e29e585481874a9d16","64e50e6667bff343fec22505","","","","","2155",""," ","key"," ","16.662930232557546","500","250","br","-7","22","229","1","1","-10","-14"
"","psychophysics","197","674307","0.0-197.0","60fde5e29e585481874a9d16","64e50e6667bff343fec22505","","","","","2251",""," ","key"," ","16.66359259259318","500","250","br","-17","14","223","1","1","-4","18"
"","psychophysics","198","675170","0.0-198.0","60fde5e29e585481874a9d16","64e50e6667bff343fec22505","","","","","848",""," ","key"," ","16.666215686275915","500","250","br","-17","-17","221","1","1","-23","-5"
"","psychophysics","199","675788","0.0-199.0","60fde5e29e585481874a9d16","64e50e6667bff343fec22505","","","","","605",""," ","key"," ","17.143685714285155","500","250","br","-19","-19","224","1","1","-20","-22"
"","psychophysics","200","679116","0.0-200.0","60fde5e29e585481874a9d16","64e50e6667bff343fec22505","","","","","3314",""," ","key"," ","16.663708542713465","500","250","br","-23","16","271","1","1","7","-7"
"","psychophysics","201","680322","0.0-201.0","60fde5e29e585481874a9d16","64e50e6667bff343fec22505","","","","","1200",""," ","key"," ","16.662690140844756","500","250","inst","","","","","","",""
"","psychophysics","202","687881","0.0-202.0","60fde5e29e585481874a9d16","64e50e6667bff343fec22505","","","","","7545",""," ","key"," ","16.66371523178795","500","250","instZol1","0.10000000000000003","-1.3","","","","0","0"
"","psychophysics","203","694082","0.0-203.0","60fde5e29e585481874a9d16","64e50e6667bff343fec22505","","","","","6181",""," ","key"," ","16.663398921832687","500","250","instZol2","6.38378239159465e-16","2","","1","","0","0"
"","psychophysics","204","694652","0.0-204.0","60fde5e29e585481874a9d16","64e50e6667bff343fec22505","","","","","564",""," ","key"," ","16.662666666663647","500","250","inst","","","","","","",""
"","psychophysics","205","696763","0.0-205.0","60fde5e29e585481874a9d16","64e50e6667bff343fec22505","","","","","2092",""," ","key"," ","16.665349206349457","500","250","zol","1.16","-0.06","","1","1","22","11"
"","psychophysics","206","699228","0.0-206.0","60fde5e29e585481874a9d16","64e50e6667bff343fec22505","","","","","2446",""," ","key"," ","16.664414965986357","500","250","zol","1.5300000000000005","-0.53","","1","1","-2","2"
"","psychophysics","207","701303","0.0-207.0","60fde5e29e585481874a9d16","64e50e6667bff343fec22505","","","","","2057",""," ","key"," ","16.66253658536655","500","250","zol","0.7399999999999999","0.56","","1","1","1","27"
"","psychophysics","208","703183","0.0-208.0","60fde5e29e585481874a9d16","64e50e6667bff343fec22505","","","","","1855",""," ","key"," ","16.66333035714238","500","250","zol","0.96","0.44","","1","1","-23","3"
"","psychophysics","209","704912","0.0-209.0","60fde5e29e585481874a9d16","64e50e6667bff343fec22505","","","","","1711",""," ","key"," ","16.663669902912694","500","250","zol","1.7300000000000006","-0.43","","1","1","18","-25"
"","psychophysics","210","706843","0.0-210.0","60fde5e29e585481874a9d16","64e50e6667bff343fec22505","","","","","1914",""," ","key"," ","16.809192982456327","500","250","zol","1.3","0.6","","1","1","23","21"
"","psychophysics","211","708419","0.0-211.0","60fde5e29e585481874a9d16","64e50e6667bff343fec22505","","","","","1555",""," ","key"," ","16.663451612903234","500","250","zol","0.9999999999999999","0.3","","1","1","24","-16"
"","psychophysics","212","710060","0.0-212.0","60fde5e29e585481874a9d16","64e50e6667bff343fec22505","","","","","1624",""," ","key"," ","16.66483673469368","500","250","zol","1.5300000000000005","-0.43","","1","1","-26","-5"
"","psychophysics","213","711816","0.0-213.0","60fde5e29e585481874a9d16","64e50e6667bff343fec22505","","","","","1738",""," ","key"," ","16.664461538460902","500","250","zol","1.2200000000000002","0.08","","1","1","-8","8"
"","psychophysics","214","713509","0.0-214.0","60fde5e29e585481874a9d16","64e50e6667bff343fec22505","","","","","1676",""," ","key"," ","16.664415841584443","500","250","zol","1.5600000000000003","0.04","","1","1","12","-11"
"","psychophysics","215","715267","0.0-215.0","60fde5e29e585481874a9d16","64e50e6667bff343fec22505","","","","","1742",""," ","key"," ","16.825611650486007","500","250","zol","2.330000000000001","-0.63","","1","1","6","21"
"","psychophysics","216","717327","0.0-216.0","60fde5e29e585481874a9d16","64e50e6667bff343fec22505","","","","","2043",""," ","key"," ","16.66399186991848","500","250","zol","1.7400000000000004","-0.24","","1","1","16","30"
"","psychophysics","217","719074","0.0-217.0","60fde5e29e585481874a9d16","64e50e6667bff343fec22505","","","","","1728",""," ","key"," ","16.664394230769876","500","250","zol","1.1300000000000001","0.57","","1","1","25","22"
"","psychophysics","218","720688","0.0-218.0","60fde5e29e585481874a9d16","64e50e6667bff343fec22505","","","","","1596",""," ","key"," ","16.664968421052848","500","250","zol","1.9300000000000008","-0.73","","1","1","-10","-27"
"","psychophysics","219","722467","0.0-219.0","60fde5e29e585481874a9d16","64e50e6667bff343fec22505","","","","","1759",""," ","key"," ","16.66329245283027","500","250","zol","1.8000000000000005","-0.2","","1","1","-18","-10"
