"success","trial_type","trial_index","time_elapsed","internal_node_id","pid","sid","timeout","failed_images","failed_audio","failed_video","rt","stimulus","response","response_type","key_press","avg_frame_time","center_x","center_y","task","resp","start","parA","version","block","jitterX","jitterY"
"true","fullscreen","0","3148","0.0-0.0","647be991db1ffbd6bbcc5bc6","64de814352f8bc709cac8d76","","","","","","","","","","","","","","","","","","","",""
"true","preload","1","3331","0.0-1.0","647be991db1ffbd6bbcc5bc6","64de814352f8bc709cac8d76","false","[]","[]","[]","","","","","","","","","","","","","","","",""
"","html-button-response","2","5452","0.0-2.0","647be991db1ffbd6bbcc5bc6","64de814352f8bc709cac8d76","","","","","2118","Please Make Sure Your Audio Is On.","0","","","","","","","","","","","","",""
"","psychophysics","3","10631","0.0-3.0","647be991db1ffbd6bbcc5bc6","64de814352f8bc709cac8d76","","","","","5154",""," ","key"," ","16.662655948553052","768","250","","","","","","","",""
"","psychophysics","4","12766","0.0-4.0","647be991db1ffbd6bbcc5bc6","64de814352f8bc709cac8d76","","","","","2089",""," ","key"," ","16.795626984126983","500","250","inst","","","","","","",""
"","psychophysics","5","15009","0.0-5.0","647be991db1ffbd6bbcc5bc6","64de814352f8bc709cac8d76","","","","","2211",""," ","key"," ","16.663029850746266","500","250","sample0","","","","","","",""
"","psychophysics","6","17859","0.0-6.0","647be991db1ffbd6bbcc5bc6","64de814352f8bc709cac8d76","","","","","2846",""," ","key"," ","16.662976470588248","500","250","sample1","","","","","","",""
"","psychophysics","7","33337","0.0-7.0","647be991db1ffbd6bbcc5bc6","64de814352f8bc709cac8d76","","","","","15470",""," ","key"," ","16.662702586206898","500","250","sample2","102","","","","","",""
"","psychophysics","8","35703","0.0-8.0","647be991db1ffbd6bbcc5bc6","64de814352f8bc709cac8d76","","","","","2334",""," ","key"," ","16.663092857142846","500","250","sample3","106","","","","","",""
"","psychophysics","9","48350","0.0-9.0","647be991db1ffbd6bbcc5bc6","64de814352f8bc709cac8d76","","","","","12633",""," ","key"," ","16.662465085638992","500","250","sample4","104","","","","","",""
"","psychophysics","10","51331","0.0-10.0","647be991db1ffbd6bbcc5bc6","64de814352f8bc709cac8d76","","","","","2974",""," ","key"," ","16.662443820224723","500","250","sample5","","","","","","",""
"","psychophysics","11","57175","0.0-11.0","647be991db1ffbd6bbcc5bc6","64de814352f8bc709cac8d76","","","","","5838",""," ","key"," ","16.663974212034383","500","250","sample6","504","","","","","",""
"","psychophysics","12","60549","0.0-12.0","647be991db1ffbd6bbcc5bc6","64de814352f8bc709cac8d76","","","","","3354",""," ","key"," ","16.66318316831685","500","250","inst","","","","","","",""
"","psychophysics","13","63629","0.0-13.0","647be991db1ffbd6bbcc5bc6","64de814352f8bc709cac8d76","","","","","3076",""," ","key"," ","16.66245652173913","500","250","inst","","","","","","",""
"","psychophysics","14","66113","0.0-14.0","647be991db1ffbd6bbcc5bc6","64de814352f8bc709cac8d76","","","","","2480",""," ","key"," ","16.66227027027029","500","250","inst","","","","","","",""
"","psychophysics","15","67600","0.0-15.0","647be991db1ffbd6bbcc5bc6","64de814352f8bc709cac8d76","","","","","1483",""," ","key"," ","16.66365909090911","500","250","inst","","","","","","",""
"","psychophysics","16","69896","0.0-16.0","647be991db1ffbd6bbcc5bc6","64de814352f8bc709cac8d76","","","","","2292",""," ","key"," ","16.662664233576667","500","250","inst","","","","","","",""
"","psychophysics","17","71712","0.0-17.0","647be991db1ffbd6bbcc5bc6","64de814352f8bc709cac8d76","","","","","1811",""," ","key"," ","16.661620370370386","500","250","instPzPre","50","50","50","0","","",""
"","psychophysics","18","74119","0.0-18.0","647be991db1ffbd6bbcc5bc6","64de814352f8bc709cac8d76","","","","","2399",""," ","key"," ","16.662279720279656","500","250","instPz0","50","50","50","2","","",""
"","psychophysics","19","81677","0.0-19.0","647be991db1ffbd6bbcc5bc6","64de814352f8bc709cac8d76","","","","","7545",""," ","key"," ","16.66273289183225","500","250","instPz1","49","25","50","2","","",""
"","psychophysics","20","86612","0.0-20.0","647be991db1ffbd6bbcc5bc6","64de814352f8bc709cac8d76","","","","","4931",""," ","key"," ","16.66261694915257","500","250","instPz2","32","20","35","2","","",""
"","psychophysics","21","93671","0.0-21.0","647be991db1ffbd6bbcc5bc6","64de814352f8bc709cac8d76","","","","","7040",""," ","key"," ","16.662879146919433","500","250","instPz3","73","30","100","2","","",""
"","psychophysics","22","100880","0.0-22.0","647be991db1ffbd6bbcc5bc6","64de814352f8bc709cac8d76","","","","","7197",""," ","key"," ","16.662587962962956","500","250","instPz4","79","30","100","2","","",""
"","psychophysics","23","103477","0.0-23.0","647be991db1ffbd6bbcc5bc6","64de814352f8bc709cac8d76","","","","","2583",""," ","key"," ","16.662825806451597","500","250","inst","","","","","","",""
"","psychophysics","24","108620","0.0-24.0","647be991db1ffbd6bbcc5bc6","64de814352f8bc709cac8d76","","","","","5121",""," ","key"," ","16.662517915309483","500","250","pz","25","48","36","2","0","",""
"","psychophysics","25","110554","0.0-25.0","647be991db1ffbd6bbcc5bc6","64de814352f8bc709cac8d76","","","","","1923",""," ","key"," ","16.662965517241336","500","250","pz","32","30","46","2","0","",""
"","psychophysics","26","114940","0.0-26.0","647be991db1ffbd6bbcc5bc6","64de814352f8bc709cac8d76","","","","","4380",""," ","key"," ","16.66261450381678","500","250","pz","24","46","33","2","0","",""
"","psychophysics","27","118809","0.0-27.0","647be991db1ffbd6bbcc5bc6","64de814352f8bc709cac8d76","","","","","3855",""," ","key"," ","16.66270562770559","500","250","pz","38","53","55","2","0","",""
"","psychophysics","28","121600","0.0-28.0","647be991db1ffbd6bbcc5bc6","64de814352f8bc709cac8d76","","","","","2777",""," ","key"," ","16.663473053892233","500","250","pz","36","26","47","2","0","",""
"","psychophysics","29","124750","0.0-29.0","647be991db1ffbd6bbcc5bc6","64de814352f8bc709cac8d76","","","","","3145",""," ","key"," ","16.662914893617007","500","250","pz","33","30","42","2","0","",""
"","psychophysics","30","126799","0.0-30.0","647be991db1ffbd6bbcc5bc6","64de814352f8bc709cac8d76","","","","","2042",""," ","key"," ","16.662893442622888","500","250","pz","36","39","45","2","0","",""
"","psychophysics","31","129646","0.0-31.0","647be991db1ffbd6bbcc5bc6","64de814352f8bc709cac8d76","","","","","2842",""," ","key"," ","16.662248520710047","500","250","pz","34","45","46","2","0","",""
"","psychophysics","32","132838","0.0-32.0","647be991db1ffbd6bbcc5bc6","64de814352f8bc709cac8d76","","","","","3180",""," ","key"," ","16.663214659686012","500","250","pz","20","43","27","2","0","",""
"","psychophysics","33","137261","0.0-33.0","647be991db1ffbd6bbcc5bc6","64de814352f8bc709cac8d76","","","","","4410",""," ","key"," ","16.662708333333285","500","250","pz","41","55","55","2","0","",""
"","psychophysics","34","140257","0.0-34.0","647be991db1ffbd6bbcc5bc6","64de814352f8bc709cac8d76","","","","","2984",""," ","key"," ","16.6628994413407","500","250","pz","22","55","32","2","0","",""
"","psychophysics","35","143281","0.0-35.0","647be991db1ffbd6bbcc5bc6","64de814352f8bc709cac8d76","","","","","3012",""," ","key"," ","16.66291160221007","500","250","pz","20","37","23","2","0","",""
"","psychophysics","36","145232","0.0-36.0","647be991db1ffbd6bbcc5bc6","64de814352f8bc709cac8d76","","","","","1946",""," ","key"," ","16.663137931034726","500","250","pz","39","37","57","2","0","",""
"","psychophysics","37","147778","0.0-37.0","647be991db1ffbd6bbcc5bc6","64de814352f8bc709cac8d76","","","","","2540",""," ","key"," ","16.663546052631556","500","250","pz","27","21","41","2","0","",""
"","psychophysics","38","150665","0.0-38.0","647be991db1ffbd6bbcc5bc6","64de814352f8bc709cac8d76","","","","","2880",""," ","key"," ","16.66399418604648","500","250","pz","22","45","29","2","0","",""
"","psychophysics","39","151510","0.0-39.0","647be991db1ffbd6bbcc5bc6","64de814352f8bc709cac8d76","","","","","831",""," ","key"," ","16.66407999999996","500","250","inst","","","","","","",""
"","psychophysics","40","153560","0.0-40.0","647be991db1ffbd6bbcc5bc6","64de814352f8bc709cac8d76","","","","","2042",""," ","key"," ","16.662811475409935","500","250","instBr0","0","0","300","","","0","0"
"","psychophysics","41","156348","0.0-41.0","647be991db1ffbd6bbcc5bc6","64de814352f8bc709cac8d76","","","","","2782",""," ","key"," ","16.66176506024098","500","250","instBr1","-40","-40","300","","","0","0"
"","psychophysics","42","163174","0.0-42.0","647be991db1ffbd6bbcc5bc6","64de814352f8bc709cac8d76","","","","","6815",""," ","key"," ","16.662794621026926","500","250","instBr3","-20","40","300","1","","0","0"
"","psychophysics","43","163755","0.0-43.0","647be991db1ffbd6bbcc5bc6","64de814352f8bc709cac8d76","","","","","577",""," ","key"," ","16.665242424242685","500","250","inst","","","","","","",""
"","psychophysics","44","167226","0.0-44.0","647be991db1ffbd6bbcc5bc6","64de814352f8bc709cac8d76","","","","","3461",""," ","key"," ","16.662653846153823","500","250","br","-20","13","242","1","0","-6","-4"
"","psychophysics","45","170290","0.0-45.0","647be991db1ffbd6bbcc5bc6","64de814352f8bc709cac8d76","","","","","3047",""," ","key"," ","16.6630601092896","500","250","br","-15","-15","264","1","0","6","-24"
"","psychophysics","46","173054","0.0-46.0","647be991db1ffbd6bbcc5bc6","64de814352f8bc709cac8d76","","","","","2758",""," ","key"," ","16.66266060606065","500","250","br","-20","-22","250","1","0","8","-1"
"","psychophysics","47","176135","0.0-47.0","647be991db1ffbd6bbcc5bc6","64de814352f8bc709cac8d76","","","","","3076",""," ","key"," ","16.662054644808677","500","250","br","-23","-25","288","1","0","-16","4"
"","psychophysics","48","179192","0.0-48.0","647be991db1ffbd6bbcc5bc6","64de814352f8bc709cac8d76","","","","","3047",""," ","key"," ","16.66200000000004","500","250","br","-20","-14","218","1","0","-29","-26"
"","psychophysics","49","181617","0.0-49.0","647be991db1ffbd6bbcc5bc6","64de814352f8bc709cac8d76","","","","","2409",""," ","key"," ","16.66322222222233","500","250","br","-12","1","204","1","0","0","29"
"","psychophysics","50","182960","0.0-50.0","647be991db1ffbd6bbcc5bc6","64de814352f8bc709cac8d76","","","","","1334",""," ","key"," ","16.66115000000027","500","250","br","-18","-20","231","1","0","-12","-6"
"","psychophysics","51","187834","0.0-51.0","647be991db1ffbd6bbcc5bc6","64de814352f8bc709cac8d76","","","","","4853",""," ","key"," ","16.66246917808226","500","250","br","-15","10","249","1","0","29","7"
"","psychophysics","52","190621","0.0-52.0","647be991db1ffbd6bbcc5bc6","64de814352f8bc709cac8d76","","","","","2764",""," ","key"," ","16.663042168674714","500","250","br","-25","-26","258","1","0","-10","-8"
"","psychophysics","53","194083","0.0-53.0","647be991db1ffbd6bbcc5bc6","64de814352f8bc709cac8d76","","","","","3449",""," ","key"," ","16.662478260869573","500","250","br","-15","12","254","1","0","-29","-30"
"","psychophysics","54","195104","0.0-54.0","647be991db1ffbd6bbcc5bc6","64de814352f8bc709cac8d76","","","","","1015",""," ","key"," ","16.66278333333321","500","250","br","-14","-13","260","1","0","18","15"
"","psychophysics","55","198278","0.0-55.0","647be991db1ffbd6bbcc5bc6","64de814352f8bc709cac8d76","","","","","3160",""," ","key"," ","16.66325925925926","500","250","br","-11","26","210","1","0","-29","4"
"","psychophysics","56","203445","0.0-56.0","647be991db1ffbd6bbcc5bc6","64de814352f8bc709cac8d76","","","","","5157",""," ","key"," ","16.662336569579324","500","250","br","-16","30","285","1","0","0","-7"
"","psychophysics","57","206502","0.0-57.0","647be991db1ffbd6bbcc5bc6","64de814352f8bc709cac8d76","","","","","3050",""," ","key"," ","16.662535519125715","500","250","br","-17","15","289","1","0","-5","-9"
"","psychophysics","58","208913","0.0-58.0","647be991db1ffbd6bbcc5bc6","64de814352f8bc709cac8d76","","","","","2401",""," ","key"," ","16.66249999999996","500","250","br","-20","-10","208","1","0","-20","14"
"","psychophysics","59","209560","0.0-59.0","647be991db1ffbd6bbcc5bc6","64de814352f8bc709cac8d76","","","","","644",""," ","key"," ","16.664552631578868","500","250","inst","","","","","","",""
"","psychophysics","60","211210","0.0-60.0","647be991db1ffbd6bbcc5bc6","64de814352f8bc709cac8d76","","","","","1648",""," ","key"," ","16.662530612245046","500","250","instEB0","40","40","40","2","","0","0"
"","psychophysics","61","215978","0.0-61.0","647be991db1ffbd6bbcc5bc6","64de814352f8bc709cac8d76","","","","","4764",""," ","key"," ","16.663101754385952","500","250","instEB1","43","30","40","2","","0","0"
"","psychophysics","62","221077","0.0-62.0","647be991db1ffbd6bbcc5bc6","64de814352f8bc709cac8d76","","","","","5092",""," ","key"," ","16.662436065573694","500","250","instEB2","33","40","30","2","","0","0"
"","psychophysics","63","228046","0.0-63.0","647be991db1ffbd6bbcc5bc6","64de814352f8bc709cac8d76","","","","","6948",""," ","key"," ","16.662791366906454","500","250","instEB3","35","45","27","2","","0","0"
"","psychophysics","64","231391","0.0-64.0","647be991db1ffbd6bbcc5bc6","64de814352f8bc709cac8d76","","","","","3331",""," ","key"," ","16.662320000000037","500","250","instEB4","44","30","40","2","","0","0"
"","psychophysics","65","232390","0.0-65.0","647be991db1ffbd6bbcc5bc6","64de814352f8bc709cac8d76","","","","","994",""," ","key"," ","16.663525423728586","500","250","inst","","","","","","",""
"","psychophysics","66","239793","0.0-66.0","647be991db1ffbd6bbcc5bc6","64de814352f8bc709cac8d76","","","","","7395",""," ","key"," ","16.66256659142217","500","250","eb","60","31","53","2","","0","0"
"","psychophysics","67","243570","0.0-67.0","647be991db1ffbd6bbcc5bc6","64de814352f8bc709cac8d76","","","","","3762",""," ","key"," ","16.662623893805296","500","250","eb","54","28","48","2","","0","0"
"","psychophysics","68","246451","0.0-68.0","647be991db1ffbd6bbcc5bc6","64de814352f8bc709cac8d76","","","","","2858",""," ","key"," ","16.662680232558138","500","250","eb","60","29","54","2","","0","0"
"","psychophysics","69","248916","0.0-69.0","647be991db1ffbd6bbcc5bc6","64de814352f8bc709cac8d76","","","","","2455",""," ","key"," ","16.66313013698617","500","250","eb","46","29","38","2","","0","0"
"","psychophysics","70","251069","0.0-70.0","647be991db1ffbd6bbcc5bc6","64de814352f8bc709cac8d76","","","","","2141",""," ","key"," ","16.6627054263566","500","250","eb","43","48","36","2","","0","0"
"","psychophysics","71","253949","0.0-71.0","647be991db1ffbd6bbcc5bc6","64de814352f8bc709cac8d76","","","","","2863",""," ","key"," ","16.662953488372043","500","250","eb","51","30","43","2","","0","0"
"","psychophysics","72","255764","0.0-72.0","647be991db1ffbd6bbcc5bc6","64de814352f8bc709cac8d76","","","","","1808",""," ","key"," ","16.66302803738307","500","250","eb","49","30","39","2","","0","0"
"","psychophysics","73","258304","0.0-73.0","647be991db1ffbd6bbcc5bc6","64de814352f8bc709cac8d76","","","","","2522",""," ","key"," ","16.661980263157794","500","250","eb","26","40","24","2","","0","0"
"","psychophysics","74","260233","0.0-74.0","647be991db1ffbd6bbcc5bc6","64de814352f8bc709cac8d76","","","","","1915",""," ","key"," ","16.66416521739144","500","250","eb","50","34","42","2","","0","0"
"","psychophysics","75","263755","0.0-75.0","647be991db1ffbd6bbcc5bc6","64de814352f8bc709cac8d76","","","","","3505",""," ","key"," ","16.662938095237976","500","250","eb","63","24","52","2","","0","0"
"","psychophysics","76","265112","0.0-76.0","647be991db1ffbd6bbcc5bc6","64de814352f8bc709cac8d76","","","","","1344",""," ","key"," ","16.663550000000395","500","250","eb","34","28","37","2","","0","0"
"","psychophysics","77","267547","0.0-77.0","647be991db1ffbd6bbcc5bc6","64de814352f8bc709cac8d76","","","","","2423",""," ","key"," ","16.662760273972445","500","250","eb","68","53","51","2","","0","0"
"","psychophysics","78","270578","0.0-78.0","647be991db1ffbd6bbcc5bc6","64de814352f8bc709cac8d76","","","","","3022",""," ","key"," ","16.66324444444423","500","250","eb","59","24","51","2","","0","0"
"","psychophysics","79","272750","0.0-79.0","647be991db1ffbd6bbcc5bc6","64de814352f8bc709cac8d76","","","","","2160",""," ","key"," ","16.662130769230693","500","250","eb","75","49","54","2","","0","0"
"","psychophysics","80","276110","0.0-80.0","647be991db1ffbd6bbcc5bc6","64de814352f8bc709cac8d76","","","","","3344",""," ","key"," ","16.663015000000016","500","250","eb","56","32","45","2","","0","0"
"","psychophysics","81","276813","0.0-81.0","647be991db1ffbd6bbcc5bc6","64de814352f8bc709cac8d76","","","","","693",""," ","key"," ","16.66250000000028","500","250","inst","","","","","","",""
"","psychophysics","82","278528","0.0-82.0","647be991db1ffbd6bbcc5bc6","64de814352f8bc709cac8d76","","","","","1710",""," ","key"," ","16.662470588235724","500","250","instZol0","0","0","","","","0","0"
"","psychophysics","83","286284","0.0-83.0","647be991db1ffbd6bbcc5bc6","64de814352f8bc709cac8d76","","","","","7750",""," ","key"," ","16.662760775861962","500","250","instZol1","0.09999999999999981","-1.3","","","","0","0"
"","psychophysics","84","292095","0.0-84.0","647be991db1ffbd6bbcc5bc6","64de814352f8bc709cac8d76","","","","","5794",""," ","key"," ","16.66279597701147","500","250","instZol2","-0.6999999999999993","2","","2","","0","0"
"","psychophysics","85","292547","0.0-85.0","647be991db1ffbd6bbcc5bc6","64de814352f8bc709cac8d76","","","","","449",""," ","key"," ","16.662653846153543","500","250","inst","","","","","","",""
"","psychophysics","86","300560","0.0-86.0","647be991db1ffbd6bbcc5bc6","64de814352f8bc709cac8d76","","","","","null","","null","key","null","16.662508333333243","500","250","zol","-1.12","-0.08","","2","0","-1","-14"
"","psychophysics","87","300802","0.0-87.0","647be991db1ffbd6bbcc5bc6","64de814352f8bc709cac8d76","","","","","216",""," ","key"," ","16.66400000000319","500","250","zol","0.61","-0.61","","2","0","-26","-13"
"","psychophysics","88","308444","0.0-88.0","647be991db1ffbd6bbcc5bc6","64de814352f8bc709cac8d76","","","","","7622",""," ","key"," ","16.662637554585178","500","250","zol","-1.9100000000000006","-0.19","","2","0","-19","20"
"","psychophysics","89","311703","0.0-89.0","647be991db1ffbd6bbcc5bc6","64de814352f8bc709cac8d76","","","","","3230",""," ","key"," ","16.662448453608018","500","250","zol","-1.27","-0.13","","2","0","28","-3"
"","psychophysics","90","314594","0.0-90.0","647be991db1ffbd6bbcc5bc6","64de814352f8bc709cac8d76","","","","","2873",""," ","key"," ","16.662375722543437","500","250","zol","-0.82","-0.48","","2","0","6","-2"
"","psychophysics","91","317423","0.0-91.0","647be991db1ffbd6bbcc5bc6","64de814352f8bc709cac8d76","","","","","2813",""," ","key"," ","16.662887573964444","500","250","zol","-1.29","0.59","","2","0","7","-2"
"","psychophysics","92","320499","0.0-92.0","647be991db1ffbd6bbcc5bc6","64de814352f8bc709cac8d76","","","","","3056",""," ","key"," ","16.663245901639403","500","250","zol","-1.5100000000000005","0.61","","2","0","-18","16"
"","psychophysics","93","322541","0.0-93.0","647be991db1ffbd6bbcc5bc6","64de814352f8bc709cac8d76","","","","","2025",""," ","key"," ","16.66337704918057","500","250","zol","-1.0899999999999999","0.19","","2","0","9","8"
"","psychophysics","94","327380","0.0-94.0","647be991db1ffbd6bbcc5bc6","64de814352f8bc709cac8d76","","","","","4809",""," ","key"," ","16.66280276816605","500","250","zol","-1.34","-0.46","","2","0","-25","-25"
"","psychophysics","95","330217","0.0-95.0","647be991db1ffbd6bbcc5bc6","64de814352f8bc709cac8d76","","","","","2825",""," ","key"," ","16.662382352941066","500","250","zol","-1.8000000000000005","0.1","","2","0","28","16"
"","psychophysics","96","332707","0.0-96.0","647be991db1ffbd6bbcc5bc6","64de814352f8bc709cac8d76","","","","","2472",""," ","key"," ","16.66203378378398","500","250","zol","-2.0600000000000005","0.16","","2","0","-29","-15"
"","psychophysics","97","335049","0.0-97.0","647be991db1ffbd6bbcc5bc6","64de814352f8bc709cac8d76","","","","","2326",""," ","key"," ","16.663342857142975","500","250","zol","-1.8600000000000005","-0.54","","2","0","25","3"
"","psychophysics","98","337346","0.0-98.0","647be991db1ffbd6bbcc5bc6","64de814352f8bc709cac8d76","","","","","2280",""," ","key"," ","16.664095588235153","500","250","zol","-1.5600000000000005","-0.44","","2","0","-18","-10"
"","psychophysics","99","340714","0.0-99.0","647be991db1ffbd6bbcc5bc6","64de814352f8bc709cac8d76","","","","","3349",""," ","key"," ","16.662821782178288","500","250","zol","-1.5100000000000002","0.61","","2","0","21","8"
"","psychophysics","100","344513","0.0-100.0","647be991db1ffbd6bbcc5bc6","64de814352f8bc709cac8d76","","","","","3788",""," ","key"," ","16.662947136563883","500","250","zol","-0.9899999999999999","0.19","","2","0","5","15"
"","psychophysics","101","345294","0.0-101.0","647be991db1ffbd6bbcc5bc6","64de814352f8bc709cac8d76","","","","","777",""," ","key"," ","16.662666666666823","500","250","inst","","","","","","",""
"","psychophysics","102","347859","0.0-102.0","647be991db1ffbd6bbcc5bc6","64de814352f8bc709cac8d76","","","","","2553",""," ","key"," ","16.66228104575181","500","250","instPog0","220","190","160","1","","0","0"
"","psychophysics","103","352016","0.0-103.0","647be991db1ffbd6bbcc5bc6","64de814352f8bc709cac8d76","","","","","4147",""," ","key"," ","16.66317269076307","500","250","instPog1","168","190","160","1","","0","0"
"","psychophysics","104","356675","0.0-104.0","647be991db1ffbd6bbcc5bc6","64de814352f8bc709cac8d76","","","","","4655",""," ","key"," ","16.662856115107825","500","250","instPog2","180","160","160","1","","0","0"
"","psychophysics","105","357137","0.0-105.0","647be991db1ffbd6bbcc5bc6","64de814352f8bc709cac8d76","","","","","454",""," ","key"," ","16.66462962962989","500","250","inst","","","","","","",""
"","psychophysics","106","361591","0.0-106.0","647be991db1ffbd6bbcc5bc6","64de814352f8bc709cac8d76","","","","","4440",""," ","key"," ","16.662775280898916","500","250","pog","206","220","194","1","0","0","0"
"","psychophysics","107","364791","0.0-107.0","647be991db1ffbd6bbcc5bc6","64de814352f8bc709cac8d76","","","","","3194",""," ","key"," ","16.66222513088998","500","250","pog","143","125","129","1","0","0","0"
"","psychophysics","108","368475","0.0-108.0","647be991db1ffbd6bbcc5bc6","64de814352f8bc709cac8d76","","","","","3678",""," ","key"," ","16.663095454545427","500","250","pog","152","172","134","1","0","0","0"
"","psychophysics","109","370657","0.0-109.0","647be991db1ffbd6bbcc5bc6","64de814352f8bc709cac8d76","","","","","2176",""," ","key"," ","16.66376153846146","500","250","pog","175","165","161","1","0","0","0"
"","psychophysics","110","374955","0.0-110.0","647be991db1ffbd6bbcc5bc6","64de814352f8bc709cac8d76","","","","","4293",""," ","key"," ","16.66243579766531","500","250","pog","175","123","167","1","0","0","0"
"","psychophysics","111","379006","0.0-111.0","647be991db1ffbd6bbcc5bc6","64de814352f8bc709cac8d76","","","","","4047",""," ","key"," ","16.662801652892504","500","250","pog","155","121","132","1","0","0","0"
"","psychophysics","112","381243","0.0-112.0","647be991db1ffbd6bbcc5bc6","64de814352f8bc709cac8d76","","","","","2232",""," ","key"," ","16.662849624060037","500","250","pog","132","156","126","1","0","0","0"
"","psychophysics","113","384069","0.0-113.0","647be991db1ffbd6bbcc5bc6","64de814352f8bc709cac8d76","","","","","2812",""," ","key"," ","16.663201183431987","500","250","pog","171","117","148","1","0","0","0"
"","psychophysics","114","387519","0.0-114.0","647be991db1ffbd6bbcc5bc6","64de814352f8bc709cac8d76","","","","","3444",""," ","key"," ","16.663247572815326","500","250","pog","214","150","182","1","0","0","0"
"","psychophysics","115","393168","0.0-115.0","647be991db1ffbd6bbcc5bc6","64de814352f8bc709cac8d76","","","","","5644",""," ","key"," ","16.66236390532549","500","250","pog","148","218","135","1","0","0","0"
"","psychophysics","116","397157","0.0-116.0","647be991db1ffbd6bbcc5bc6","64de814352f8bc709cac8d76","","","","","3983",""," ","key"," ","16.661819327730996","500","250","pog","188","132","160","1","0","0","0"
"","psychophysics","117","400652","0.0-117.0","647be991db1ffbd6bbcc5bc6","64de814352f8bc709cac8d76","","","","","3484",""," ","key"," ","16.662684210526265","500","250","pog","194","130","173","1","0","0","0"
"","psychophysics","118","402728","0.0-118.0","647be991db1ffbd6bbcc5bc6","64de814352f8bc709cac8d76","","","","","2070",""," ","key"," ","16.66260162601626","500","250","pog","213","197","187","1","0","0","0"
"","psychophysics","119","404764","0.0-119.0","647be991db1ffbd6bbcc5bc6","64de814352f8bc709cac8d76","","","","","2030",""," ","key"," ","16.663614754097967","500","250","pog","186","204","165","1","0","0","0"
"","psychophysics","120","407223","0.0-120.0","647be991db1ffbd6bbcc5bc6","64de814352f8bc709cac8d76","","","","","2454",""," ","key"," ","16.66283561643819","500","250","pog","220","216","196","1","0","0","0"
"","psychophysics","121","407764","0.0-121.0","647be991db1ffbd6bbcc5bc6","64de814352f8bc709cac8d76","","","","","527",""," ","key"," ","16.6629687500008","500","250","inst","","","","","","",""
"","psychophysics","122","412020","0.0-122.0","647be991db1ffbd6bbcc5bc6","64de814352f8bc709cac8d76","","","","","4252",""," ","key"," ","16.662661417322802","500","250","instEB1","30","40","30","1","","0","0"
"","psychophysics","123","413569","0.0-123.0","647be991db1ffbd6bbcc5bc6","64de814352f8bc709cac8d76","","","","","1531",""," ","key"," ","16.663369565217696","500","250","instEB2","42","30","40","1","","0","0"
"","psychophysics","124","415311","0.0-124.0","647be991db1ffbd6bbcc5bc6","64de814352f8bc709cac8d76","","","","","1730",""," ","key"," ","16.663173076923368","500","250","instEB3","48","27","45","1","","0","0"
"","psychophysics","125","419716","0.0-125.0","647be991db1ffbd6bbcc5bc6","64de814352f8bc709cac8d76","","","","","4397",""," ","key"," ","16.66289353612151","500","250","instEB4","23","40","30","1","","0","0"
"","psychophysics","126","420160","0.0-126.0","647be991db1ffbd6bbcc5bc6","64de814352f8bc709cac8d76","","","","","433",""," ","key"," ","16.66692307692406","500","250","inst","","","","","","",""
"","psychophysics","127","422706","0.0-127.0","647be991db1ffbd6bbcc5bc6","64de814352f8bc709cac8d76","","","","","2533",""," ","key"," ","16.663039735099378","500","250","eb","26","41","26","1","","0","0"
"","psychophysics","128","424991","0.0-128.0","647be991db1ffbd6bbcc5bc6","64de814352f8bc709cac8d76","","","","","2274",""," ","key"," ","16.662686131386863","500","250","eb","28","27","31","1","","0","0"
"","psychophysics","129","427692","0.0-129.0","647be991db1ffbd6bbcc5bc6","64de814352f8bc709cac8d76","","","","","2693",""," ","key"," ","16.66285093167691","500","250","eb","33","51","37","1","","0","0"
"","psychophysics","130","430090","0.0-130.0","647be991db1ffbd6bbcc5bc6","64de814352f8bc709cac8d76","","","","","2381",""," ","key"," ","16.66374825174803","500","250","eb","34","24","37","1","","0","0"
"","psychophysics","131","432876","0.0-131.0","647be991db1ffbd6bbcc5bc6","64de814352f8bc709cac8d76","","","","","2777",""," ","key"," ","16.663210843373456","500","250","eb","44","24","54","1","","0","0"
"","psychophysics","132","435339","0.0-132.0","647be991db1ffbd6bbcc5bc6","64de814352f8bc709cac8d76","","","","","2448",""," ","key"," ","16.66315646258501","500","250","eb","31","29","36","1","","0","0"
"","psychophysics","133","438010","0.0-133.0","647be991db1ffbd6bbcc5bc6","64de814352f8bc709cac8d76","","","","","2664",""," ","key"," ","16.66261635220144","500","250","eb","38","47","47","1","","0","0"
"","psychophysics","134","441020","0.0-134.0","647be991db1ffbd6bbcc5bc6","64de814352f8bc709cac8d76","","","","","2996",""," ","key"," ","16.662883333333433","500","250","eb","25","43","30","1","","0","0"
"","psychophysics","135","443154","0.0-135.0","647be991db1ffbd6bbcc5bc6","64de814352f8bc709cac8d76","","","","","2127",""," ","key"," ","16.662346456693044","500","250","eb","40","49","49","1","","0","0"
"","psychophysics","136","444187","0.0-136.0","647be991db1ffbd6bbcc5bc6","64de814352f8bc709cac8d76","","","","","1024",""," ","key"," ","16.66478688524536","500","250","eb","28","28","33","1","","0","0"
"","psychophysics","137","446262","0.0-137.0","647be991db1ffbd6bbcc5bc6","64de814352f8bc709cac8d76","","","","","2069",""," ","key"," ","16.662658536585703","500","250","eb","35","26","47","1","","0","0"
"","psychophysics","138","447833","0.0-138.0","647be991db1ffbd6bbcc5bc6","64de814352f8bc709cac8d76","","","","","1557",""," ","key"," ","16.66299999999984","500","250","eb","43","40","51","1","","0","0"
"","psychophysics","139","451174","0.0-139.0","647be991db1ffbd6bbcc5bc6","64de814352f8bc709cac8d76","","","","","3324",""," ","key"," ","16.66264000000025","500","250","eb","27","44","33","1","","0","0"
"","psychophysics","140","452641","0.0-140.0","647be991db1ffbd6bbcc5bc6","64de814352f8bc709cac8d76","","","","","1455",""," ","key"," ","16.664103448275213","500","250","eb","39","42","40","1","","0","0"
"","psychophysics","141","456817","0.0-141.0","647be991db1ffbd6bbcc5bc6","64de814352f8bc709cac8d76","","","","","4160",""," ","key"," ","16.662903999999862","500","250","eb","47","25","50","1","","0","0"
"","psychophysics","142","457488","0.0-142.0","647be991db1ffbd6bbcc5bc6","64de814352f8bc709cac8d76","","","","","667",""," ","key"," ","16.66248717948717","500","250","inst","","","","","","",""
"","psychophysics","143","461181","0.0-143.0","647be991db1ffbd6bbcc5bc6","64de814352f8bc709cac8d76","","","","","3678",""," ","key"," ","16.66282272727271","500","250","instBr3","40","40","300","2","","0","0"
"","psychophysics","144","461750","0.0-144.0","647be991db1ffbd6bbcc5bc6","64de814352f8bc709cac8d76","","","","","561",""," ","key"," ","16.664411764706635","500","250","inst","","","","","","",""
"","psychophysics","145","464955","0.0-145.0","647be991db1ffbd6bbcc5bc6","64de814352f8bc709cac8d76","","","","","3187",""," ","key"," ","16.662801047120578","500","250","br","18","-4","285","2","1","-30","24"
"","psychophysics","146","467006","0.0-146.0","647be991db1ffbd6bbcc5bc6","64de814352f8bc709cac8d76","","","","","2037",""," ","key"," ","16.663016393442437","500","250","br","15","11","242","2","1","-11","-21"
"","psychophysics","147","470014","0.0-147.0","647be991db1ffbd6bbcc5bc6","64de814352f8bc709cac8d76","","","","","2995",""," ","key"," ","16.66306666666674","500","250","br","15","4","262","2","1","-22","-21"
"","psychophysics","148","472994","0.0-148.0","647be991db1ffbd6bbcc5bc6","64de814352f8bc709cac8d76","","","","","2972",""," ","key"," ","16.663045197740093","500","250","br","17","-5","292","2","1","-10","-23"
"","psychophysics","149","474398","0.0-149.0","647be991db1ffbd6bbcc5bc6","64de814352f8bc709cac8d76","","","","","1395",""," ","key"," ","16.663690476190474","500","250","br","23","25","282","2","1","-25","9"
"","psychophysics","150","477129","0.0-150.0","647be991db1ffbd6bbcc5bc6","64de814352f8bc709cac8d76","","","","","2714",""," ","key"," ","16.663325153374075","500","250","br","17","10","201","2","1","-15","23"
"","psychophysics","151","480812","0.0-151.0","647be991db1ffbd6bbcc5bc6","64de814352f8bc709cac8d76","","","","","3678",""," ","key"," ","16.66224090909104","500","250","br","19","2","201","2","1","29","-16"
"","psychophysics","152","483377","0.0-152.0","647be991db1ffbd6bbcc5bc6","64de814352f8bc709cac8d76","","","","","2559",""," ","key"," ","16.66258823529405","500","250","br","18","30","206","2","1","5","9"
"","psychophysics","153","485491","0.0-153.0","647be991db1ffbd6bbcc5bc6","64de814352f8bc709cac8d76","","","","","2108",""," ","key"," ","16.662256000000053","500","250","br","17","1","285","2","1","-15","29"
"","psychophysics","154","487177","0.0-154.0","647be991db1ffbd6bbcc5bc6","64de814352f8bc709cac8d76","","","","","1677",""," ","key"," ","16.66365346534692","500","250","br","24","21","254","2","1","-17","14"
"","psychophysics","155","489279","0.0-155.0","647be991db1ffbd6bbcc5bc6","64de814352f8bc709cac8d76","","","","","2097",""," ","key"," ","16.66280799999973","500","250","br","23","21","219","2","1","23","-9"
"","psychophysics","156","491526","0.0-156.0","647be991db1ffbd6bbcc5bc6","64de814352f8bc709cac8d76","","","","","2241",""," ","key"," ","16.662798507462703","500","250","br","24","21","265","2","1","29","-25"
"","psychophysics","157","494138","0.0-157.0","647be991db1ffbd6bbcc5bc6","64de814352f8bc709cac8d76","","","","","2607",""," ","key"," ","16.66220645161323","500","250","br","17","26","235","2","1","28","27"
"","psychophysics","158","497014","0.0-158.0","647be991db1ffbd6bbcc5bc6","64de814352f8bc709cac8d76","","","","","2869",""," ","key"," ","16.663377906976546","500","250","br","22","-21","291","2","1","15","-10"
"","psychophysics","159","499377","0.0-159.0","647be991db1ffbd6bbcc5bc6","64de814352f8bc709cac8d76","","","","","2350",""," ","key"," ","16.663354609929048","500","250","br","20","27","260","2","1","16","-1"
"","psychophysics","160","499939","0.0-160.0","647be991db1ffbd6bbcc5bc6","64de814352f8bc709cac8d76","","","","","556",""," ","key"," ","16.66328125000109","500","250","inst","","","","","","",""
"","psychophysics","161","504746","0.0-161.0","647be991db1ffbd6bbcc5bc6","64de814352f8bc709cac8d76","","","","","4798",""," ","key"," ","16.662239583333253","500","250","instZol1","0.19999999999999982","-1.3","","","","0","0"
"","psychophysics","162","506922","0.0-162.0","647be991db1ffbd6bbcc5bc6","64de814352f8bc709cac8d76","","","","","2161",""," ","key"," ","16.662515384615666","500","250","instZol2","-3.5000000000000013","2","","1","","0","0"
"","psychophysics","163","507458","0.0-163.0","647be991db1ffbd6bbcc5bc6","64de814352f8bc709cac8d76","","","","","532",""," ","key"," ","16.66303225806276","500","250","inst","","","","","","",""
"","psychophysics","164","510822","0.0-164.0","647be991db1ffbd6bbcc5bc6","64de814352f8bc709cac8d76","","","","","3346",""," ","key"," ","16.662955223880672","500","250","zol","0.91","-0.01","","1","1","-19","30"
"","psychophysics","165","517105","0.0-165.0","647be991db1ffbd6bbcc5bc6","64de814352f8bc709cac8d76","","","","","6275",""," ","key"," ","16.662795212765985","500","250","zol","1.5400000000000005","-0.64","","1","1","10","29"
"","psychophysics","166","520484","0.0-166.0","647be991db1ffbd6bbcc5bc6","64de814352f8bc709cac8d76","","","","","3362",""," ","key"," ","16.662601990049847","500","250","zol","1.3300000000000003","-0.13","","1","1","11","-9"
"","psychophysics","167","524685","0.0-167.0","647be991db1ffbd6bbcc5bc6","64de814352f8bc709cac8d76","","","","","4186",""," ","key"," ","16.66256349206332","500","250","zol","1.4800000000000004","-0.68","","1","1","23","-21"
"","psychophysics","168","528849","0.0-168.0","647be991db1ffbd6bbcc5bc6","64de814352f8bc709cac8d76","","","","","4154",""," ","key"," ","16.66247389558235","500","250","zol","0.7699999999999998","0.63","","1","1","-30","15"
"","psychophysics","169","532233","0.0-169.0","647be991db1ffbd6bbcc5bc6","64de814352f8bc709cac8d76","","","","","3374",""," ","key"," ","16.663509900990004","500","250","zol","1.0699999999999998","0.73","","1","1","14","-27"
"","psychophysics","170","537963","0.0-170.0","647be991db1ffbd6bbcc5bc6","64de814352f8bc709cac8d76","","","","","5710",""," ","key"," ","16.66285380116958","500","250","zol","1.6000000000000003","0.2","","1","1","-21","6"
"","psychophysics","171","540514","0.0-171.0","647be991db1ffbd6bbcc5bc6","64de814352f8bc709cac8d76","","","","","2536",""," ","key"," ","16.66215032679668","500","250","zol","1.6600000000000004","-0.46","","1","1","-7","-27"
"","psychophysics","172","542869","0.0-172.0","647be991db1ffbd6bbcc5bc6","64de814352f8bc709cac8d76","","","","","2346",""," ","key"," ","16.66293571428562","500","250","zol","1.5000000000000002","-0.3","","1","1","-6","0"
"","psychophysics","173","546014","0.0-173.0","647be991db1ffbd6bbcc5bc6","64de814352f8bc709cac8d76","","","","","3127",""," ","key"," ","16.66278723404282","500","250","zol","1.5300000000000005","0.17","","1","1","17","1"
"","psychophysics","174","550166","0.0-174.0","647be991db1ffbd6bbcc5bc6","64de814352f8bc709cac8d76","","","","","4135",""," ","key"," ","16.662850806451566","500","250","zol","1.6000000000000003","-0.1","","1","1","-27","12"
"","psychophysics","175","553963","0.0-175.0","647be991db1ffbd6bbcc5bc6","64de814352f8bc709cac8d76","","","","","3777",""," ","key"," ","16.66321585903104","500","250","zol","1.4900000000000002","0.51","","1","1","-20","4"
"","psychophysics","176","557268","0.0-176.0","647be991db1ffbd6bbcc5bc6","64de814352f8bc709cac8d76","","","","","3289",""," ","key"," ","16.662730964467396","500","250","zol","1.8400000000000007","0.06","","1","1","10","16"
"","psychophysics","177","559684","0.0-177.0","647be991db1ffbd6bbcc5bc6","64de814352f8bc709cac8d76","","","","","2398",""," ","key"," ","16.663180555555705","500","250","zol","1.7300000000000006","-0.53","","1","1","-16","-3"
"","psychophysics","178","560793","0.0-178.0","647be991db1ffbd6bbcc5bc6","64de814352f8bc709cac8d76","","","","","1091",""," ","key"," ","16.66396969697036","500","250","zol","0.74","-0.54","","1","1","14","29"
"","psychophysics","179","561791","0.0-179.0","647be991db1ffbd6bbcc5bc6","64de814352f8bc709cac8d76","","","","","994",""," ","key"," ","16.662517241378925","500","250","inst","","","","","","",""
"","psychophysics","180","565454","0.0-180.0","647be991db1ffbd6bbcc5bc6","64de814352f8bc709cac8d76","","","","","3653",""," ","key"," ","16.662538812785478","500","250","instPog0","340","370","340","2","","0","0"
"","psychophysics","181","567923","0.0-181.0","647be991db1ffbd6bbcc5bc6","64de814352f8bc709cac8d76","","","","","2460",""," ","key"," ","16.776816326530877","500","250","instPog1","342","370","340","2","","0","0"
"","psychophysics","182","569865","0.0-182.0","647be991db1ffbd6bbcc5bc6","64de814352f8bc709cac8d76","","","","","1939",""," ","key"," ","16.662747826087084","500","250","instPog2","324","340","340","2","","0","0"
"","psychophysics","183","570439","0.0-183.0","647be991db1ffbd6bbcc5bc6","64de814352f8bc709cac8d76","","","","","563",""," ","key"," ","16.666529411765033","500","250","inst","","","","","","",""
"","psychophysics","184","572919","0.0-184.0","647be991db1ffbd6bbcc5bc6","64de814352f8bc709cac8d76","","","","","2475",""," ","key"," ","16.662619047619238","500","250","pog","360","374","375","2","1","0","0"
"","psychophysics","185","574977","0.0-185.0","647be991db1ffbd6bbcc5bc6","64de814352f8bc709cac8d76","","","","","2049",""," ","key"," ","16.66306504065065","500","250","pog","322","332","331","2","1","0","0"
"","psychophysics","186","578127","0.0-186.0","647be991db1ffbd6bbcc5bc6","64de814352f8bc709cac8d76","","","","","3137",""," ","key"," ","16.663021276595984","500","250","pog","350","316","367","2","1","0","0"
"","psychophysics","187","581269","0.0-187.0","647be991db1ffbd6bbcc5bc6","64de814352f8bc709cac8d76","","","","","3137",""," ","key"," ","16.662579787234364","500","250","pog","361","395","377","2","1","0","0"
"","psychophysics","188","585818","0.0-188.0","647be991db1ffbd6bbcc5bc6","64de814352f8bc709cac8d76","","","","","4543",""," ","key"," ","16.662724264705663","500","250","pog","338","280","346","2","1","0","0"
"","psychophysics","189","589368","0.0-189.0","647be991db1ffbd6bbcc5bc6","64de814352f8bc709cac8d76","","","","","3544",""," ","key"," ","16.6625518867925","500","250","pog","323","381","339","2","1","0","0"
"","psychophysics","190","591300","0.0-190.0","647be991db1ffbd6bbcc5bc6","64de814352f8bc709cac8d76","","","","","1927",""," ","key"," ","16.662469565217464","500","250","pog","295","325","320","2","1","0","0"
"","psychophysics","191","592816","0.0-191.0","647be991db1ffbd6bbcc5bc6","64de814352f8bc709cac8d76","","","","","1511",""," ","key"," ","16.663633333332836","500","250","pog","320","326","341","2","1","0","0"
"","psychophysics","192","595033","0.0-192.0","647be991db1ffbd6bbcc5bc6","64de814352f8bc709cac8d76","","","","","2212",""," ","key"," ","16.662196969697217","500","250","pog","335","345","355","2","1","0","0"
"","psychophysics","193","598738","0.0-193.0","647be991db1ffbd6bbcc5bc6","64de814352f8bc709cac8d76","","","","","3699",""," ","key"," ","16.738836363636338","500","250","pog","306","374","337","2","1","0","0"
"","psychophysics","194","601540","0.0-194.0","647be991db1ffbd6bbcc5bc6","64de814352f8bc709cac8d76","","","","","2791",""," ","key"," ","16.663191616765925","500","250","pog","345","307","369","2","1","0","0"
"","psychophysics","195","604280","0.0-195.0","647be991db1ffbd6bbcc5bc6","64de814352f8bc709cac8d76","","","","","2729",""," ","key"," ","16.663365853658632","500","250","pog","316","390","347","2","1","0","0"
"","psychophysics","196","606932","0.0-196.0","647be991db1ffbd6bbcc5bc6","64de814352f8bc709cac8d76","","","","","2647",""," ","key"," ","16.66336075949359","500","250","pog","317","365","337","2","1","0","0"
"","psychophysics","197","610911","0.0-197.0","647be991db1ffbd6bbcc5bc6","64de814352f8bc709cac8d76","","","","","3974",""," ","key"," ","16.66273529411728","500","250","pog","296","360","316","2","1","0","0"
"","psychophysics","198","612814","0.0-198.0","647be991db1ffbd6bbcc5bc6","64de814352f8bc709cac8d76","","","","","1899",""," ","key"," ","16.66253982300858","500","250","pog","289","303","317","2","1","0","0"
"","psychophysics","199","613500","0.0-199.0","647be991db1ffbd6bbcc5bc6","64de814352f8bc709cac8d76","","","","","682",""," ","key"," ","16.663025000001653","500","250","inst","","","","","","",""
"","psychophysics","200","616228","0.0-200.0","647be991db1ffbd6bbcc5bc6","64de814352f8bc709cac8d76","","","","","2696",""," ","key"," ","16.766228395062182","500","250","instPz1","55","25","50","1","","",""
"","psychophysics","201","618697","0.0-201.0","647be991db1ffbd6bbcc5bc6","64de814352f8bc709cac8d76","","","","","2464",""," ","key"," ","16.662564625850322","500","250","instPz2","18","35","20","1","","",""
"","psychophysics","202","625359","0.0-202.0","647be991db1ffbd6bbcc5bc6","64de814352f8bc709cac8d76","","","","","6656",""," ","key"," ","16.66285964912288","500","250","instPz3","51","100","30","1","","",""
"","psychophysics","203","628125","0.0-203.0","647be991db1ffbd6bbcc5bc6","64de814352f8bc709cac8d76","","","","","2761",""," ","key"," ","16.662618181818505","500","250","instPz4","46","100","30","1","","",""
"","psychophysics","204","629057","0.0-204.0","647be991db1ffbd6bbcc5bc6","64de814352f8bc709cac8d76","","","","","929",""," ","key"," ","16.665109090909194","500","250","inst","","","","","","",""
"","psychophysics","205","633139","0.0-205.0","647be991db1ffbd6bbcc5bc6","64de814352f8bc709cac8d76","","","","","4073",""," ","key"," ","16.662467213114724","500","250","pz","62","40","36","1","1","",""
"","psychophysics","206","636713","0.0-206.0","647be991db1ffbd6bbcc5bc6","64de814352f8bc709cac8d76","","","","","3567",""," ","key"," ","16.662657276995617","500","250","pz","88","43","60","1","1","",""
"","psychophysics","207","638841","0.0-207.0","647be991db1ffbd6bbcc5bc6","64de814352f8bc709cac8d76","","","","","2116",""," ","key"," ","16.663622047243397","500","250","pz","89","58","57","1","1","",""
"","psychophysics","208","641276","0.0-208.0","647be991db1ffbd6bbcc5bc6","64de814352f8bc709cac8d76","","","","","2430",""," ","key"," ","16.662613793103635","500","250","pz","97","52","55","1","1","",""
"","psychophysics","209","645269","0.0-209.0","647be991db1ffbd6bbcc5bc6","64de814352f8bc709cac8d76","","","","","3978",""," ","key"," ","16.66246025104594","500","250","pz","73","32","53","1","1","",""
"","psychophysics","210","646912","0.0-210.0","647be991db1ffbd6bbcc5bc6","64de814352f8bc709cac8d76","","","","","1636",""," ","key"," ","16.663845360825157","500","250","pz","53","40","27","1","1","",""
"","psychophysics","211","650687","0.0-211.0","647be991db1ffbd6bbcc5bc6","64de814352f8bc709cac8d76","","","","","3764",""," ","key"," ","16.66298672566355","500","250","pz","91","48","56","1","1","",""
"","psychophysics","212","652927","0.0-212.0","647be991db1ffbd6bbcc5bc6","64de814352f8bc709cac8d76","","","","","2233",""," ","key"," ","16.6626541353377","500","250","pz","54","28","36","1","1","",""
"","psychophysics","213","655881","0.0-213.0","647be991db1ffbd6bbcc5bc6","64de814352f8bc709cac8d76","","","","","2942",""," ","key"," ","16.663096590908854","500","250","pz","32","59","21","1","1","",""
"","psychophysics","214","658682","0.0-214.0","647be991db1ffbd6bbcc5bc6","64de814352f8bc709cac8d76","","","","","2790",""," ","key"," ","16.663221556886413","500","250","pz","91","44","55","1","1","",""
"","psychophysics","215","660293","0.0-215.0","647be991db1ffbd6bbcc5bc6","64de814352f8bc709cac8d76","","","","","1602",""," ","key"," ","16.663916666665802","500","250","pz","39","34","24","1","1","",""
"","psychophysics","216","661899","0.0-216.0","647be991db1ffbd6bbcc5bc6","64de814352f8bc709cac8d76","","","","","1595",""," ","key"," ","16.663677083333216","500","250","pz","61","43","38","1","1","",""
"","psychophysics","217","663542","0.0-217.0","647be991db1ffbd6bbcc5bc6","64de814352f8bc709cac8d76","","","","","1637",""," ","key"," ","16.66241237113358","500","250","pz","35","39","21","1","1","",""
"","psychophysics","218","667298","0.0-218.0","647be991db1ffbd6bbcc5bc6","64de814352f8bc709cac8d76","","","","","3744",""," ","key"," ","16.662560000000003","500","250","pz","64","30","43","1","1","",""
"","psychophysics","219","669796","0.0-219.0","647be991db1ffbd6bbcc5bc6","64de814352f8bc709cac8d76","","","","","2490",""," ","key"," ","16.662362416107644","500","250","pz","84","34","50","1","1","",""
