"success","trial_type","trial_index","time_elapsed","internal_node_id","pid","sid","timeout","failed_images","failed_audio","failed_video","rt","stimulus","response","response_type","key_press","avg_frame_time","center_x","center_y","task","resp","version","block","jitterX","jitterY","start","parA"
"true","fullscreen","0","3037","0.0-0.0","5b33034d975e260001e981c9","64e50d273756e3a4120209f6","","","","","","","","","","","","","","","","","","","",""
"true","preload","1","3083","0.0-1.0","5b33034d975e260001e981c9","64e50d273756e3a4120209f6","false","[]","[]","[]","","","","","","","","","","","","","","","",""
"","html-button-response","2","4126","0.0-2.0","5b33034d975e260001e981c9","64e50d273756e3a4120209f6","","","","","1042","Please Make Sure Your Audio Is On.","0","","","","","","","","","","","","",""
"","psychophysics","3","7992","0.0-3.0","5b33034d975e260001e981c9","64e50d273756e3a4120209f6","","","","","3861",""," ","key"," ","6.944518850987434","960","250","","","","","","","",""
"","psychophysics","4","10560","0.0-4.0","5b33034d975e260001e981c9","64e50d273756e3a4120209f6","","","","","2564",""," ","key"," ","6.944487804878053","500","250","inst","","","","","","",""
"","psychophysics","5","13984","0.0-5.0","5b33034d975e260001e981c9","64e50d273756e3a4120209f6","","","","","3420",""," ","key"," ","6.944518292682925","500","250","sample0","","","","","","",""
"","psychophysics","6","16063","0.0-6.0","5b33034d975e260001e981c9","64e50d273756e3a4120209f6","","","","","2076",""," ","key"," ","6.967663299663302","500","250","sample1","","","","","","",""
"","psychophysics","7","23743","0.0-7.0","5b33034d975e260001e981c9","64e50d273756e3a4120209f6","","","","","7671",""," ","key"," ","6.944523076923077","500","250","sample2","100","","","","","",""
"","psychophysics","8","28215","0.0-8.0","5b33034d975e260001e981c9","64e50d273756e3a4120209f6","","","","","4458",""," ","key"," ","6.944690513219287","500","250","sample3","100","","","","","",""
"","psychophysics","9","35527","0.0-9.0","5b33034d975e260001e981c9","64e50d273756e3a4120209f6","","","","","7304",""," ","key"," ","6.944593155893539","500","250","sample4","100","","","","","",""
"","psychophysics","10","39456","0.0-10.0","5b33034d975e260001e981c9","64e50d273756e3a4120209f6","","","","","3921",""," ","key"," ","6.944488495575219","500","250","sample5","","","","","","",""
"","psychophysics","11","47159","0.0-11.0","5b33034d975e260001e981c9","64e50d273756e3a4120209f6","","","","","7700",""," ","key"," ","6.9444296028880865","500","250","sample6","500","","","","","",""
"","psychophysics","12","51608","0.0-12.0","5b33034d975e260001e981c9","64e50d273756e3a4120209f6","","","","","4445",""," ","key"," ","6.944627543035991","500","250","inst","","","","","","",""
"","psychophysics","13","55809","0.0-13.0","5b33034d975e260001e981c9","64e50d273756e3a4120209f6","","","","","4195",""," ","key"," ","6.9447086092715224","500","250","inst","","","","","","",""
"","psychophysics","14","59335","0.0-14.0","5b33034d975e260001e981c9","64e50d273756e3a4120209f6","","","","","3521",""," ","key"," ","6.944431952662717","500","250","inst","","","","","","",""
"","psychophysics","15","60999","0.0-15.0","5b33034d975e260001e981c9","64e50d273756e3a4120209f6","","","","","1658",""," ","key"," ","6.945364016736383","500","250","inst","","","","","","",""
"","psychophysics","16","62751","0.0-16.0","5b33034d975e260001e981c9","64e50d273756e3a4120209f6","","","","","1749",""," ","key"," ","6.945135458167328","500","250","inst","","","","","","",""
"","psychophysics","17","66032","0.0-17.0","5b33034d975e260001e981c9","64e50d273756e3a4120209f6","","","","","3274",""," ","key"," ","6.944457627118659","500","250","instZol0","0","","","0","0","0",""
"","psychophysics","18","78192","0.0-18.0","5b33034d975e260001e981c9","64e50d273756e3a4120209f6","","","","","12156",""," ","key"," ","6.944426857142851","500","250","instZol1","0.10000000000000003","","","0","0","-1.3",""
"","psychophysics","19","89463","0.0-19.0","5b33034d975e260001e981c9","64e50d273756e3a4120209f6","","","","","11262",""," ","key"," ","6.944511097410606","500","250","instZol2","-1.3999999999999995","2","","0","0","2",""
"","psychophysics","20","92240","0.0-20.0","5b33034d975e260001e981c9","64e50d273756e3a4120209f6","","","","","2774",""," ","key"," ","6.944022556390998","500","250","inst","","","","","","",""
"","psychophysics","21","98183","0.0-21.0","5b33034d975e260001e981c9","64e50d273756e3a4120209f6","","","","","5938",""," ","key"," ","6.94439578454332","500","250","zol","-0.6699999999999999","2","0","29","25","0.17",""
"","psychophysics","22","104455","0.0-22.0","5b33034d975e260001e981c9","64e50d273756e3a4120209f6","","","","","6264",""," ","key"," ","6.944630121816156","500","250","zol","-0.8599999999999999","2","0","-4","-18","0.06",""
"","psychophysics","23","109974","0.0-23.0","5b33034d975e260001e981c9","64e50d273756e3a4120209f6","","","","","5515",""," ","key"," ","6.944871374527107","500","250","zol","-0.48","2","0","6","-19","-0.02",""
"","psychophysics","24","114374","0.0-24.0","5b33034d975e260001e981c9","64e50d273756e3a4120209f6","","","","","4390",""," ","key"," ","6.944642969984206","500","250","zol","-0.64","2","0","-3","12","-0.16",""
"","psychophysics","25","118630","0.0-25.0","5b33034d975e260001e981c9","64e50d273756e3a4120209f6","","","","","4247",""," ","key"," ","6.944714052287571","500","250","zol","-0.53","2","0","-10","5","-0.27",""
"","psychophysics","26","123062","0.0-26.0","5b33034d975e260001e981c9","64e50d273756e3a4120209f6","","","","","4423",""," ","key"," ","6.944766091051792","500","250","zol","-0.53","2","0","-19","8","-0.17",""
"","psychophysics","27","126605","0.0-27.0","5b33034d975e260001e981c9","64e50d273756e3a4120209f6","","","","","3533",""," ","key"," ","6.944159135559902","500","250","zol","-0.8899999999999999","2","0","12","-3","0.39",""
"","psychophysics","28","129903","0.0-28.0","5b33034d975e260001e981c9","64e50d273756e3a4120209f6","","","","","3295",""," ","key"," ","6.94504641350212","500","250","zol","-0.72","2","0","2","-2","0.22",""
"","psychophysics","29","132517","0.0-29.0","5b33034d975e260001e981c9","64e50d273756e3a4120209f6","","","","","2607",""," ","key"," ","6.944042553191506","500","250","zol","-0.82","2","0","23","29","0.72",""
"","psychophysics","30","135334","0.0-30.0","5b33034d975e260001e981c9","64e50d273756e3a4120209f6","","","","","2815",""," ","key"," ","6.945215346534649","500","250","zol","-0.59","2","0","-3","22","0.39",""
"","psychophysics","31","140063","0.0-31.0","5b33034d975e260001e981c9","64e50d273756e3a4120209f6","","","","","4720",""," ","key"," ","6.9446691176470585","500","250","zol","-0.49","2","0","-25","1","-0.61",""
"","psychophysics","32","144566","0.0-32.0","5b33034d975e260001e981c9","64e50d273756e3a4120209f6","","","","","4496",""," ","key"," ","6.9447206790123515","500","250","zol","-0.69","2","0","-29","-2","-0.01",""
"","psychophysics","33","148975","0.0-33.0","5b33034d975e260001e981c9","64e50d273756e3a4120209f6","","","","","4401",""," ","key"," ","6.944430599369086","500","250","zol","-0.6799999999999999","2","0","27","-9","-0.12",""
"","psychophysics","34","156399","0.0-34.0","5b33034d975e260001e981c9","64e50d273756e3a4120209f6","","","","","7416",""," ","key"," ","6.944464419475651","500","250","zol","-0.7","2","0","-20","0","0.4",""
"","psychophysics","35","164094","0.0-35.0","5b33034d975e260001e981c9","64e50d273756e3a4120209f6","","","","","7685",""," ","key"," ","6.94449412827461","500","250","zol","-0.9099999999999999","2","0","-26","15","-0.49",""
"","psychophysics","36","166430","0.0-36.0","5b33034d975e260001e981c9","64e50d273756e3a4120209f6","","","","","2336",""," ","key"," ","6.944665671641758","500","250","inst","","","","","","",""
"","psychophysics","37","169871","0.0-37.0","5b33034d975e260001e981c9","64e50d273756e3a4120209f6","","","","","3436",""," ","key"," ","6.944436363636392","500","250","instBr0","0","","","0","0","0","300"
"","psychophysics","38","175655","0.0-38.0","5b33034d975e260001e981c9","64e50d273756e3a4120209f6","","","","","5780",""," ","key"," ","6.944500601684723","500","250","instBr1","2","","","0","0","-40","300"
"","psychophysics","39","181199","0.0-39.0","5b33034d975e260001e981c9","64e50d273756e3a4120209f6","","","","","5538",""," ","key"," ","6.944657894736841","500","250","instBr3","18","2","","0","0","40","300"
"","psychophysics","40","182479","0.0-40.0","5b33034d975e260001e981c9","64e50d273756e3a4120209f6","","","","","1278",""," ","key"," ","6.944579234972719","500","250","inst","","","","","","",""
"","psychophysics","41","184950","0.0-41.0","5b33034d975e260001e981c9","64e50d273756e3a4120209f6","","","","","2466",""," ","key"," ","6.9448873239436555","500","250","br","12","2","0","-7","-13","4","236"
"","psychophysics","42","188446","0.0-42.0","5b33034d975e260001e981c9","64e50d273756e3a4120209f6","","","","","3485",""," ","key"," ","6.944436254980116","500","250","br","19","2","0","0","23","24","227"
"","psychophysics","43","191046","0.0-43.0","5b33034d975e260001e981c9","64e50d273756e3a4120209f6","","","","","2596",""," ","key"," ","6.944759358288761","500","250","br","18","2","0","-10","-29","20","252"
"","psychophysics","44","193286","0.0-44.0","5b33034d975e260001e981c9","64e50d273756e3a4120209f6","","","","","2234",""," ","key"," ","6.94440809968847","500","250","br","17","2","0","-16","1","18","231"
"","psychophysics","45","198438","0.0-45.0","5b33034d975e260001e981c9","64e50d273756e3a4120209f6","","","","","5147",""," ","key"," ","6.944577597840757","500","250","br","13","2","0","-11","27","-16","259"
"","psychophysics","46","202599","0.0-46.0","5b33034d975e260001e981c9","64e50d273756e3a4120209f6","","","","","4160",""," ","key"," ","6.94491973244148","500","250","br","13","2","0","17","-15","-16","258"
"","psychophysics","47","205622","0.0-47.0","5b33034d975e260001e981c9","64e50d273756e3a4120209f6","","","","","3019",""," ","key"," ","6.944429885057516","500","250","br","17","2","0","-11","26","21","255"
"","psychophysics","48","209470","0.0-48.0","5b33034d975e260001e981c9","64e50d273756e3a4120209f6","","","","","3845",""," ","key"," ","6.944466546112131","500","250","br","21","2","0","23","-24","17","272"
"","psychophysics","49","211806","0.0-49.0","5b33034d975e260001e981c9","64e50d273756e3a4120209f6","","","","","2330",""," ","key"," ","6.944788059701452","500","250","br","20","2","0","4","19","19","294"
"","psychophysics","50","215198","0.0-50.0","5b33034d975e260001e981c9","64e50d273756e3a4120209f6","","","","","3386",""," ","key"," ","6.9448319672131325","500","250","br","13","2","0","-4","28","5","289"
"","psychophysics","51","220507","0.0-51.0","5b33034d975e260001e981c9","64e50d273756e3a4120209f6","","","","","5304",""," ","key"," ","6.944332020997383","500","250","br","16","2","0","29","28","1","219"
"","psychophysics","52","224239","0.0-52.0","5b33034d975e260001e981c9","64e50d273756e3a4120209f6","","","","","3727",""," ","key"," ","6.944578066914533","500","250","br","13","2","0","28","8","-26","238"
"","psychophysics","53","227471","0.0-53.0","5b33034d975e260001e981c9","64e50d273756e3a4120209f6","","","","","3228",""," ","key"," ","6.944681034482747","500","250","br","18","2","0","11","-10","-2","222"
"","psychophysics","54","229855","0.0-54.0","5b33034d975e260001e981c9","64e50d273756e3a4120209f6","","","","","2378",""," ","key"," ","6.94477485380112","500","250","br","15","2","0","2","-9","8","247"
"","psychophysics","55","233823","0.0-55.0","5b33034d975e260001e981c9","64e50d273756e3a4120209f6","","","","","3962",""," ","key"," ","6.944476357267904","500","250","br","20","2","0","20","29","15","274"
"","psychophysics","56","235191","0.0-56.0","5b33034d975e260001e981c9","64e50d273756e3a4120209f6","","","","","1365",""," ","key"," ","6.943811224489764","500","250","inst","","","","","","",""
"","psychophysics","57","236919","0.0-57.0","5b33034d975e260001e981c9","64e50d273756e3a4120209f6","","","","","1725",""," ","key"," ","6.944331983805668","500","250","instPzPre","50","0","","","","50","50"
"","psychophysics","58","238830","0.0-58.0","5b33034d975e260001e981c9","64e50d273756e3a4120209f6","","","","","1904",""," ","key"," ","6.9445345454544505","500","250","instPz0","50","2","","","","50","50"
"","psychophysics","59","249197","0.0-59.0","5b33034d975e260001e981c9","64e50d273756e3a4120209f6","","","","","10363",""," ","key"," ","6.944265415549606","500","250","instPz1","46","2","","","","25","50"
"","psychophysics","60","253344","0.0-60.0","5b33034d975e260001e981c9","64e50d273756e3a4120209f6","","","","","4146",""," ","key"," ","6.944348993288582","500","250","instPz2","32","2","","","","20","35"
"","psychophysics","61","259463","0.0-61.0","5b33034d975e260001e981c9","64e50d273756e3a4120209f6","","","","","6110",""," ","key"," ","7.008303899082579","500","250","instPz3","30","2","","","","30","100"
"","psychophysics","62","266782","0.0-62.0","5b33034d975e260001e981c9","64e50d273756e3a4120209f6","","","","","7309",""," ","key"," ","6.944559354226034","500","250","instPz4","88","2","","","","30","100"
"","psychophysics","63","268239","0.0-63.0","5b33034d975e260001e981c9","64e50d273756e3a4120209f6","","","","","1454",""," ","key"," ","6.943569377990458","500","250","inst","","","","","","",""
"","psychophysics","64","272759","0.0-64.0","5b33034d975e260001e981c9","64e50d273756e3a4120209f6","","","","","4517",""," ","key"," ","6.944474576271153","500","250","pz","37","2","0","","","27","43"
"","psychophysics","65","276240","0.0-65.0","5b33034d975e260001e981c9","64e50d273756e3a4120209f6","","","","","3475",""," ","key"," ","6.944520958083749","500","250","pz","37","2","0","","","32","47"
"","psychophysics","66","280223","0.0-66.0","5b33034d975e260001e981c9","64e50d273756e3a4120209f6","","","","","3979",""," ","key"," ","6.944861888111906","500","250","pz","31","2","0","","","45","37"
"","psychophysics","67","285230","0.0-67.0","5b33034d975e260001e981c9","64e50d273756e3a4120209f6","","","","","5002",""," ","key"," ","6.944634722222205","500","250","pz","24","2","0","","","42","27"
"","psychophysics","68","288646","0.0-68.0","5b33034d975e260001e981c9","64e50d273756e3a4120209f6","","","","","3412",""," ","key"," ","6.944808553971512","500","250","pz","24","2","0","","","21","33"
"","psychophysics","69","292975","0.0-69.0","5b33034d975e260001e981c9","64e50d273756e3a4120209f6","","","","","4323",""," ","key"," ","6.944460674157358","500","250","pz","16","2","0","","","35","20"
"","psychophysics","70","297718","0.0-70.0","5b33034d975e260001e981c9","64e50d273756e3a4120209f6","","","","","4739",""," ","key"," ","6.944505865102626","500","250","pz","29","2","0","","","22","40"
"","psychophysics","71","302774","0.0-71.0","5b33034d975e260001e981c9","64e50d273756e3a4120209f6","","","","","5051",""," ","key"," ","6.944620357634115","500","250","pz","25","2","0","","","44","30"
"","psychophysics","72","307399","0.0-72.0","5b33034d975e260001e981c9","64e50d273756e3a4120209f6","","","","","4621",""," ","key"," ","6.944255639097734","500","250","pz","41","2","0","","","37","50"
"","psychophysics","73","312703","0.0-73.0","5b33034d975e260001e981c9","64e50d273756e3a4120209f6","","","","","5300",""," ","key"," ","6.944520997375298","500","250","pz","29","2","0","","","49","34"
"","psychophysics","74","316175","0.0-74.0","5b33034d975e260001e981c9","64e50d273756e3a4120209f6","","","","","3466",""," ","key"," ","6.9447515030059765","500","250","pz","19","2","0","","","26","21"
"","psychophysics","75","322558","0.0-75.0","5b33034d975e260001e981c9","64e50d273756e3a4120209f6","","","","","6378",""," ","key"," ","6.944581066376504","500","250","pz","40","2","0","","","45","49"
"","psychophysics","76","326374","0.0-76.0","5b33034d975e260001e981c9","64e50d273756e3a4120209f6","","","","","3812",""," ","key"," ","6.944372262773622","500","250","pz","31","2","0","","","38","34"
"","psychophysics","77","329670","0.0-77.0","5b33034d975e260001e981c9","64e50d273756e3a4120209f6","","","","","3292",""," ","key"," ","6.944917721518994","500","250","pz","48","2","0","","","50","57"
"","psychophysics","78","335598","0.0-78.0","5b33034d975e260001e981c9","64e50d273756e3a4120209f6","","","","","5925",""," ","key"," ","6.944678403755845","500","250","pz","44","2","0","","","49","56"
"","psychophysics","79","336726","0.0-79.0","5b33034d975e260001e981c9","64e50d273756e3a4120209f6","","","","","1123",""," ","key"," ","6.945586419753072","500","250","inst","","","","","","",""
"","psychophysics","80","338094","0.0-80.0","5b33034d975e260001e981c9","64e50d273756e3a4120209f6","","","","","1364",""," ","key"," ","6.9442499999998715","500","250","instEB0","40","1","","0","0","40","40"
"","psychophysics","81","345687","0.0-81.0","5b33034d975e260001e981c9","64e50d273756e3a4120209f6","","","","","7590",""," ","key"," ","6.944610805860819","500","250","instEB1","30","1","","0","0","40","30"
"","psychophysics","82","350295","0.0-82.0","5b33034d975e260001e981c9","64e50d273756e3a4120209f6","","","","","4602",""," ","key"," ","6.965670196671739","500","250","instEB2","35","1","","0","0","30","40"
"","psychophysics","83","361750","0.0-83.0","5b33034d975e260001e981c9","64e50d273756e3a4120209f6","","","","","11452",""," ","key"," ","6.94450910194177","500","250","instEB3","39","1","","0","0","27","45"
"","psychophysics","84","369887","0.0-84.0","5b33034d975e260001e981c9","64e50d273756e3a4120209f6","","","","","8131",""," ","key"," ","6.944611443210943","500","250","instEB4","25","1","","0","0","40","30"
"","psychophysics","85","371127","0.0-85.0","5b33034d975e260001e981c9","64e50d273756e3a4120209f6","","","","","1237",""," ","key"," ","6.9446666666666985","500","250","inst","","","","","","",""
"","psychophysics","86","374055","0.0-86.0","5b33034d975e260001e981c9","64e50d273756e3a4120209f6","","","","","2921",""," ","key"," ","6.944686460807574","500","250","eb","46","1","","0","0","54","54"
"","psychophysics","87","379206","0.0-87.0","5b33034d975e260001e981c9","64e50d273756e3a4120209f6","","","","","5144",""," ","key"," ","6.944628879892","500","250","eb","25","1","","0","0","32","28"
"","psychophysics","88","382767","0.0-88.0","5b33034d975e260001e981c9","64e50d273756e3a4120209f6","","","","","3557",""," ","key"," ","6.944554687499931","500","250","eb","34","1","","0","0","30","39"
"","psychophysics","89","386295","0.0-89.0","5b33034d975e260001e981c9","64e50d273756e3a4120209f6","","","","","3522",""," ","key"," ","6.944433925049269","500","250","eb","40","1","","0","0","41","44"
"","psychophysics","90","389351","0.0-90.0","5b33034d975e260001e981c9","64e50d273756e3a4120209f6","","","","","3053",""," ","key"," ","6.9444738041002525","500","250","eb","31","1","","0","0","32","34"
"","psychophysics","91","395239","0.0-91.0","5b33034d975e260001e981c9","64e50d273756e3a4120209f6","","","","","5885",""," ","key"," ","6.944480519480492","500","250","eb","33","1","","0","0","53","36"
"","psychophysics","92","399199","0.0-92.0","5b33034d975e260001e981c9","64e50d273756e3a4120209f6","","","","","3956",""," ","key"," ","6.9444868189806686","500","250","eb","28","1","","0","0","42","28"
"","psychophysics","93","402990","0.0-93.0","5b33034d975e260001e981c9","64e50d273756e3a4120209f6","","","","","3786",""," ","key"," ","6.94476697247704","500","250","eb","34","1","","0","0","31","37"
"","psychophysics","94","407447","0.0-94.0","5b33034d975e260001e981c9","64e50d273756e3a4120209f6","","","","","4453",""," ","key"," ","6.944525741029628","500","250","eb","34","1","","0","0","26","39"
"","psychophysics","95","413183","0.0-95.0","5b33034d975e260001e981c9","64e50d273756e3a4120209f6","","","","","5732",""," ","key"," ","6.944237575757628","500","250","eb","25","1","","0","0","54","25"
"","psychophysics","96","417895","0.0-96.0","5b33034d975e260001e981c9","64e50d273756e3a4120209f6","","","","","4708",""," ","key"," ","6.944550960118184","500","250","eb","50","1","","0","0","44","54"
"","psychophysics","97","422359","0.0-97.0","5b33034d975e260001e981c9","64e50d273756e3a4120209f6","","","","","4458",""," ","key"," ","6.944718068535766","500","250","eb","45","1","","0","0","35","50"
"","psychophysics","98","425079","0.0-98.0","5b33034d975e260001e981c9","64e50d273756e3a4120209f6","","","","","2714",""," ","key"," ","6.944547314578077","500","250","eb","44","1","","0","0","42","51"
"","psychophysics","99","430470","0.0-99.0","5b33034d975e260001e981c9","64e50d273756e3a4120209f6","","","","","5386",""," ","key"," ","6.9445896774193185","500","250","eb","31","1","","0","0","46","31"
"","psychophysics","100","435023","0.0-100.0","5b33034d975e260001e981c9","64e50d273756e3a4120209f6","","","","","4549",""," ","key"," ","6.9445129770991745","500","250","eb","46","1","","0","0","48","47"
"","psychophysics","101","435951","0.0-101.0","5b33034d975e260001e981c9","64e50d273756e3a4120209f6","","","","","925",""," ","key"," ","6.9459999999998026","500","250","inst","","","","","","",""
"","psychophysics","102","441951","0.0-102.0","5b33034d975e260001e981c9","64e50d273756e3a4120209f6","","","","","5994",""," ","key"," ","6.94464542294328","500","250","instPog0","340","2","","0","0","370","340"
"","psychophysics","103","449959","0.0-103.0","5b33034d975e260001e981c9","64e50d273756e3a4120209f6","","","","","8003",""," ","key"," ","6.944554687500032","500","250","instPog1","326","2","","0","0","370","340"
"","psychophysics","104","462110","0.0-104.0","5b33034d975e260001e981c9","64e50d273756e3a4120209f6","","","","","12146",""," ","key"," ","6.944487707261284","500","250","instPog2","326","2","","0","0","340","340"
"","psychophysics","105","463190","0.0-105.0","5b33034d975e260001e981c9","64e50d273756e3a4120209f6","","","","","1075",""," ","key"," ","6.944509677419574","500","250","inst","","","","","","",""
"","psychophysics","106","467439","0.0-106.0","5b33034d975e260001e981c9","64e50d273756e3a4120209f6","","","","","4245",""," ","key"," ","6.944173770491797","500","250","pog","301","2","0","0","0","373","309"
"","psychophysics","107","473406","0.0-107.0","5b33034d975e260001e981c9","64e50d273756e3a4120209f6","","","","","5963",""," ","key"," ","6.944661233992989","500","250","pog","367","2","0","0","0","381","372"
"","psychophysics","108","480838","0.0-108.0","5b33034d975e260001e981c9","64e50d273756e3a4120209f6","","","","","7428",""," ","key"," ","6.944608044901743","500","250","pog","347","2","0","0","0","287","359"
"","psychophysics","109","484518","0.0-109.0","5b33034d975e260001e981c9","64e50d273756e3a4120209f6","","","","","3677",""," ","key"," ","6.944799621928165","500","250","pog","335","2","0","0","0","389","352"
"","psychophysics","110","488134","0.0-110.0","5b33034d975e260001e981c9","64e50d273756e3a4120209f6","","","","","3614",""," ","key"," ","6.944723076923065","500","250","pog","346","2","0","0","0","280","366"
"","psychophysics","111","493350","0.0-111.0","5b33034d975e260001e981c9","64e50d273756e3a4120209f6","","","","","5213",""," ","key"," ","6.944343999999964","500","250","pog","327","2","0","0","0","317","345"
"","psychophysics","112","497678","0.0-112.0","5b33034d975e260001e981c9","64e50d273756e3a4120209f6","","","","","4325",""," ","key"," ","6.944739549839177","500","250","pog","350","2","0","0","0","312","366"
"","psychophysics","113","501718","0.0-113.0","5b33034d975e260001e981c9","64e50d273756e3a4120209f6","","","","","4035",""," ","key"," ","6.944385542168716","500","250","pog","356","2","0","0","0","332","370"
"","psychophysics","114","507918","0.0-114.0","5b33034d975e260001e981c9","64e50d273756e3a4120209f6","","","","","6196",""," ","key"," ","6.9441491031390585","500","250","pog","297","2","0","0","0","303","308"
"","psychophysics","115","511295","0.0-115.0","5b33034d975e260001e981c9","64e50d273756e3a4120209f6","","","","","3376",""," ","key"," ","6.944507216494866","500","250","pog","317","2","0","0","0","311","326"
"","psychophysics","116","516134","0.0-116.0","5b33034d975e260001e981c9","64e50d273756e3a4120209f6","","","","","4837",""," ","key"," ","6.944489942528806","500","250","pog","327","2","0","0","0","363","347"
"","psychophysics","117","519687","0.0-117.0","5b33034d975e260001e981c9","64e50d273756e3a4120209f6","","","","","3549",""," ","key"," ","6.944760784313686","500","250","pog","316","2","0","0","0","324","335"
"","psychophysics","118","522798","0.0-118.0","5b33034d975e260001e981c9","64e50d273756e3a4120209f6","","","","","3108",""," ","key"," ","6.944827740492276","500","250","pog","298","2","0","0","0","302","308"
"","psychophysics","119","528766","0.0-119.0","5b33034d975e260001e981c9","64e50d273756e3a4120209f6","","","","","5963",""," ","key"," ","6.944592549476168","500","250","pog","368","2","0","0","0","384","376"
"","psychophysics","120","536533","0.0-120.0","5b33034d975e260001e981c9","64e50d273756e3a4120209f6","","","","","7764",""," ","key"," ","6.944358997314171","500","250","pog","304","2","0","0","0","366","301"
"","psychophysics","121","537990","0.0-121.0","5b33034d975e260001e981c9","64e50d273756e3a4120209f6","","","","","1453",""," ","key"," ","6.9456411483251985","500","250","inst","","","","","","",""
"","psychophysics","122","544205","0.0-122.0","5b33034d975e260001e981c9","64e50d273756e3a4120209f6","","","","","6214",""," ","key"," ","6.944674496644284","500","250","instEB1","40","2","","0","0","30","40"
"","psychophysics","123","548094","0.0-123.0","5b33034d975e260001e981c9","64e50d273756e3a4120209f6","","","","","3886",""," ","key"," ","6.944708407871102","500","250","instEB2","33","2","","0","0","40","30"
"","psychophysics","124","556919","0.0-124.0","5b33034d975e260001e981c9","64e50d273756e3a4120209f6","","","","","8819",""," ","key"," ","6.944465354330724","500","250","instEB3","31","2","","0","0","45","27"
"","psychophysics","125","565142","0.0-125.0","5b33034d975e260001e981c9","64e50d273756e3a4120209f6","","","","","8216",""," ","key"," ","6.944565511411643","500","250","instEB4","44","2","","0","0","30","40"
"","psychophysics","126","566110","0.0-126.0","5b33034d975e260001e981c9","64e50d273756e3a4120209f6","","","","","966",""," ","key"," ","6.944760869565906","500","250","inst","","","","","","",""
"","psychophysics","127","571942","0.0-127.0","5b33034d975e260001e981c9","64e50d273756e3a4120209f6","","","","","5827",""," ","key"," ","6.944676996424352","500","250","eb","51","2","","0","0","24","48"
"","psychophysics","128","576782","0.0-128.0","5b33034d975e260001e981c9","64e50d273756e3a4120209f6","","","","","4835",""," ","key"," ","6.944482758620669","500","250","eb","48","2","","0","0","28","44"
"","psychophysics","129","582383","0.0-129.0","5b33034d975e260001e981c9","64e50d273756e3a4120209f6","","","","","5595",""," ","key"," ","6.944709316770234","500","250","eb","34","2","","0","0","24","30"
"","psychophysics","130","587222","0.0-130.0","5b33034d975e260001e981c9","64e50d273756e3a4120209f6","","","","","4834",""," ","key"," ","6.9445488505746535","500","250","eb","49","2","","0","0","27","46"
"","psychophysics","131","592134","0.0-131.0","5b33034d975e260001e981c9","64e50d273756e3a4120209f6","","","","","4906",""," ","key"," ","6.944644978783512","500","250","eb","37","2","","0","0","28","35"
"","psychophysics","132","596830","0.0-132.0","5b33034d975e260001e981c9","64e50d273756e3a4120209f6","","","","","4692",""," ","key"," ","6.944121481481491","500","250","eb","37","2","","0","0","42","36"
"","psychophysics","133","602150","0.0-133.0","5b33034d975e260001e981c9","64e50d273756e3a4120209f6","","","","","5315",""," ","key"," ","6.944738562091473","500","250","eb","51","2","","0","0","42","51"
"","psychophysics","134","607910","0.0-134.0","5b33034d975e260001e981c9","64e50d273756e3a4120209f6","","","","","5754",""," ","key"," ","6.944623188405851","500","250","eb","29","2","","0","0","50","29"
"","psychophysics","135","613438","0.0-135.0","5b33034d975e260001e981c9","64e50d273756e3a4120209f6","","","","","5522",""," ","key"," ","6.944577358490583","500","250","eb","47","2","","0","0","32","47"
"","psychophysics","136","618510","0.0-136.0","5b33034d975e260001e981c9","64e50d273756e3a4120209f6","","","","","5068",""," ","key"," ","6.944660273972541","500","250","eb","44","2","","0","0","26","45"
"","psychophysics","137","623270","0.0-137.0","5b33034d975e260001e981c9","64e50d273756e3a4120209f6","","","","","4754",""," ","key"," ","6.944742690058519","500","250","eb","40","2","","0","0","43","38"
"","psychophysics","138","630262","0.0-138.0","5b33034d975e260001e981c9","64e50d273756e3a4120209f6","","","","","6986",""," ","key"," ","6.944586481113277","500","250","eb","43","2","","0","0","51","41"
"","psychophysics","139","636510","0.0-139.0","5b33034d975e260001e981c9","64e50d273756e3a4120209f6","","","","","6241",""," ","key"," ","6.944638487207988","500","250","eb","51","2","","0","0","46","52"
"","psychophysics","140","641391","0.0-140.0","5b33034d975e260001e981c9","64e50d273756e3a4120209f6","","","","","4877",""," ","key"," ","6.944645299145387","500","250","eb","45","2","","0","0","41","46"
"","psychophysics","141","646999","0.0-141.0","5b33034d975e260001e981c9","64e50d273756e3a4120209f6","","","","","5603",""," ","key"," ","6.944635235732068","500","250","eb","22","2","","0","0","49","24"
"","psychophysics","142","648046","0.0-142.0","5b33034d975e260001e981c9","64e50d273756e3a4120209f6","","","","","1042",""," ","key"," ","6.9454133333327865","500","250","inst","","","","","","",""
"","psychophysics","143","654031","0.0-143.0","5b33034d975e260001e981c9","64e50d273756e3a4120209f6","","","","","5979",""," ","key"," ","6.944636469221897","500","250","instPz1","47","1","","","","25","50"
"","psychophysics","144","658111","0.0-144.0","5b33034d975e260001e981c9","64e50d273756e3a4120209f6","","","","","4077",""," ","key"," ","6.944854948805357","500","250","instPz2","20","1","","","","35","20"
"","psychophysics","145","667351","0.0-145.0","5b33034d975e260001e981c9","64e50d273756e3a4120209f6","","","","","9234",""," ","key"," ","6.944547368421069","500","250","instPz3","36","1","","","","100","30"
"","psychophysics","146","673623","0.0-146.0","5b33034d975e260001e981c9","64e50d273756e3a4120209f6","","","","","6265",""," ","key"," ","6.944584257206224","500","250","instPz4","36","1","","","","100","30"
"","psychophysics","147","674535","0.0-147.0","5b33034d975e260001e981c9","64e50d273756e3a4120209f6","","","","","907",""," ","key"," ","6.944023076923062","500","250","inst","","","","","","",""
"","psychophysics","148","678959","0.0-148.0","5b33034d975e260001e981c9","64e50d273756e3a4120209f6","","","","","4419",""," ","key"," ","6.944638364779933","500","250","pz","69","1","1","","","44","51"
"","psychophysics","149","684359","0.0-149.0","5b33034d975e260001e981c9","64e50d273756e3a4120209f6","","","","","5395",""," ","key"," ","6.944625482625542","500","250","pz","68","1","1","","","28","55"
"","psychophysics","150","687183","0.0-150.0","5b33034d975e260001e981c9","64e50d273756e3a4120209f6","","","","","2819",""," ","key"," ","6.94481034482757","500","250","pz","53","1","1","","","44","40"
"","psychophysics","151","691935","0.0-151.0","5b33034d975e260001e981c9","64e50d273756e3a4120209f6","","","","","4748",""," ","key"," ","6.944475841873985","500","250","pz","38","1","1","","","48","30"
"","psychophysics","152","696135","0.0-152.0","5b33034d975e260001e981c9","64e50d273756e3a4120209f6","","","","","4194",""," ","key"," ","6.944521523178871","500","250","pz","42","1","1","","","47","30"
"","psychophysics","153","701046","0.0-153.0","5b33034d975e260001e981c9","64e50d273756e3a4120209f6","","","","","4908",""," ","key"," ","6.94467847025508","500","250","pz","34","1","1","","","24","26"
"","psychophysics","154","705774","0.0-154.0","5b33034d975e260001e981c9","64e50d273756e3a4120209f6","","","","","4722",""," ","key"," ","6.94468235294112","500","250","pz","38","1","1","","","53","28"
"","psychophysics","155","711014","0.0-155.0","5b33034d975e260001e981c9","64e50d273756e3a4120209f6","","","","","5235",""," ","key"," ","6.944471447543206","500","250","pz","66","1","1","","","50","46"
"","psychophysics","156","713910","0.0-156.0","5b33034d975e260001e981c9","64e50d273756e3a4120209f6","","","","","2891",""," ","key"," ","6.944473557692477","500","250","pz","37","1","1","","","32","28"
"","psychophysics","157","717766","0.0-157.0","5b33034d975e260001e981c9","64e50d273756e3a4120209f6","","","","","3851",""," ","key"," ","6.944828828828837","500","250","pz","40","1","1","","","26","29"
"","psychophysics","158","722486","0.0-158.0","5b33034d975e260001e981c9","64e50d273756e3a4120209f6","","","","","4717",""," ","key"," ","6.944591445427843","500","250","pz","78","1","1","","","40","59"
"","psychophysics","159","726366","0.0-159.0","5b33034d975e260001e981c9","64e50d273756e3a4120209f6","","","","","3875",""," ","key"," ","6.944711469534007","500","250","pz","67","1","1","","","39","50"
"","psychophysics","160","730782","0.0-160.0","5b33034d975e260001e981c9","64e50d273756e3a4120209f6","","","","","4410",""," ","key"," ","6.94470551181108","500","250","pz","50","1","1","","","34","37"
"","psychophysics","161","736807","0.0-161.0","5b33034d975e260001e981c9","64e50d273756e3a4120209f6","","","","","6019",""," ","key"," ","6.944416378316042","500","250","pz","75","1","1","","","27","56"
"","psychophysics","162","742863","0.0-162.0","5b33034d975e260001e981c9","64e50d273756e3a4120209f6","","","","","6052",""," ","key"," ","6.94462916188289","500","250","pz","75","1","1","","","55","58"
"","psychophysics","163","743703","0.0-163.0","5b33034d975e260001e981c9","64e50d273756e3a4120209f6","","","","","837",""," ","key"," ","6.944416666667288","500","250","inst","","","","","","",""
"","psychophysics","164","749134","0.0-164.0","5b33034d975e260001e981c9","64e50d273756e3a4120209f6","","","","","5429",""," ","key"," ","6.944571062740178","500","250","instZol1","0.10000000000000003","","","0","0","-1.3",""
"","psychophysics","165","757350","0.0-165.0","5b33034d975e260001e981c9","64e50d273756e3a4120209f6","","","","","8208",""," ","key"," ","6.944600676818985","500","250","instZol2","0.7000000000000006","1","","0","0","2",""
"","psychophysics","166","758286","0.0-166.0","5b33034d975e260001e981c9","64e50d273756e3a4120209f6","","","","","934",""," ","key"," ","6.944738805969941","500","250","inst","","","","","","",""
"","psychophysics","167","763814","0.0-167.0","5b33034d975e260001e981c9","64e50d273756e3a4120209f6","","","","","5520",""," ","key"," ","6.944657861635253","500","250","zol","0.5599999999999999","1","1","27","28","-0.16",""
"","psychophysics","168","767734","0.0-168.0","5b33034d975e260001e981c9","64e50d273756e3a4120209f6","","","","","3912",""," ","key"," ","6.944625222024699","500","250","zol","0.7399999999999999","1","1","8","25","-0.24",""
"","psychophysics","169","772094","0.0-169.0","5b33034d975e260001e981c9","64e50d273756e3a4120209f6","","","","","4351",""," ","key"," ","6.944693779904452","500","250","zol","1.0699999999999998","1","1","-11","4","-0.37",""
"","psychophysics","170","775030","0.0-170.0","5b33034d975e260001e981c9","64e50d273756e3a4120209f6","","","","","2928",""," ","key"," ","6.944869668246413","500","250","zol","0.7999999999999999","1","1","16","19","-0.3",""
"","psychophysics","171","778630","0.0-171.0","5b33034d975e260001e981c9","64e50d273756e3a4120209f6","","","","","3594",""," ","key"," ","6.9448704061895965","500","250","zol","0.8099999999999999","1","1","22","-20","-0.11",""
"","psychophysics","172","782694","0.0-172.0","5b33034d975e260001e981c9","64e50d273756e3a4120209f6","","","","","4056",""," ","key"," ","6.9447448630137485","500","250","zol","0.71","1","1","12","-11","0.39",""
"","psychophysics","173","787703","0.0-173.0","5b33034d975e260001e981c9","64e50d273756e3a4120209f6","","","","","5002",""," ","key"," ","6.944565880721229","500","250","zol","0.5","1","1","25","10","0.7",""
"","psychophysics","174","792654","0.0-174.0","5b33034d975e260001e981c9","64e50d273756e3a4120209f6","","","","","4943",""," ","key"," ","6.944640449438246","500","250","zol","0.8200000000000001","1","1","6","-24","-0.12",""
"","psychophysics","175","795902","0.0-175.0","5b33034d975e260001e981c9","64e50d273756e3a4120209f6","","","","","3241",""," ","key"," ","6.944783261802763","500","250","zol","0.7799999999999999","1","1","-30","22","-0.28",""
"","psychophysics","176","800989","0.0-176.0","5b33034d975e260001e981c9","64e50d273756e3a4120209f6","","","","","5078",""," ","key"," ","6.944557377049137","500","250","zol","0.8699999999999999","1","1","30","-3","-0.07",""
"","psychophysics","177","804998","0.0-177.0","5b33034d975e260001e981c9","64e50d273756e3a4120209f6","","","","","4006",""," ","key"," ","6.944836805555395","500","250","zol","0.7499999999999999","1","1","6","16","-0.05",""
"","psychophysics","178","810534","0.0-178.0","5b33034d975e260001e981c9","64e50d273756e3a4120209f6","","","","","5529",""," ","key"," ","6.944680904522632","500","250","zol","1.04","1","1","5","-24","-0.04",""
"","psychophysics","179","816703","0.0-179.0","5b33034d975e260001e981c9","64e50d273756e3a4120209f6","","","","","6161",""," ","key"," ","6.94459009009006","500","250","zol","0.97","1","1","-10","15","-0.67",""
"","psychophysics","180","822894","0.0-180.0","5b33034d975e260001e981c9","64e50d273756e3a4120209f6","","","","","6187",""," ","key"," ","6.944453932584285","500","250","zol","0.8999999999999999","1","1","1","-26","0.7",""
"","psychophysics","181","830126","0.0-181.0","5b33034d975e260001e981c9","64e50d273756e3a4120209f6","","","","","7224",""," ","key"," ","6.94454947166182","500","250","zol","1.01","1","1","10","22","0.59",""
"","psychophysics","182","830982","0.0-182.0","5b33034d975e260001e981c9","64e50d273756e3a4120209f6","","","","","852",""," ","key"," ","6.945122950819138","500","250","inst","","","","","","",""
"","psychophysics","183","837950","0.0-183.0","5b33034d975e260001e981c9","64e50d273756e3a4120209f6","","","","","6965",""," ","key"," ","6.944563872255468","500","250","instBr3","-14","1","","0","0","40","300"
"","psychophysics","184","838599","0.0-184.0","5b33034d975e260001e981c9","64e50d273756e3a4120209f6","","","","","644",""," ","key"," ","6.946795698925001","500","250","inst","","","","","","",""
"","psychophysics","185","841206","0.0-185.0","5b33034d975e260001e981c9","64e50d273756e3a4120209f6","","","","","2604",""," ","key"," ","6.944540106951954","500","250","br","-16","1","1","10","-24","-21","254"
"","psychophysics","186","844422","0.0-186.0","5b33034d975e260001e981c9","64e50d273756e3a4120209f6","","","","","3211",""," ","key"," ","6.944757575757582","500","250","br","-16","1","1","-5","7","-21","272"
"","psychophysics","187","848086","0.0-187.0","5b33034d975e260001e981c9","64e50d273756e3a4120209f6","","","","","3651",""," ","key"," ","6.944772296015215","500","250","br","-9","1","1","9","9","13","265"
"","psychophysics","188","851846","0.0-188.0","5b33034d975e260001e981c9","64e50d273756e3a4120209f6","","","","","3753",""," ","key"," ","6.9447981481481325","500","250","br","-7","1","1","-10","-2","-29","211"
"","psychophysics","189","855782","0.0-189.0","5b33034d975e260001e981c9","64e50d273756e3a4120209f6","","","","","3930",""," ","key"," ","6.944805653710263","500","250","br","-7","1","1","18","14","-13","260"
"","psychophysics","190","860086","0.0-190.0","5b33034d975e260001e981c9","64e50d273756e3a4120209f6","","","","","4298",""," ","key"," ","6.944714054927194","500","250","br","-7","1","1","-5","-11","-10","274"
"","psychophysics","191","864430","0.0-191.0","5b33034d975e260001e981c9","64e50d273756e3a4120209f6","","","","","4339",""," ","key"," ","6.944754807692311","500","250","br","-6","1","1","22","-2","16","209"
"","psychophysics","192","869383","0.0-192.0","5b33034d975e260001e981c9","64e50d273756e3a4120209f6","","","","","4947",""," ","key"," ","6.944531556802246","500","250","br","-9","1","1","-8","-8","-22","259"
"","psychophysics","193","873407","0.0-193.0","5b33034d975e260001e981c9","64e50d273756e3a4120209f6","","","","","4020",""," ","key"," ","6.944280276816599","500","250","br","-5","1","1","-15","-11","20","276"
"","psychophysics","194","877086","0.0-194.0","5b33034d975e260001e981c9","64e50d273756e3a4120209f6","","","","","3675",""," ","key"," ","6.944432892249492","500","250","br","-11","1","1","23","25","-24","299"
"","psychophysics","195","880294","0.0-195.0","5b33034d975e260001e981c9","64e50d273756e3a4120209f6","","","","","3205",""," ","key"," ","6.944455531453552","500","250","br","-11","1","1","8","11","16","287"
"","psychophysics","196","882310","0.0-196.0","5b33034d975e260001e981c9","64e50d273756e3a4120209f6","","","","","2010",""," ","key"," ","6.945072664360026","500","250","br","-10","1","1","5","-23","-2","225"
"","psychophysics","197","887766","0.0-197.0","5b33034d975e260001e981c9","64e50d273756e3a4120209f6","","","","","5450",""," ","key"," ","6.9446458598726375","500","250","br","-9","1","1","-17","24","-21","214"
"","psychophysics","198","891686","0.0-198.0","5b33034d975e260001e981c9","64e50d273756e3a4120209f6","","","","","3918",""," ","key"," ","6.9445293072824485","500","250","br","-9","1","1","-21","-6","-19","287"
"","psychophysics","199","894782","0.0-199.0","5b33034d975e260001e981c9","64e50d273756e3a4120209f6","","","","","3092",""," ","key"," ","6.944871910112345","500","250","br","-11","1","1","-20","-21","-10","284"
"","psychophysics","200","895510","0.0-200.0","5b33034d975e260001e981c9","64e50d273756e3a4120209f6","","","","","724",""," ","key"," ","6.945230769230805","500","250","inst","","","","","","",""
"","psychophysics","201","899462","0.0-201.0","5b33034d975e260001e981c9","64e50d273756e3a4120209f6","","","","","3947",""," ","key"," ","6.9445774647887655","500","250","instPog0","160","1","","0","0","190","160"
"","psychophysics","202","903798","0.0-202.0","5b33034d975e260001e981c9","64e50d273756e3a4120209f6","","","","","4331",""," ","key"," ","6.944690208667762","500","250","instPog1","166","1","","0","0","190","160"
"","psychophysics","203","911398","0.0-203.0","5b33034d975e260001e981c9","64e50d273756e3a4120209f6","","","","","7595",""," ","key"," ","6.944617915904947","500","250","instPog2","168","1","","0","0","160","160"
"","psychophysics","204","911894","0.0-204.0","5b33034d975e260001e981c9","64e50d273756e3a4120209f6","","","","","494",""," ","key"," ","6.944071428570896","500","250","inst","","","","","","",""
"","psychophysics","205","918566","0.0-205.0","5b33034d975e260001e981c9","64e50d273756e3a4120209f6","","","","","6667",""," ","key"," ","6.9445999999999914","500","250","pog","139","1","1","0","0","117","125"
"","psychophysics","206","925599","0.0-206.0","5b33034d975e260001e981c9","64e50d273756e3a4120209f6","","","","","7027",""," ","key"," ","6.9446432806324605","500","250","pog","160","1","1","0","0","216","143"
"","psychophysics","207","931758","0.0-207.0","5b33034d975e260001e981c9","64e50d273756e3a4120209f6","","","","","6156",""," ","key"," ","6.944469525959421","500","250","pog","154","1","1","0","0","136","144"
"","psychophysics","208","935526","0.0-208.0","5b33034d975e260001e981c9","64e50d273756e3a4120209f6","","","","","3765",""," ","key"," ","6.9447338262477345","500","250","pog","144","1","1","0","0","216","130"
"","psychophysics","209","938990","0.0-209.0","5b33034d975e260001e981c9","64e50d273756e3a4120209f6","","","","","3459",""," ","key"," ","6.944911646586329","500","250","pog","135","1","1","0","0","191","122"
"","psychophysics","210","943030","0.0-210.0","5b33034d975e260001e981c9","64e50d273756e3a4120209f6","","","","","4035",""," ","key"," ","6.944760757314904","500","250","pog","222","1","1","0","0","150","200"
"","psychophysics","211","947478","0.0-211.0","5b33034d975e260001e981c9","64e50d273756e3a4120209f6","","","","","4444",""," ","key"," ","6.944721439749648","500","250","pog","191","1","1","0","0","191","175"
"","psychophysics","212","952398","0.0-212.0","5b33034d975e260001e981c9","64e50d273756e3a4120209f6","","","","","4915",""," ","key"," ","6.944384180791058","500","250","pog","211","1","1","0","0","203","195"
"","psychophysics","213","956134","0.0-213.0","5b33034d975e260001e981c9","64e50d273756e3a4120209f6","","","","","3732",""," ","key"," ","6.944823091247663","500","250","pog","171","1","1","0","0","139","154"
"","psychophysics","214","961366","0.0-214.0","5b33034d975e260001e981c9","64e50d273756e3a4120209f6","","","","","5229",""," ","key"," ","6.944655585106452","500","250","pog","206","1","1","0","0","158","191"
"","psychophysics","215","963742","0.0-215.0","5b33034d975e260001e981c9","64e50d273756e3a4120209f6","","","","","2371",""," ","key"," ","6.944436950146841","500","250","pog","162","1","1","0","0","162","146"
"","psychophysics","216","969190","0.0-216.0","5b33034d975e260001e981c9","64e50d273756e3a4120209f6","","","","","5443",""," ","key"," ","6.944591836734765","500","250","pog","179","1","1","0","0","199","161"
"","psychophysics","217","976494","0.0-217.0","5b33034d975e260001e981c9","64e50d273756e3a4120209f6","","","","","7301",""," ","key"," ","6.944597526165554","500","250","pog","215","1","1","0","0","119","199"
"","psychophysics","218","979214","0.0-218.0","5b33034d975e260001e981c9","64e50d273756e3a4120209f6","","","","","2717",""," ","key"," ","6.944884615384628","500","250","pog","181","1","1","0","0","177","173"
"","psychophysics","219","986542","0.0-219.0","5b33034d975e260001e981c9","64e50d273756e3a4120209f6","","","","","7323",""," ","key"," ","6.944494786729895","500","250","pog","135","1","1","0","0","105","124"
