"success","trial_type","trial_index","time_elapsed","internal_node_id","pid","sid","timeout","failed_images","failed_audio","failed_video","rt","stimulus","response","response_type","key_press","avg_frame_time","center_x","center_y","task","resp","version","block","start","jitterX","jitterY","parA"
"true","fullscreen","0","3954","0.0-0.0","60fcd151a24a2b0184325008","64e50edab29c6a944d299bf6","","","","","","","","","","","","","","","","","","","",""
"true","preload","1","4145","0.0-1.0","60fcd151a24a2b0184325008","64e50edab29c6a944d299bf6","false","[]","[]","[]","","","","","","","","","","","","","","","",""
"","html-button-response","2","8796","0.0-2.0","60fcd151a24a2b0184325008","64e50edab29c6a944d299bf6","","","","","4650","Please Make Sure Your Audio Is On.","0","","","","","","","","","","","","",""
"","psychophysics","3","12644","0.0-3.0","60fcd151a24a2b0184325008","64e50edab29c6a944d299bf6","","","","","3843",""," ","key"," ","16.680626086956522","960","250","","","","","","","",""
"","psychophysics","4","16099","0.0-4.0","60fcd151a24a2b0184325008","64e50edab29c6a944d299bf6","","","","","3452",""," ","key"," ","16.680456310679617","500","250","inst","","","","","","",""
"","psychophysics","5","21092","0.0-5.0","60fcd151a24a2b0184325008","64e50edab29c6a944d299bf6","","","","","4991",""," ","key"," ","16.680471571906363","500","250","sample0","","","","","","",""
"","psychophysics","6","23980","0.0-6.0","60fcd151a24a2b0184325008","64e50edab29c6a944d299bf6","","","","","2886",""," ","key"," ","16.680430232558138","500","250","sample1","","","","","","",""
"","psychophysics","7","32667","0.0-7.0","60fcd151a24a2b0184325008","64e50edab29c6a944d299bf6","","","","","8687",""," ","key"," ","16.680475","500","250","sample2","110","","","","","",""
"","psychophysics","8","36420","0.0-8.0","60fcd151a24a2b0184325008","64e50edab29c6a944d299bf6","","","","","3751",""," ","key"," ","16.680486607142875","500","250","sample3","88","","","","","",""
"","psychophysics","9","44308","0.0-9.0","60fcd151a24a2b0184325008","64e50edab29c6a944d299bf6","","","","","7885",""," ","key"," ","16.680430997876858","500","250","sample4","102","","","","","",""
"","psychophysics","10","49143","0.0-10.0","60fcd151a24a2b0184325008","64e50edab29c6a944d299bf6","","","","","4830",""," ","key"," ","16.680557093425595","500","250","sample5","","","","","","",""
"","psychophysics","11","56775","0.0-11.0","60fcd151a24a2b0184325008","64e50edab29c6a944d299bf6","","","","","7629",""," ","key"," ","16.68045295404815","500","250","sample6","502","","","","","",""
"","psychophysics","12","64400","0.0-12.0","60fcd151a24a2b0184325008","64e50edab29c6a944d299bf6","","","","","7624",""," ","key"," ","16.6804692982456","500","250","inst","","","","","","",""
"","psychophysics","13","68911","0.0-13.0","60fcd151a24a2b0184325008","64e50edab29c6a944d299bf6","","","","","4509",""," ","key"," ","16.680464684014918","500","250","inst","","","","","","",""
"","psychophysics","14","73071","0.0-14.0","60fcd151a24a2b0184325008","64e50edab29c6a944d299bf6","","","","","4159",""," ","key"," ","16.680373493975907","500","250","inst","","","","","","",""
"","psychophysics","15","74992","0.0-15.0","60fcd151a24a2b0184325008","64e50edab29c6a944d299bf6","","","","","1920",""," ","key"," ","16.6805087719299","500","250","inst","","","","","","",""
"","psychophysics","16","77303","0.0-16.0","60fcd151a24a2b0184325008","64e50edab29c6a944d299bf6","","","","","2310",""," ","key"," ","16.680708029197064","500","250","inst","","","","","","",""
"","psychophysics","17","84119","0.0-17.0","60fcd151a24a2b0184325008","64e50edab29c6a944d299bf6","","","","","6811",""," ","key"," ","16.680438725490177","500","250","instEB0","42","1","","40","0","0","40"
"","psychophysics","18","89264","0.0-18.0","60fcd151a24a2b0184325008","64e50edab29c6a944d299bf6","","","","","5143",""," ","key"," ","16.680488599348546","500","250","instEB1","30","1","","40","0","0","30"
"","psychophysics","19","95727","0.0-19.0","60fcd151a24a2b0184325008","64e50edab29c6a944d299bf6","","","","","6461",""," ","key"," ","16.68050387596898","500","250","instEB2","36","1","","30","0","0","40"
"","psychophysics","20","105648","0.0-20.0","60fcd151a24a2b0184325008","64e50edab29c6a944d299bf6","","","","","9919",""," ","key"," ","16.708632377740297","500","250","instEB3","39","1","","27","0","0","45"
"","psychophysics","21","114386","0.0-21.0","60fcd151a24a2b0184325008","64e50edab29c6a944d299bf6","","","","","8734",""," ","key"," ","16.68052298850576","500","250","instEB4","26","1","","40","0","0","30"
"","psychophysics","22","118954","0.0-22.0","60fcd151a24a2b0184325008","64e50edab29c6a944d299bf6","","","","","4567",""," ","key"," ","16.68046886446885","500","250","inst","","","","","","",""
"","psychophysics","23","126107","0.0-23.0","60fcd151a24a2b0184325008","64e50edab29c6a944d299bf6","","","","","7148",""," ","key"," ","16.680481308411213","500","250","eb","28","1","","27","0","0","35"
"","psychophysics","24","131923","0.0-24.0","60fcd151a24a2b0184325008","64e50edab29c6a944d299bf6","","","","","5815",""," ","key"," ","16.680540229885082","500","250","eb","34","1","","46","0","0","44"
"","psychophysics","25","137554","0.0-25.0","60fcd151a24a2b0184325008","64e50edab29c6a944d299bf6","","","","","5630",""," ","key"," ","16.68043750000002","500","250","eb","44","1","","47","0","0","52"
"","psychophysics","26","144283","0.0-26.0","60fcd151a24a2b0184325008","64e50edab29c6a944d299bf6","","","","","6727",""," ","key"," ","16.680543424317595","500","250","eb","32","1","","48","0","0","35"
"","psychophysics","27","147683","0.0-27.0","60fcd151a24a2b0184325008","64e50edab29c6a944d299bf6","","","","","3399",""," ","key"," ","16.680455445544506","500","250","eb","33","1","","38","0","0","39"
"","psychophysics","28","153811","0.0-28.0","60fcd151a24a2b0184325008","64e50edab29c6a944d299bf6","","","","","6127",""," ","key"," ","16.680495912806535","500","250","eb","33","1","","53","0","0","39"
"","psychophysics","29","157204","0.0-29.0","60fcd151a24a2b0184325008","64e50edab29c6a944d299bf6","","","","","3390",""," ","key"," ","16.680470297029785","500","250","eb","24","1","","24","0","0","26"
"","psychophysics","30","162795","0.0-30.0","60fcd151a24a2b0184325008","64e50edab29c6a944d299bf6","","","","","5588",""," ","key"," ","16.680511976047896","500","250","eb","34","1","","31","0","0","43"
"","psychophysics","31","170078","0.0-31.0","60fcd151a24a2b0184325008","64e50edab29c6a944d299bf6","","","","","7278",""," ","key"," ","16.680470183486232","500","250","eb","34","1","","49","0","0","40"
"","psychophysics","32","175552","0.0-32.0","60fcd151a24a2b0184325008","64e50edab29c6a944d299bf6","","","","","5472",""," ","key"," ","16.680425076452543","500","250","eb","35","1","","47","0","0","40"
"","psychophysics","33","183095","0.0-33.0","60fcd151a24a2b0184325008","64e50edab29c6a944d299bf6","","","","","7541",""," ","key"," ","16.680518847006628","500","250","eb","30","1","","44","0","0","34"
"","psychophysics","34","191097","0.0-34.0","60fcd151a24a2b0184325008","64e50edab29c6a944d299bf6","","","","","null","","null","key","null","16.680478079331927","500","250","eb","28","1","","52","0","0","29"
"","psychophysics","35","196375","0.0-35.0","60fcd151a24a2b0184325008","64e50edab29c6a944d299bf6","","","","","5276",""," ","key"," ","16.680507936507894","500","250","eb","25","1","","52","0","0","29"
"","psychophysics","36","198679","0.0-36.0","60fcd151a24a2b0184325008","64e50edab29c6a944d299bf6","","","","","2303",""," ","key"," ","16.68056521739134","500","250","eb","24","1","","24","0","0","30"
"","psychophysics","37","203207","0.0-37.0","60fcd151a24a2b0184325008","64e50edab29c6a944d299bf6","","","","","4526",""," ","key"," ","16.680518518518483","500","250","eb","34","1","","49","0","0","45"
"","psychophysics","38","205287","0.0-38.0","60fcd151a24a2b0184325008","64e50edab29c6a944d299bf6","","","","","2079",""," ","key"," ","16.680443548387096","500","250","inst","","","","","","",""
"","psychophysics","39","209088","0.0-39.0","60fcd151a24a2b0184325008","64e50edab29c6a944d299bf6","","","","","3800",""," ","key"," ","16.680647577092564","500","250","instZol0","0","","","0","0","0",""
"","psychophysics","40","221727","0.0-40.0","60fcd151a24a2b0184325008","64e50edab29c6a944d299bf6","","","","","12637",""," ","key"," ","16.68051190476191","500","250","instZol1","0.19999999999999982","","","-1.3","0","0",""
"","psychophysics","41","230434","0.0-41.0","60fcd151a24a2b0184325008","64e50edab29c6a944d299bf6","","","","","8699",""," ","key"," ","16.68050863723611","500","250","instZol2","1.400000000000001","1","","2","0","0",""
"","psychophysics","42","232585","0.0-42.0","60fcd151a24a2b0184325008","64e50edab29c6a944d299bf6","","","","","2151",""," ","key"," ","16.680320312500044","500","250","inst","","","","","","",""
"","psychophysics","43","238482","0.0-43.0","60fcd151a24a2b0184325008","64e50edab29c6a944d299bf6","","","","","5894",""," ","key"," ","16.680495750708204","500","250","zol","1.3400000000000003","1","0","-0.04","-17","18",""
"","psychophysics","44","246483","0.0-44.0","60fcd151a24a2b0184325008","64e50edab29c6a944d299bf6","","","","","null","","null","key","null","16.680479079497907","500","250","zol","0.8699999999999999","1","0","0.23","2","5",""
"","psychophysics","45","246506","0.0-45.0","60fcd151a24a2b0184325008","64e50edab29c6a944d299bf6","","","","","21",""," ","key"," ","16.671000000002095","500","250","zol","-0.34","1","0","0.34","-26","28",""
"","psychophysics","46","250914","0.0-46.0","60fcd151a24a2b0184325008","64e50edab29c6a944d299bf6","","","","","4406",""," ","key"," ","16.68052091254758","500","250","zol","0.8599999999999999","1","0","0.34","16","-19",""
"","psychophysics","47","255922","0.0-47.0","60fcd151a24a2b0184325008","64e50edab29c6a944d299bf6","","","","","5006",""," ","key"," ","16.680511705685614","500","250","zol","0.63","1","0","-0.13","30","-19",""
"","psychophysics","48","259474","0.0-48.0","60fcd151a24a2b0184325008","64e50edab29c6a944d299bf6","","","","","3550",""," ","key"," ","16.68046226415095","500","250","zol","1.17","1","0","0.23","8","21",""
"","psychophysics","49","263362","0.0-49.0","60fcd151a24a2b0184325008","64e50edab29c6a944d299bf6","","","","","3887",""," ","key"," ","16.680461206896545","500","250","zol","1.2100000000000002","1","0","-0.61","-30","-27",""
"","psychophysics","50","266770","0.0-50.0","60fcd151a24a2b0184325008","64e50edab29c6a944d299bf6","","","","","3406",""," ","key"," ","16.68049753694583","500","250","zol","0.84","1","0","0.46","9","-21",""
"","psychophysics","51","270858","0.0-51.0","60fcd151a24a2b0184325008","64e50edab29c6a944d299bf6","","","","","4086",""," ","key"," ","16.680595918367285","500","250","zol","1.03","1","0","-0.33","19","5",""
"","psychophysics","52","274195","0.0-52.0","60fcd151a24a2b0184325008","64e50edab29c6a944d299bf6","","","","","3335",""," ","key"," ","16.680547738693488","500","250","zol","1.6200000000000006","1","0","-0.62","12","-27",""
"","psychophysics","53","278884","0.0-53.0","60fcd151a24a2b0184325008","64e50edab29c6a944d299bf6","","","","","4685",""," ","key"," ","16.68056071428582","500","250","zol","0.9699999999999999","1","0","0.53","24","15",""
"","psychophysics","54","282906","0.0-54.0","60fcd151a24a2b0184325008","64e50edab29c6a944d299bf6","","","","","4019",""," ","key"," ","16.68041666666686","500","250","zol","1.7600000000000007","1","0","-0.56","30","0",""
"","psychophysics","55","286339","0.0-55.0","60fcd151a24a2b0184325008","64e50edab29c6a944d299bf6","","","","","3431",""," ","key"," ","16.680541463414627","500","250","zol","1.12","1","0","0.58","9","-17",""
"","psychophysics","56","289614","0.0-56.0","60fcd151a24a2b0184325008","64e50edab29c6a944d299bf6","","","","","3269",""," ","key"," ","16.680538461538248","500","250","zol","1.6100000000000005","1","0","-0.11","-14","-2",""
"","psychophysics","57","293262","0.0-57.0","60fcd151a24a2b0184325008","64e50edab29c6a944d299bf6","","","","","3645",""," ","key"," ","16.68057603686635","500","250","zol","1.7800000000000005","1","0","-0.18","5","-7",""
"","psychophysics","58","294974","0.0-58.0","60fcd151a24a2b0184325008","64e50edab29c6a944d299bf6","","","","","1710",""," ","key"," ","16.681107843137237","500","250","inst","","","","","","",""
"","psychophysics","59","297206","0.0-59.0","60fcd151a24a2b0184325008","64e50edab29c6a944d299bf6","","","","","2231",""," ","key"," ","16.680000000000017","500","250","instBr0","0","","","0","0","0","300"
"","psychophysics","60","302222","0.0-60.0","60fcd151a24a2b0184325008","64e50edab29c6a944d299bf6","","","","","5014",""," ","key"," ","16.680539999999844","500","250","instBr1","3","","","-40","0","0","300"
"","psychophysics","61","306238","0.0-61.0","60fcd151a24a2b0184325008","64e50edab29c6a944d299bf6","","","","","4014",""," ","key"," ","16.680460251046046","500","250","instBr3","5","1","","40","0","0","300"
"","psychophysics","62","307430","0.0-62.0","60fcd151a24a2b0184325008","64e50edab29c6a944d299bf6","","","","","1189",""," ","key"," ","16.680507042253403","500","250","inst","","","","","","",""
"","psychophysics","63","311078","0.0-63.0","60fcd151a24a2b0184325008","64e50edab29c6a944d299bf6","","","","","3647",""," ","key"," ","16.680495412844028","500","250","br","-1","1","0","14","-10","5","235"
"","psychophysics","64","314982","0.0-64.0","60fcd151a24a2b0184325008","64e50edab29c6a944d299bf6","","","","","3902",""," ","key"," ","16.680326180257524","500","250","br","-2","1","0","10","5","8","290"
"","psychophysics","65","317694","0.0-65.0","60fcd151a24a2b0184325008","64e50edab29c6a944d299bf6","","","","","2708",""," ","key"," ","16.680465838509274","500","250","br","-13","1","0","-16","-30","-14","242"
"","psychophysics","66","320806","0.0-66.0","60fcd151a24a2b0184325008","64e50edab29c6a944d299bf6","","","","","3110",""," ","key"," ","16.68056989247286","500","250","br","1","1","0","20","-18","-29","219"
"","psychophysics","67","323951","0.0-67.0","60fcd151a24a2b0184325008","64e50edab29c6a944d299bf6","","","","","3144",""," ","key"," ","16.680475935828934","500","250","br","-7","1","0","9","29","-11","284"
"","psychophysics","68","326470","0.0-68.0","60fcd151a24a2b0184325008","64e50edab29c6a944d299bf6","","","","","2515",""," ","key"," ","16.680313333333082","500","250","br","10","1","0","25","-13","-28","298"
"","psychophysics","69","329974","0.0-69.0","60fcd151a24a2b0184325008","64e50edab29c6a944d299bf6","","","","","3503",""," ","key"," ","16.680502392344387","500","250","br","1","1","0","15","-28","28","212"
"","psychophysics","70","333126","0.0-70.0","60fcd151a24a2b0184325008","64e50edab29c6a944d299bf6","","","","","3150",""," ","key"," ","16.680521276595872","500","250","br","-5","1","0","20","20","-28","253"
"","psychophysics","71","335382","0.0-71.0","60fcd151a24a2b0184325008","64e50edab29c6a944d299bf6","","","","","2255",""," ","key"," ","16.68057777777754","500","250","br","-4","1","0","9","22","-25","287"
"","psychophysics","72","336766","0.0-72.0","60fcd151a24a2b0184325008","64e50edab29c6a944d299bf6","","","","","1383",""," ","key"," ","16.680451219511735","500","250","br","3","1","0","3","4","-26","297"
"","psychophysics","73","339855","0.0-73.0","60fcd151a24a2b0184325008","64e50edab29c6a944d299bf6","","","","","3088",""," ","key"," ","16.68055434782582","500","250","br","-6","1","0","5","12","-24","279"
"","psychophysics","74","342246","0.0-74.0","60fcd151a24a2b0184325008","64e50edab29c6a944d299bf6","","","","","2390",""," ","key"," ","16.68040140845049","500","250","br","11","1","0","29","27","5","280"
"","psychophysics","75","344790","0.0-75.0","60fcd151a24a2b0184325008","64e50edab29c6a944d299bf6","","","","","2543",""," ","key"," ","16.6803815789474","500","250","br","-15","1","0","-22","21","29","204"
"","psychophysics","76","347832","0.0-76.0","60fcd151a24a2b0184325008","64e50edab29c6a944d299bf6","","","","","3039",""," ","key"," ","16.68050828729261","500","250","br","-11","1","0","-21","26","-9","225"
"","psychophysics","77","350880","0.0-77.0","60fcd151a24a2b0184325008","64e50edab29c6a944d299bf6","","","","","3047",""," ","key"," ","16.68045604395601","500","250","br","-5","1","0","30","18","-26","243"
"","psychophysics","78","361968","0.0-78.0","60fcd151a24a2b0184325008","64e50edab29c6a944d299bf6","","","","","11088",""," ","key"," ","16.680526395173384","500","250","inst","","","","","","",""
"","psychophysics","79","364145","0.0-79.0","60fcd151a24a2b0184325008","64e50edab29c6a944d299bf6","","","","","2176",""," ","key"," ","16.68048461538453","500","250","instPzPre","50","0","","50","","","50"
"","psychophysics","80","373608","0.0-80.0","60fcd151a24a2b0184325008","64e50edab29c6a944d299bf6","","","","","9461",""," ","key"," ","16.68050706713784","500","250","instPz0","35","1","","50","","","50"
"","psychophysics","81","382329","0.0-81.0","60fcd151a24a2b0184325008","64e50edab29c6a944d299bf6","","","","","8719",""," ","key"," ","16.6805421455939","500","250","instPz1","54","1","","25","","","50"
"","psychophysics","82","389106","0.0-82.0","60fcd151a24a2b0184325008","64e50edab29c6a944d299bf6","","","","","6776",""," ","key"," ","16.680516049382707","500","250","instPz2","22","1","","35","","","20"
"","psychophysics","83","403089","0.0-83.0","60fcd151a24a2b0184325008","64e50edab29c6a944d299bf6","","","","","13979",""," ","key"," ","16.680490453460607","500","250","instPz3","47","1","","100","","","30"
"","psychophysics","84","413588","0.0-84.0","60fcd151a24a2b0184325008","64e50edab29c6a944d299bf6","","","","","10495",""," ","key"," ","16.68049044585987","500","250","instPz4","42","1","","100","","","30"
"","psychophysics","85","415532","0.0-85.0","60fcd151a24a2b0184325008","64e50edab29c6a944d299bf6","","","","","1943",""," ","key"," ","16.680486956521687","500","250","inst","","","","","","",""
"","psychophysics","86","423533","0.0-86.0","60fcd151a24a2b0184325008","64e50edab29c6a944d299bf6","","","","","null","","null","key","null","16.680509394572102","500","250","pz","61","1","0","35","","","45"
"","psychophysics","87","427340","0.0-87.0","60fcd151a24a2b0184325008","64e50edab29c6a944d299bf6","","","","","3805",""," ","key"," ","16.68050220264337","500","250","pz","66","1","0","37","","","50"
"","psychophysics","88","430044","0.0-88.0","60fcd151a24a2b0184325008","64e50edab29c6a944d299bf6","","","","","2703",""," ","key"," ","16.680378881987743","500","250","pz","52","1","0","48","","","47"
"","psychophysics","89","432517","0.0-89.0","60fcd151a24a2b0184325008","64e50edab29c6a944d299bf6","","","","","2470",""," ","key"," ","16.68062837837843","500","250","pz","57","1","0","47","","","57"
"","psychophysics","90","434532","0.0-90.0","60fcd151a24a2b0184325008","64e50edab29c6a944d299bf6","","","","","2014",""," ","key"," ","16.680596638655782","500","250","pz","59","1","0","59","","","40"
"","psychophysics","91","437140","0.0-91.0","60fcd151a24a2b0184325008","64e50edab29c6a944d299bf6","","","","","2605",""," ","key"," ","16.680974358974474","500","250","pz","33","1","0","33","","","23"
"","psychophysics","92","439156","0.0-92.0","60fcd151a24a2b0184325008","64e50edab29c6a944d299bf6","","","","","2016",""," ","key"," ","16.68037499999967","500","250","pz","56","1","0","50","","","45"
"","psychophysics","93","442196","0.0-93.0","60fcd151a24a2b0184325008","64e50edab29c6a944d299bf6","","","","","3038",""," ","key"," ","16.680491712707152","500","250","pz","47","1","0","33","","","38"
"","psychophysics","94","444556","0.0-94.0","60fcd151a24a2b0184325008","64e50edab29c6a944d299bf6","","","","","2359",""," ","key"," ","16.680578571428278","500","250","pz","66","1","0","41","","","51"
"","psychophysics","95","446988","0.0-95.0","60fcd151a24a2b0184325008","64e50edab29c6a944d299bf6","","","","","2431",""," ","key"," ","16.680537931034582","500","250","pz","44","1","0","58","","","26"
"","psychophysics","96","449477","0.0-96.0","60fcd151a24a2b0184325008","64e50edab29c6a944d299bf6","","","","","2488",""," ","key"," ","16.68074999999993","500","250","pz","42","1","0","53","","","20"
"","psychophysics","97","452172","0.0-97.0","60fcd151a24a2b0184325008","64e50edab29c6a944d299bf6","","","","","2693",""," ","key"," ","16.68047826086939","500","250","pz","55","1","0","41","","","40"
"","psychophysics","98","455100","0.0-98.0","60fcd151a24a2b0184325008","64e50edab29c6a944d299bf6","","","","","2927",""," ","key"," ","16.680545977011707","500","250","pz","62","1","0","26","","","58"
"","psychophysics","99","458213","0.0-99.0","60fcd151a24a2b0184325008","64e50edab29c6a944d299bf6","","","","","3110",""," ","key"," ","16.680478494623753","500","250","pz","70","1","0","36","","","57"
"","psychophysics","100","460925","0.0-100.0","60fcd151a24a2b0184325008","64e50edab29c6a944d299bf6","","","","","2711",""," ","key"," ","16.6802592592592","500","250","pz","58","1","0","45","","","50"
"","psychophysics","101","462149","0.0-101.0","60fcd151a24a2b0184325008","64e50edab29c6a944d299bf6","","","","","1223",""," ","key"," ","16.680527777777268","500","250","inst","","","","","","",""
"","psychophysics","102","496120","0.0-102.0","60fcd151a24a2b0184325008","64e50edab29c6a944d299bf6","","","","","33968",""," ","key"," ","16.68051473477406","500","250","instPog0","160","1","","190","0","0","160"
"","psychophysics","103","500591","0.0-103.0","60fcd151a24a2b0184325008","64e50edab29c6a944d299bf6","","","","","4469",""," ","key"," ","16.68041573033698","500","250","instPog1","174","1","","190","0","0","160"
"","psychophysics","104","506401","0.0-104.0","60fcd151a24a2b0184325008","64e50edab29c6a944d299bf6","","","","","5809",""," ","key"," ","16.680495677233548","500","250","instPog2","178","1","","160","0","0","160"
"","psychophysics","105","507599","0.0-105.0","60fcd151a24a2b0184325008","64e50edab29c6a944d299bf6","","","","","1198",""," ","key"," ","16.68039436619745","500","250","inst","","","","","","",""
"","psychophysics","106","511904","0.0-106.0","60fcd151a24a2b0184325008","64e50edab29c6a944d299bf6","","","","","4304",""," ","key"," ","16.68055642023343","500","250","pog","170","1","0","210","0","0","140"
"","psychophysics","107","515031","0.0-107.0","60fcd151a24a2b0184325008","64e50edab29c6a944d299bf6","","","","","3125",""," ","key"," ","16.680543010752718","500","250","pog","183","1","0","205","0","0","154"
"","psychophysics","108","516607","0.0-108.0","60fcd151a24a2b0184325008","64e50edab29c6a944d299bf6","","","","","1576",""," ","key"," ","16.68036170212733","500","250","pog","175","1","0","175","0","0","144"
"","psychophysics","109","519967","0.0-109.0","60fcd151a24a2b0184325008","64e50edab29c6a944d299bf6","","","","","3359",""," ","key"," ","16.680295000000044","500","250","pog","158","1","0","122","0","0","132"
"","psychophysics","110","525216","0.0-110.0","60fcd151a24a2b0184325008","64e50edab29c6a944d299bf6","","","","","5248",""," ","key"," ","16.680487261146343","500","250","pog","205","1","0","143","0","0","186"
"","psychophysics","111","528610","0.0-111.0","60fcd151a24a2b0184325008","64e50edab29c6a944d299bf6","","","","","3390",""," ","key"," ","16.68038613861369","500","250","pog","195","1","0","165","0","0","177"
"","psychophysics","112","532137","0.0-112.0","60fcd151a24a2b0184325008","64e50edab29c6a944d299bf6","","","","","3526",""," ","key"," ","16.680502369668297","500","250","pog","184","1","0","132","0","0","160"
"","psychophysics","113","535801","0.0-113.0","60fcd151a24a2b0184325008","64e50edab29c6a944d299bf6","","","","","3663",""," ","key"," ","16.680344036697527","500","250","pog","206","1","0","154","0","0","181"
"","psychophysics","114","538489","0.0-114.0","60fcd151a24a2b0184325008","64e50edab29c6a944d299bf6","","","","","2687",""," ","key"," ","16.680518749999464","500","250","pog","194","1","0","166","0","0","177"
"","psychophysics","115","541618","0.0-115.0","60fcd151a24a2b0184325008","64e50edab29c6a944d299bf6","","","","","3127",""," ","key"," ","16.680593582887433","500","250","pog","209","1","0","125","0","0","191"
"","psychophysics","116","545194","0.0-116.0","60fcd151a24a2b0184325008","64e50edab29c6a944d299bf6","","","","","3575",""," ","key"," ","16.680516431924666","500","250","pog","163","1","0","211","0","0","136"
"","psychophysics","117","548610","0.0-117.0","60fcd151a24a2b0184325008","64e50edab29c6a944d299bf6","","","","","3413",""," ","key"," ","16.680465686274808","500","250","pog","180","1","0","142","0","0","162"
"","psychophysics","118","550482","0.0-118.0","60fcd151a24a2b0184325008","64e50edab29c6a944d299bf6","","","","","1871",""," ","key"," ","16.680369369369966","500","250","pog","194","1","0","196","0","0","170"
"","psychophysics","119","554330","0.0-119.0","60fcd151a24a2b0184325008","64e50edab29c6a944d299bf6","","","","","3847",""," ","key"," ","16.680569565217212","500","250","pog","218","1","0","112","0","0","197"
"","psychophysics","120","557826","0.0-120.0","60fcd151a24a2b0184325008","64e50edab29c6a944d299bf6","","","","","3495",""," ","key"," ","16.680502392344387","500","250","pog","181","1","0","159","0","0","161"
"","psychophysics","121","559250","0.0-121.0","60fcd151a24a2b0184325008","64e50edab29c6a944d299bf6","","","","","1423",""," ","key"," ","16.68040476190453","500","250","inst","","","","","","",""
"","psychophysics","122","564026","0.0-122.0","60fcd151a24a2b0184325008","64e50edab29c6a944d299bf6","","","","","4775",""," ","key"," ","16.68053684210519","500","250","instEB1","36","2","","30","0","0","40"
"","psychophysics","123","568954","0.0-123.0","60fcd151a24a2b0184325008","64e50edab29c6a944d299bf6","","","","","4927",""," ","key"," ","16.680461016948872","500","250","instEB2","36","2","","40","0","0","30"
"","psychophysics","124","575370","0.0-124.0","60fcd151a24a2b0184325008","64e50edab29c6a944d299bf6","","","","","6415",""," ","key"," ","16.680524804177708","500","250","instEB3","34","2","","45","0","0","27"
"","psychophysics","125","581202","0.0-125.0","60fcd151a24a2b0184325008","64e50edab29c6a944d299bf6","","","","","5830",""," ","key"," ","16.68051575931232","500","250","instEB4","53","2","","30","0","0","40"
"","psychophysics","126","583147","0.0-126.0","60fcd151a24a2b0184325008","64e50edab29c6a944d299bf6","","","","","1944",""," ","key"," ","16.680431034482197","500","250","inst","","","","","","",""
"","psychophysics","127","586555","0.0-127.0","60fcd151a24a2b0184325008","64e50edab29c6a944d299bf6","","","","","3406",""," ","key"," ","16.680477832512256","500","250","eb","66","2","","42","0","0","54"
"","psychophysics","128","590532","0.0-128.0","60fcd151a24a2b0184325008","64e50edab29c6a944d299bf6","","","","","3974",""," ","key"," ","16.680506329114042","500","250","eb","64","2","","32","0","0","52"
"","psychophysics","129","593533","0.0-129.0","60fcd151a24a2b0184325008","64e50edab29c6a944d299bf6","","","","","3000",""," ","key"," ","16.68040223463696","500","250","eb","30","2","","41","0","0","26"
"","psychophysics","130","596148","0.0-130.0","60fcd151a24a2b0184325008","64e50edab29c6a944d299bf6","","","","","2612",""," ","key"," ","16.68054487179511","500","250","eb","51","2","","44","0","0","41"
"","psychophysics","131","598420","0.0-131.0","60fcd151a24a2b0184325008","64e50edab29c6a944d299bf6","","","","","2271",""," ","key"," ","16.68044444444434","500","250","eb","32","2","","28","0","0","29"
"","psychophysics","132","602021","0.0-132.0","60fcd151a24a2b0184325008","64e50edab29c6a944d299bf6","","","","","3600",""," ","key"," ","16.680339534883927","500","250","eb","53","2","","33","0","0","44"
"","psychophysics","133","604917","0.0-133.0","60fcd151a24a2b0184325008","64e50edab29c6a944d299bf6","","","","","2894",""," ","key"," ","16.680589595375544","500","250","eb","57","2","","49","0","0","47"
"","psychophysics","134","607693","0.0-134.0","60fcd151a24a2b0184325008","64e50edab29c6a944d299bf6","","","","","2774",""," ","key"," ","16.680599999999995","500","250","eb","51","2","","34","0","0","42"
"","psychophysics","135","610036","0.0-135.0","60fcd151a24a2b0184325008","64e50edab29c6a944d299bf6","","","","","2341",""," ","key"," ","16.680257142857382","500","250","eb","52","2","","44","0","0","43"
"","psychophysics","136","612092","0.0-136.0","60fcd151a24a2b0184325008","64e50edab29c6a944d299bf6","","","","","2055",""," ","key"," ","16.680655737705223","500","250","eb","48","2","","43","0","0","47"
"","psychophysics","137","615749","0.0-137.0","60fcd151a24a2b0184325008","64e50edab29c6a944d299bf6","","","","","3655",""," ","key"," ","16.680577981651016","500","250","eb","60","2","","37","0","0","52"
"","psychophysics","138","618526","0.0-138.0","60fcd151a24a2b0184325008","64e50edab29c6a944d299bf6","","","","","2776",""," ","key"," ","16.680445783132694","500","250","eb","43","2","","46","0","0","37"
"","psychophysics","139","622021","0.0-139.0","60fcd151a24a2b0184325008","64e50edab29c6a944d299bf6","","","","","3492",""," ","key"," ","16.680485576922926","500","250","eb","34","2","","25","0","0","30"
"","psychophysics","140","624509","0.0-140.0","60fcd151a24a2b0184325008","64e50edab29c6a944d299bf6","","","","","2487",""," ","key"," ","16.68049999999946","500","250","eb","50","2","","40","0","0","39"
"","psychophysics","141","627853","0.0-141.0","60fcd151a24a2b0184325008","64e50edab29c6a944d299bf6","","","","","3343",""," ","key"," ","16.680349999999745","500","250","eb","41","2","","53","0","0","29"
"","psychophysics","142","629773","0.0-142.0","60fcd151a24a2b0184325008","64e50edab29c6a944d299bf6","","","","","1920",""," ","key"," ","16.680394736841617","500","250","inst","","","","","","",""
"","psychophysics","143","638661","0.0-143.0","60fcd151a24a2b0184325008","64e50edab29c6a944d299bf6","","","","","8886",""," ","key"," ","16.68050375939837","500","250","instZol1","0.2999999999999998","","","-1.3","0","0",""
"","psychophysics","144","647438","0.0-144.0","60fcd151a24a2b0184325008","64e50edab29c6a944d299bf6","","","","","8775",""," ","key"," ","16.68049333333326","500","250","instZol2","-2.1","2","","2","0","0",""
"","psychophysics","145","648726","0.0-145.0","60fcd151a24a2b0184325008","64e50edab29c6a944d299bf6","","","","","1286",""," ","key"," ","16.68053947368447","500","250","inst","","","","","","",""
"","psychophysics","146","653015","0.0-146.0","60fcd151a24a2b0184325008","64e50edab29c6a944d299bf6","","","","","4288",""," ","key"," ","16.680539062499975","500","250","zol","-1.5700000000000003","2","1","0.07","14","-10",""
"","psychophysics","147","657102","0.0-147.0","60fcd151a24a2b0184325008","64e50edab29c6a944d299bf6","","","","","4084",""," ","key"," ","16.680524590163735","500","250","zol","-1.6900000000000004","2","1","-0.01","-29","30",""
"","psychophysics","148","661246","0.0-148.0","60fcd151a24a2b0184325008","64e50edab29c6a944d299bf6","","","","","4143",""," ","key"," ","16.68050403225812","500","250","zol","-1.1700000000000002","2","1","0.67","-30","29",""
"","psychophysics","149","664710","0.0-149.0","60fcd151a24a2b0184325008","64e50edab29c6a944d299bf6","","","","","3462",""," ","key"," ","16.68052427184506","500","250","zol","-2.230000000000001","2","1","0.73","24","-7",""
"","psychophysics","150","667639","0.0-150.0","60fcd151a24a2b0184325008","64e50edab29c6a944d299bf6","","","","","2927",""," ","key"," ","16.680394285714385","500","250","zol","-1.0899999999999999","2","1","0.19","-17","15",""
"","psychophysics","151","671040","0.0-151.0","60fcd151a24a2b0184325008","64e50edab29c6a944d299bf6","","","","","3398",""," ","key"," ","16.680729064039237","500","250","zol","-1.09","2","1","-0.41","0","14",""
"","psychophysics","152","674110","0.0-152.0","60fcd151a24a2b0184325008","64e50edab29c6a944d299bf6","","","","","3068",""," ","key"," ","16.680546448087636","500","250","zol","-0.8499999999999999","2","1","-0.55","21","1",""
"","psychophysics","153","677887","0.0-153.0","60fcd151a24a2b0184325008","64e50edab29c6a944d299bf6","","","","","3775",""," ","key"," ","16.680462222222445","500","250","zol","-1.0899999999999999","2","1","0.19","14","-4",""
"","psychophysics","154","680927","0.0-154.0","60fcd151a24a2b0184325008","64e50edab29c6a944d299bf6","","","","","3039",""," ","key"," ","16.680232044199393","500","250","zol","-1.6900000000000004","2","1","0.69","21","-14",""
"","psychophysics","155","685231","0.0-155.0","60fcd151a24a2b0184325008","64e50edab29c6a944d299bf6","","","","","4302",""," ","key"," ","16.6804202334631","500","250","zol","-1.2","2","1","0.4","-8","-5",""
"","psychophysics","156","688024","0.0-156.0","60fcd151a24a2b0184325008","64e50edab29c6a944d299bf6","","","","","2791",""," ","key"," ","16.680622754490958","500","250","zol","-1.04","2","1","0.44","11","23",""
"","psychophysics","157","691520","0.0-157.0","60fcd151a24a2b0184325008","64e50edab29c6a944d299bf6","","","","","3493",""," ","key"," ","16.680461538461923","500","250","zol","-0.9899999999999999","2","1","-0.11","-20","3",""
"","psychophysics","158","694311","0.0-158.0","60fcd151a24a2b0184325008","64e50edab29c6a944d299bf6","","","","","2785",""," ","key"," ","16.680407185628898","500","250","zol","-1.4800000000000002","2","1","0.38","-30","-21",""
"","psychophysics","159","697863","0.0-159.0","60fcd151a24a2b0184325008","64e50edab29c6a944d299bf6","","","","","3551",""," ","key"," ","16.680466981131897","500","250","zol","-1.0599999999999998","2","1","-0.64","-1","-10",""
"","psychophysics","160","701423","0.0-160.0","60fcd151a24a2b0184325008","64e50edab29c6a944d299bf6","","","","","3559",""," ","key"," ","16.680566037735982","500","250","zol","-1.14","2","1","-0.66","-14","-28",""
"","psychophysics","161","702480","0.0-161.0","60fcd151a24a2b0184325008","64e50edab29c6a944d299bf6","","","","","1056",""," ","key"," ","16.67965079365217","500","250","inst","","","","","","",""
"","psychophysics","162","709593","0.0-162.0","60fcd151a24a2b0184325008","64e50edab29c6a944d299bf6","","","","","7110",""," ","key"," ","16.68062588235281","500","250","instPz1","53","2","","25","","","50"
"","psychophysics","163","715329","0.0-163.0","60fcd151a24a2b0184325008","64e50edab29c6a944d299bf6","","","","","5734",""," ","key"," ","16.680518950437502","500","250","instPz2","34","2","","20","","","35"
"","psychophysics","164","718097","0.0-164.0","60fcd151a24a2b0184325008","64e50edab29c6a944d299bf6","","","","","2767",""," ","key"," ","16.68078181818198","500","250","instPz3","30","2","","30","","","100"
"","psychophysics","165","720361","0.0-165.0","60fcd151a24a2b0184325008","64e50edab29c6a944d299bf6","","","","","2262",""," ","key"," ","16.68082835820917","500","250","instPz4","30","2","","30","","","100"
"","psychophysics","166","721737","0.0-166.0","60fcd151a24a2b0184325008","64e50edab29c6a944d299bf6","","","","","1375",""," ","key"," ","16.680402439023744","500","250","inst","","","","","","",""
"","psychophysics","167","724993","0.0-167.0","60fcd151a24a2b0184325008","64e50edab29c6a944d299bf6","","","","","3254",""," ","key"," ","16.68050515463878","500","250","pz","39","2","1","57","","","46"
"","psychophysics","168","727010","0.0-168.0","60fcd151a24a2b0184325008","64e50edab29c6a944d299bf6","","","","","2016",""," ","key"," ","16.680541666666006","500","250","pz","23","2","1","20","","","33"
"","psychophysics","169","729177","0.0-169.0","60fcd151a24a2b0184325008","64e50edab29c6a944d299bf6","","","","","2166",""," ","key"," ","16.680496124030892","500","250","pz","42","2","1","30","","","59"
"","psychophysics","170","732372","0.0-170.0","60fcd151a24a2b0184325008","64e50edab29c6a944d299bf6","","","","","3194",""," ","key"," ","16.680563157894895","500","250","pz","41","2","1","27","","","58"
"","psychophysics","171","736170","0.0-171.0","60fcd151a24a2b0184325008","64e50edab29c6a944d299bf6","","","","","3794",""," ","key"," ","16.67974008810563","500","250","pz","37","2","1","48","","","48"
"","psychophysics","172","738601","0.0-172.0","60fcd151a24a2b0184325008","64e50edab29c6a944d299bf6","","","","","2429",""," ","key"," ","16.680413793102872","500","250","pz","24","2","1","36","","","25"
"","psychophysics","173","740561","0.0-173.0","60fcd151a24a2b0184325008","64e50edab29c6a944d299bf6","","","","","1959",""," ","key"," ","16.68043965517226","500","250","pz","25","2","1","33","","","34"
"","psychophysics","174","743187","0.0-174.0","60fcd151a24a2b0184325008","64e50edab29c6a944d299bf6","","","","","2624",""," ","key"," ","16.680477707006133","500","250","pz","29","2","1","47","","","37"
"","psychophysics","175","745449","0.0-175.0","60fcd151a24a2b0184325008","64e50edab29c6a944d299bf6","","","","","2260",""," ","key"," ","16.680231343283243","500","250","pz","39","2","1","32","","","48"
"","psychophysics","176","748233","0.0-176.0","60fcd151a24a2b0184325008","64e50edab29c6a944d299bf6","","","","","2782",""," ","key"," ","16.68049999999993","500","250","pz","29","2","1","20","","","39"
"","psychophysics","177","750065","0.0-177.0","60fcd151a24a2b0184325008","64e50edab29c6a944d299bf6","","","","","1831",""," ","key"," ","16.680504587155323","500","250","pz","37","2","1","37","","","42"
"","psychophysics","178","752161","0.0-178.0","60fcd151a24a2b0184325008","64e50edab29c6a944d299bf6","","","","","2095",""," ","key"," ","16.680407999999822","500","250","pz","32","2","1","27","","","44"
"","psychophysics","179","753849","0.0-179.0","60fcd151a24a2b0184325008","64e50edab29c6a944d299bf6","","","","","1687",""," ","key"," ","16.680400000000372","500","250","pz","29","2","1","31","","","35"
"","psychophysics","180","756257","0.0-180.0","60fcd151a24a2b0184325008","64e50edab29c6a944d299bf6","","","","","2407",""," ","key"," ","16.680503496503736","500","250","pz","24","2","1","29","","","21"
"","psychophysics","181","759906","0.0-181.0","60fcd151a24a2b0184325008","64e50edab29c6a944d299bf6","","","","","3648",""," ","key"," ","16.680720183486226","500","250","pz","22","2","1","53","","","20"
"","psychophysics","182","761169","0.0-182.0","60fcd151a24a2b0184325008","64e50edab29c6a944d299bf6","","","","","1263",""," ","key"," ","16.68025333333295","500","250","inst","","","","","","",""
"","psychophysics","183","763841","0.0-183.0","60fcd151a24a2b0184325008","64e50edab29c6a944d299bf6","","","","","2671",""," ","key"," ","16.68043396226423","500","250","instBr3","40","2","","40","0","0","300"
"","psychophysics","184","765257","0.0-184.0","60fcd151a24a2b0184325008","64e50edab29c6a944d299bf6","","","","","1416",""," ","key"," ","16.680333333333866","500","250","inst","","","","","","",""
"","psychophysics","185","768250","0.0-185.0","60fcd151a24a2b0184325008","64e50edab29c6a944d299bf6","","","","","2991",""," ","key"," ","16.68049438202262","500","250","br","21","2","1","12","-2","-19","243"
"","psychophysics","186","770690","0.0-186.0","60fcd151a24a2b0184325008","64e50edab29c6a944d299bf6","","","","","2439",""," ","key"," ","16.68051369863001","500","250","br","18","2","1","-11","9","-8","295"
"","psychophysics","187","772490","0.0-187.0","60fcd151a24a2b0184325008","64e50edab29c6a944d299bf6","","","","","1799",""," ","key"," ","16.680476635513898","500","250","br","19","2","1","28","14","11","228"
"","psychophysics","188","773619","0.0-188.0","60fcd151a24a2b0184325008","64e50edab29c6a944d299bf6","","","","","1127",""," ","key"," ","16.680515151514996","500","250","br","29","2","1","29","-28","4","277"
"","psychophysics","189","775907","0.0-189.0","60fcd151a24a2b0184325008","64e50edab29c6a944d299bf6","","","","","2287",""," ","key"," ","16.68052205882422","500","250","br","10","2","1","-2","13","21","231"
"","psychophysics","190","777635","0.0-190.0","60fcd151a24a2b0184325008","64e50edab29c6a944d299bf6","","","","","1727",""," ","key"," ","16.680417475728003","500","250","br","26","2","1","28","-6","30","282"
"","psychophysics","191","779907","0.0-191.0","60fcd151a24a2b0184325008","64e50edab29c6a944d299bf6","","","","","2271",""," ","key"," ","16.680437037036583","500","250","br","8","2","1","-11","11","2","214"
"","psychophysics","192","783580","0.0-192.0","60fcd151a24a2b0184325008","64e50edab29c6a944d299bf6","","","","","3672",""," ","key"," ","16.68069406392661","500","250","br","8","2","1","-15","2","30","204"
"","psychophysics","193","786467","0.0-193.0","60fcd151a24a2b0184325008","64e50edab29c6a944d299bf6","","","","","2882",""," ","key"," ","16.68043604651182","500","250","br","2","2","1","-29","-29","-5","262"
"","psychophysics","194","788077","0.0-194.0","60fcd151a24a2b0184325008","64e50edab29c6a944d299bf6","","","","","1608",""," ","key"," ","16.680427083333296","500","250","br","11","2","1","5","21","-29","220"
"","psychophysics","195","790099","0.0-195.0","60fcd151a24a2b0184325008","64e50edab29c6a944d299bf6","","","","","2020",""," ","key"," ","16.680125000000892","500","250","br","15","2","1","18","11","-3","217"
"","psychophysics","196","793803","0.0-196.0","60fcd151a24a2b0184325008","64e50edab29c6a944d299bf6","","","","","3702",""," ","key"," ","16.680330316742094","500","250","br","14","2","1","-16","-25","-17","285"
"","psychophysics","197","796091","0.0-197.0","60fcd151a24a2b0184325008","64e50edab29c6a944d299bf6","","","","","2287",""," ","key"," ","16.68041911764714","500","250","br","16","2","1","-6","4","-12","274"
"","psychophysics","198","798939","0.0-198.0","60fcd151a24a2b0184325008","64e50edab29c6a944d299bf6","","","","","2847",""," ","key"," ","16.680494117647108","500","250","br","12","2","1","-14","1","16","261"
"","psychophysics","199","802291","0.0-199.0","60fcd151a24a2b0184325008","64e50edab29c6a944d299bf6","","","","","3351",""," ","key"," ","16.680650000000025","500","250","br","20","2","1","-13","29","11","251"
"","psychophysics","200","803619","0.0-200.0","60fcd151a24a2b0184325008","64e50edab29c6a944d299bf6","","","","","1327",""," ","key"," ","16.680835443037516","500","250","inst","","","","","","",""
"","psychophysics","201","809219","0.0-201.0","60fcd151a24a2b0184325008","64e50edab29c6a944d299bf6","","","","","5599",""," ","key"," ","16.68053892215583","500","250","instPog0","340","2","","370","0","0","340"
"","psychophysics","202","815051","0.0-202.0","60fcd151a24a2b0184325008","64e50edab29c6a944d299bf6","","","","","5830",""," ","key"," ","16.68046704871062","500","250","instPog1","344","2","","370","0","0","340"
"","psychophysics","203","818268","0.0-203.0","60fcd151a24a2b0184325008","64e50edab29c6a944d299bf6","","","","","3216",""," ","key"," ","16.680598958333576","500","250","instPog2","316","2","","340","0","0","340"
"","psychophysics","204","819525","0.0-204.0","60fcd151a24a2b0184325008","64e50edab29c6a944d299bf6","","","","","1255",""," ","key"," ","16.680621621622137","500","250","inst","","","","","","",""
"","psychophysics","205","823531","0.0-205.0","60fcd151a24a2b0184325008","64e50edab29c6a944d299bf6","","","","","4004",""," ","key"," ","16.680569037657218","500","250","pog","313","2","1","357","0","0","336"
"","psychophysics","206","825707","0.0-206.0","60fcd151a24a2b0184325008","64e50edab29c6a944d299bf6","","","","","2175",""," ","key"," ","16.680638461538518","500","250","pog","323","2","1","305","0","0","364"
"","psychophysics","207","829566","0.0-207.0","60fcd151a24a2b0184325008","64e50edab29c6a944d299bf6","","","","","3856",""," ","key"," ","16.680478260869606","500","250","pog","353","2","1","291","0","0","379"
"","psychophysics","208","831669","0.0-208.0","60fcd151a24a2b0184325008","64e50edab29c6a944d299bf6","","","","","2102",""," ","key"," ","16.680408000000753","500","250","pog","352","2","1","364","0","0","363"
"","psychophysics","209","833030","0.0-209.0","60fcd151a24a2b0184325008","64e50edab29c6a944d299bf6","","","","","1359",""," ","key"," ","16.680604938271077","500","250","pog","329","2","1","329","0","0","341"
"","psychophysics","210","836079","0.0-210.0","60fcd151a24a2b0184325008","64e50edab29c6a944d299bf6","","","","","3047",""," ","key"," ","16.68073076923035","500","250","pog","319","2","1","385","0","0","332"
"","psychophysics","211","839870","0.0-211.0","60fcd151a24a2b0184325008","64e50edab29c6a944d299bf6","","","","","3788",""," ","key"," ","16.680464601770055","500","250","pog","343","2","1","299","0","0","354"
"","psychophysics","212","844246","0.0-212.0","60fcd151a24a2b0184325008","64e50edab29c6a944d299bf6","","","","","4375",""," ","key"," ","16.68055938697336","500","250","pog","279","2","1","353","0","0","305"
"","psychophysics","213","846622","0.0-213.0","60fcd151a24a2b0184325008","64e50edab29c6a944d299bf6","","","","","2376",""," ","key"," ","16.680471830986583","500","250","pog","355","2","1","361","0","0","360"
"","psychophysics","214","849342","0.0-214.0","60fcd151a24a2b0184325008","64e50edab29c6a944d299bf6","","","","","2718",""," ","key"," ","16.6802901234564","500","250","pog","343","2","1","379","0","0","362"
"","psychophysics","215","850302","0.0-215.0","60fcd151a24a2b0184325008","64e50edab29c6a944d299bf6","","","","","959",""," ","key"," ","16.68055357142917","500","250","pog","329","2","1","329","0","0","342"
"","psychophysics","216","854262","0.0-216.0","60fcd151a24a2b0184325008","64e50edab29c6a944d299bf6","","","","","3959",""," ","key"," ","16.680641350211115","500","250","pog","333","2","1","295","0","0","347"
"","psychophysics","217","857998","0.0-217.0","60fcd151a24a2b0184325008","64e50edab29c6a944d299bf6","","","","","3735",""," ","key"," ","16.680551569506886","500","250","pog","271","2","1","391","0","0","305"
"","psychophysics","218","861422","0.0-218.0","60fcd151a24a2b0184325008","64e50edab29c6a944d299bf6","","","","","3424",""," ","key"," ","16.680509803921108","500","250","pog","276","2","1","358","0","0","318"
"","psychophysics","219","864102","0.0-219.0","60fcd151a24a2b0184325008","64e50edab29c6a944d299bf6","","","","","2679",""," ","key"," ","16.680581249999523","500","250","pog","263","2","1","327","0","0","300"
