"success","trial_type","trial_index","time_elapsed","internal_node_id","pid","sid","timeout","failed_images","failed_audio","failed_video","rt","stimulus","response","response_type","key_press","avg_frame_time","center_x","center_y","task","resp","version","block","jitterX","jitterY","start","parA"
"true","fullscreen","0","77075","0.0-0.0","60628138bcaf1a1ee218738e","64dd6aa96285d568ffcde3d1","","","","","","","","","","","","","","","","","","","",""
"true","preload","1","77175","0.0-1.0","60628138bcaf1a1ee218738e","64dd6aa96285d568ffcde3d1","false","[]","[]","[]","","","","","","","","","","","","","","","",""
"","html-button-response","2","97644","0.0-2.0","60628138bcaf1a1ee218738e","64dd6aa96285d568ffcde3d1","","","","","20469","Please Make Sure Your Audio Is On.","0","","","","","","","","","","","","",""
"","psychophysics","3","100501","0.0-3.0","60628138bcaf1a1ee218738e","64dd6aa96285d568ffcde3d1","","","","","2853",""," ","key"," ","6.060522292993649","960","250","","","","","","","",""
"","psychophysics","4","103966","0.0-4.0","60628138bcaf1a1ee218738e","64dd6aa96285d568ffcde3d1","","","","","3464",""," ","key"," ","6.060278458844123","500","250","inst","","","","","","",""
"","psychophysics","5","106142","0.0-5.0","60628138bcaf1a1ee218738e","64dd6aa96285d568ffcde3d1","","","","","2174",""," ","key"," ","6.060284916201103","500","250","sample0","","","","","","",""
"","psychophysics","6","107915","0.0-6.0","60628138bcaf1a1ee218738e","64dd6aa96285d568ffcde3d1","","","","","1772",""," ","key"," ","6.060223367697574","500","250","sample1","","","","","","",""
"","psychophysics","7","120284","0.0-7.0","60628138bcaf1a1ee218738e","64dd6aa96285d568ffcde3d1","","","","","12368",""," ","key"," ","6.060400980392154","500","250","sample2","102","","","","","",""
"","psychophysics","8","129522","0.0-8.0","60628138bcaf1a1ee218738e","64dd6aa96285d568ffcde3d1","","","","","9236",""," ","key"," ","6.0603532501641535","500","250","sample3","100","","","","","",""
"","psychophysics","9","143795","0.0-9.0","60628138bcaf1a1ee218738e","64dd6aa96285d568ffcde3d1","","","","","14272",""," ","key"," ","6.060435244161358","500","250","sample4","100","","","","","",""
"","psychophysics","10","152994","0.0-10.0","60628138bcaf1a1ee218738e","64dd6aa96285d568ffcde3d1","","","","","9198",""," ","key"," ","6.060400131839161","500","250","sample5","","","","","","",""
"","psychophysics","11","161170","0.0-11.0","60628138bcaf1a1ee218738e","64dd6aa96285d568ffcde3d1","","","","","8174",""," ","key"," ","6.060412462908002","500","250","sample6","500","","","","","",""
"","psychophysics","12","165020","0.0-12.0","60628138bcaf1a1ee218738e","64dd6aa96285d568ffcde3d1","","","","","3849",""," ","key"," ","6.060353312302832","500","250","inst","","","","","","",""
"","psychophysics","13","171475","0.0-13.0","60628138bcaf1a1ee218738e","64dd6aa96285d568ffcde3d1","","","","","6454",""," ","key"," ","6.060394736842114","500","250","inst","","","","","","",""
"","psychophysics","14","175309","0.0-14.0","60628138bcaf1a1ee218738e","64dd6aa96285d568ffcde3d1","","","","","3833",""," ","key"," ","6.060341772151896","500","250","inst","","","","","","",""
"","psychophysics","15","180683","0.0-15.0","60628138bcaf1a1ee218738e","64dd6aa96285d568ffcde3d1","","","","","5374",""," ","key"," ","6.060462146892645","500","250","inst","","","","","","",""
"","psychophysics","16","182112","0.0-16.0","60628138bcaf1a1ee218738e","64dd6aa96285d568ffcde3d1","","","","","1427",""," ","key"," ","6.060412765957509","500","250","inst","","","","","","",""
"","psychophysics","17","184411","0.0-17.0","60628138bcaf1a1ee218738e","64dd6aa96285d568ffcde3d1","","","","","2298",""," ","key"," ","6.060354497354532","500","250","instBr0","0","","","0","0","0","300"
"","psychophysics","18","196587","0.0-18.0","60628138bcaf1a1ee218738e","64dd6aa96285d568ffcde3d1","","","","","12175",""," ","key"," ","6.060401692384275","500","250","instBr1","9","","","0","0","-40","300"
"","psychophysics","19","209326","0.0-19.0","60628138bcaf1a1ee218738e","64dd6aa96285d568ffcde3d1","","","","","12738",""," ","key"," ","6.060428843407892","500","250","instBr3","-6","1","","0","0","40","300"
"","psychophysics","20","211566","0.0-20.0","60628138bcaf1a1ee218738e","64dd6aa96285d568ffcde3d1","","","","","2239",""," ","key"," ","6.060475543478273","500","250","inst","","","","","","",""
"","psychophysics","21","216719","0.0-21.0","60628138bcaf1a1ee218738e","64dd6aa96285d568ffcde3d1","","","","","5152",""," ","key"," ","6.060328621908141","500","250","br","-15","1","0","16","11","9","244"
"","psychophysics","22","222466","0.0-22.0","60628138bcaf1a1ee218738e","64dd6aa96285d568ffcde3d1","","","","","5745",""," ","key"," ","6.06047679324894","500","250","br","-5","1","0","-23","3","22","299"
"","psychophysics","23","227029","0.0-23.0","60628138bcaf1a1ee218738e","64dd6aa96285d568ffcde3d1","","","","","4562",""," ","key"," ","6.060288563829786","500","250","br","-11","1","0","-27","10","-30","249"
"","psychophysics","24","230248","0.0-24.0","60628138bcaf1a1ee218738e","64dd6aa96285d568ffcde3d1","","","","","3218",""," ","key"," ","6.060377358490566","500","250","br","-16","1","0","-8","12","-7","207"
"","psychophysics","25","234212","0.0-25.0","60628138bcaf1a1ee218738e","64dd6aa96285d568ffcde3d1","","","","","3963",""," ","key"," ","6.06039203675347","500","250","br","-22","1","0","13","19","-9","291"
"","psychophysics","26","239168","0.0-26.0","60628138bcaf1a1ee218738e","64dd6aa96285d568ffcde3d1","","","","","4955",""," ","key"," ","6.060397796817627","500","250","br","-14","1","0","-22","16","5","299"
"","psychophysics","27","242806","0.0-27.0","60628138bcaf1a1ee218738e","64dd6aa96285d568ffcde3d1","","","","","3637",""," ","key"," ","6.060412353923215","500","250","br","-12","1","0","-6","0","28","239"
"","psychophysics","28","246263","0.0-28.0","60628138bcaf1a1ee218738e","64dd6aa96285d568ffcde3d1","","","","","3456",""," ","key"," ","6.060481546572917","500","250","br","-11","1","0","-16","17","23","300"
"","psychophysics","29","250645","0.0-29.0","60628138bcaf1a1ee218738e","64dd6aa96285d568ffcde3d1","","","","","4381",""," ","key"," ","6.060518005540151","500","250","br","-14","1","0","-9","0","-20","225"
"","psychophysics","30","254926","0.0-30.0","60628138bcaf1a1ee218738e","64dd6aa96285d568ffcde3d1","","","","","4279",""," ","key"," ","6.060582152974516","500","250","br","-10","1","0","7","21","-6","271"
"","psychophysics","31","257232","0.0-31.0","60628138bcaf1a1ee218738e","64dd6aa96285d568ffcde3d1","","","","","2306",""," ","key"," ","6.060324538258531","500","250","br","-10","1","0","19","30","12","291"
"","psychophysics","32","261191","0.0-32.0","60628138bcaf1a1ee218738e","64dd6aa96285d568ffcde3d1","","","","","3957",""," ","key"," ","6.060352220520635","500","250","br","-4","1","0","-27","15","14","287"
"","psychophysics","33","263804","0.0-33.0","60628138bcaf1a1ee218738e","64dd6aa96285d568ffcde3d1","","","","","2612",""," ","key"," ","6.060462790697564","500","250","br","-5","1","0","22","-9","1","288"
"","psychophysics","34","265559","0.0-34.0","60628138bcaf1a1ee218738e","64dd6aa96285d568ffcde3d1","","","","","1754",""," ","key"," ","6.060413194444361","500","250","br","-6","1","0","20","-3","16","299"
"","psychophysics","35","268991","0.0-35.0","60628138bcaf1a1ee218738e","64dd6aa96285d568ffcde3d1","","","","","3430",""," ","key"," ","6.060379858657223","500","250","br","-3","1","0","-17","16","29","255"
"","psychophysics","36","269838","0.0-36.0","60628138bcaf1a1ee218738e","64dd6aa96285d568ffcde3d1","","","","","846",""," ","key"," ","6.0599492753626425","500","250","inst","","","","","","",""
"","psychophysics","37","271361","0.0-37.0","60628138bcaf1a1ee218738e","64dd6aa96285d568ffcde3d1","","","","","1521",""," ","key"," ","6.0605418326693075","500","250","instEB0","75","1","","0","0","75","75"
"","psychophysics","38","278066","0.0-38.0","60628138bcaf1a1ee218738e","64dd6aa96285d568ffcde3d1","","","","","6704",""," ","key"," ","6.060459728506805","500","250","instEB1","71","1","","0","0","80","70"
"","psychophysics","39","285882","0.0-39.0","60628138bcaf1a1ee218738e","64dd6aa96285d568ffcde3d1","","","","","7814",""," ","key"," ","6.084006230529596","500","250","instEB2","69","1","","0","0","80","65"
"","psychophysics","40","292162","0.0-40.0","60628138bcaf1a1ee218738e","64dd6aa96285d568ffcde3d1","","","","","6279",""," ","key"," ","6.078063953488349","500","250","instEB3","82","1","","0","0","65","80"
"","psychophysics","41","300689","0.0-41.0","60628138bcaf1a1ee218738e","64dd6aa96285d568ffcde3d1","","","","","8526",""," ","key"," ","6.060467994310128","500","250","instEB4","63","1","","0","0","70","65"
"","psychophysics","42","302528","0.0-42.0","60628138bcaf1a1ee218738e","64dd6aa96285d568ffcde3d1","","","","","1838",""," ","key"," ","6.0607715231788175","500","250","inst","","","","","","",""
"","psychophysics","43","306236","0.0-43.0","60628138bcaf1a1ee218738e","64dd6aa96285d568ffcde3d1","","","","","3705",""," ","key"," ","6.060577741407586","500","250","eb","59","1","0","0","0","62","66"
"","psychophysics","44","309888","0.0-44.0","60628138bcaf1a1ee218738e","64dd6aa96285d568ffcde3d1","","","","","3652",""," ","key"," ","6.060401993355519","500","250","eb","68","1","0","0","0","65","69"
"","psychophysics","45","312068","0.0-45.0","60628138bcaf1a1ee218738e","64dd6aa96285d568ffcde3d1","","","","","2178",""," ","key"," ","6.060133704735345","500","250","eb","79","1","0","0","0","77","77"
"","psychophysics","46","315316","0.0-46.0","60628138bcaf1a1ee218738e","64dd6aa96285d568ffcde3d1","","","","","3247",""," ","key"," ","6.071763602251407","500","250","eb","77","1","0","0","0","75","76"
"","psychophysics","47","317134","0.0-47.0","60628138bcaf1a1ee218738e","64dd6aa96285d568ffcde3d1","","","","","1816",""," ","key"," ","6.060612040133656","500","250","eb","84","1","0","0","0","79","85"
"","psychophysics","48","320280","0.0-48.0","60628138bcaf1a1ee218738e","64dd6aa96285d568ffcde3d1","","","","","3144",""," ","key"," ","6.060416184971042","500","250","eb","76","1","0","0","0","74","79"
"","psychophysics","49","326653","0.0-49.0","60628138bcaf1a1ee218738e","64dd6aa96285d568ffcde3d1","","","","","6372",""," ","key"," ","6.060466666666658","500","250","eb","81","1","0","0","0","64","85"
"","psychophysics","50","330069","0.0-50.0","60628138bcaf1a1ee218738e","64dd6aa96285d568ffcde3d1","","","","","3415",""," ","key"," ","6.060362344582588","500","250","eb","74","1","0","0","0","79","74"
"","psychophysics","51","333132","0.0-51.0","60628138bcaf1a1ee218738e","64dd6aa96285d568ffcde3d1","","","","","3062",""," ","key"," ","6.060501984127018","500","250","eb","70","1","0","0","0","88","69"
"","psychophysics","52","336000","0.0-52.0","60628138bcaf1a1ee218738e","64dd6aa96285d568ffcde3d1","","","","","2866",""," ","key"," ","6.060552966101707","500","250","eb","82","1","0","0","0","69","87"
"","psychophysics","53","337880","0.0-53.0","60628138bcaf1a1ee218738e","64dd6aa96285d568ffcde3d1","","","","","1877",""," ","key"," ","6.06058064516138","500","250","eb","70","1","0","0","0","80","74"
"","psychophysics","54","339613","0.0-54.0","60628138bcaf1a1ee218738e","64dd6aa96285d568ffcde3d1","","","","","1732",""," ","key"," ","6.060133333333253","500","250","eb","85","1","0","0","0","74","89"
"","psychophysics","55","341456","0.0-55.0","60628138bcaf1a1ee218738e","64dd6aa96285d568ffcde3d1","","","","","1842",""," ","key"," ","6.0606270627062555","500","250","eb","80","1","0","0","0","70","81"
"","psychophysics","56","344462","0.0-56.0","60628138bcaf1a1ee218738e","64dd6aa96285d568ffcde3d1","","","","","3005",""," ","key"," ","6.06040404040397","500","250","eb","94","1","0","0","0","60","89"
"","psychophysics","57","346195","0.0-57.0","60628138bcaf1a1ee218738e","64dd6aa96285d568ffcde3d1","","","","","1731",""," ","key"," ","6.060463157894801","500","250","eb","89","1","0","0","0","89","87"
"","psychophysics","58","346924","0.0-58.0","60628138bcaf1a1ee218738e","64dd6aa96285d568ffcde3d1","","","","","728",""," ","key"," ","6.060092436974895","500","250","inst","","","","","","",""
"","psychophysics","59","348378","0.0-59.0","60628138bcaf1a1ee218738e","64dd6aa96285d568ffcde3d1","","","","","1454",""," ","key"," ","6.060774058577503","500","250","instZol0","0","","","0","0","0",""
"","psychophysics","60","355345","0.0-60.0","60628138bcaf1a1ee218738e","64dd6aa96285d568ffcde3d1","","","","","6966",""," ","key"," ","6.060420731707327","500","250","instZol1","-2.7755575615628914e-17","","","0","0","-1.3",""
"","psychophysics","61","366780","0.0-61.0","60628138bcaf1a1ee218738e","64dd6aa96285d568ffcde3d1","","","","","11433",""," ","key"," ","6.06047083775183","500","250","instZol2","0.4000000000000007","1","","0","0","2",""
"","psychophysics","62","367441","0.0-62.0","60628138bcaf1a1ee218738e","64dd6aa96285d568ffcde3d1","","","","","660",""," ","key"," ","6.0611203703705945","500","250","inst","","","","","","",""
"","psychophysics","63","371532","0.0-63.0","60628138bcaf1a1ee218738e","64dd6aa96285d568ffcde3d1","","","","","4089",""," ","key"," ","6.060590504451022","500","250","zol","0.8899999999999999","1","0","24","27","-0.69",""
"","psychophysics","64","375764","0.0-64.0","60628138bcaf1a1ee218738e","64dd6aa96285d568ffcde3d1","","","","","4229",""," ","key"," ","6.060530085959885","500","250","zol","0.3799999999999999","1","0","-5","-15","0.62",""
"","psychophysics","65","380183","0.0-65.0","60628138bcaf1a1ee218738e","64dd6aa96285d568ffcde3d1","","","","","4418",""," ","key"," ","6.060472527472494","500","250","zol","0.5699999999999998","1","0","27","-5","-0.57",""
"","psychophysics","66","384234","0.0-66.0","60628138bcaf1a1ee218738e","64dd6aa96285d568ffcde3d1","","","","","4050",""," ","key"," ","6.060413793103407","500","250","zol","0.3599999999999999","1","0","26","-4","-0.36",""
"","psychophysics","67","389477","0.0-67.0","60628138bcaf1a1ee218738e","64dd6aa96285d568ffcde3d1","","","","","5241",""," ","key"," ","6.060505787037039","500","250","zol","0.65","1","0","14","29","0.15",""
"","psychophysics","68","393471","0.0-68.0","60628138bcaf1a1ee218738e","64dd6aa96285d568ffcde3d1","","","","","3991",""," ","key"," ","6.060563829787182","500","250","zol","0.019999999999999768","1","0","15","-1","0.68",""
"","psychophysics","69","397742","0.0-69.0","60628138bcaf1a1ee218738e","64dd6aa96285d568ffcde3d1","","","","","4269",""," ","key"," ","6.0605397727272665","500","250","zol","0.25000000000000006","1","0","-28","9","0.05",""
"","psychophysics","70","402166","0.0-70.0","60628138bcaf1a1ee218738e","64dd6aa96285d568ffcde3d1","","","","","4423",""," ","key"," ","6.060508916323697","500","250","zol","0.6900000000000001","1","0","-25","19","-0.69",""
"","psychophysics","71","406164","0.0-71.0","60628138bcaf1a1ee218738e","64dd6aa96285d568ffcde3d1","","","","","3992",""," ","key"," ","6.060238239757186","500","250","zol","0.25999999999999984","1","0","7","-4","-0.46",""
"","psychophysics","72","410190","0.0-72.0","60628138bcaf1a1ee218738e","64dd6aa96285d568ffcde3d1","","","","","4025",""," ","key"," ","6.060517345399731","500","250","zol","0.44999999999999996","1","0","19","23","0.05",""
"","psychophysics","73","415019","0.0-73.0","60628138bcaf1a1ee218738e","64dd6aa96285d568ffcde3d1","","","","","4828",""," ","key"," ","6.060486180904519","500","250","zol","0.9799999999999998","1","0","14","19","-0.38",""
"","psychophysics","74","418469","0.0-74.0","60628138bcaf1a1ee218738e","64dd6aa96285d568ffcde3d1","","","","","3448",""," ","key"," ","6.060475352112635","500","250","zol","0.3799999999999999","1","0","12","14","-0.08",""
"","psychophysics","75","422277","0.0-75.0","60628138bcaf1a1ee218738e","64dd6aa96285d568ffcde3d1","","","","","3807",""," ","key"," ","6.060348726114704","500","250","zol","0.9299999999999998","1","0","-11","14","0.67",""
"","psychophysics","76","427577","0.0-76.0","60628138bcaf1a1ee218738e","64dd6aa96285d568ffcde3d1","","","","","5298",""," ","key"," ","6.060418098510877","500","250","zol","0.33","1","0","30","19","0.67",""
"","psychophysics","77","432627","0.0-77.0","60628138bcaf1a1ee218738e","64dd6aa96285d568ffcde3d1","","","","","5048",""," ","key"," ","6.060466346153799","500","250","zol","0.3199999999999998","1","0","11","30","0.68",""
"","psychophysics","78","433565","0.0-78.0","60628138bcaf1a1ee218738e","64dd6aa96285d568ffcde3d1","","","","","938",""," ","key"," ","6.060597402597369","500","250","inst","","","","","","",""
"","psychophysics","79","435113","0.0-79.0","60628138bcaf1a1ee218738e","64dd6aa96285d568ffcde3d1","","","","","1547",""," ","key"," ","6.060066666666592","500","250","instPzPre","50","0","","","","50","50"
"","psychophysics","80","436605","0.0-80.0","60628138bcaf1a1ee218738e","64dd6aa96285d568ffcde3d1","","","","","1490",""," ","key"," ","6.060534693877574","500","250","instPz0","50","2","","","","50","50"
"","psychophysics","81","444699","0.0-81.0","60628138bcaf1a1ee218738e","64dd6aa96285d568ffcde3d1","","","","","8093",""," ","key"," ","6.060338080959549","500","250","instPz1","43","2","","","","25","50"
"","psychophysics","82","449688","0.0-82.0","60628138bcaf1a1ee218738e","64dd6aa96285d568ffcde3d1","","","","","4988",""," ","key"," ","6.060486618004832","500","250","instPz2","33","2","","","","20","35"
"","psychophysics","83","459252","0.0-83.0","60628138bcaf1a1ee218738e","64dd6aa96285d568ffcde3d1","","","","","9562",""," ","key"," ","6.060331432192636","500","250","instPz3","66","2","","","","30","100"
"","psychophysics","84","465641","0.0-84.0","60628138bcaf1a1ee218738e","64dd6aa96285d568ffcde3d1","","","","","6387",""," ","key"," ","6.060590693257383","500","250","instPz4","71","2","","","","30","100"
"","psychophysics","85","466440","0.0-85.0","60628138bcaf1a1ee218738e","64dd6aa96285d568ffcde3d1","","","","","799",""," ","key"," ","6.060267175572217","500","250","inst","","","","","","",""
"","psychophysics","86","472190","0.0-86.0","60628138bcaf1a1ee218738e","64dd6aa96285d568ffcde3d1","","","","","5749",""," ","key"," ","6.060428722280912","500","250","pz","29","2","0","","","38","34"
"","psychophysics","87","478932","0.0-87.0","60628138bcaf1a1ee218738e","64dd6aa96285d568ffcde3d1","","","","","6740",""," ","key"," ","6.076841298467091","500","250","pz","30","2","0","","","47","33"
"","psychophysics","88","482861","0.0-88.0","60628138bcaf1a1ee218738e","64dd6aa96285d568ffcde3d1","","","","","3928",""," ","key"," ","6.0605332302937205","500","250","pz","21","2","0","","","29","22"
"","psychophysics","89","484592","0.0-89.0","60628138bcaf1a1ee218738e","64dd6aa96285d568ffcde3d1","","","","","1730",""," ","key"," ","6.0605087719298085","500","250","pz","26","2","0","","","26","35"
"","psychophysics","90","488038","0.0-90.0","60628138bcaf1a1ee218738e","64dd6aa96285d568ffcde3d1","","","","","3445",""," ","key"," ","6.060278659612019","500","250","pz","46","2","0","","","52","51"
"","psychophysics","91","491032","0.0-91.0","60628138bcaf1a1ee218738e","64dd6aa96285d568ffcde3d1","","","","","2993",""," ","key"," ","6.060545638945326","500","250","pz","39","2","0","","","29","59"
"","psychophysics","92","496208","0.0-92.0","60628138bcaf1a1ee218738e","64dd6aa96285d568ffcde3d1","","","","","5174",""," ","key"," ","6.060508792497071","500","250","pz","33","2","0","","","29","37"
"","psychophysics","93","499059","0.0-93.0","60628138bcaf1a1ee218738e","64dd6aa96285d568ffcde3d1","","","","","2850",""," ","key"," ","6.0605808510638255","500","250","pz","41","2","0","","","32","59"
"","psychophysics","94","503159","0.0-94.0","60628138bcaf1a1ee218738e","64dd6aa96285d568ffcde3d1","","","","","4099",""," ","key"," ","6.0604082840236835","500","250","pz","26","2","0","","","40","27"
"","psychophysics","95","505936","0.0-95.0","60628138bcaf1a1ee218738e","64dd6aa96285d568ffcde3d1","","","","","2775",""," ","key"," ","6.060477024069972","500","250","pz","44","2","0","","","48","54"
"","psychophysics","96","509049","0.0-96.0","60628138bcaf1a1ee218738e","64dd6aa96285d568ffcde3d1","","","","","3113",""," ","key"," ","6.060455078125074","500","250","pz","40","2","0","","","57","41"
"","psychophysics","97","511101","0.0-97.0","60628138bcaf1a1ee218738e","64dd6aa96285d568ffcde3d1","","","","","2050",""," ","key"," ","6.060642011834243","500","250","pz","30","2","0","","","22","37"
"","psychophysics","98","516331","0.0-98.0","60628138bcaf1a1ee218738e","64dd6aa96285d568ffcde3d1","","","","","5229",""," ","key"," ","6.06043735498841","500","250","pz","49","2","0","","","55","53"
"","psychophysics","99","518199","0.0-99.0","60628138bcaf1a1ee218738e","64dd6aa96285d568ffcde3d1","","","","","1867",""," ","key"," ","6.06034201954386","500","250","pz","45","2","0","","","51","42"
"","psychophysics","100","520075","0.0-100.0","60628138bcaf1a1ee218738e","64dd6aa96285d568ffcde3d1","","","","","1875",""," ","key"," ","6.060427184466086","500","250","pz","32","2","0","","","20","59"
"","psychophysics","101","520808","0.0-101.0","60628138bcaf1a1ee218738e","64dd6aa96285d568ffcde3d1","","","","","732",""," ","key"," ","6.060766666666313","500","250","inst","","","","","","",""
"","psychophysics","102","522930","0.0-102.0","60628138bcaf1a1ee218738e","64dd6aa96285d568ffcde3d1","","","","","2122",""," ","key"," ","6.0604326647564895","500","250","instPog0","190","1","","0","0","190","160"
"","psychophysics","103","531732","0.0-103.0","60628138bcaf1a1ee218738e","64dd6aa96285d568ffcde3d1","","","","","8801",""," ","key"," ","6.060430048242597","500","250","instPog1","160","1","","0","0","190","160"
"","psychophysics","104","535915","0.0-104.0","60628138bcaf1a1ee218738e","64dd6aa96285d568ffcde3d1","","","","","4182",""," ","key"," ","6.06051378809872","500","250","instPog2","176","1","","0","0","160","160"
"","psychophysics","105","536692","0.0-105.0","60628138bcaf1a1ee218738e","64dd6aa96285d568ffcde3d1","","","","","777",""," ","key"," ","6.060210937499505","500","250","inst","","","","","","",""
"","psychophysics","106","541374","0.0-106.0","60628138bcaf1a1ee218738e","64dd6aa96285d568ffcde3d1","","","","","4681",""," ","key"," ","6.060463035019566","500","250","pog","214","1","0","0","0","186","192"
"","psychophysics","107","544794","0.0-107.0","60628138bcaf1a1ee218738e","64dd6aa96285d568ffcde3d1","","","","","3419",""," ","key"," ","6.060431616340903","500","250","pog","226","1","0","0","0","168","200"
"","psychophysics","108","547998","0.0-108.0","60628138bcaf1a1ee218738e","64dd6aa96285d568ffcde3d1","","","","","3203",""," ","key"," ","6.0603882575757755","500","250","pog","197","1","0","0","0","127","165"
"","psychophysics","109","552130","0.0-109.0","60628138bcaf1a1ee218738e","64dd6aa96285d568ffcde3d1","","","","","4131",""," ","key"," ","6.0604185022024994","500","250","pog","158","1","0","0","0","160","124"
"","psychophysics","110","556665","0.0-110.0","60628138bcaf1a1ee218738e","64dd6aa96285d568ffcde3d1","","","","","4533",""," ","key"," ","6.060420348059007","500","250","pog","188","1","0","0","0","162","152"
"","psychophysics","111","559721","0.0-111.0","60628138bcaf1a1ee218738e","64dd6aa96285d568ffcde3d1","","","","","3055",""," ","key"," ","6.06044532803177","500","250","pog","192","1","0","0","0","140","155"
"","psychophysics","112","563751","0.0-112.0","60628138bcaf1a1ee218738e","64dd6aa96285d568ffcde3d1","","","","","4028",""," ","key"," ","6.060474397590403","500","250","pog","209","1","0","0","0","149","183"
"","psychophysics","113","568649","0.0-113.0","60628138bcaf1a1ee218738e","64dd6aa96285d568ffcde3d1","","","","","4897",""," ","key"," ","6.060423267326787","500","250","pog","199","1","0","0","0","139","171"
"","psychophysics","114","571947","0.0-114.0","60628138bcaf1a1ee218738e","64dd6aa96285d568ffcde3d1","","","","","3296",""," ","key"," ","6.06044567219161","500","250","pog","223","1","0","0","0","209","190"
"","psychophysics","115","576649","0.0-115.0","60628138bcaf1a1ee218738e","64dd6aa96285d568ffcde3d1","","","","","4698",""," ","key"," ","6.0604967741935605","500","250","pog","189","1","0","0","0","163","157"
"","psychophysics","116","579668","0.0-116.0","60628138bcaf1a1ee218738e","64dd6aa96285d568ffcde3d1","","","","","3018",""," ","key"," ","6.060480885311888","500","250","pog","220","1","0","0","0","164","192"
"","psychophysics","117","587412","0.0-117.0","60628138bcaf1a1ee218738e","64dd6aa96285d568ffcde3d1","","","","","7743",""," ","key"," ","6.060431480031302","500","250","pog","222","1","0","0","0","118","190"
"","psychophysics","118","590093","0.0-118.0","60628138bcaf1a1ee218738e","64dd6aa96285d568ffcde3d1","","","","","2679",""," ","key"," ","6.0602698412699025","500","250","pog","169","1","0","0","0","167","154"
"","psychophysics","119","592349","0.0-119.0","60628138bcaf1a1ee218738e","64dd6aa96285d568ffcde3d1","","","","","2255",""," ","key"," ","6.060490566037528","500","250","pog","180","1","0","0","0","216","152"
"","psychophysics","120","594015","0.0-120.0","60628138bcaf1a1ee218738e","64dd6aa96285d568ffcde3d1","","","","","1666",""," ","key"," ","6.060489051094972","500","250","pog","214","1","0","0","0","198","183"
"","psychophysics","121","594696","0.0-121.0","60628138bcaf1a1ee218738e","64dd6aa96285d568ffcde3d1","","","","","680",""," ","key"," ","6.0607027027028115","500","250","inst","","","","","","",""
"","psychophysics","122","597616","0.0-122.0","60628138bcaf1a1ee218738e","64dd6aa96285d568ffcde3d1","","","","","2919",""," ","key"," ","6.060571725571745","500","250","instZol1","1.3","","","0","0","-1.3",""
"","psychophysics","123","607782","0.0-123.0","60628138bcaf1a1ee218738e","64dd6aa96285d568ffcde3d1","","","","","10164",""," ","key"," ","6.0604019081693465","500","250","instZol2","-2.5000000000000004","2","","0","0","2",""
"","psychophysics","124","608417","0.0-124.0","60628138bcaf1a1ee218738e","64dd6aa96285d568ffcde3d1","","","","","635",""," ","key"," ","6.060865384616101","500","250","inst","","","","","","",""
"","psychophysics","125","612243","0.0-125.0","60628138bcaf1a1ee218738e","64dd6aa96285d568ffcde3d1","","","","","3824",""," ","key"," ","6.060441269841237","500","250","zol","-0.9199999999999999","2","1","-17","-7","-0.18",""
"","psychophysics","126","615634","0.0-126.0","60628138bcaf1a1ee218738e","64dd6aa96285d568ffcde3d1","","","","","3390",""," ","key"," ","6.060460573476847","500","250","zol","-0.47","2","1","27","-18","-0.23",""
"","psychophysics","127","622010","0.0-127.0","60628138bcaf1a1ee218738e","64dd6aa96285d568ffcde3d1","","","","","6375",""," ","key"," ","6.060513307984711","500","250","zol","-0.8099999999999998","2","1","-22","-18","-0.29",""
"","psychophysics","128","625987","0.0-128.0","60628138bcaf1a1ee218738e","64dd6aa96285d568ffcde3d1","","","","","3975",""," ","key"," ","6.060403053434957","500","250","zol","-0.020000000000000157","2","1","-28","30","0.32",""
"","psychophysics","129","630904","0.0-129.0","60628138bcaf1a1ee218738e","64dd6aa96285d568ffcde3d1","","","","","4915",""," ","key"," ","6.060585185185069","500","250","zol","-0.5700000000000001","2","1","-29","-10","-0.53",""
"","psychophysics","130","638718","0.0-130.0","60628138bcaf1a1ee218738e","64dd6aa96285d568ffcde3d1","","","","","7813",""," ","key"," ","6.060354037267016","500","250","zol","-1.02","2","1","-19","14","-0.28",""
"","psychophysics","131","642310","0.0-131.0","60628138bcaf1a1ee218738e","64dd6aa96285d568ffcde3d1","","","","","3590",""," ","key"," ","6.060564189189274","500","250","zol","-0.53","2","1","-23","0","-0.57",""
"","psychophysics","132","645547","0.0-132.0","60628138bcaf1a1ee218738e","64dd6aa96285d568ffcde3d1","","","","","3236",""," ","key"," ","6.060444652908185","500","250","zol","-1.3900000000000001","2","1","5","6","-0.11",""
"","psychophysics","133","649039","0.0-133.0","60628138bcaf1a1ee218738e","64dd6aa96285d568ffcde3d1","","","","","3489",""," ","key"," ","6.060572173913091","500","250","zol","-0.8999999999999999","2","1","-18","30","-0.2",""
"","psychophysics","134","652758","0.0-134.0","60628138bcaf1a1ee218738e","64dd6aa96285d568ffcde3d1","","","","","3717",""," ","key"," ","6.0604747145187545","500","250","zol","-1.3400000000000003","2","1","-29","27","-0.16",""
"","psychophysics","135","655004","0.0-135.0","60628138bcaf1a1ee218738e","64dd6aa96285d568ffcde3d1","","","","","2244",""," ","key"," ","6.060581081080867","500","250","zol","-1.4400000000000004","2","1","23","-2","-0.26",""
"","psychophysics","136","658150","0.0-136.0","60628138bcaf1a1ee218738e","64dd6aa96285d568ffcde3d1","","","","","3145",""," ","key"," ","6.060515444015349","500","250","zol","-0.6899999999999998","2","1","-20","-20","-0.71",""
"","psychophysics","137","661708","0.0-137.0","60628138bcaf1a1ee218738e","64dd6aa96285d568ffcde3d1","","","","","3557",""," ","key"," ","6.0605034129692115","500","250","zol","-1.1400000000000001","2","1","9","-8","0.44",""
"","psychophysics","138","668967","0.0-138.0","60628138bcaf1a1ee218738e","64dd6aa96285d568ffcde3d1","","","","","7257",""," ","key"," ","6.060432748538003","500","250","zol","-2.190000000000001","2","1","24","15","-0.71",""
"","psychophysics","139","672301","0.0-139.0","60628138bcaf1a1ee218738e","64dd6aa96285d568ffcde3d1","","","","","3333",""," ","key"," ","6.060459016393514","500","250","zol","-0.39","2","1","-30","-7","0.09",""
"","psychophysics","140","672943","0.0-140.0","60628138bcaf1a1ee218738e","64dd6aa96285d568ffcde3d1","","","","","642",""," ","key"," ","6.060761904761949","500","250","inst","","","","","","",""
"","psychophysics","141","674480","0.0-141.0","60628138bcaf1a1ee218738e","64dd6aa96285d568ffcde3d1","","","","","1536",""," ","key"," ","6.060559523809287","500","250","instEB1","70","2","","0","0","70","80"
"","psychophysics","142","677518","0.0-142.0","60628138bcaf1a1ee218738e","64dd6aa96285d568ffcde3d1","","","","","3038",""," ","key"," ","6.060548902195767","500","250","instEB2","79","2","","0","0","65","80"
"","psychophysics","143","681487","0.0-143.0","60628138bcaf1a1ee218738e","64dd6aa96285d568ffcde3d1","","","","","3967",""," ","key"," ","6.060549770290949","500","250","instEB3","67","2","","0","0","80","65"
"","psychophysics","144","683883","0.0-144.0","60628138bcaf1a1ee218738e","64dd6aa96285d568ffcde3d1","","","","","2395",""," ","key"," ","6.0604303797468235","500","250","instEB4","76","2","","0","0","65","70"
"","psychophysics","145","684633","0.0-145.0","60628138bcaf1a1ee218738e","64dd6aa96285d568ffcde3d1","","","","","749",""," ","key"," ","6.05983739837387","500","250","inst","","","","","","",""
"","psychophysics","146","688958","0.0-146.0","60628138bcaf1a1ee218738e","64dd6aa96285d568ffcde3d1","","","","","4323",""," ","key"," ","6.060537921348319","500","250","eb","74","2","1","0","0","77","75"
"","psychophysics","147","690638","0.0-147.0","60628138bcaf1a1ee218738e","64dd6aa96285d568ffcde3d1","","","","","1678",""," ","key"," ","6.0606137184112665","500","250","eb","74","2","1","0","0","87","72"
"","psychophysics","148","693038","0.0-148.0","60628138bcaf1a1ee218738e","64dd6aa96285d568ffcde3d1","","","","","2399",""," ","key"," ","6.060425316455444","500","250","eb","72","2","1","0","0","61","68"
"","psychophysics","149","694762","0.0-149.0","60628138bcaf1a1ee218738e","64dd6aa96285d568ffcde3d1","","","","","1723",""," ","key"," ","6.060296819788032","500","250","eb","80","2","1","0","0","63","76"
"","psychophysics","150","696544","0.0-150.0","60628138bcaf1a1ee218738e","64dd6aa96285d568ffcde3d1","","","","","1780",""," ","key"," ","6.060607508532528","500","250","eb","82","2","1","0","0","68","70"
"","psychophysics","151","698346","0.0-151.0","60628138bcaf1a1ee218738e","64dd6aa96285d568ffcde3d1","","","","","1801",""," ","key"," ","6.06048986486496","500","250","eb","101","2","1","0","0","74","90"
"","psychophysics","152","699612","0.0-152.0","60628138bcaf1a1ee218738e","64dd6aa96285d568ffcde3d1","","","","","1266",""," ","key"," ","6.060764423077321","500","250","eb","90","2","1","0","0","89","88"
"","psychophysics","153","701553","0.0-153.0","60628138bcaf1a1ee218738e","64dd6aa96285d568ffcde3d1","","","","","1939",""," ","key"," ","6.060643750000236","500","250","eb","85","2","1","0","0","64","79"
"","psychophysics","154","703974","0.0-154.0","60628138bcaf1a1ee218738e","64dd6aa96285d568ffcde3d1","","","","","2420",""," ","key"," ","6.060510050251509","500","250","eb","86","2","1","0","0","81","79"
"","psychophysics","155","707435","0.0-155.0","60628138bcaf1a1ee218738e","64dd6aa96285d568ffcde3d1","","","","","3461",""," ","key"," ","6.060391228070294","500","250","eb","88","2","1","0","0","65","89"
"","psychophysics","156","709110","0.0-156.0","60628138bcaf1a1ee218738e","64dd6aa96285d568ffcde3d1","","","","","1674",""," ","key"," ","6.060399999999949","500","250","eb","69","2","1","0","0","64","66"
"","psychophysics","157","710785","0.0-157.0","60628138bcaf1a1ee218738e","64dd6aa96285d568ffcde3d1","","","","","1674",""," ","key"," ","6.060630434782386","500","250","eb","82","2","1","0","0","79","85"
"","psychophysics","158","712678","0.0-158.0","60628138bcaf1a1ee218738e","64dd6aa96285d568ffcde3d1","","","","","1892",""," ","key"," ","6.060636655948577","500","250","eb","83","2","1","0","0","67","79"
"","psychophysics","159","714341","0.0-159.0","60628138bcaf1a1ee218738e","64dd6aa96285d568ffcde3d1","","","","","1661",""," ","key"," ","6.06039416058419","500","250","eb","85","2","1","0","0","70","76"
"","psychophysics","160","716184","0.0-160.0","60628138bcaf1a1ee218738e","64dd6aa96285d568ffcde3d1","","","","","1842",""," ","key"," ","6.0605709570957185","500","250","eb","97","2","1","0","0","72","88"
"","psychophysics","161","716827","0.0-161.0","60628138bcaf1a1ee218738e","64dd6aa96285d568ffcde3d1","","","","","643",""," ","key"," ","6.060104761904638","500","250","inst","","","","","","",""
"","psychophysics","162","720988","0.0-162.0","60628138bcaf1a1ee218738e","64dd6aa96285d568ffcde3d1","","","","","4160",""," ","key"," ","6.060540145985531","500","250","instBr3","40","2","","0","0","40","300"
"","psychophysics","163","721656","0.0-163.0","60628138bcaf1a1ee218738e","64dd6aa96285d568ffcde3d1","","","","","667",""," ","key"," ","6.0611181818181645","500","250","inst","","","","","","",""
"","psychophysics","164","724429","0.0-164.0","60628138bcaf1a1ee218738e","64dd6aa96285d568ffcde3d1","","","","","2771",""," ","key"," ","6.060600877192899","500","250","br","13","2","1","4","7","-1","267"
"","psychophysics","165","726809","0.0-165.0","60628138bcaf1a1ee218738e","64dd6aa96285d568ffcde3d1","","","","","2379",""," ","key"," ","6.06060204081646","500","250","br","15","2","1","6","-12","-15","218"
"","psychophysics","166","728738","0.0-166.0","60628138bcaf1a1ee218738e","64dd6aa96285d568ffcde3d1","","","","","1929",""," ","key"," ","6.060697160883401","500","250","br","17","2","1","-16","-18","26","231"
"","psychophysics","167","731204","0.0-167.0","60628138bcaf1a1ee218738e","64dd6aa96285d568ffcde3d1","","","","","2465",""," ","key"," ","6.0604901477832716","500","250","br","15","2","1","11","-14","2","252"
"","psychophysics","168","733051","0.0-168.0","60628138bcaf1a1ee218738e","64dd6aa96285d568ffcde3d1","","","","","1846",""," ","key"," ","6.060332236842155","500","250","br","13","2","1","11","22","30","270"
"","psychophysics","169","735116","0.0-169.0","60628138bcaf1a1ee218738e","64dd6aa96285d568ffcde3d1","","","","","2064",""," ","key"," ","6.060382352941259","500","250","br","13","2","1","-24","19","-16","241"
"","psychophysics","170","737299","0.0-170.0","60628138bcaf1a1ee218738e","64dd6aa96285d568ffcde3d1","","","","","2182",""," ","key"," ","6.060504178273035","500","250","br","17","2","1","11","-13","-15","230"
"","psychophysics","171","739265","0.0-171.0","60628138bcaf1a1ee218738e","64dd6aa96285d568ffcde3d1","","","","","1965",""," ","key"," ","6.060334365325115","500","250","br","19","2","1","-7","-26","-10","243"
"","psychophysics","172","741231","0.0-172.0","60628138bcaf1a1ee218738e","64dd6aa96285d568ffcde3d1","","","","","1965",""," ","key"," ","6.060445820433722","500","250","br","20","2","1","-24","-7","-7","225"
"","psychophysics","173","742976","0.0-173.0","60628138bcaf1a1ee218738e","64dd6aa96285d568ffcde3d1","","","","","1744",""," ","key"," ","6.06063414634147","500","250","br","31","2","1","-7","-16","8","256"
"","psychophysics","174","747077","0.0-174.0","60628138bcaf1a1ee218738e","64dd6aa96285d568ffcde3d1","","","","","4099",""," ","key"," ","6.0605414201183105","500","250","br","24","2","1","-12","-29","-30","296"
"","psychophysics","175","750058","0.0-175.0","60628138bcaf1a1ee218738e","64dd6aa96285d568ffcde3d1","","","","","2980",""," ","key"," ","6.060307535641616","500","250","br","26","2","1","25","-8","2","254"
"","psychophysics","176","752937","0.0-176.0","60628138bcaf1a1ee218738e","64dd6aa96285d568ffcde3d1","","","","","2879",""," ","key"," ","6.060561181434611","500","250","br","16","2","1","-17","-28","7","202"
"","psychophysics","177","755447","0.0-177.0","60628138bcaf1a1ee218738e","64dd6aa96285d568ffcde3d1","","","","","2509",""," ","key"," ","6.060433414043378","500","250","br","31","2","1","-2","-28","2","290"
"","psychophysics","178","756849","0.0-178.0","60628138bcaf1a1ee218738e","64dd6aa96285d568ffcde3d1","","","","","1400",""," ","key"," ","6.0600865800866","500","250","br","35","2","1","-13","30","23","287"
"","psychophysics","179","757550","0.0-179.0","60628138bcaf1a1ee218738e","64dd6aa96285d568ffcde3d1","","","","","700",""," ","key"," ","6.061201754385573","500","250","inst","","","","","","",""
"","psychophysics","180","760039","0.0-180.0","60628138bcaf1a1ee218738e","64dd6aa96285d568ffcde3d1","","","","","2488",""," ","key"," ","6.06057073170711","500","250","instPz1","25","1","","","","25","50"
"","psychophysics","181","763099","0.0-181.0","60628138bcaf1a1ee218738e","64dd6aa96285d568ffcde3d1","","","","","3059",""," ","key"," ","6.060244047619071","500","250","instPz2","24","1","","","","35","20"
"","psychophysics","182","767940","0.0-182.0","60628138bcaf1a1ee218738e","64dd6aa96285d568ffcde3d1","","","","","4840",""," ","key"," ","6.060484962406005","500","250","instPz3","40","1","","","","100","30"
"","psychophysics","183","772184","0.0-183.0","60628138bcaf1a1ee218738e","64dd6aa96285d568ffcde3d1","","","","","4243",""," ","key"," ","6.060464949928489","500","250","instPz4","42","1","","","","100","30"
"","psychophysics","184","773072","0.0-184.0","60628138bcaf1a1ee218738e","64dd6aa96285d568ffcde3d1","","","","","888",""," ","key"," ","6.060616438356005","500","250","inst","","","","","","",""
"","psychophysics","185","776706","0.0-185.0","60628138bcaf1a1ee218738e","64dd6aa96285d568ffcde3d1","","","","","3632",""," ","key"," ","6.060346153846056","500","250","pz","63","1","1","","","45","41"
"","psychophysics","186","778951","0.0-186.0","60628138bcaf1a1ee218738e","64dd6aa96285d568ffcde3d1","","","","","2244",""," ","key"," ","6.060585365853737","500","250","pz","61","1","1","","","32","50"
"","psychophysics","187","781847","0.0-187.0","60628138bcaf1a1ee218738e","64dd6aa96285d568ffcde3d1","","","","","2895",""," ","key"," ","6.060381551362736","500","250","pz","39","1","1","","","57","26"
"","psychophysics","188","784177","0.0-188.0","60628138bcaf1a1ee218738e","64dd6aa96285d568ffcde3d1","","","","","2328",""," ","key"," ","6.060651041666763","500","250","pz","28","1","1","","","48","20"
"","psychophysics","189","786434","0.0-189.0","60628138bcaf1a1ee218738e","64dd6aa96285d568ffcde3d1","","","","","2256",""," ","key"," ","6.060463611859919","500","250","pz","64","1","1","","","41","52"
"","psychophysics","190","788199","0.0-190.0","60628138bcaf1a1ee218738e","64dd6aa96285d568ffcde3d1","","","","","1765",""," ","key"," ","6.060223367697675","500","250","pz","48","1","1","","","38","32"
"","psychophysics","191","790518","0.0-191.0","60628138bcaf1a1ee218738e","64dd6aa96285d568ffcde3d1","","","","","2318",""," ","key"," ","6.060388451443345","500","250","pz","54","1","1","","","25","43"
"","psychophysics","192","791913","0.0-192.0","60628138bcaf1a1ee218738e","64dd6aa96285d568ffcde3d1","","","","","1394",""," ","key"," ","6.060048034934197","500","250","pz","51","1","1","","","40","38"
"","psychophysics","193","793135","0.0-193.0","60628138bcaf1a1ee218738e","64dd6aa96285d568ffcde3d1","","","","","1220",""," ","key"," ","6.060592039801014","500","250","pz","39","1","1","","","34","23"
"","psychophysics","194","794416","0.0-194.0","60628138bcaf1a1ee218738e","64dd6aa96285d568ffcde3d1","","","","","1281",""," ","key"," ","6.060614285713971","500","250","pz","57","1","1","","","49","38"
"","psychophysics","195","796264","0.0-195.0","60628138bcaf1a1ee218738e","64dd6aa96285d568ffcde3d1","","","","","1846",""," ","key"," ","6.060582236842158","500","250","pz","48","1","1","","","53","22"
"","psychophysics","196","797746","0.0-196.0","60628138bcaf1a1ee218738e","64dd6aa96285d568ffcde3d1","","","","","1480",""," ","key"," ","6.06042213114761","500","250","pz","60","1","1","","","49","42"
"","psychophysics","197","799700","0.0-197.0","60628138bcaf1a1ee218738e","64dd6aa96285d568ffcde3d1","","","","","1953",""," ","key"," ","6.060700934579396","500","250","pz","58","1","1","","","40","48"
"","psychophysics","198","801240","0.0-198.0","60628138bcaf1a1ee218738e","64dd6aa96285d568ffcde3d1","","","","","1539",""," ","key"," ","6.060332015810604","500","250","pz","58","1","1","","","56","38"
"","psychophysics","199","804816","0.0-199.0","60628138bcaf1a1ee218738e","64dd6aa96285d568ffcde3d1","","","","","3575",""," ","key"," ","6.060413559321985","500","250","pz","51","1","1","","","22","47"
"","psychophysics","200","805487","0.0-200.0","60628138bcaf1a1ee218738e","64dd6aa96285d568ffcde3d1","","","","","670",""," ","key"," ","6.0608165137610746","500","250","inst","","","","","","",""
"","psychophysics","201","806347","0.0-201.0","60628138bcaf1a1ee218738e","64dd6aa96285d568ffcde3d1","","","","","859",""," ","key"," ","6.06085106382949","500","250","instPog0","370","2","","0","0","370","340"
"","psychophysics","202","807208","0.0-202.0","60628138bcaf1a1ee218738e","64dd6aa96285d568ffcde3d1","","","","","860",""," ","key"," ","6.06079432624062","500","250","instPog1","370","2","","0","0","370","340"
"","psychophysics","203","810157","0.0-203.0","60628138bcaf1a1ee218738e","64dd6aa96285d568ffcde3d1","","","","","2948",""," ","key"," ","6.06036008230445","500","250","instPog2","332","2","","0","0","340","340"
"","psychophysics","204","810726","0.0-204.0","60628138bcaf1a1ee218738e","64dd6aa96285d568ffcde3d1","","","","","569",""," ","key"," ","6.0616129032256065","500","250","inst","","","","","","",""
"","psychophysics","205","812422","0.0-205.0","60628138bcaf1a1ee218738e","64dd6aa96285d568ffcde3d1","","","","","1694",""," ","key"," ","6.060597122302228","500","250","pog","314","2","1","0","0","322","327"
"","psychophysics","206","814281","0.0-206.0","60628138bcaf1a1ee218738e","64dd6aa96285d568ffcde3d1","","","","","1858",""," ","key"," ","6.060447712418215","500","250","pog","332","2","1","0","0","354","340"
"","psychophysics","207","816272","0.0-207.0","60628138bcaf1a1ee218738e","64dd6aa96285d568ffcde3d1","","","","","1991",""," ","key"," ","6.0606128048782075","500","250","pog","351","2","1","0","0","321","375"
"","psychophysics","208","817271","0.0-208.0","60628138bcaf1a1ee218738e","64dd6aa96285d568ffcde3d1","","","","","997",""," ","key"," ","6.060054878049058","500","250","pog","327","2","1","0","0","329","339"
"","psychophysics","209","818918","0.0-209.0","60628138bcaf1a1ee218738e","64dd6aa96285d568ffcde3d1","","","","","1647",""," ","key"," ","6.060596296295989","500","250","pog","312","2","1","0","0","334","303"
"","psychophysics","210","820831","0.0-210.0","60628138bcaf1a1ee218738e","64dd6aa96285d568ffcde3d1","","","","","1911",""," ","key"," ","6.0606793650795545","500","250","pog","350","2","1","0","0","356","350"
"","psychophysics","211","825230","0.0-211.0","60628138bcaf1a1ee218738e","64dd6aa96285d568ffcde3d1","","","","","4398",""," ","key"," ","6.077214384508991","500","250","pog","342","2","1","0","0","352","347"
"","psychophysics","212","827835","0.0-212.0","60628138bcaf1a1ee218738e","64dd6aa96285d568ffcde3d1","","","","","2604",""," ","key"," ","6.060447552447351","500","250","pog","357","2","1","0","0","379","360"
"","psychophysics","213","829846","0.0-213.0","60628138bcaf1a1ee218738e","64dd6aa96285d568ffcde3d1","","","","","2010",""," ","key"," ","6.060226586102536","500","250","pog","325","2","1","0","0","367","319"
"","psychophysics","214","831345","0.0-214.0","60628138bcaf1a1ee218738e","64dd6aa96285d568ffcde3d1","","","","","1498",""," ","key"," ","6.0604146341461975","500","250","pog","327","2","1","0","0","347","331"
"","psychophysics","215","833135","0.0-215.0","60628138bcaf1a1ee218738e","64dd6aa96285d568ffcde3d1","","","","","1790",""," ","key"," ","6.060653061224275","500","250","pog","319","2","1","0","0","287","340"
"","psychophysics","216","834843","0.0-216.0","60628138bcaf1a1ee218738e","64dd6aa96285d568ffcde3d1","","","","","1707",""," ","key"," ","6.060669039146149","500","250","pog","362","2","1","0","0","398","353"
"","psychophysics","217","836162","0.0-217.0","60628138bcaf1a1ee218738e","64dd6aa96285d568ffcde3d1","","","","","1319",""," ","key"," ","6.060723502303727","500","250","pog","312","2","1","0","0","308","336"
"","psychophysics","218","837419","0.0-218.0","60628138bcaf1a1ee218738e","64dd6aa96285d568ffcde3d1","","","","","1256",""," ","key"," ","6.06062135922336","500","250","pog","309","2","1","0","0","329","316"
"","psychophysics","219","838492","0.0-219.0","60628138bcaf1a1ee218738e","64dd6aa96285d568ffcde3d1","","","","","1072",""," ","key"," ","6.060420454545238","500","250","pog","313","2","1","0","0","321","318"
