"success","trial_type","trial_index","time_elapsed","internal_node_id","pid","sid","timeout","failed_images","failed_audio","failed_video","rt","stimulus","response","response_type","key_press","avg_frame_time","center_x","center_y","task","resp","version","block","jitterX","jitterY","start","parA"
"true","fullscreen","0","7271","0.0-0.0","63eefa18e650ff5ca8d94fe8","64de8337dfb560ebeb80e128","","","","","","","","","","","","","","","","","","","",""
"true","preload","1","7752","0.0-1.0","63eefa18e650ff5ca8d94fe8","64de8337dfb560ebeb80e128","false","[]","[]","[]","","","","","","","","","","","","","","","",""
"","html-button-response","2","9492","0.0-2.0","63eefa18e650ff5ca8d94fe8","64de8337dfb560ebeb80e128","","","","","1738","Please Make Sure Your Audio Is On.","0","","","","","","","","","","","","",""
"","psychophysics","3","15424","0.0-3.0","63eefa18e650ff5ca8d94fe8","64de8337dfb560ebeb80e128","","","","","5920",""," ","key"," ","16.664255617977524","683","250","","","","","","","",""
"","psychophysics","4","17716","0.0-4.0","63eefa18e650ff5ca8d94fe8","64de8337dfb560ebeb80e128","","","","","2282",""," ","key"," ","16.66597080291969","500","250","inst","","","","","","",""
"","psychophysics","5","22199","0.0-5.0","63eefa18e650ff5ca8d94fe8","64de8337dfb560ebeb80e128","","","","","4480",""," ","key"," ","16.66377985074627","500","250","sample0","","","","","","",""
"","psychophysics","6","24569","0.0-6.0","63eefa18e650ff5ca8d94fe8","64de8337dfb560ebeb80e128","","","","","2368",""," ","key"," ","16.663056737588665","500","250","sample1","","","","","","",""
"","psychophysics","7","40198","0.0-7.0","63eefa18e650ff5ca8d94fe8","64de8337dfb560ebeb80e128","","","","","15626",""," ","key"," ","16.663386339381002","500","250","sample2","98","","","","","",""
"","psychophysics","8","50735","0.0-8.0","63eefa18e650ff5ca8d94fe8","64de8337dfb560ebeb80e128","","","","","10535",""," ","key"," ","16.663280507131546","500","250","sample3","100","","","","","",""
"","psychophysics","9","57658","0.0-9.0","63eefa18e650ff5ca8d94fe8","64de8337dfb560ebeb80e128","","","","","6913",""," ","key"," ","16.664691566265063","500","250","sample4","98","","","","","",""
"","psychophysics","10","62321","0.0-10.0","63eefa18e650ff5ca8d94fe8","64de8337dfb560ebeb80e128","","","","","4661",""," ","key"," ","16.66347122302158","500","250","sample5","","","","","","",""
"","psychophysics","11","71676","0.0-11.0","63eefa18e650ff5ca8d94fe8","64de8337dfb560ebeb80e128","","","","","9350",""," ","key"," ","16.663944741532973","500","250","sample6","504","","","","","",""
"","psychophysics","12","73170","0.0-12.0","63eefa18e650ff5ca8d94fe8","64de8337dfb560ebeb80e128","","","","","1491",""," ","key"," ","16.663693181818168","500","250","inst","","","","","","",""
"","psychophysics","13","76425","0.0-13.0","63eefa18e650ff5ca8d94fe8","64de8337dfb560ebeb80e128","","","","","3251",""," ","key"," ","16.664087179487193","500","250","inst","","","","","","",""
"","psychophysics","14","77715","0.0-14.0","63eefa18e650ff5ca8d94fe8","64de8337dfb560ebeb80e128","","","","","1288",""," ","key"," ","16.65585526315791","500","250","inst","","","","","","",""
"","psychophysics","15","78287","0.0-15.0","63eefa18e650ff5ca8d94fe8","64de8337dfb560ebeb80e128","","","","","566",""," ","key"," ","16.67138235294132","500","250","inst","","","","","","",""
"","psychophysics","16","79964","0.0-16.0","63eefa18e650ff5ca8d94fe8","64de8337dfb560ebeb80e128","","","","","1675",""," ","key"," ","16.66503030303034","500","250","inst","","","","","","",""
"","psychophysics","17","83373","0.0-17.0","63eefa18e650ff5ca8d94fe8","64de8337dfb560ebeb80e128","","","","","3402",""," ","key"," ","16.66612745098039","500","250","instBr0","0","","","0","0","0","300"
"","psychophysics","18","90666","0.0-18.0","63eefa18e650ff5ca8d94fe8","64de8337dfb560ebeb80e128","","","","","7290",""," ","key"," ","16.663483944954116","500","250","instBr1","7","","","0","0","-40","300"
"","psychophysics","19","99399","0.0-19.0","63eefa18e650ff5ca8d94fe8","64de8337dfb560ebeb80e128","","","","","8723",""," ","key"," ","16.663895038167954","500","250","instBr3","-18","1","","0","0","40","300"
"","psychophysics","20","102014","0.0-20.0","63eefa18e650ff5ca8d94fe8","64de8337dfb560ebeb80e128","","","","","2612",""," ","key"," ","16.66376129032259","500","250","inst","","","","","","",""
"","psychophysics","21","110024","0.0-21.0","63eefa18e650ff5ca8d94fe8","64de8337dfb560ebeb80e128","","","","","null","","null","key","null","16.663743749999988","500","250","br","-9","1","0","24","29","-15","207"
"","psychophysics","22","113172","0.0-22.0","63eefa18e650ff5ca8d94fe8","64de8337dfb560ebeb80e128","","","","","3143",""," ","key"," ","16.66586702127662","500","250","br","9","1","0","-4","15","7","249"
"","psychophysics","23","116036","0.0-23.0","63eefa18e650ff5ca8d94fe8","64de8337dfb560ebeb80e128","","","","","2852",""," ","key"," ","16.66470588235294","500","250","br","-17","1","0","22","-29","-5","247"
"","psychophysics","24","119626","0.0-24.0","63eefa18e650ff5ca8d94fe8","64de8337dfb560ebeb80e128","","","","","3586",""," ","key"," ","16.664065116279094","500","250","br","-12","1","0","-13","-25","6","220"
"","psychophysics","25","123835","0.0-25.0","63eefa18e650ff5ca8d94fe8","64de8337dfb560ebeb80e128","","","","","4206",""," ","key"," ","16.663780876494013","500","250","br","-10","1","0","0","23","3","203"
"","psychophysics","26","128522","0.0-26.0","63eefa18e650ff5ca8d94fe8","64de8337dfb560ebeb80e128","","","","","4683",""," ","key"," ","16.663797153024866","500","250","br","-12","1","0","24","24","-2","237"
"","psychophysics","27","134811","0.0-27.0","63eefa18e650ff5ca8d94fe8","64de8337dfb560ebeb80e128","","","","","6285",""," ","key"," ","16.66344946808513","500","250","br","-10","1","0","-8","18","10","214"
"","psychophysics","28","137501","0.0-28.0","63eefa18e650ff5ca8d94fe8","64de8337dfb560ebeb80e128","","","","","2684",""," ","key"," ","16.666819875776444","500","250","br","-15","1","0","9","-19","-11","281"
"","psychophysics","29","141560","0.0-29.0","63eefa18e650ff5ca8d94fe8","64de8337dfb560ebeb80e128","","","","","4056",""," ","key"," ","16.663462809917313","500","250","br","-10","1","0","-30","-12","-13","208"
"","psychophysics","30","145073","0.0-30.0","63eefa18e650ff5ca8d94fe8","64de8337dfb560ebeb80e128","","","","","3507",""," ","key"," ","16.66533809523805","500","250","br","-18","1","0","1","-2","-1","210"
"","psychophysics","31","149783","0.0-31.0","63eefa18e650ff5ca8d94fe8","64de8337dfb560ebeb80e128","","","","","4707",""," ","key"," ","16.663375886524875","500","250","br","-9","1","0","-28","19","-16","201"
"","psychophysics","32","154730","0.0-32.0","63eefa18e650ff5ca8d94fe8","64de8337dfb560ebeb80e128","","","","","4943",""," ","key"," ","16.663283783783765","500","250","br","-21","1","0","3","19","22","272"
"","psychophysics","33","156400","0.0-33.0","63eefa18e650ff5ca8d94fe8","64de8337dfb560ebeb80e128","","","","","1667",""," ","key"," ","16.663404040404","500","250","br","-22","1","0","10","-19","-16","243"
"","psychophysics","34","161739","0.0-34.0","63eefa18e650ff5ca8d94fe8","64de8337dfb560ebeb80e128","","","","","5335",""," ","key"," ","16.663476489028227","500","250","br","-21","1","0","14","23","18","212"
"","psychophysics","35","163619","0.0-35.0","63eefa18e650ff5ca8d94fe8","64de8337dfb560ebeb80e128","","","","","1874",""," ","key"," ","16.664080357142666","500","250","br","-26","1","0","-23","-23","-26","281"
"","psychophysics","36","166048","0.0-36.0","63eefa18e650ff5ca8d94fe8","64de8337dfb560ebeb80e128","","","","","2427",""," ","key"," ","16.66038620689651","500","250","inst","","","","","","",""
"","psychophysics","37","177185","0.0-37.0","63eefa18e650ff5ca8d94fe8","64de8337dfb560ebeb80e128","","","","","11139",""," ","key"," ","16.66390854572712","500","250","instPog0","160","1","","0","0","190","160"
"","psychophysics","38","182786","0.0-38.0","63eefa18e650ff5ca8d94fe8","64de8337dfb560ebeb80e128","","","","","5597",""," ","key"," ","16.665074626865636","500","250","instPog1","190","1","","0","0","190","160"
"","psychophysics","39","188406","0.0-39.0","63eefa18e650ff5ca8d94fe8","64de8337dfb560ebeb80e128","","","","","5616",""," ","key"," ","16.66323738872403","500","250","instPog2","186","1","","0","0","160","160"
"","psychophysics","40","189033","0.0-40.0","63eefa18e650ff5ca8d94fe8","64de8337dfb560ebeb80e128","","","","","624",""," ","key"," ","16.66002777777774","500","250","inst","","","","","","",""
"","psychophysics","41","193467","0.0-41.0","63eefa18e650ff5ca8d94fe8","64de8337dfb560ebeb80e128","","","","","4429",""," ","key"," ","16.664716981132052","500","250","pog","210","1","0","0","0","212","184"
"","psychophysics","42","201473","0.0-42.0","63eefa18e650ff5ca8d94fe8","64de8337dfb560ebeb80e128","","","","","null","","null","key","null","16.663943749999998","500","250","pog","226","1","0","0","0","192","182"
"","psychophysics","43","205736","0.0-43.0","63eefa18e650ff5ca8d94fe8","64de8337dfb560ebeb80e128","","","","","4260",""," ","key"," ","16.66355686274508","500","250","pog","210","1","0","0","0","146","156"
"","psychophysics","44","209715","0.0-44.0","63eefa18e650ff5ca8d94fe8","64de8337dfb560ebeb80e128","","","","","3976",""," ","key"," ","16.662642857142867","500","250","pog","237","1","0","0","0","131","178"
"","psychophysics","45","213869","0.0-45.0","63eefa18e650ff5ca8d94fe8","64de8337dfb560ebeb80e128","","","","","4151",""," ","key"," ","16.66348387096772","500","250","pog","234","1","0","0","0","144","192"
"","psychophysics","46","218668","0.0-46.0","63eefa18e650ff5ca8d94fe8","64de8337dfb560ebeb80e128","","","","","4797",""," ","key"," ","16.662874564459916","500","250","pog","222","1","0","0","0","212","164"
"","psychophysics","47","220162","0.0-47.0","63eefa18e650ff5ca8d94fe8","64de8337dfb560ebeb80e128","","","","","1490",""," ","key"," ","16.6694431818181","500","250","pog","188","1","0","0","0","188","166"
"","psychophysics","48","221570","0.0-48.0","63eefa18e650ff5ca8d94fe8","64de8337dfb560ebeb80e128","","","","","1403",""," ","key"," ","16.66754761904754","500","250","pog","217","1","0","0","0","217","188"
"","psychophysics","49","226987","0.0-49.0","63eefa18e650ff5ca8d94fe8","64de8337dfb560ebeb80e128","","","","","5415",""," ","key"," ","16.663444444444462","500","250","pog","209","1","0","0","0","121","175"
"","psychophysics","50","232828","0.0-50.0","63eefa18e650ff5ca8d94fe8","64de8337dfb560ebeb80e128","","","","","5838",""," ","key"," ","16.663451428571467","500","250","pog","179","1","0","0","0","109","159"
"","psychophysics","51","234461","0.0-51.0","63eefa18e650ff5ca8d94fe8","64de8337dfb560ebeb80e128","","","","","1631",""," ","key"," ","16.657824742267827","500","250","pog","179","1","0","0","0","175","154"
"","psychophysics","52","238125","0.0-52.0","63eefa18e650ff5ca8d94fe8","64de8337dfb560ebeb80e128","","","","","3661",""," ","key"," ","16.662534246575348","500","250","pog","194","1","0","0","0","160","172"
"","psychophysics","53","239085","0.0-53.0","63eefa18e650ff5ca8d94fe8","64de8337dfb560ebeb80e128","","","","","958",""," ","key"," ","16.664160714285703","500","250","pog","213","1","0","0","0","213","181"
"","psychophysics","54","245221","0.0-54.0","63eefa18e650ff5ca8d94fe8","64de8337dfb560ebeb80e128","","","","","6132",""," ","key"," ","16.663926630434734","500","250","pog","205","1","0","0","0","129","168"
"","psychophysics","55","249184","0.0-55.0","63eefa18e650ff5ca8d94fe8","64de8337dfb560ebeb80e128","","","","","3961",""," ","key"," ","16.66327004219412","500","250","pog","228","1","0","0","0","180","171"
"","psychophysics","56","250213","0.0-56.0","63eefa18e650ff5ca8d94fe8","64de8337dfb560ebeb80e128","","","","","1026",""," ","key"," ","16.653999999999844","500","250","inst","","","","","","",""
"","psychophysics","57","255267","0.0-57.0","63eefa18e650ff5ca8d94fe8","64de8337dfb560ebeb80e128","","","","","5049",""," ","key"," ","16.662976897689713","500","250","instZol0","-0.2","","","0","0","0",""
"","psychophysics","58","280413","0.0-58.0","63eefa18e650ff5ca8d94fe8","64de8337dfb560ebeb80e128","","","","","25143",""," ","key"," ","16.66380769230769","500","250","instZol1","40.400000000000304","","","0","0","-1.3",""
"","psychophysics","59","319638","0.0-59.0","63eefa18e650ff5ca8d94fe8","64de8337dfb560ebeb80e128","","","","","39208",""," ","key"," ","16.66347491496599","500","250","instZol2","-90.59999999999913","2","","0","0","2",""
"","psychophysics","60","320490","0.0-60.0","63eefa18e650ff5ca8d94fe8","64de8337dfb560ebeb80e128","","","","","849",""," ","key"," ","16.6668200000003","500","250","inst","","","","","","",""
"","psychophysics","61","328500","0.0-61.0","63eefa18e650ff5ca8d94fe8","64de8337dfb560ebeb80e128","","","","","null","","null","key","null","16.66351249999995","500","250","zol","-21.120000000000033","2","0","-10","11","0.52",""
"","psychophysics","62","332077","0.0-62.0","63eefa18e650ff5ca8d94fe8","64de8337dfb560ebeb80e128","","","","","3572",""," ","key"," ","16.663535211267533","500","250","zol","-0.8999999999999992","2","0","-21","4","0.2",""
"","psychophysics","63","336291","0.0-63.0","63eefa18e650ff5ca8d94fe8","64de8337dfb560ebeb80e128","","","","","4204",""," ","key"," ","16.650555555555563","500","250","zol","-7.849999999999989","2","0","18","-24","0.75",""
"","psychophysics","64","339640","0.0-64.0","63eefa18e650ff5ca8d94fe8","64de8337dfb560ebeb80e128","","","","","3341",""," ","key"," ","16.66661999999982","500","250","zol","-3.470000000000002","2","0","-22","-14","0.47",""
"","psychophysics","65","344248","0.0-65.0","63eefa18e650ff5ca8d94fe8","64de8337dfb560ebeb80e128","","","","","4600",""," ","key"," ","16.66541304347819","500","250","zol","12.009999999999975","2","0","-19","24","-0.01",""
"","psychophysics","66","351068","0.0-66.0","63eefa18e650ff5ca8d94fe8","64de8337dfb560ebeb80e128","","","","","6816",""," ","key"," ","16.663416666666663","500","250","zol","7.909999999999989","2","0","-5","28","0.59",""
"","psychophysics","67","355453","0.0-67.0","63eefa18e650ff5ca8d94fe8","64de8337dfb560ebeb80e128","","","","","4388",""," ","key"," ","16.663106870228994","500","250","zol","-3.630000000000002","2","0","-27","-13","-0.47",""
"","psychophysics","68","361375","0.0-68.0","63eefa18e650ff5ca8d94fe8","64de8337dfb560ebeb80e128","","","","","5916",""," ","key"," ","16.663112676056254","500","250","zol","-6.499999999999993","2","0","22","-24","-0.5",""
"","psychophysics","69","365284","0.0-69.0","63eefa18e650ff5ca8d94fe8","64de8337dfb560ebeb80e128","","","","","3904",""," ","key"," ","16.665673819742548","500","250","zol","-0.9799999999999992","2","0","29","12","-0.22",""
"","psychophysics","70","370361","0.0-70.0","63eefa18e650ff5ca8d94fe8","64de8337dfb560ebeb80e128","","","","","5072",""," ","key"," ","16.664342105263227","500","250","zol","1.0599999999999998","2","0","-5","-15","0.34",""
"","psychophysics","71","371335","0.0-71.0","63eefa18e650ff5ca8d94fe8","64de8337dfb560ebeb80e128","","","","","966",""," ","key"," ","16.67312068965563","500","250","zol","-0.17","2","0","-1","10","0.07",""
"","psychophysics","72","377648","0.0-72.0","63eefa18e650ff5ca8d94fe8","64de8337dfb560ebeb80e128","","","","","6308",""," ","key"," ","16.66357559681699","500","250","zol","1.37","2","0","4","-8","0.63",""
"","psychophysics","73","379340","0.0-73.0","63eefa18e650ff5ca8d94fe8","64de8337dfb560ebeb80e128","","","","","1687",""," ","key"," ","16.668188118811532","500","250","zol","-1.9500000000000006","2","0","-11","23","0.05",""
"","psychophysics","74","380936","0.0-74.0","63eefa18e650ff5ca8d94fe8","64de8337dfb560ebeb80e128","","","","","1586",""," ","key"," ","16.666221052631247","500","250","zol","-2.560000000000001","2","0","6","3","0.16",""
"","psychophysics","75","383879","0.0-75.0","63eefa18e650ff5ca8d94fe8","64de8337dfb560ebeb80e128","","","","","2939",""," ","key"," ","16.66264571428565","500","250","zol","-0.7799999999999998","2","0","14","6","-0.42",""
"","psychophysics","76","385232","0.0-76.0","63eefa18e650ff5ca8d94fe8","64de8337dfb560ebeb80e128","","","","","1349",""," ","key"," ","16.666111111111313","500","250","inst","","","","","","",""
"","psychophysics","77","387298","0.0-77.0","63eefa18e650ff5ca8d94fe8","64de8337dfb560ebeb80e128","","","","","2063",""," ","key"," ","16.667869918699076","500","250","instPzPre","50","0","","","","50","50"
"","psychophysics","78","389570","0.0-78.0","63eefa18e650ff5ca8d94fe8","64de8337dfb560ebeb80e128","","","","","2269",""," ","key"," ","16.66362222222206","500","250","instPz0","50","1","","","","50","50"
"","psychophysics","79","395393","0.0-79.0","63eefa18e650ff5ca8d94fe8","64de8337dfb560ebeb80e128","","","","","5821",""," ","key"," ","16.663468390804564","500","250","instPz1","25","1","","","","25","50"
"","psychophysics","80","406794","0.0-80.0","63eefa18e650ff5ca8d94fe8","64de8337dfb560ebeb80e128","","","","","11396",""," ","key"," ","16.6639956140351","500","250","instPz2","25","1","","","","35","20"
"","psychophysics","81","421900","0.0-81.0","63eefa18e650ff5ca8d94fe8","64de8337dfb560ebeb80e128","","","","","15103",""," ","key"," ","16.663462983425422","500","250","instPz3","155","1","","","","100","30"
"","psychophysics","82","427959","0.0-82.0","63eefa18e650ff5ca8d94fe8","64de8337dfb560ebeb80e128","","","","","6053",""," ","key"," ","16.664685950413272","500","250","instPz4","149","1","","","","100","30"
"","psychophysics","83","428474","0.0-83.0","63eefa18e650ff5ca8d94fe8","64de8337dfb560ebeb80e128","","","","","513",""," ","key"," ","16.662466666665082","500","250","inst","","","","","","",""
"","psychophysics","84","433777","0.0-84.0","63eefa18e650ff5ca8d94fe8","64de8337dfb560ebeb80e128","","","","","5299",""," ","key"," ","16.66512302839111","500","250","pz","148","1","0","","","51","29"
"","psychophysics","85","441784","0.0-85.0","63eefa18e650ff5ca8d94fe8","64de8337dfb560ebeb80e128","","","","","null","","null","key","null","16.663437499999905","500","250","pz","260","1","0","","","50","52"
"","psychophysics","86","446249","0.0-86.0","63eefa18e650ff5ca8d94fe8","64de8337dfb560ebeb80e128","","","","","4462",""," ","key"," ","16.663402255639195","500","250","pz","171","1","0","","","59","29"
"","psychophysics","87","450787","0.0-87.0","63eefa18e650ff5ca8d94fe8","64de8337dfb560ebeb80e128","","","","","4533",""," ","key"," ","16.66516544117664","500","250","pz","122","1","0","","","29","20"
"","psychophysics","88","457165","0.0-88.0","63eefa18e650ff5ca8d94fe8","64de8337dfb560ebeb80e128","","","","","6375",""," ","key"," ","16.66300785340322","500","250","pz","179","1","0","","","38","27"
"","psychophysics","89","463128","0.0-89.0","63eefa18e650ff5ca8d94fe8","64de8337dfb560ebeb80e128","","","","","5959",""," ","key"," ","16.663488764044917","500","250","pz","181","1","0","","","26","21"
"","psychophysics","90","469269","0.0-90.0","63eefa18e650ff5ca8d94fe8","64de8337dfb560ebeb80e128","","","","","6136",""," ","key"," ","16.665334239130416","500","250","pz","192","1","0","","","27","40"
"","psychophysics","91","475983","0.0-91.0","63eefa18e650ff5ca8d94fe8","64de8337dfb560ebeb80e128","","","","","6700",""," ","key"," ","16.663471321695823","500","250","pz","221","1","0","","","36","44"
"","psychophysics","92","483171","0.0-92.0","63eefa18e650ff5ca8d94fe8","64de8337dfb560ebeb80e128","","","","","7181",""," ","key"," ","16.66467053364269","500","250","pz","225","1","0","","","29","59"
"","psychophysics","93","487758","0.0-93.0","63eefa18e650ff5ca8d94fe8","64de8337dfb560ebeb80e128","","","","","4583",""," ","key"," ","16.66143430656916","500","250","pz","148","1","0","","","60","22"
"","psychophysics","94","494473","0.0-94.0","63eefa18e650ff5ca8d94fe8","64de8337dfb560ebeb80e128","","","","","6712",""," ","key"," ","16.664796019900407","500","250","pz","225","1","0","","","43","45"
"","psychophysics","95","500754","0.0-95.0","63eefa18e650ff5ca8d94fe8","64de8337dfb560ebeb80e128","","","","","6277",""," ","key"," ","16.663449468085094","500","250","pz","189","1","0","","","29","40"
"","psychophysics","96","506320","0.0-96.0","63eefa18e650ff5ca8d94fe8","64de8337dfb560ebeb80e128","","","","","5563",""," ","key"," ","16.663564564564577","500","250","pz","121","1","0","","","57","52"
"","psychophysics","97","511775","0.0-97.0","63eefa18e650ff5ca8d94fe8","64de8337dfb560ebeb80e128","","","","","5452",""," ","key"," ","16.664266871165754","500","250","pz","186","1","0","","","40","37"
"","psychophysics","98","516836","0.0-98.0","63eefa18e650ff5ca8d94fe8","64de8337dfb560ebeb80e128","","","","","5055",""," ","key"," ","16.664887788778913","500","250","pz","162","1","0","","","32","40"
"","psychophysics","99","519297","0.0-99.0","63eefa18e650ff5ca8d94fe8","64de8337dfb560ebeb80e128","","","","","2459",""," ","key"," ","16.66639455782327","500","250","inst","","","","","","",""
"","psychophysics","100","521462","0.0-100.0","63eefa18e650ff5ca8d94fe8","64de8337dfb560ebeb80e128","","","","","2162",""," ","key"," ","16.665156249999654","500","250","instEB0","40","2","","0","0","40","40"
"","psychophysics","101","528240","0.0-101.0","63eefa18e650ff5ca8d94fe8","64de8337dfb560ebeb80e128","","","","","6774",""," ","key"," ","16.663586206896472","500","250","instEB1","35","2","","0","0","30","40"
"","psychophysics","102","530380","0.0-102.0","63eefa18e650ff5ca8d94fe8","64de8337dfb560ebeb80e128","","","","","2133",""," ","key"," ","16.662062499999593","500","250","instEB2","40","2","","0","0","40","30"
"","psychophysics","103","546958","0.0-103.0","63eefa18e650ff5ca8d94fe8","64de8337dfb560ebeb80e128","","","","","16576",""," ","key"," ","16.663461770623655","500","250","instEB3","47","2","","0","0","45","27"
"","psychophysics","104","553827","0.0-104.0","63eefa18e650ff5ca8d94fe8","64de8337dfb560ebeb80e128","","","","","6865",""," ","key"," ","16.663007299270177","500","250","instEB4","41","2","","0","0","30","40"
"","psychophysics","105","556422","0.0-105.0","63eefa18e650ff5ca8d94fe8","64de8337dfb560ebeb80e128","","","","","2593",""," ","key"," ","16.66301948051936","500","250","inst","","","","","","",""
"","psychophysics","106","559146","0.0-106.0","63eefa18e650ff5ca8d94fe8","64de8337dfb560ebeb80e128","","","","","2719",""," ","key"," ","16.66342331288365","500","250","eb","59","2","","0","0","54","48"
"","psychophysics","107","563062","0.0-107.0","63eefa18e650ff5ca8d94fe8","64de8337dfb560ebeb80e128","","","","","3913",""," ","key"," ","16.665717948717663","500","250","eb","55","2","","0","0","41","52"
"","psychophysics","108","565803","0.0-108.0","63eefa18e650ff5ca8d94fe8","64de8337dfb560ebeb80e128","","","","","2738",""," ","key"," ","16.66443558282253","500","250","eb","44","2","","0","0","37","34"
"","psychophysics","109","566904","0.0-109.0","63eefa18e650ff5ca8d94fe8","64de8337dfb560ebeb80e128","","","","","1096",""," ","key"," ","16.66549230769205","500","250","eb","46","2","","0","0","46","48"
"","psychophysics","110","569627","0.0-110.0","63eefa18e650ff5ca8d94fe8","64de8337dfb560ebeb80e128","","","","","2720",""," ","key"," ","16.66357055214731","500","250","eb","49","2","","0","0","25","42"
"","psychophysics","111","571329","0.0-111.0","63eefa18e650ff5ca8d94fe8","64de8337dfb560ebeb80e128","","","","","1698",""," ","key"," ","16.663425742574773","500","250","eb","46","2","","0","0","27","24"
"","psychophysics","112","573843","0.0-112.0","63eefa18e650ff5ca8d94fe8","64de8337dfb560ebeb80e128","","","","","2511",""," ","key"," ","16.66339333333308","500","250","eb","50","2","","0","0","36","44"
"","psychophysics","113","577051","0.0-113.0","63eefa18e650ff5ca8d94fe8","64de8337dfb560ebeb80e128","","","","","3205",""," ","key"," ","16.665486910994193","500","250","eb","47","2","","0","0","25","53"
"","psychophysics","114","578316","0.0-114.0","63eefa18e650ff5ca8d94fe8","64de8337dfb560ebeb80e128","","","","","1259",""," ","key"," ","16.664893333332923","500","250","eb","49","2","","0","0","49","39"
"","psychophysics","115","580900","0.0-115.0","63eefa18e650ff5ca8d94fe8","64de8337dfb560ebeb80e128","","","","","2578",""," ","key"," ","16.66448701298705","500","250","eb","31","2","","0","0","31","46"
"","psychophysics","116","582155","0.0-116.0","63eefa18e650ff5ca8d94fe8","64de8337dfb560ebeb80e128","","","","","1250",""," ","key"," ","16.667453333333444","500","250","eb","50","2","","0","0","50","35"
"","psychophysics","117","589315","0.0-117.0","63eefa18e650ff5ca8d94fe8","64de8337dfb560ebeb80e128","","","","","7157",""," ","key"," ","16.662123831775624","500","250","eb","52","2","","0","0","44","49"
"","psychophysics","118","594230","0.0-118.0","63eefa18e650ff5ca8d94fe8","64de8337dfb560ebeb80e128","","","","","4909",""," ","key"," ","16.664452380952536","500","250","eb","54","2","","0","0","33","51"
"","psychophysics","119","596915","0.0-119.0","63eefa18e650ff5ca8d94fe8","64de8337dfb560ebeb80e128","","","","","2680",""," ","key"," ","16.66765000000014","500","250","eb","56","2","","0","0","36","45"
"","psychophysics","120","598617","0.0-120.0","63eefa18e650ff5ca8d94fe8","64de8337dfb560ebeb80e128","","","","","1697",""," ","key"," ","16.66455882352859","500","250","eb","55","2","","0","0","41","47"
"","psychophysics","121","599692","0.0-121.0","63eefa18e650ff5ca8d94fe8","64de8337dfb560ebeb80e128","","","","","1073",""," ","key"," ","16.65553968253967","500","250","inst","","","","","","",""
"","psychophysics","122","605471","0.0-122.0","63eefa18e650ff5ca8d94fe8","64de8337dfb560ebeb80e128","","","","","5773",""," ","key"," ","16.664014450866915","500","250","instEB1","40","1","","0","0","40","30"
"","psychophysics","123","606530","0.0-123.0","63eefa18e650ff5ca8d94fe8","64de8337dfb560ebeb80e128","","","","","1056",""," ","key"," ","16.6720793650796","500","250","instEB2","30","1","","0","0","30","40"
"","psychophysics","124","606935","0.0-124.0","63eefa18e650ff5ca8d94fe8","64de8337dfb560ebeb80e128","","","","","402",""," ","key"," ","16.655260869565055","500","250","instEB3","27","1","","0","0","27","45"
"","psychophysics","125","608078","0.0-125.0","63eefa18e650ff5ca8d94fe8","64de8337dfb560ebeb80e128","","","","","1140",""," ","key"," ","16.663970149254233","500","250","instEB4","40","1","","0","0","40","30"
"","psychophysics","126","608908","0.0-126.0","63eefa18e650ff5ca8d94fe8","64de8337dfb560ebeb80e128","","","","","826",""," ","key"," ","16.667571428571637","500","250","inst","","","","","","",""
"","psychophysics","127","612694","0.0-127.0","63eefa18e650ff5ca8d94fe8","64de8337dfb560ebeb80e128","","","","","3779",""," ","key"," ","16.665747787610243","500","250","eb","46","1","","0","0","42","52"
"","psychophysics","128","616706","0.0-128.0","63eefa18e650ff5ca8d94fe8","64de8337dfb560ebeb80e128","","","","","4008",""," ","key"," ","16.6647583333334","500","250","eb","27","1","","0","0","49","36"
"","psychophysics","129","619801","0.0-129.0","63eefa18e650ff5ca8d94fe8","64de8337dfb560ebeb80e128","","","","","3087",""," ","key"," ","16.665989189189105","500","250","eb","51","1","","0","0","49","28"
"","psychophysics","130","620454","0.0-130.0","63eefa18e650ff5ca8d94fe8","64de8337dfb560ebeb80e128","","","","","650",""," ","key"," ","16.66355263157809","500","250","eb","30","1","","0","0","30","46"
"","psychophysics","131","623926","0.0-131.0","63eefa18e650ff5ca8d94fe8","64de8337dfb560ebeb80e128","","","","","3466",""," ","key"," ","16.667357487922338","500","250","eb","29","1","","0","0","28","36"
"","psychophysics","132","627663","0.0-132.0","63eefa18e650ff5ca8d94fe8","64de8337dfb560ebeb80e128","","","","","3732",""," ","key"," ","16.66343750000046","500","250","eb","32","1","","0","0","34","34"
"","psychophysics","133","630826","0.0-133.0","63eefa18e650ff5ca8d94fe8","64de8337dfb560ebeb80e128","","","","","3160",""," ","key"," ","16.66353191489396","500","250","eb","66","1","","0","0","54","51"
"","psychophysics","134","638841","0.0-134.0","63eefa18e650ff5ca8d94fe8","64de8337dfb560ebeb80e128","","","","","null","","null","key","null","16.66375675675674","500","250","eb","36","1","","0","0","36","32"
"","psychophysics","135","646850","0.0-135.0","63eefa18e650ff5ca8d94fe8","64de8337dfb560ebeb80e128","","","","","null","","null","key","null","16.663511482254545","500","250","eb","40","1","","0","0","40","46"
"","psychophysics","136","654854","0.0-136.0","63eefa18e650ff5ca8d94fe8","64de8337dfb560ebeb80e128","","","","","null","","null","key","null","16.664575000000088","500","250","eb","45","1","","0","0","45","36"
"","psychophysics","137","662867","0.0-137.0","63eefa18e650ff5ca8d94fe8","64de8337dfb560ebeb80e128","","","","","null","","null","key","null","16.662858037578207","500","250","eb","54","1","","0","0","54","51"
"","psychophysics","138","670877","0.0-138.0","63eefa18e650ff5ca8d94fe8","64de8337dfb560ebeb80e128","","","","","null","","null","key","null","16.66346458333331","500","250","eb","43","1","","0","0","43","45"
"","psychophysics","139","678880","0.0-139.0","63eefa18e650ff5ca8d94fe8","64de8337dfb560ebeb80e128","","","","","null","","null","key","null","16.664801670146023","500","250","eb","45","1","","0","0","45","45"
"","psychophysics","140","686890","0.0-140.0","63eefa18e650ff5ca8d94fe8","64de8337dfb560ebeb80e128","","","","","null","","null","key","null","16.6628479166667","500","250","eb","41","1","","0","0","41","38"
"","psychophysics","141","694893","0.0-141.0","63eefa18e650ff5ca8d94fe8","64de8337dfb560ebeb80e128","","","","","null","","null","key","null","16.66457620041765","500","250","eb","33","1","","0","0","33","38"
"","psychophysics","142","737770","0.0-142.0","63eefa18e650ff5ca8d94fe8","64de8337dfb560ebeb80e128","","","","","42865",""," ","key"," ","16.663483281492976","500","250","inst","","","","","","",""
"","psychophysics","143","751553","0.0-143.0","63eefa18e650ff5ca8d94fe8","64de8337dfb560ebeb80e128","","","","","13779",""," ","key"," ","16.663741233373628","500","250","instZol1","6.799999999999992","","","0","0","-1.3",""
"","psychophysics","144","845944","0.0-144.0","63eefa18e650ff5ca8d94fe8","64de8337dfb560ebeb80e128","","","","","94388",""," ","key"," ","16.663499558537886","500","250","instZol2","-2","1","","0","0","2",""
"","psychophysics","145","848989","0.0-145.0","63eefa18e650ff5ca8d94fe8","64de8337dfb560ebeb80e128","","","","","3043",""," ","key"," ","16.663087912088077","500","250","inst","","","","","","",""
"","psychophysics","146","854483","0.0-146.0","63eefa18e650ff5ca8d94fe8","64de8337dfb560ebeb80e128","","","","","5490",""," ","key"," ","16.664999999999747","500","250","zol","4.020000000000002","1","1","14","7","-0.52",""
"","psychophysics","147","859526","0.0-147.0","63eefa18e650ff5ca8d94fe8","64de8337dfb560ebeb80e128","","","","","5038",""," ","key"," ","16.664136212624292","500","250","zol","1.8600000000000005","1","1","23","19","0.34",""
"","psychophysics","148","863598","0.0-148.0","63eefa18e650ff5ca8d94fe8","64de8337dfb560ebeb80e128","","","","","4064",""," ","key"," ","16.66447950819637","500","250","zol","1.7600000000000007","1","1","-8","-19","-0.66",""
"","psychophysics","149","866648","0.0-149.0","63eefa18e650ff5ca8d94fe8","64de8337dfb560ebeb80e128","","","","","3046",""," ","key"," ","16.66220329670366","500","250","zol","2.020000000000001","1","1","-21","-15","0.18",""
"","psychophysics","150","870297","0.0-150.0","63eefa18e650ff5ca8d94fe8","64de8337dfb560ebeb80e128","","","","","3645",""," ","key"," ","16.662449541284357","500","250","zol","1.6700000000000004","1","1","-25","-18","0.53",""
"","psychophysics","151","875660","0.0-151.0","63eefa18e650ff5ca8d94fe8","64de8337dfb560ebeb80e128","","","","","5360",""," ","key"," ","16.66345937499973","500","250","zol","0.8300000000000001","1","1","-11","17","-0.43",""
"","psychophysics","152","877995","0.0-152.0","63eefa18e650ff5ca8d94fe8","64de8337dfb560ebeb80e128","","","","","2328",""," ","key"," ","16.665121428571208","500","250","zol","1.9400000000000008","1","1","23","-20","-0.54",""
"","psychophysics","153","882301","0.0-153.0","63eefa18e650ff5ca8d94fe8","64de8337dfb560ebeb80e128","","","","","4302",""," ","key"," ","16.66349416342428","500","250","zol","1.5300000000000005","1","1","18","-18","0.17",""
"","psychophysics","154","885993","0.0-154.0","63eefa18e650ff5ca8d94fe8","64de8337dfb560ebeb80e128","","","","","3688",""," ","key"," ","16.663787330316413","500","250","zol","0.18000000000000024","1","1","-2","-22","-0.68",""
"","psychophysics","155","890071","0.0-155.0","63eefa18e650ff5ca8d94fe8","64de8337dfb560ebeb80e128","","","","","4074",""," ","key"," ","16.663234567901103","500","250","zol","0.71","1","1","-19","20","0.59",""
"","psychophysics","156","892501","0.0-156.0","63eefa18e650ff5ca8d94fe8","64de8337dfb560ebeb80e128","","","","","2420",""," ","key"," ","16.667234482759095","500","250","zol","1.37","1","1","14","-24","-0.07",""
"","psychophysics","157","893092","0.0-157.0","63eefa18e650ff5ca8d94fe8","64de8337dfb560ebeb80e128","","","","","583",""," ","key"," ","16.672771428572013","500","250","zol","-0.43","1","1","5","5","0.43",""
"","psychophysics","158","895552","0.0-158.0","63eefa18e650ff5ca8d94fe8","64de8337dfb560ebeb80e128","","","","","2457",""," ","key"," ","16.663986301369334","500","250","zol","1.8900000000000006","1","1","-24","-10","0.31",""
"","psychophysics","159","899914","0.0-159.0","63eefa18e650ff5ca8d94fe8","64de8337dfb560ebeb80e128","","","","","4355",""," ","key"," ","16.665114942529076","500","250","zol","1.4100000000000004","1","1","4","-7","-0.11",""
"","psychophysics","160","902551","0.0-160.0","63eefa18e650ff5ca8d94fe8","64de8337dfb560ebeb80e128","","","","","2633",""," ","key"," ","16.66357324840753","500","250","zol","1.8700000000000006","1","1","-11","-27","0.33",""
"","psychophysics","161","903976","0.0-161.0","63eefa18e650ff5ca8d94fe8","64de8337dfb560ebeb80e128","","","","","1418",""," ","key"," ","16.668870588235887","500","250","inst","","","","","","",""
"","psychophysics","162","909871","0.0-162.0","63eefa18e650ff5ca8d94fe8","64de8337dfb560ebeb80e128","","","","","5893",""," ","key"," ","16.664684659091026","500","250","instPz1","34","2","","","","25","50"
"","psychophysics","163","910651","0.0-163.0","63eefa18e650ff5ca8d94fe8","64de8337dfb560ebeb80e128","","","","","776",""," ","key"," ","16.661456521737147","500","250","instPz2","20","2","","","","20","35"
"","psychophysics","164","914045","0.0-164.0","63eefa18e650ff5ca8d94fe8","64de8337dfb560ebeb80e128","","","","","3385",""," ","key"," ","16.666014778325128","500","250","instPz3","18","2","","","","30","100"
"","psychophysics","165","916069","0.0-165.0","63eefa18e650ff5ca8d94fe8","64de8337dfb560ebeb80e128","","","","","2021",""," ","key"," ","16.66451666666738","500","250","instPz4","22","2","","","","30","100"
"","psychophysics","166","916620","0.0-166.0","63eefa18e650ff5ca8d94fe8","64de8337dfb560ebeb80e128","","","","","548",""," ","key"," ","16.676906249998865","500","250","inst","","","","","","",""
"","psychophysics","167","919519","0.0-167.0","63eefa18e650ff5ca8d94fe8","64de8337dfb560ebeb80e128","","","","","2894",""," ","key"," ","16.66446820809304","500","250","pz","10","2","1","","","60","33"
"","psychophysics","168","923535","0.0-168.0","63eefa18e650ff5ca8d94fe8","64de8337dfb560ebeb80e128","","","","","4011",""," ","key"," ","16.664241666666932","500","250","pz","9","2","1","","","53","28"
"","psychophysics","169","927291","0.0-169.0","63eefa18e650ff5ca8d94fe8","64de8337dfb560ebeb80e128","","","","","3751",""," ","key"," ","16.66568888888901","500","250","pz","16","2","1","","","52","57"
"","psychophysics","170","929475","0.0-170.0","63eefa18e650ff5ca8d94fe8","64de8337dfb560ebeb80e128","","","","","2182",""," ","key"," ","16.661007692307557","500","250","pz","11","2","1","","","22","50"
"","psychophysics","171","932354","0.0-171.0","63eefa18e650ff5ca8d94fe8","64de8337dfb560ebeb80e128","","","","","2876",""," ","key"," ","16.66313953488337","500","250","pz","10","2","1","","","33","31"
"","psychophysics","172","934300","0.0-172.0","63eefa18e650ff5ca8d94fe8","64de8337dfb560ebeb80e128","","","","","1943",""," ","key"," ","16.663482758621004","500","250","pz","13","2","1","","","28","20"
"","psychophysics","173","937808","0.0-173.0","63eefa18e650ff5ca8d94fe8","64de8337dfb560ebeb80e128","","","","","3506",""," ","key"," ","16.663645933014028","500","250","pz","13","2","1","","","32","34"
"","psychophysics","174","939950","0.0-174.0","63eefa18e650ff5ca8d94fe8","64de8337dfb560ebeb80e128","","","","","2139",""," ","key"," ","16.663773437499913","500","250","pz","12","2","1","","","26","45"
"","psychophysics","175","942398","0.0-175.0","63eefa18e650ff5ca8d94fe8","64de8337dfb560ebeb80e128","","","","","2446",""," ","key"," ","16.66307586206862","500","250","pz","5","2","1","","","42","45"
"","psychophysics","176","947615","0.0-176.0","63eefa18e650ff5ca8d94fe8","64de8337dfb560ebeb80e128","","","","","5213",""," ","key"," ","16.663552715655076","500","250","pz","9","2","1","","","53","60"
"","psychophysics","177","950589","0.0-177.0","63eefa18e650ff5ca8d94fe8","64de8337dfb560ebeb80e128","","","","","2970",""," ","key"," ","16.66348022598863","500","250","pz","6","2","1","","","29","30"
"","psychophysics","178","954186","0.0-178.0","63eefa18e650ff5ca8d94fe8","64de8337dfb560ebeb80e128","","","","","3595",""," ","key"," ","16.663590697674515","500","250","pz","9","2","1","","","37","34"
"","psychophysics","179","957093","0.0-179.0","63eefa18e650ff5ca8d94fe8","64de8337dfb560ebeb80e128","","","","","2920",""," ","key"," ","16.66385057471203","500","250","pz","11","2","1","","","54","49"
"","psychophysics","180","961081","0.0-180.0","63eefa18e650ff5ca8d94fe8","64de8337dfb560ebeb80e128","","","","","3981",""," ","key"," ","16.66562343096199","500","250","pz","13","2","1","","","58","41"
"","psychophysics","181","964717","0.0-181.0","63eefa18e650ff5ca8d94fe8","64de8337dfb560ebeb80e128","","","","","3634",""," ","key"," ","16.665341013824687","500","250","pz","14","2","1","","","45","55"
"","psychophysics","182","965298","0.0-182.0","63eefa18e650ff5ca8d94fe8","64de8337dfb560ebeb80e128","","","","","579",""," ","key"," ","16.658088235294116","500","250","inst","","","","","","",""
"","psychophysics","183","969570","0.0-183.0","63eefa18e650ff5ca8d94fe8","64de8337dfb560ebeb80e128","","","","","4269",""," ","key"," ","16.66524313725531","500","250","instPog0","340","2","","0","0","370","340"
"","psychophysics","184","972168","0.0-184.0","63eefa18e650ff5ca8d94fe8","64de8337dfb560ebeb80e128","","","","","2596",""," ","key"," ","16.663632258064595","500","250","instPog1","344","2","","0","0","370","340"
"","psychophysics","185","974731","0.0-185.0","63eefa18e650ff5ca8d94fe8","64de8337dfb560ebeb80e128","","","","","2562",""," ","key"," ","16.664411764706063","500","250","instPog2","318","2","","0","0","340","340"
"","psychophysics","186","975200","0.0-186.0","63eefa18e650ff5ca8d94fe8","64de8337dfb560ebeb80e128","","","","","467",""," ","key"," ","16.663814814813023","500","250","inst","","","","","","",""
"","psychophysics","187","977495","0.0-187.0","63eefa18e650ff5ca8d94fe8","64de8337dfb560ebeb80e128","","","","","2293",""," ","key"," ","16.66371532846718","500","250","pog","319","2","1","0","0","307","355"
"","psychophysics","188","980062","0.0-188.0","63eefa18e650ff5ca8d94fe8","64de8337dfb560ebeb80e128","","","","","2565",""," ","key"," ","16.66364052287589","500","250","pog","305","2","1","0","0","315","326"
"","psychophysics","189","983468","0.0-189.0","63eefa18e650ff5ca8d94fe8","64de8337dfb560ebeb80e128","","","","","3404",""," ","key"," ","16.663724137930625","500","250","pog","299","2","1","0","0","355","317"
"","psychophysics","190","985582","0.0-190.0","63eefa18e650ff5ca8d94fe8","64de8337dfb560ebeb80e128","","","","","2111",""," ","key"," ","16.663000000000466","500","250","pog","357","2","1","0","0","363","368"
"","psychophysics","191","989466","0.0-191.0","63eefa18e650ff5ca8d94fe8","64de8337dfb560ebeb80e128","","","","","3883",""," ","key"," ","16.663456896551814","500","250","pog","287","2","1","0","0","331","302"
"","psychophysics","192","994568","0.0-192.0","63eefa18e650ff5ca8d94fe8","64de8337dfb560ebeb80e128","","","","","5099",""," ","key"," ","16.663436065573766","500","250","pog","324","2","1","0","0","362","328"
"","psychophysics","193","999285","0.0-193.0","63eefa18e650ff5ca8d94fe8","64de8337dfb560ebeb80e128","","","","","4711",""," ","key"," ","16.664234042553236","500","250","pog","360","2","1","0","0","314","376"
"","psychophysics","194","1005155","0.0-194.0","63eefa18e650ff5ca8d94fe8","64de8337dfb560ebeb80e128","","","","","5863",""," ","key"," ","16.662675213675342","500","250","pog","340","2","1","0","0","338","362"
"","psychophysics","195","1011274","0.0-195.0","63eefa18e650ff5ca8d94fe8","64de8337dfb560ebeb80e128","","","","","6115",""," ","key"," ","16.6637384196187","500","250","pog","300","2","1","0","0","352","316"
"","psychophysics","196","1016375","0.0-196.0","63eefa18e650ff5ca8d94fe8","64de8337dfb560ebeb80e128","","","","","5098",""," ","key"," ","16.66277377049202","500","250","pog","330","2","1","0","0","362","338"
"","psychophysics","197","1022773","0.0-197.0","63eefa18e650ff5ca8d94fe8","64de8337dfb560ebeb80e128","","","","","6396",""," ","key"," ","16.664874673629235","500","250","pog","310","2","1","0","0","342","322"
"","psychophysics","198","1025463","0.0-198.0","63eefa18e650ff5ca8d94fe8","64de8337dfb560ebeb80e128","","","","","2687",""," ","key"," ","16.662625000000116","500","250","pog","292","2","1","0","0","336","311"
"","psychophysics","199","1030854","0.0-199.0","63eefa18e650ff5ca8d94fe8","64de8337dfb560ebeb80e128","","","","","5385",""," ","key"," ","16.66453560371523","500","250","pog","348","2","1","0","0","356","364"
"","psychophysics","200","1034434","0.0-200.0","63eefa18e650ff5ca8d94fe8","64de8337dfb560ebeb80e128","","","","","3577",""," ","key"," ","16.66341121495314","500","250","pog","316","2","1","0","0","286","335"
"","psychophysics","201","1035727","0.0-201.0","63eefa18e650ff5ca8d94fe8","64de8337dfb560ebeb80e128","","","","","1291",""," ","key"," ","16.6624736842105","500","250","pog","302","2","1","0","0","302","317"
"","psychophysics","202","1036334","0.0-202.0","63eefa18e650ff5ca8d94fe8","64de8337dfb560ebeb80e128","","","","","605",""," ","key"," ","16.674027777778164","500","250","inst","","","","","","",""
"","psychophysics","203","1038973","0.0-203.0","63eefa18e650ff5ca8d94fe8","64de8337dfb560ebeb80e128","","","","","2630",""," ","key"," ","16.66349681528659","500","250","instBr3","30","2","","0","0","40","300"
"","psychophysics","204","1039398","0.0-204.0","63eefa18e650ff5ca8d94fe8","64de8337dfb560ebeb80e128","","","","","423",""," ","key"," ","16.663625000001048","500","250","inst","","","","","","",""
"","psychophysics","205","1042544","0.0-205.0","63eefa18e650ff5ca8d94fe8","64de8337dfb560ebeb80e128","","","","","3142",""," ","key"," ","16.6650000000001","500","250","br","19","2","1","15","22","-18","272"
"","psychophysics","206","1043708","0.0-206.0","63eefa18e650ff5ca8d94fe8","64de8337dfb560ebeb80e128","","","","","1157",""," ","key"," ","16.672086956522737","500","250","br","16","2","1","10","-14","16","264"
"","psychophysics","207","1047576","0.0-207.0","63eefa18e650ff5ca8d94fe8","64de8337dfb560ebeb80e128","","","","","3866",""," ","key"," ","16.66358441558467","500","250","br","16","2","1","8","23","-24","222"
"","psychophysics","208","1050296","0.0-208.0","63eefa18e650ff5ca8d94fe8","64de8337dfb560ebeb80e128","","","","","2713",""," ","key"," ","16.66717283950578","500","250","br","17","2","1","-19","18","25","262"
"","psychophysics","209","1052780","0.0-209.0","63eefa18e650ff5ca8d94fe8","64de8337dfb560ebeb80e128","","","","","2480",""," ","key"," ","16.663859060402935","500","250","br","21","2","1","4","-17","29","288"
"","psychophysics","210","1058443","0.0-210.0","63eefa18e650ff5ca8d94fe8","64de8337dfb560ebeb80e128","","","","","5659",""," ","key"," ","16.66294378698211","500","250","br","25","2","1","14","-23","-5","292"
"","psychophysics","211","1061629","0.0-211.0","63eefa18e650ff5ca8d94fe8","64de8337dfb560ebeb80e128","","","","","3181",""," ","key"," ","16.66642408376969","500","250","br","21","2","1","-12","-3","30","293"
"","psychophysics","212","1064698","0.0-212.0","63eefa18e650ff5ca8d94fe8","64de8337dfb560ebeb80e128","","","","","3067",""," ","key"," ","16.663038251366814","500","250","br","30","2","1","-2","-13","-5","263"
"","psychophysics","213","1070471","0.0-213.0","63eefa18e650ff5ca8d94fe8","64de8337dfb560ebeb80e128","","","","","5771",""," ","key"," ","16.663281159420105","500","250","br","20","2","1","-22","-18","-29","229"
"","psychophysics","214","1073533","0.0-214.0","63eefa18e650ff5ca8d94fe8","64de8337dfb560ebeb80e128","","","","","3053",""," ","key"," ","16.66549180327823","500","250","br","43","2","1","-13","23","-10","270"
"","psychophysics","215","1076943","0.0-215.0","63eefa18e650ff5ca8d94fe8","64de8337dfb560ebeb80e128","","","","","3406",""," ","key"," ","16.66266009852226","500","250","br","17","2","1","-12","-1","-17","234"
"","psychophysics","216","1079185","0.0-216.0","63eefa18e650ff5ca8d94fe8","64de8337dfb560ebeb80e128","","","","","2238",""," ","key"," ","16.66550746268711","500","250","br","27","2","1","-10","10","2","220"
"","psychophysics","217","1082035","0.0-217.0","63eefa18e650ff5ca8d94fe8","64de8337dfb560ebeb80e128","","","","","2847",""," ","key"," ","16.663911764705826","500","250","br","28","2","1","29","-24","-30","215"
"","psychophysics","218","1084104","0.0-218.0","63eefa18e650ff5ca8d94fe8","64de8337dfb560ebeb80e128","","","","","2067",""," ","key"," ","16.65697560975578","500","250","br","28","2","1","-21","30","6","291"
"","psychophysics","219","1086812","0.0-219.0","63eefa18e650ff5ca8d94fe8","64de8337dfb560ebeb80e128","","","","","2695",""," ","key"," ","16.663901234567337","500","250","br","27","2","1","-2","-7","-15","279"
