"success","trial_type","trial_index","time_elapsed","internal_node_id","pid","sid","timeout","failed_images","failed_audio","failed_video","rt","stimulus","response","response_type","key_press","avg_frame_time","center_x","center_y","task","resp","start","parA","version","block","jitterX","jitterY"
"true","fullscreen","0","3529","0.0-0.0","60871d664054c52f5b2741ae","64de83b9b22d101f248c6b4d","","","","","","","","","","","","","","","","","","","",""
"true","preload","1","3674","0.0-1.0","60871d664054c52f5b2741ae","64de83b9b22d101f248c6b4d","false","[]","[]","[]","","","","","","","","","","","","","","","",""
"","html-button-response","2","5678","0.0-2.0","60871d664054c52f5b2741ae","64de83b9b22d101f248c6b4d","","","","","2002","Please Make Sure Your Audio Is On.","0","","","","","","","","","","","","",""
"","psychophysics","3","11977","0.0-3.0","60871d664054c52f5b2741ae","64de83b9b22d101f248c6b4d","","","","","6287",""," ","key"," ","16.66519628647215","640","250","","","","","","","",""
"","psychophysics","4","14695","0.0-4.0","60871d664054c52f5b2741ae","64de83b9b22d101f248c6b4d","","","","","2683",""," ","key"," ","16.767864197530855","500","250","inst","","","","","","",""
"","psychophysics","5","18833","0.0-5.0","60871d664054c52f5b2741ae","64de83b9b22d101f248c6b4d","","","","","4133",""," ","key"," ","16.664643724696347","500","250","sample0","","","","","","",""
"","psychophysics","6","22193","0.0-6.0","60871d664054c52f5b2741ae","64de83b9b22d101f248c6b4d","","","","","3339",""," ","key"," ","16.66483582089553","500","250","sample1","","","","","","",""
"","psychophysics","7","32657","0.0-7.0","60871d664054c52f5b2741ae","64de83b9b22d101f248c6b4d","","","","","10456",""," ","key"," ","16.664724082934608","500","250","sample2","92","","","","","",""
"","psychophysics","8","39734","0.0-8.0","60871d664054c52f5b2741ae","64de83b9b22d101f248c6b4d","","","","","7058",""," ","key"," ","16.665817966903063","500","250","sample3","86","","","","","",""
"","psychophysics","9","52658","0.0-9.0","60871d664054c52f5b2741ae","64de83b9b22d101f248c6b4d","","","","","12879",""," ","key"," ","16.686350129198956","500","250","sample4","100","","","","","",""
"","psychophysics","10","56825","0.0-10.0","60871d664054c52f5b2741ae","64de83b9b22d101f248c6b4d","","","","","4165",""," ","key"," ","16.66527309236947","500","250","sample5","","","","","","",""
"","psychophysics","11","64556","0.0-11.0","60871d664054c52f5b2741ae","64de83b9b22d101f248c6b4d","","","","","7725",""," ","key"," ","16.66525701943845","500","250","sample6","502","","","","","",""
"","psychophysics","12","72638","0.0-12.0","60871d664054c52f5b2741ae","64de83b9b22d101f248c6b4d","","","","","8076",""," ","key"," ","16.66503512396696","500","250","inst","","","","","","",""
"","psychophysics","13","77290","0.0-13.0","60871d664054c52f5b2741ae","64de83b9b22d101f248c6b4d","","","","","4650",""," ","key"," ","16.66521223021584","500","250","inst","","","","","","",""
"","psychophysics","14","79845","0.0-14.0","60871d664054c52f5b2741ae","64de83b9b22d101f248c6b4d","","","","","2549",""," ","key"," ","16.66529605263158","500","250","inst","","","","","","",""
"","psychophysics","15","81687","0.0-15.0","60871d664054c52f5b2741ae","64de83b9b22d101f248c6b4d","","","","","1824",""," ","key"," ","16.664627272727245","500","250","inst","","","","","","",""
"","psychophysics","16","82942","0.0-16.0","60871d664054c52f5b2741ae","64de83b9b22d101f248c6b4d","","","","","1250",""," ","key"," ","16.665635135135105","500","250","inst","","","","","","",""
"","psychophysics","17","85819","0.0-17.0","60871d664054c52f5b2741ae","64de83b9b22d101f248c6b4d","","","","","2863",""," ","key"," ","16.665215116278993","500","250","instPzPre","50","50","50","0","","",""
"","psychophysics","18","89427","0.0-18.0","60871d664054c52f5b2741ae","64de83b9b22d101f248c6b4d","","","","","3603",""," ","key"," ","16.664883720930288","500","250","instPz0","50","50","50","2","","",""
"","psychophysics","19","98766","0.0-19.0","60871d664054c52f5b2741ae","64de83b9b22d101f248c6b4d","","","","","9334",""," ","key"," ","16.665032200357775","500","250","instPz1","42","25","50","2","","",""
"","psychophysics","20","107436","0.0-20.0","60871d664054c52f5b2741ae","64de83b9b22d101f248c6b4d","","","","","8663",""," ","key"," ","16.665032692307683","500","250","instPz2","32","20","35","2","","",""
"","psychophysics","21","115772","0.0-21.0","60871d664054c52f5b2741ae","64de83b9b22d101f248c6b4d","","","","","8302",""," ","key"," ","16.665016032064116","500","250","instPz3","30","30","100","2","","",""
"","psychophysics","22","129099","0.0-22.0","60871d664054c52f5b2741ae","64de83b9b22d101f248c6b4d","","","","","13303",""," ","key"," ","16.664951127819542","500","250","instPz4","96","30","100","2","","",""
"","psychophysics","23","130615","0.0-23.0","60871d664054c52f5b2741ae","64de83b9b22d101f248c6b4d","","","","","1508",""," ","key"," ","16.665153846153792","500","250","inst","","","","","","",""
"","psychophysics","24","138622","0.0-24.0","60871d664054c52f5b2741ae","64de83b9b22d101f248c6b4d","","","","","null","","null","key","null","16.664820459290173","500","250","pz","24","31","28","2","0","",""
"","psychophysics","25","139395","0.0-25.0","60871d664054c52f5b2741ae","64de83b9b22d101f248c6b4d","","","","","772",""," ","key"," ","16.66576086956522","500","250","pz","20","20","30","2","0","",""
"","psychophysics","26","140826","0.0-26.0","60871d664054c52f5b2741ae","64de83b9b22d101f248c6b4d","","","","","1429",""," ","key"," ","16.666797619047603","500","250","pz","30","30","38","2","0","",""
"","psychophysics","27","148831","0.0-27.0","60871d664054c52f5b2741ae","64de83b9b22d101f248c6b4d","","","","","null","","null","key","null","16.66504375000004","500","250","pz","48","32","60","2","0","",""
"","psychophysics","28","154478","0.0-28.0","60871d664054c52f5b2741ae","64de83b9b22d101f248c6b4d","","","","","5642",""," ","key"," ","16.66512166172109","500","250","pz","23","42","30","2","0","",""
"","psychophysics","29","158604","0.0-29.0","60871d664054c52f5b2741ae","64de83b9b22d101f248c6b4d","","","","","4117",""," ","key"," ","16.66518218623477","500","250","pz","27","31","32","2","0","",""
"","psychophysics","30","163673","0.0-30.0","60871d664054c52f5b2741ae","64de83b9b22d101f248c6b4d","","","","","5068",""," ","key"," ","16.66459405940595","500","250","pz","37","24","44","2","0","",""
"","psychophysics","31","166799","0.0-31.0","60871d664054c52f5b2741ae","64de83b9b22d101f248c6b4d","","","","","3117",""," ","key"," ","16.665171122994586","500","250","pz","26","32","34","2","0","",""
"","psychophysics","32","170512","0.0-32.0","60871d664054c52f5b2741ae","64de83b9b22d101f248c6b4d","","","","","3697",""," ","key"," ","16.664968468468565","500","250","pz","37","27","40","2","0","",""
"","psychophysics","33","176108","0.0-33.0","60871d664054c52f5b2741ae","64de83b9b22d101f248c6b4d","","","","","5594",""," ","key"," ","16.664841791044715","500","250","pz","27","44","29","2","0","",""
"","psychophysics","34","178620","0.0-34.0","60871d664054c52f5b2741ae","64de83b9b22d101f248c6b4d","","","","","2510",""," ","key"," ","16.66418120805381","500","250","pz","42","42","46","2","0","",""
"","psychophysics","35","181286","0.0-35.0","60871d664054c52f5b2741ae","64de83b9b22d101f248c6b4d","","","","","2661",""," ","key"," ","16.665308176100535","500","250","pz","25","30","28","2","0","",""
"","psychophysics","36","186367","0.0-36.0","60871d664054c52f5b2741ae","64de83b9b22d101f248c6b4d","","","","","5065",""," ","key"," ","16.665157894736886","500","250","pz","18","45","22","2","0","",""
"","psychophysics","37","190007","0.0-37.0","60871d664054c52f5b2741ae","64de83b9b22d101f248c6b4d","","","","","3633",""," ","key"," ","16.6650599078341","500","250","pz","24","35","28","2","0","",""
"","psychophysics","38","192264","0.0-38.0","60871d664054c52f5b2741ae","64de83b9b22d101f248c6b4d","","","","","2251",""," ","key"," ","16.66570370370367","500","250","pz","37","34","49","2","0","",""
"","psychophysics","39","194247","0.0-39.0","60871d664054c52f5b2741ae","64de83b9b22d101f248c6b4d","","","","","1982",""," ","key"," ","16.664533898305155","500","250","inst","","","","","","",""
"","psychophysics","40","204828","0.0-40.0","60871d664054c52f5b2741ae","64de83b9b22d101f248c6b4d","","","","","10577",""," ","key"," ","16.665255520504726","500","250","instPog0","340","370","340","2","","0","0"
"","psychophysics","41","214262","0.0-41.0","60871d664054c52f5b2741ae","64de83b9b22d101f248c6b4d","","","","","9431",""," ","key"," ","16.66500884955754","500","250","instPog1","364","370","340","2","","0","0"
"","psychophysics","42","221621","0.0-42.0","60871d664054c52f5b2741ae","64de83b9b22d101f248c6b4d","","","","","7340",""," ","key"," ","16.665027210884357","500","250","instPog2","334","340","340","2","","0","0"
"","psychophysics","43","224012","0.0-43.0","60871d664054c52f5b2741ae","64de83b9b22d101f248c6b4d","","","","","2389",""," ","key"," ","16.664992957746506","500","250","inst","","","","","","",""
"","psychophysics","44","231011","0.0-44.0","60871d664054c52f5b2741ae","64de83b9b22d101f248c6b4d","","","","","6995",""," ","key"," ","16.665002386634843","500","250","pog","301","331","319","2","0","0","0"
"","psychophysics","45","234541","0.0-45.0","60871d664054c52f5b2741ae","64de83b9b22d101f248c6b4d","","","","","3520",""," ","key"," ","16.66492890995255","500","250","pog","348","340","376","2","0","0","0"
"","psychophysics","46","241659","0.0-46.0","60871d664054c52f5b2741ae","64de83b9b22d101f248c6b4d","","","","","7115",""," ","key"," ","16.664732394366144","500","250","pog","347","311","370","2","0","0","0"
"","psychophysics","47","247505","0.0-47.0","60871d664054c52f5b2741ae","64de83b9b22d101f248c6b4d","","","","","5844",""," ","key"," ","16.66506285714285","500","250","pog","322","330","333","2","0","0","0"
"","psychophysics","48","252601","0.0-48.0","60871d664054c52f5b2741ae","64de83b9b22d101f248c6b4d","","","","","5094",""," ","key"," ","16.664799999999985","500","250","pog","294","282","323","2","0","0","0"
"","psychophysics","49","255301","0.0-49.0","60871d664054c52f5b2741ae","64de83b9b22d101f248c6b4d","","","","","2698",""," ","key"," ","16.66544720496887","500","250","pog","336","350","355","2","0","0","0"
"","psychophysics","50","262456","0.0-50.0","60871d664054c52f5b2741ae","64de83b9b22d101f248c6b4d","","","","","7152",""," ","key"," ","16.6649579439252","500","250","pog","338","374","364","2","0","0","0"
"","psychophysics","51","268483","0.0-51.0","60871d664054c52f5b2741ae","64de83b9b22d101f248c6b4d","","","","","6022",""," ","key"," ","16.66481994459834","500","250","pog","299","391","322","2","0","0","0"
"","psychophysics","52","270776","0.0-52.0","60871d664054c52f5b2741ae","64de83b9b22d101f248c6b4d","","","","","2291",""," ","key"," ","16.6651838235296","500","250","pog","317","311","350","2","0","0","0"
"","psychophysics","53","278421","0.0-53.0","60871d664054c52f5b2741ae","64de83b9b22d101f248c6b4d","","","","","7638",""," ","key"," ","16.665192139737982","500","250","pog","305","333","326","2","0","0","0"
"","psychophysics","54","286348","0.0-54.0","60871d664054c52f5b2741ae","64de83b9b22d101f248c6b4d","","","","","7922",""," ","key"," ","16.665402953586526","500","250","pog","292","374","308","2","0","0","0"
"","psychophysics","55","289716","0.0-55.0","60871d664054c52f5b2741ae","64de83b9b22d101f248c6b4d","","","","","3362",""," ","key"," ","16.66537623762356","500","250","pog","328","392","356","2","0","0","0"
"","psychophysics","56","293085","0.0-56.0","60871d664054c52f5b2741ae","64de83b9b22d101f248c6b4d","","","","","3366",""," ","key"," ","16.665228855721445","500","250","pog","343","309","378","2","0","0","0"
"","psychophysics","57","297180","0.0-57.0","60871d664054c52f5b2741ae","64de83b9b22d101f248c6b4d","","","","","4092",""," ","key"," ","16.665459016393335","500","250","pog","337","385","368","2","0","0","0"
"","psychophysics","58","305183","0.0-58.0","60871d664054c52f5b2741ae","64de83b9b22d101f248c6b4d","","","","","null","","null","key","null","16.665222916666607","500","250","pog","327","315","358","2","0","0","0"
"","psychophysics","59","305318","0.0-59.0","60871d664054c52f5b2741ae","64de83b9b22d101f248c6b4d","","","","","133",""," ","key"," ","16.654142857146716","500","250","inst","","","","","","",""
"","psychophysics","60","307815","0.0-60.0","60871d664054c52f5b2741ae","64de83b9b22d101f248c6b4d","","","","","2496",""," ","key"," ","16.66439597315433","500","250","instBr0","0","0","300","","","0","0"
"","psychophysics","61","313746","0.0-61.0","60871d664054c52f5b2741ae","64de83b9b22d101f248c6b4d","","","","","5923",""," ","key"," ","16.664997183098656","500","250","instBr1","1","-40","300","","","0","0"
"","psychophysics","62","328780","0.0-62.0","60871d664054c52f5b2741ae","64de83b9b22d101f248c6b4d","","","","","15030",""," ","key"," ","16.665117647058832","500","250","instBr3","-3","40","300","1","","0","0"
"","psychophysics","63","329952","0.0-63.0","60871d664054c52f5b2741ae","64de83b9b22d101f248c6b4d","","","","","1166",""," ","key"," ","16.665971014492612","500","250","inst","","","","","","",""
"","psychophysics","64","335399","0.0-64.0","60871d664054c52f5b2741ae","64de83b9b22d101f248c6b4d","","","","","5437",""," ","key"," ","16.664904907975522","500","250","br","2","-1","253","1","0","-24","13"
"","psychophysics","65","338799","0.0-65.0","60871d664054c52f5b2741ae","64de83b9b22d101f248c6b4d","","","","","3396",""," ","key"," ","16.665256157635568","500","250","br","7","7","251","1","0","-27","-28"
"","psychophysics","66","344028","0.0-66.0","60871d664054c52f5b2741ae","64de83b9b22d101f248c6b4d","","","","","5225",""," ","key"," ","16.665019169329113","500","250","br","-10","-14","216","1","0","-1","26"
"","psychophysics","67","347986","0.0-67.0","60871d664054c52f5b2741ae","64de83b9b22d101f248c6b4d","","","","","3954",""," ","key"," ","16.665148305084646","500","250","br","6","26","255","1","0","-24","30"
"","psychophysics","68","351110","0.0-68.0","60871d664054c52f5b2741ae","64de83b9b22d101f248c6b4d","","","","","3112",""," ","key"," ","16.665689839572174","500","250","br","-17","-30","210","1","0","-10","-9"
"","psychophysics","69","353433","0.0-69.0","60871d664054c52f5b2741ae","64de83b9b22d101f248c6b4d","","","","","2316",""," ","key"," ","16.663985507246412","500","250","br","-2","5","208","1","0","-1","1"
"","psychophysics","70","355234","0.0-70.0","60871d664054c52f5b2741ae","64de83b9b22d101f248c6b4d","","","","","1791",""," ","key"," ","16.66597196261701","500","250","br","-5","5","217","1","0","-4","-19"
"","psychophysics","71","358381","0.0-71.0","60871d664054c52f5b2741ae","64de83b9b22d101f248c6b4d","","","","","3138",""," ","key"," ","16.665739361702048","500","250","br","-7","13","269","1","0","6","21"
"","psychophysics","72","360606","0.0-72.0","60871d664054c52f5b2741ae","64de83b9b22d101f248c6b4d","","","","","2212",""," ","key"," ","16.663894736842177","500","250","br","-18","-28","213","1","0","3","-10"
"","psychophysics","73","363118","0.0-73.0","60871d664054c52f5b2741ae","64de83b9b22d101f248c6b4d","","","","","2509",""," ","key"," ","16.665644295301895","500","250","br","-10","-11","277","1","0","23","-30"
"","psychophysics","74","366693","0.0-74.0","60871d664054c52f5b2741ae","64de83b9b22d101f248c6b4d","","","","","3567",""," ","key"," ","16.66631308411195","500","250","br","-15","-28","259","1","0","-14","-17"
"","psychophysics","75","369247","0.0-75.0","60871d664054c52f5b2741ae","64de83b9b22d101f248c6b4d","","","","","2546",""," ","key"," ","16.664513157894696","500","250","br","-4","-1","295","1","0","-6","19"
"","psychophysics","76","371857","0.0-76.0","60871d664054c52f5b2741ae","64de83b9b22d101f248c6b4d","","","","","2607",""," ","key"," ","16.66426923076916","500","250","br","0","2","213","1","0","-9","-25"
"","psychophysics","77","374189","0.0-77.0","60871d664054c52f5b2741ae","64de83b9b22d101f248c6b4d","","","","","2328",""," ","key"," ","16.667920289855143","500","250","br","-13","-15","212","1","0","19","10"
"","psychophysics","78","376394","0.0-78.0","60871d664054c52f5b2741ae","64de83b9b22d101f248c6b4d","","","","","2196",""," ","key"," ","16.66310606060583","500","250","br","-5","9","276","1","0","13","20"
"","psychophysics","79","377128","0.0-79.0","60871d664054c52f5b2741ae","64de83b9b22d101f248c6b4d","","","","","732",""," ","key"," ","16.663069767442934","500","250","inst","","","","","","",""
"","psychophysics","80","379716","0.0-80.0","60871d664054c52f5b2741ae","64de83b9b22d101f248c6b4d","","","","","2585",""," ","key"," ","16.66508441558448","500","250","instZol0","0","0","","","","0","0"
"","psychophysics","81","392159","0.0-81.0","60871d664054c52f5b2741ae","64de83b9b22d101f248c6b4d","","","","","12435",""," ","key"," ","16.665187667560375","500","250","instZol1","0.20000000000000004","-1.3","","","","0","0"
"","psychophysics","82","406566","0.0-82.0","60871d664054c52f5b2741ae","64de83b9b22d101f248c6b4d","","","","","14388",""," ","key"," ","16.66503939745069","500","250","instZol2","-2.7000000000000006","2","","2","","0","0"
"","psychophysics","83","407475","0.0-83.0","60871d664054c52f5b2741ae","64de83b9b22d101f248c6b4d","","","","","903",""," ","key"," ","16.66620370370435","500","250","inst","","","","","","",""
"","psychophysics","84","413870","0.0-84.0","60871d664054c52f5b2741ae","64de83b9b22d101f248c6b4d","","","","","6383",""," ","key"," ","16.664989556135748","500","250","zol","-0.6499999999999998","-0.75","","2","0","-25","-2"
"","psychophysics","85","421877","0.0-85.0","60871d664054c52f5b2741ae","64de83b9b22d101f248c6b4d","","","","","null","","null","key","null","16.66489144050106","500","250","zol","-0.28","-0.32","","2","0","-6","-16"
"","psychophysics","86","428932","0.0-86.0","60871d664054c52f5b2741ae","64de83b9b22d101f248c6b4d","","","","","7040",""," ","key"," ","16.66491489361707","500","250","zol","-1.5500000000000005","0.55","","2","0","2","-13"
"","psychophysics","87","435820","0.0-87.0","60871d664054c52f5b2741ae","64de83b9b22d101f248c6b4d","","","","","6879",""," ","key"," ","16.665203883495177","500","250","zol","-0.33","-0.57","","2","0","22","-26"
"","psychophysics","88","441186","0.0-88.0","60871d664054c52f5b2741ae","64de83b9b22d101f248c6b4d","","","","","5364",""," ","key"," ","16.66460436137068","500","250","zol","-1.0699999999999998","0.57","","2","0","27","18"
"","psychophysics","89","449188","0.0-89.0","60871d664054c52f5b2741ae","64de83b9b22d101f248c6b4d","","","","","null","","null","key","null","16.84114978902957","500","250","zol","-1.3","-0.5","","2","0","25","-14"
"","psychophysics","90","454273","0.0-90.0","60871d664054c52f5b2741ae","64de83b9b22d101f248c6b4d","","","","","5082",""," ","key"," ","16.665269736842195","500","250","zol","-0.6399999999999999","-0.66","","2","0","-1","-2"
"","psychophysics","91","459536","0.0-91.0","60871d664054c52f5b2741ae","64de83b9b22d101f248c6b4d","","","","","5249",""," ","key"," ","16.665485714285612","500","250","zol","-1.2200000000000002","0.02","","2","0","28","27"
"","psychophysics","92","463139","0.0-92.0","60871d664054c52f5b2741ae","64de83b9b22d101f248c6b4d","","","","","3588",""," ","key"," ","16.665223255813892","500","250","zol","-0.8400000000000001","-0.06","","2","0","-6","25"
"","psychophysics","93","467515","0.0-93.0","60871d664054c52f5b2741ae","64de83b9b22d101f248c6b4d","","","","","4365",""," ","key"," ","16.66536259541967","500","250","zol","-0.44999999999999996","-0.55","","2","0","-11","15"
"","psychophysics","94","475136","0.0-94.0","60871d664054c52f5b2741ae","64de83b9b22d101f248c6b4d","","","","","7613",""," ","key"," ","16.66530701754387","500","250","zol","-0.63","0.73","","2","0","-28","-18"
"","psychophysics","95","479838","0.0-95.0","60871d664054c52f5b2741ae","64de83b9b22d101f248c6b4d","","","","","4684",""," ","key"," ","16.66531672597854","500","250","zol","-1.29","0.49","","2","0","28","23"
"","psychophysics","96","482931","0.0-96.0","60871d664054c52f5b2741ae","64de83b9b22d101f248c6b4d","","","","","3075",""," ","key"," ","16.66521621621623","500","250","zol","-1.04","-0.06","","2","0","-1","20"
"","psychophysics","97","486722","0.0-97.0","60871d664054c52f5b2741ae","64de83b9b22d101f248c6b4d","","","","","3774",""," ","key"," ","16.665610619469092","500","250","zol","-1.7800000000000005","0.48","","2","0","-26","12"
"","psychophysics","98","491466","0.0-98.0","60871d664054c52f5b2741ae","64de83b9b22d101f248c6b4d","","","","","4724",""," ","key"," ","16.66486619718325","500","250","zol","-0.5199999999999999","-0.68","","2","0","-26","17"
"","psychophysics","99","492796","0.0-99.0","60871d664054c52f5b2741ae","64de83b9b22d101f248c6b4d","","","","","1317",""," ","key"," ","16.664746835443214","500","250","inst","","","","","","",""
"","psychophysics","100","495026","0.0-100.0","60871d664054c52f5b2741ae","64de83b9b22d101f248c6b4d","","","","","2222",""," ","key"," ","16.665157894736954","500","250","instEB0","40","40","40","1","","0","0"
"","psychophysics","101","502635","0.0-101.0","60871d664054c52f5b2741ae","64de83b9b22d101f248c6b4d","","","","","7607",""," ","key"," ","16.665439560439484","500","250","instEB1","31","40","30","1","","0","0"
"","psychophysics","102","509540","0.0-102.0","60871d664054c52f5b2741ae","64de83b9b22d101f248c6b4d","","","","","6889",""," ","key"," ","16.665004830917816","500","250","instEB2","39","30","40","1","","0","0"
"","psychophysics","103","518944","0.0-103.0","60871d664054c52f5b2741ae","64de83b9b22d101f248c6b4d","","","","","9400",""," ","key"," ","16.664989342806336","500","250","instEB3","42","27","45","1","","0","0"
"","psychophysics","104","524697","0.0-104.0","60871d664054c52f5b2741ae","64de83b9b22d101f248c6b4d","","","","","5748",""," ","key"," ","16.664936046511663","500","250","instEB4","25","40","30","1","","0","0"
"","psychophysics","105","526211","0.0-105.0","60871d664054c52f5b2741ae","64de83b9b22d101f248c6b4d","","","","","1512",""," ","key"," ","16.66640000000027","500","250","inst","","","","","","",""
"","psychophysics","106","532186","0.0-106.0","60871d664054c52f5b2741ae","64de83b9b22d101f248c6b4d","","","","","5958",""," ","key"," ","16.664778711484598","500","250","eb","31","31","37","1","","0","0"
"","psychophysics","107","534965","0.0-107.0","60871d664054c52f5b2741ae","64de83b9b22d101f248c6b4d","","","","","2772",""," ","key"," ","16.664331325301788","500","250","eb","23","46","26","1","","0","0"
"","psychophysics","108","538950","0.0-108.0","60871d664054c52f5b2741ae","64de83b9b22d101f248c6b4d","","","","","3978",""," ","key"," ","16.665336134453685","500","250","eb","27","39","28","1","","0","0"
"","psychophysics","109","543996","0.0-109.0","60871d664054c52f5b2741ae","64de83b9b22d101f248c6b4d","","","","","5035",""," ","key"," ","16.664940397351106","500","250","eb","41","54","42","1","","0","0"
"","psychophysics","110","547263","0.0-110.0","60871d664054c52f5b2741ae","64de83b9b22d101f248c6b4d","","","","","3256",""," ","key"," ","16.664738461538814","500","250","eb","31","38","33","1","","0","0"
"","psychophysics","111","552862","0.0-111.0","60871d664054c52f5b2741ae","64de83b9b22d101f248c6b4d","","","","","5598",""," ","key"," ","16.665402985074724","500","250","eb","31","46","30","1","","0","0"
"","psychophysics","112","555654","0.0-112.0","60871d664054c52f5b2741ae","64de83b9b22d101f248c6b4d","","","","","2786",""," ","key"," ","16.665113772454525","500","250","eb","34","52","30","1","","0","0"
"","psychophysics","113","561866","0.0-113.0","60871d664054c52f5b2741ae","64de83b9b22d101f248c6b4d","","","","","6209",""," ","key"," ","16.664778975741324","500","250","eb","42","37","50","1","","0","0"
"","psychophysics","114","565422","0.0-114.0","60871d664054c52f5b2741ae","64de83b9b22d101f248c6b4d","","","","","3548",""," ","key"," ","16.665244131455605","500","250","eb","39","36","45","1","","0","0"
"","psychophysics","115","569189","0.0-115.0","60871d664054c52f5b2741ae","64de83b9b22d101f248c6b4d","","","","","3764",""," ","key"," ","16.664977777777757","500","250","eb","42","27","46","1","","0","0"
"","psychophysics","116","573170","0.0-116.0","60871d664054c52f5b2741ae","64de83b9b22d101f248c6b4d","","","","","3976",""," ","key"," ","16.665180672268765","500","250","eb","33","44","36","1","","0","0"
"","psychophysics","117","578232","0.0-117.0","60871d664054c52f5b2741ae","64de83b9b22d101f248c6b4d","","","","","5053",""," ","key"," ","16.665207920792334","500","250","eb","46","51","49","1","","0","0"
"","psychophysics","118","582255","0.0-118.0","60871d664054c52f5b2741ae","64de83b9b22d101f248c6b4d","","","","","4019",""," ","key"," ","16.665670833333085","500","250","eb","39","47","42","1","","0","0"
"","psychophysics","119","585033","0.0-119.0","60871d664054c52f5b2741ae","64de83b9b22d101f248c6b4d","","","","","2774",""," ","key"," ","16.664885542168932","500","250","eb","37","43","44","1","","0","0"
"","psychophysics","120","586322","0.0-120.0","60871d664054c52f5b2741ae","64de83b9b22d101f248c6b4d","","","","","1283",""," ","key"," ","16.66490789473602","500","250","eb","36","36","45","1","","0","0"
"","psychophysics","121","587241","0.0-121.0","60871d664054c52f5b2741ae","64de83b9b22d101f248c6b4d","","","","","906",""," ","key"," ","16.66903703703752","500","250","inst","","","","","","",""
"","psychophysics","122","592927","0.0-122.0","60871d664054c52f5b2741ae","64de83b9b22d101f248c6b4d","","","","","5676",""," ","key"," ","16.664552941176396","500","250","instEB1","43","30","40","2","","0","0"
"","psychophysics","123","598168","0.0-123.0","60871d664054c52f5b2741ae","64de83b9b22d101f248c6b4d","","","","","5236",""," ","key"," ","16.665452229299518","500","250","instEB2","35","40","30","2","","0","0"
"","psychophysics","124","605607","0.0-124.0","60871d664054c52f5b2741ae","64de83b9b22d101f248c6b4d","","","","","7432",""," ","key"," ","16.664813483145945","500","250","instEB3","35","45","27","2","","0","0"
"","psychophysics","125","610329","0.0-125.0","60871d664054c52f5b2741ae","64de83b9b22d101f248c6b4d","","","","","4717",""," ","key"," ","16.665819787985953","500","250","instEB4","49","30","40","2","","0","0"
"","psychophysics","126","611300","0.0-126.0","60871d664054c52f5b2741ae","64de83b9b22d101f248c6b4d","","","","","966",""," ","key"," ","16.666035087719937","500","250","inst","","","","","","",""
"","psychophysics","127","614829","0.0-127.0","60871d664054c52f5b2741ae","64de83b9b22d101f248c6b4d","","","","","3512",""," ","key"," ","16.665004739336453","500","250","eb","56","36","44","2","","0","0"
"","psychophysics","128","618879","0.0-128.0","60871d664054c52f5b2741ae","64de83b9b22d101f248c6b4d","","","","","4045",""," ","key"," ","16.665338842975157","500","250","eb","38","39","32","2","","0","0"
"","psychophysics","129","621606","0.0-129.0","60871d664054c52f5b2741ae","64de83b9b22d101f248c6b4d","","","","","2722",""," ","key"," ","16.664975308642124","500","250","eb","40","37","36","2","","0","0"
"","psychophysics","130","624875","0.0-130.0","60871d664054c52f5b2741ae","64de83b9b22d101f248c6b4d","","","","","3257",""," ","key"," ","16.665338461538656","500","250","eb","54","47","46","2","","0","0"
"","psychophysics","131","629154","0.0-131.0","60871d664054c52f5b2741ae","64de83b9b22d101f248c6b4d","","","","","4274",""," ","key"," ","16.665378906250226","500","250","eb","44","53","31","2","","0","0"
"","psychophysics","132","633579","0.0-132.0","60871d664054c52f5b2741ae","64de83b9b22d101f248c6b4d","","","","","4419",""," ","key"," ","16.66541509433992","500","250","eb","40","53","29","2","","0","0"
"","psychophysics","133","637963","0.0-133.0","60871d664054c52f5b2741ae","64de83b9b22d101f248c6b4d","","","","","4377",""," ","key"," ","16.66498091603089","500","250","eb","35","42","27","2","","0","0"
"","psychophysics","134","640291","0.0-134.0","60871d664054c52f5b2741ae","64de83b9b22d101f248c6b4d","","","","","2326",""," ","key"," ","16.6640217391305","500","250","eb","33","43","26","2","","0","0"
"","psychophysics","135","643199","0.0-135.0","60871d664054c52f5b2741ae","64de83b9b22d101f248c6b4d","","","","","2900",""," ","key"," ","16.664580459770047","500","250","eb","39","35","32","2","","0","0"
"","psychophysics","136","645580","0.0-136.0","60871d664054c52f5b2741ae","64de83b9b22d101f248c6b4d","","","","","2379",""," ","key"," ","16.66519718309848","500","250","eb","59","54","50","2","","0","0"
"","psychophysics","137","649394","0.0-137.0","60871d664054c52f5b2741ae","64de83b9b22d101f248c6b4d","","","","","3810",""," ","key"," ","16.66597807017541","500","250","eb","58","45","50","2","","0","0"
"","psychophysics","138","654684","0.0-138.0","60871d664054c52f5b2741ae","64de83b9b22d101f248c6b4d","","","","","5283",""," ","key"," ","16.6651424050631","500","250","eb","65","25","54","2","","0","0"
"","psychophysics","139","658810","0.0-139.0","60871d664054c52f5b2741ae","64de83b9b22d101f248c6b4d","","","","","4119",""," ","key"," ","16.663514170040628","500","250","eb","27","40","26","2","","0","0"
"","psychophysics","140","662422","0.0-140.0","60871d664054c52f5b2741ae","64de83b9b22d101f248c6b4d","","","","","3606",""," ","key"," ","16.664407407407353","500","250","eb","39","27","36","2","","0","0"
"","psychophysics","141","664493","0.0-141.0","60871d664054c52f5b2741ae","64de83b9b22d101f248c6b4d","","","","","2065",""," ","key"," ","16.665097560974907","500","250","eb","45","28","34","2","","0","0"
"","psychophysics","142","665316","0.0-142.0","60871d664054c52f5b2741ae","64de83b9b22d101f248c6b4d","","","","","816",""," ","key"," ","16.678937500000757","500","250","inst","","","","","","",""
"","psychophysics","143","671077","0.0-143.0","60871d664054c52f5b2741ae","64de83b9b22d101f248c6b4d","","","","","5747",""," ","key"," ","16.665431884058037","500","250","instZol1","0.4","-1.3","","","","0","0"
"","psychophysics","144","679833","0.0-144.0","60871d664054c52f5b2741ae","64de83b9b22d101f248c6b4d","","","","","8734",""," ","key"," ","16.66515076335876","500","250","instZol2","0.20000000000000065","2","","1","","0","0"
"","psychophysics","145","680713","0.0-145.0","60871d664054c52f5b2741ae","64de83b9b22d101f248c6b4d","","","","","868",""," ","key"," ","16.66630769230631","500","250","inst","","","","","","",""
"","psychophysics","146","688727","0.0-146.0","60871d664054c52f5b2741ae","64de83b9b22d101f248c6b4d","","","","","null","","null","key","null","16.665235416666594","500","250","zol","1.29","0.61","","1","1","-10","-26"
"","psychophysics","147","692838","0.0-147.0","60871d664054c52f5b2741ae","64de83b9b22d101f248c6b4d","","","","","4094",""," ","key"," ","16.664763265305996","500","250","zol","1.6300000000000006","0.07","","1","1","2","11"
"","psychophysics","148","695411","0.0-148.0","60871d664054c52f5b2741ae","64de83b9b22d101f248c6b4d","","","","","2554",""," ","key"," ","16.66561038961087","500","250","zol","1.2200000000000002","-0.22","","1","1","17","3"
"","psychophysics","149","698007","0.0-149.0","60871d664054c52f5b2741ae","64de83b9b22d101f248c6b4d","","","","","2578",""," ","key"," ","16.664896774193604","500","250","zol","1.5000000000000002","-0.4","","1","1","14","-8"
"","psychophysics","150","702562","0.0-150.0","60871d664054c52f5b2741ae","64de83b9b22d101f248c6b4d","","","","","4533",""," ","key"," ","16.665658088235325","500","250","zol","1.0499999999999998","-0.35","","1","1","-27","-10"
"","psychophysics","151","706046","0.0-151.0","60871d664054c52f5b2741ae","64de83b9b22d101f248c6b4d","","","","","3464",""," ","key"," ","16.665149038461657","500","250","zol","1.3800000000000003","-0.68","","1","1","6","-27"
"","psychophysics","152","710401","0.0-152.0","60871d664054c52f5b2741ae","64de83b9b22d101f248c6b4d","","","","","4336",""," ","key"," ","16.665419230769533","500","250","zol","1.2900000000000003","0.41","","1","1","-17","-11"
"","psychophysics","153","714124","0.0-153.0","60871d664054c52f5b2741ae","64de83b9b22d101f248c6b4d","","","","","3707",""," ","key"," ","16.664959641255443","500","250","zol","0.8599999999999999","0.34","","1","1","-9","14"
"","psychophysics","154","716825","0.0-154.0","60871d664054c52f5b2741ae","64de83b9b22d101f248c6b4d","","","","","2678",""," ","key"," ","16.665801242236135","500","250","zol","1.27","-0.17","","1","1","-16","0"
"","psychophysics","155","719807","0.0-155.0","60871d664054c52f5b2741ae","64de83b9b22d101f248c6b4d","","","","","2964",""," ","key"," ","16.66526966292105","500","250","zol","1.0699999999999998","0.13","","1","1","25","-25"
"","psychophysics","156","722587","0.0-156.0","60871d664054c52f5b2741ae","64de83b9b22d101f248c6b4d","","","","","2762",""," ","key"," ","16.66540963855412","500","250","zol","1.6700000000000004","-0.57","","1","1","25","-4"
"","psychophysics","157","724955","0.0-157.0","60871d664054c52f5b2741ae","64de83b9b22d101f248c6b4d","","","","","2352",""," ","key"," ","16.666971631206124","500","250","zol","1.6900000000000004","-0.69","","1","1","2","-14"
"","psychophysics","158","727644","0.0-158.0","60871d664054c52f5b2741ae","64de83b9b22d101f248c6b4d","","","","","2652",""," ","key"," ","16.665356250000332","500","250","zol","1.5300000000000005","0.37","","1","1","-17","11"
"","psychophysics","159","729921","0.0-159.0","60871d664054c52f5b2741ae","64de83b9b22d101f248c6b4d","","","","","2259",""," ","key"," ","16.661514705881608","500","250","zol","1.17","0.33","","1","1","-30","17"
"","psychophysics","160","732254","0.0-160.0","60871d664054c52f5b2741ae","64de83b9b22d101f248c6b4d","","","","","2316",""," ","key"," ","16.665107913669566","500","250","zol","1.3800000000000001","0.22","","1","1","5","12"
"","psychophysics","161","733509","0.0-161.0","60871d664054c52f5b2741ae","64de83b9b22d101f248c6b4d","","","","","1250",""," ","key"," ","16.663418918920403","500","250","inst","","","","","","",""
"","psychophysics","162","739204","0.0-162.0","60871d664054c52f5b2741ae","64de83b9b22d101f248c6b4d","","","","","5684",""," ","key"," ","16.664991202346005","500","250","instPog0","160","190","160","1","","0","0"
"","psychophysics","163","750171","0.0-163.0","60871d664054c52f5b2741ae","64de83b9b22d101f248c6b4d","","","","","10960",""," ","key"," ","16.66461491628615","500","250","instPog1","172","190","160","1","","0","0"
"","psychophysics","164","754450","0.0-164.0","60871d664054c52f5b2741ae","64de83b9b22d101f248c6b4d","","","","","4278",""," ","key"," ","16.66556249999985","500","250","instPog2","182","160","160","1","","0","0"
"","psychophysics","165","755224","0.0-165.0","60871d664054c52f5b2741ae","64de83b9b22d101f248c6b4d","","","","","768",""," ","key"," ","16.661133333334387","500","250","inst","","","","","","",""
"","psychophysics","166","759723","0.0-166.0","60871d664054c52f5b2741ae","64de83b9b22d101f248c6b4d","","","","","4486",""," ","key"," ","16.665386617100594","500","250","pog","166","152","141","1","1","0","0"
"","psychophysics","167","763582","0.0-167.0","60871d664054c52f5b2741ae","64de83b9b22d101f248c6b4d","","","","","3847",""," ","key"," ","16.665108225108284","500","250","pog","166","102","140","1","1","0","0"
"","psychophysics","168","766559","0.0-168.0","60871d664054c52f5b2741ae","64de83b9b22d101f248c6b4d","","","","","2971",""," ","key"," ","16.665734463276625","500","250","pog","125","113","121","1","1","0","0"
"","psychophysics","169","769099","0.0-169.0","60871d664054c52f5b2741ae","64de83b9b22d101f248c6b4d","","","","","2529",""," ","key"," ","16.66548026315822","500","250","pog","165","175","139","1","1","0","0"
"","psychophysics","170","771760","0.0-170.0","60871d664054c52f5b2741ae","64de83b9b22d101f248c6b4d","","","","","2653",""," ","key"," ","16.66560126582302","500","250","pog","161","171","141","1","1","0","0"
"","psychophysics","171","775704","0.0-171.0","60871d664054c52f5b2741ae","64de83b9b22d101f248c6b4d","","","","","3916",""," ","key"," ","16.66434322033912","500","250","pog","229","111","199","1","1","0","0"
"","psychophysics","172","780801","0.0-172.0","60871d664054c52f5b2741ae","64de83b9b22d101f248c6b4d","","","","","5095",""," ","key"," ","16.66499016393457","500","250","pog","210","164","177","1","1","0","0"
"","psychophysics","173","783565","0.0-173.0","60871d664054c52f5b2741ae","64de83b9b22d101f248c6b4d","","","","","2762",""," ","key"," ","16.66626060606037","500","250","pog","205","201","189","1","1","0","0"
"","psychophysics","174","787585","0.0-174.0","60871d664054c52f5b2741ae","64de83b9b22d101f248c6b4d","","","","","4016",""," ","key"," ","16.66521249999981","500","250","pog","214","138","197","1","1","0","0"
"","psychophysics","175","791697","0.0-175.0","60871d664054c52f5b2741ae","64de83b9b22d101f248c6b4d","","","","","4072",""," ","key"," ","16.733538775509984","500","250","pog","208","214","192","1","1","0","0"
"","psychophysics","176","794884","0.0-176.0","60871d664054c52f5b2741ae","64de83b9b22d101f248c6b4d","","","","","3182",""," ","key"," ","16.666026315789082","500","250","pog","170","216","126","1","1","0","0"
"","psychophysics","177","799176","0.0-177.0","60871d664054c52f5b2741ae","64de83b9b22d101f248c6b4d","","","","","4284",""," ","key"," ","16.66515625000011","500","250","pog","197","179","174","1","1","0","0"
"","psychophysics","178","805730","0.0-178.0","60871d664054c52f5b2741ae","64de83b9b22d101f248c6b4d","","","","","6543",""," ","key"," ","16.664407124681844","500","250","pog","224","108","199","1","1","0","0"
"","psychophysics","179","809574","0.0-179.0","60871d664054c52f5b2741ae","64de83b9b22d101f248c6b4d","","","","","3836",""," ","key"," ","16.664873362445135","500","250","pog","180","166","156","1","1","0","0"
"","psychophysics","180","812270","0.0-180.0","60871d664054c52f5b2741ae","64de83b9b22d101f248c6b4d","","","","","2686",""," ","key"," ","16.666037267080497","500","250","pog","172","148","156","1","1","0","0"
"","psychophysics","181","813081","0.0-181.0","60871d664054c52f5b2741ae","64de83b9b22d101f248c6b4d","","","","","796",""," ","key"," ","16.66693750000074","500","250","inst","","","","","","",""
"","psychophysics","182","820565","0.0-182.0","60871d664054c52f5b2741ae","64de83b9b22d101f248c6b4d","","","","","7477",""," ","key"," ","16.665133928571386","500","250","instPz1","47","25","50","1","","",""
"","psychophysics","183","824316","0.0-183.0","60871d664054c52f5b2741ae","64de83b9b22d101f248c6b4d","","","","","3735",""," ","key"," ","16.665321428571456","500","250","instPz2","19","35","20","1","","",""
"","psychophysics","184","826546","0.0-184.0","60871d664054c52f5b2741ae","64de83b9b22d101f248c6b4d","","","","","2214",""," ","key"," ","16.6655563909781","500","250","instPz3","100","100","30","1","","",""
"","psychophysics","185","834607","0.0-185.0","60871d664054c52f5b2741ae","64de83b9b22d101f248c6b4d","","","","","8056",""," ","key"," ","16.66472199170114","500","250","instPz4","34","100","30","1","","",""
"","psychophysics","186","835422","0.0-186.0","60871d664054c52f5b2741ae","64de83b9b22d101f248c6b4d","","","","","801",""," ","key"," ","16.668145833333256","500","250","inst","","","","","","",""
"","psychophysics","187","839650","0.0-187.0","60871d664054c52f5b2741ae","64de83b9b22d101f248c6b4d","","","","","4213",""," ","key"," ","16.66490513834","500","250","pz","60","59","50","1","1","",""
"","psychophysics","188","841398","0.0-188.0","60871d664054c52f5b2741ae","64de83b9b22d101f248c6b4d","","","","","1733",""," ","key"," ","16.66477884615373","500","250","pz","50","51","55","1","1","",""
"","psychophysics","189","847992","0.0-189.0","60871d664054c52f5b2741ae","64de83b9b22d101f248c6b4d","","","","","6590",""," ","key"," ","16.66555443037997","500","250","pz","31","48","25","1","1","",""
"","psychophysics","190","850612","0.0-190.0","60871d664054c52f5b2741ae","64de83b9b22d101f248c6b4d","","","","","2613",""," ","key"," ","16.665243589743906","500","250","pz","57","34","44","1","1","",""
"","psychophysics","191","853158","0.0-191.0","60871d664054c52f5b2741ae","64de83b9b22d101f248c6b4d","","","","","2529",""," ","key"," ","16.66578289473699","500","250","pz","58","51","50","1","1","",""
"","psychophysics","192","856516","0.0-192.0","60871d664054c52f5b2741ae","64de83b9b22d101f248c6b4d","","","","","3329",""," ","key"," ","16.66521000000008","500","250","pz","44","33","30","1","1","",""
"","psychophysics","193","858692","0.0-193.0","60871d664054c52f5b2741ae","64de83b9b22d101f248c6b4d","","","","","2163",""," ","key"," ","16.66499999999964","500","250","pz","46","41","34","1","1","",""
"","psychophysics","194","861327","0.0-194.0","60871d664054c52f5b2741ae","64de83b9b22d101f248c6b4d","","","","","2630",""," ","key"," ","16.66402547770687","500","250","pz","35","27","29","1","1","",""
"","psychophysics","195","863714","0.0-195.0","60871d664054c52f5b2741ae","64de83b9b22d101f248c6b4d","","","","","2383",""," ","key"," ","16.665690140845417","500","250","pz","74","39","57","1","1","",""
"","psychophysics","196","867591","0.0-196.0","60871d664054c52f5b2741ae","64de83b9b22d101f248c6b4d","","","","","3864",""," ","key"," ","16.66679310344826","500","250","pz","46","52","29","1","1","",""
"","psychophysics","197","870224","0.0-197.0","60871d664054c52f5b2741ae","64de83b9b22d101f248c6b4d","","","","","2627",""," ","key"," ","16.663929936305507","500","250","pz","24","22","21","1","1","",""
"","psychophysics","198","874139","0.0-198.0","60871d664054c52f5b2741ae","64de83b9b22d101f248c6b4d","","","","","3912",""," ","key"," ","16.665303418803344","500","250","pz","70","25","59","1","1","",""
"","psychophysics","199","876799","0.0-199.0","60871d664054c52f5b2741ae","64de83b9b22d101f248c6b4d","","","","","2652",""," ","key"," ","16.665563291139147","500","250","pz","62","44","43","1","1","",""
"","psychophysics","200","880408","0.0-200.0","60871d664054c52f5b2741ae","64de83b9b22d101f248c6b4d","","","","","3576",""," ","key"," ","16.665222222222603","500","250","pz","80","37","55","1","1","",""
"","psychophysics","201","883126","0.0-201.0","60871d664054c52f5b2741ae","64de83b9b22d101f248c6b4d","","","","","2712",""," ","key"," ","16.66446296296321","500","250","pz","63","29","52","1","1","",""
"","psychophysics","202","884422","0.0-202.0","60871d664054c52f5b2741ae","64de83b9b22d101f248c6b4d","","","","","1294",""," ","key"," ","16.66736363636348","500","250","inst","","","","","","",""
"","psychophysics","203","890927","0.0-203.0","60871d664054c52f5b2741ae","64de83b9b22d101f248c6b4d","","","","","6498",""," ","key"," ","16.66505912596397","500","250","instBr3","40","40","300","2","","0","0"
"","psychophysics","204","892022","0.0-204.0","60871d664054c52f5b2741ae","64de83b9b22d101f248c6b4d","","","","","1089",""," ","key"," ","16.66567692307648","500","250","inst","","","","","","",""
"","psychophysics","205","899358","0.0-205.0","60871d664054c52f5b2741ae","64de83b9b22d101f248c6b4d","","","","","7303",""," ","key"," ","16.665006833712905","500","250","br","9","-8","266","2","1","0","6"
"","psychophysics","206","901638","0.0-206.0","60871d664054c52f5b2741ae","64de83b9b22d101f248c6b4d","","","","","2266",""," ","key"," ","16.665191176469843","500","250","br","21","-8","296","2","1","-21","-10"
"","psychophysics","207","904029","0.0-207.0","60871d664054c52f5b2741ae","64de83b9b22d101f248c6b4d","","","","","2389",""," ","key"," ","16.66564084507007","500","250","br","18","-16","295","2","1","-19","-6"
"","psychophysics","208","906786","0.0-208.0","60871d664054c52f5b2741ae","64de83b9b22d101f248c6b4d","","","","","2741",""," ","key"," ","16.665775757575773","500","250","br","16","-30","238","2","1","-19","15"
"","psychophysics","209","908439","0.0-209.0","60871d664054c52f5b2741ae","64de83b9b22d101f248c6b4d","","","","","1646",""," ","key"," ","16.662959183673184","500","250","br","23","11","250","2","1","14","-29"
"","psychophysics","210","910905","0.0-210.0","60871d664054c52f5b2741ae","64de83b9b22d101f248c6b4d","","","","","2459",""," ","key"," ","16.664768707483127","500","250","br","23","27","287","2","1","-22","8"
"","psychophysics","211","913785","0.0-211.0","60871d664054c52f5b2741ae","64de83b9b22d101f248c6b4d","","","","","2861",""," ","key"," ","16.66576608187146","500","250","br","22","27","251","2","1","9","22"
"","psychophysics","212","916043","0.0-212.0","60871d664054c52f5b2741ae","64de83b9b22d101f248c6b4d","","","","","2246",""," ","key"," ","16.66591111111058","500","250","br","13","-8","277","2","1","-9","16"
"","psychophysics","213","918581","0.0-213.0","60871d664054c52f5b2741ae","64de83b9b22d101f248c6b4d","","","","","2523",""," ","key"," ","16.665251655629003","500","250","br","10","22","288","2","1","22","-2"
"","psychophysics","214","921123","0.0-214.0","60871d664054c52f5b2741ae","64de83b9b22d101f248c6b4d","","","","","2531",""," ","key"," ","16.667250000000134","500","250","br","25","-16","270","2","1","-26","-4"
"","psychophysics","215","923952","0.0-215.0","60871d664054c52f5b2741ae","64de83b9b22d101f248c6b4d","","","","","2815",""," ","key"," ","16.665076923077187","500","250","br","21","4","201","2","1","-14","-7"
"","psychophysics","216","925854","0.0-216.0","60871d664054c52f5b2741ae","64de83b9b22d101f248c6b4d","","","","","1894",""," ","key"," ","16.665787610619955","500","250","br","21","18","288","2","1","25","-5"
"","psychophysics","217","928297","0.0-217.0","60871d664054c52f5b2741ae","64de83b9b22d101f248c6b4d","","","","","2427",""," ","key"," ","16.665337931033996","500","250","br","14","-20","242","2","1","18","27"
"","psychophysics","218","929834","0.0-218.0","60871d664054c52f5b2741ae","64de83b9b22d101f248c6b4d","","","","","1527",""," ","key"," ","16.666250000000456","500","250","br","28","15","210","2","1","21","23"
"","psychophysics","219","931692","0.0-219.0","60871d664054c52f5b2741ae","64de83b9b22d101f248c6b4d","","","","","1851",""," ","key"," ","16.665654545454096","500","250","br","13","14","249","2","1","0","28"
