"success","trial_type","trial_index","time_elapsed","internal_node_id","pid","sid","timeout","failed_images","failed_audio","failed_video","rt","stimulus","response","response_type","key_press","avg_frame_time","center_x","center_y","task","resp","version","block","jitterX","jitterY","start","parA"
"true","fullscreen","0","9365","0.0-0.0","6132e1c8bab771d0d0f6f3e9","64de81b20235d278246b0bd3","","","","","","","","","","","","","","","","","","","",""
"true","preload","1","9674","0.0-1.0","6132e1c8bab771d0d0f6f3e9","64de81b20235d278246b0bd3","false","[]","[]","[]","","","","","","","","","","","","","","","",""
"","html-button-response","2","17871","0.0-2.0","6132e1c8bab771d0d0f6f3e9","64de81b20235d278246b0bd3","","","","","8195","Please Make Sure Your Audio Is On.","0","","","","","","","","","","","","",""
"","psychophysics","3","27253","0.0-3.0","6132e1c8bab771d0d0f6f3e9","64de81b20235d278246b0bd3","","","","","9371",""," ","key"," ","16.66563055062167","683","250","","","","","","","",""
"","psychophysics","4","36275","0.0-4.0","6132e1c8bab771d0d0f6f3e9","64de81b20235d278246b0bd3","","","","","9018",""," ","key"," ","16.66712962962963","500","250","inst","","","","","","",""
"","psychophysics","5","44126","0.0-5.0","6132e1c8bab771d0d0f6f3e9","64de81b20235d278246b0bd3","","","","","7847",""," ","key"," ","16.666240425531917","500","250","sample0","","","","","","",""
"","psychophysics","6","49009","0.0-6.0","6132e1c8bab771d0d0f6f3e9","64de81b20235d278246b0bd3","","","","","4877",""," ","key"," ","16.66666780821918","500","250","sample1","","","","","","",""
"","psychophysics","7","105697","0.0-7.0","6132e1c8bab771d0d0f6f3e9","64de81b20235d278246b0bd3","","","","","56679",""," ","key"," ","16.666342252278742","500","250","sample2","96","","","","","",""
"","psychophysics","8","119548","0.0-8.0","6132e1c8bab771d0d0f6f3e9","64de81b20235d278246b0bd3","","","","","13846",""," ","key"," ","16.665897590361435","500","250","sample3","116","","","","","",""
"","psychophysics","9","139529","0.0-9.0","6132e1c8bab771d0d0f6f3e9","64de81b20235d278246b0bd3","","","","","19978",""," ","key"," ","16.665872287145238","500","250","sample4","100","","","","","",""
"","psychophysics","10","148007","0.0-10.0","6132e1c8bab771d0d0f6f3e9","64de81b20235d278246b0bd3","","","","","8474",""," ","key"," ","16.665844181459534","500","250","sample5","","","","","","",""
"","psychophysics","11","177296","0.0-11.0","6132e1c8bab771d0d0f6f3e9","64de81b20235d278246b0bd3","","","","","29282",""," ","key"," ","16.666032441661915","500","250","sample6","500","","","","","",""
"","psychophysics","12","190606","0.0-12.0","6132e1c8bab771d0d0f6f3e9","64de81b20235d278246b0bd3","","","","","13306",""," ","key"," ","16.666175658720178","500","250","inst","","","","","","",""
"","psychophysics","13","199079","0.0-13.0","6132e1c8bab771d0d0f6f3e9","64de81b20235d278246b0bd3","","","","","8466",""," ","key"," ","16.66616141732284","500","250","inst","","","","","","",""
"","psychophysics","14","207709","0.0-14.0","6132e1c8bab771d0d0f6f3e9","64de81b20235d278246b0bd3","","","","","8626",""," ","key"," ","16.665953578336577","500","250","inst","","","","","","",""
"","psychophysics","15","220678","0.0-15.0","6132e1c8bab771d0d0f6f3e9","64de81b20235d278246b0bd3","","","","","12965",""," ","key"," ","16.66583912483911","500","250","inst","","","","","","",""
"","psychophysics","16","228153","0.0-16.0","6132e1c8bab771d0d0f6f3e9","64de81b20235d278246b0bd3","","","","","7472",""," ","key"," ","16.66583445190156","500","250","inst","","","","","","",""
"","psychophysics","17","235266","0.0-17.0","6132e1c8bab771d0d0f6f3e9","64de81b20235d278246b0bd3","","","","","7107",""," ","key"," ","16.666553990610307","500","250","instZol0","0","","","0","0","0",""
"","psychophysics","18","263919","0.0-18.0","6132e1c8bab771d0d0f6f3e9","64de81b20235d278246b0bd3","","","","","28650",""," ","key"," ","16.665884749708958","500","250","instZol1","-0.19999999999999998","","","0","0","-1.3",""
"","psychophysics","19","277096","0.0-19.0","6132e1c8bab771d0d0f6f3e9","64de81b20235d278246b0bd3","","","","","13169",""," ","key"," ","16.66616582278482","500","250","instZol2","-7.799999999999988","1","","0","0","2",""
"","psychophysics","20","281338","0.0-20.0","6132e1c8bab771d0d0f6f3e9","64de81b20235d278246b0bd3","","","","","4239",""," ","key"," ","16.666090551181238","500","250","inst","","","","","","",""
"","psychophysics","21","289346","0.0-21.0","6132e1c8bab771d0d0f6f3e9","64de81b20235d278246b0bd3","","","","","null","","null","key","null","16.665233820459285","500","250","zol","-17.049999999999976","1","0","-20","-9","-0.55",""
"","psychophysics","22","293008","0.0-22.0","6132e1c8bab771d0d0f6f3e9","64de81b20235d278246b0bd3","","","","","3651",""," ","key"," ","16.666602739725914","500","250","zol","-0.5","1","0","28","27","0.4",""
"","psychophysics","23","295032","0.0-23.0","6132e1c8bab771d0d0f6f3e9","64de81b20235d278246b0bd3","","","","","2018",""," ","key"," ","16.66548333333291","500","250","zol","-0.21","1","0","20","1","0.21",""
"","psychophysics","24","303043","0.0-24.0","6132e1c8bab771d0d0f6f3e9","64de81b20235d278246b0bd3","","","","","null","","null","key","null","16.666018750000028","500","250","zol","-7.079999999999991","1","0","-7","24","0.28",""
"","psychophysics","25","309105","0.0-25.0","6132e1c8bab771d0d0f6f3e9","64de81b20235d278246b0bd3","","","","","6055",""," ","key"," ","16.666253443526266","500","250","zol","-7.759999999999989","1","0","-4","-22","-0.04",""
"","psychophysics","26","314024","0.0-26.0","6132e1c8bab771d0d0f6f3e9","64de81b20235d278246b0bd3","","","","","4913",""," ","key"," ","16.66619047619043","500","250","zol","-6.949999999999992","1","0","29","0","0.45",""
"","psychophysics","27","320203","0.0-27.0","6132e1c8bab771d0d0f6f3e9","64de81b20235d278246b0bd3","","","","","6173",""," ","key"," ","16.665562162162246","500","250","zol","-8.269999999999987","1","0","15","-8","-0.23",""
"","psychophysics","28","328210","0.0-28.0","6132e1c8bab771d0d0f6f3e9","64de81b20235d278246b0bd3","","","","","null","","null","key","null","16.665356993736964","500","250","zol","-8.289999999999988","1","0","1","3","-0.21",""
"","psychophysics","29","329144","0.0-29.0","6132e1c8bab771d0d0f6f3e9","64de81b20235d278246b0bd3","","","","","931",""," ","key"," ","16.668163636363833","500","250","zol","-0.56","1","0","9","-17","0.56",""
"","psychophysics","30","334468","0.0-30.0","6132e1c8bab771d0d0f6f3e9","64de81b20235d278246b0bd3","","","","","5322",""," ","key"," ","16.666031347962495","500","250","zol","-7.39999999999999","1","0","-18","14","-0.4",""
"","psychophysics","31","342482","0.0-31.0","6132e1c8bab771d0d0f6f3e9","64de81b20235d278246b0bd3","","","","","null","","null","key","null","16.665895615866344","500","250","zol","-6.5999999999999925","1","0","-5","-19","0",""
"","psychophysics","32","348086","0.0-32.0","6132e1c8bab771d0d0f6f3e9","64de81b20235d278246b0bd3","","","","","5597",""," ","key"," ","16.66679464285716","500","250","zol","-0.2","1","0","17","-11","0",""
"","psychophysics","33","353122","0.0-33.0","6132e1c8bab771d0d0f6f3e9","64de81b20235d278246b0bd3","","","","","5030",""," ","key"," ","16.66579401993349","500","250","zol","-7.269999999999991","1","0","-23","19","-0.23",""
"","psychophysics","34","359041","0.0-34.0","6132e1c8bab771d0d0f6f3e9","64de81b20235d278246b0bd3","","","","","5914",""," ","key"," ","16.66516949152551","500","250","zol","-7.029999999999991","1","0","18","21","0.53",""
"","psychophysics","35","363754","0.0-35.0","6132e1c8bab771d0d0f6f3e9","64de81b20235d278246b0bd3","","","","","4708",""," ","key"," ","16.66676950354603","500","250","zol","-7.41999999999999","1","0","7","-11","-0.28",""
"","psychophysics","36","368253","0.0-36.0","6132e1c8bab771d0d0f6f3e9","64de81b20235d278246b0bd3","","","","","4496",""," ","key"," ","16.665364312267684","500","250","inst","","","","","","",""
"","psychophysics","37","374964","0.0-37.0","6132e1c8bab771d0d0f6f3e9","64de81b20235d278246b0bd3","","","","","6707",""," ","key"," ","16.6661546134664","500","250","instBr0","0","","","0","0","0","300"
"","psychophysics","38","389404","0.0-38.0","6132e1c8bab771d0d0f6f3e9","64de81b20235d278246b0bd3","","","","","14434",""," ","key"," ","16.666088914549704","500","250","instBr1","0","","","0","0","-40","300"
"","psychophysics","39","404744","0.0-39.0","6132e1c8bab771d0d0f6f3e9","64de81b20235d278246b0bd3","","","","","15338",""," ","key"," ","16.66594994559307","500","250","instBr3","14","2","","0","0","40","300"
"","psychophysics","40","408370","0.0-40.0","6132e1c8bab771d0d0f6f3e9","64de81b20235d278246b0bd3","","","","","3621",""," ","key"," ","16.66669585253461","500","250","inst","","","","","","",""
"","psychophysics","41","416378","0.0-41.0","6132e1c8bab771d0d0f6f3e9","64de81b20235d278246b0bd3","","","","","null","","null","key","null","16.665584551148108","500","250","br","19","2","0","24","20","22","208"
"","psychophysics","42","419189","0.0-42.0","6132e1c8bab771d0d0f6f3e9","64de81b20235d278246b0bd3","","","","","2807",""," ","key"," ","16.667892857142892","500","250","br","-10","2","0","-3","5","-10","233"
"","psychophysics","43","425484","0.0-43.0","6132e1c8bab771d0d0f6f3e9","64de81b20235d278246b0bd3","","","","","6291",""," ","key"," ","16.665488063660543","500","250","br","21","2","0","-3","11","26","261"
"","psychophysics","44","432641","0.0-44.0","6132e1c8bab771d0d0f6f3e9","64de81b20235d278246b0bd3","","","","","7154",""," ","key"," ","16.664387850467307","500","250","br","20","2","0","-7","12","-24","246"
"","psychophysics","45","439680","0.0-45.0","6132e1c8bab771d0d0f6f3e9","64de81b20235d278246b0bd3","","","","","7036",""," ","key"," ","16.666924170616067","500","250","br","11","2","0","-15","30","9","252"
"","psychophysics","46","444214","0.0-46.0","6132e1c8bab771d0d0f6f3e9","64de81b20235d278246b0bd3","","","","","4529",""," ","key"," ","16.665309963099627","500","250","br","9","2","0","7","-12","6","272"
"","psychophysics","47","448655","0.0-47.0","6132e1c8bab771d0d0f6f3e9","64de81b20235d278246b0bd3","","","","","4438",""," ","key"," ","16.66553584905649","500","250","br","11","2","0","-11","-5","7","283"
"","psychophysics","48","454446","0.0-48.0","6132e1c8bab771d0d0f6f3e9","64de81b20235d278246b0bd3","","","","","5787",""," ","key"," ","16.665861671469752","500","250","br","13","2","0","-20","3","-14","261"
"","psychophysics","49","461856","0.0-49.0","6132e1c8bab771d0d0f6f3e9","64de81b20235d278246b0bd3","","","","","7406",""," ","key"," ","16.665677200902845","500","250","br","18","2","0","-23","10","-9","265"
"","psychophysics","50","466112","0.0-50.0","6132e1c8bab771d0d0f6f3e9","64de81b20235d278246b0bd3","","","","","4250",""," ","key"," ","16.66608627450986","500","250","br","23","2","0","24","24","3","216"
"","psychophysics","51","469671","0.0-51.0","6132e1c8bab771d0d0f6f3e9","64de81b20235d278246b0bd3","","","","","3555",""," ","key"," ","16.666301886792425","500","250","br","15","2","0","25","17","15","269"
"","psychophysics","52","473364","0.0-52.0","6132e1c8bab771d0d0f6f3e9","64de81b20235d278246b0bd3","","","","","3688",""," ","key"," ","16.6662352941177","500","250","br","17","2","0","25","-23","-12","258"
"","psychophysics","53","475346","0.0-53.0","6132e1c8bab771d0d0f6f3e9","64de81b20235d278246b0bd3","","","","","1965",""," ","key"," ","16.66818644067813","500","250","br","18","2","0","3","-14","18","269"
"","psychophysics","54","478317","0.0-54.0","6132e1c8bab771d0d0f6f3e9","64de81b20235d278246b0bd3","","","","","2967",""," ","key"," ","16.659847457627148","500","250","br","23","2","0","-16","5","-13","268"
"","psychophysics","55","481801","0.0-55.0","6132e1c8bab771d0d0f6f3e9","64de81b20235d278246b0bd3","","","","","3482",""," ","key"," ","16.666389423076907","500","250","br","17","2","0","-6","17","16","293"
"","psychophysics","56","484294","0.0-56.0","6132e1c8bab771d0d0f6f3e9","64de81b20235d278246b0bd3","","","","","2491",""," ","key"," ","16.666141891891744","500","250","inst","","","","","","",""
"","psychophysics","57","487928","0.0-57.0","6132e1c8bab771d0d0f6f3e9","64de81b20235d278246b0bd3","","","","","3631",""," ","key"," ","16.664697247706332","500","250","instPzPre","50","0","","","","50","50"
"","psychophysics","58","492545","0.0-58.0","6132e1c8bab771d0d0f6f3e9","64de81b20235d278246b0bd3","","","","","4613",""," ","key"," ","16.666862318840593","500","250","instPz0","50","1","","","","50","50"
"","psychophysics","59","502368","0.0-59.0","6132e1c8bab771d0d0f6f3e9","64de81b20235d278246b0bd3","","","","","9819",""," ","key"," ","16.665836734693954","500","250","instPz1","51","1","","","","25","50"
"","psychophysics","60","509190","0.0-60.0","6132e1c8bab771d0d0f6f3e9","64de81b20235d278246b0bd3","","","","","6819",""," ","key"," ","16.665906862745103","500","250","instPz2","57","1","","","","35","20"
"","psychophysics","61","521287","0.0-61.0","6132e1c8bab771d0d0f6f3e9","64de81b20235d278246b0bd3","","","","","12077",""," ","key"," ","16.665859310344857","500","250","instPz3","100","1","","","","100","30"
"","psychophysics","62","537629","0.0-62.0","6132e1c8bab771d0d0f6f3e9","64de81b20235d278246b0bd3","","","","","16340",""," ","key"," ","16.666353061224562","500","250","instPz4","47","1","","","","100","30"
"","psychophysics","63","540293","0.0-63.0","6132e1c8bab771d0d0f6f3e9","64de81b20235d278246b0bd3","","","","","2661",""," ","key"," ","16.665716981132363","500","250","inst","","","","","","",""
"","psychophysics","64","544517","0.0-64.0","6132e1c8bab771d0d0f6f3e9","64de81b20235d278246b0bd3","","","","","4220",""," ","key"," ","16.66474999999997","500","250","pz","70","1","0","","","35","37"
"","psychophysics","65","548775","0.0-65.0","6132e1c8bab771d0d0f6f3e9","64de81b20235d278246b0bd3","","","","","4254",""," ","key"," ","16.66570588235296","500","250","pz","53","1","0","","","37","24"
"","psychophysics","66","553073","0.0-66.0","6132e1c8bab771d0d0f6f3e9","64de81b20235d278246b0bd3","","","","","4294",""," ","key"," ","16.665667968749858","500","250","pz","37","1","0","","","43","20"
"","psychophysics","67","559227","0.0-67.0","6132e1c8bab771d0d0f6f3e9","64de81b20235d278246b0bd3","","","","","6148",""," ","key"," ","16.666428184281873","500","250","pz","71","1","0","","","49","39"
"","psychophysics","68","560648","0.0-68.0","6132e1c8bab771d0d0f6f3e9","64de81b20235d278246b0bd3","","","","","1417",""," ","key"," ","16.666535714286425","500","250","pz","60","1","0","","","60","44"
"","psychophysics","69","565280","0.0-69.0","6132e1c8bab771d0d0f6f3e9","64de81b20235d278246b0bd3","","","","","4629",""," ","key"," ","16.66523465703978","500","250","pz","48","1","0","","","22","25"
"","psychophysics","70","570376","0.0-70.0","6132e1c8bab771d0d0f6f3e9","64de81b20235d278246b0bd3","","","","","5091",""," ","key"," ","16.665622950819717","500","250","pz","53","1","0","","","24","25"
"","psychophysics","71","573480","0.0-71.0","6132e1c8bab771d0d0f6f3e9","64de81b20235d278246b0bd3","","","","","3100",""," ","key"," ","16.666583783783622","500","250","pz","80","1","0","","","51","43"
"","psychophysics","72","577752","0.0-72.0","6132e1c8bab771d0d0f6f3e9","64de81b20235d278246b0bd3","","","","","4268",""," ","key"," ","16.665815686274264","500","250","pz","85","1","0","","","38","50"
"","psychophysics","73","581741","0.0-73.0","6132e1c8bab771d0d0f6f3e9","64de81b20235d278246b0bd3","","","","","3982",""," ","key"," ","16.666585774058632","500","250","pz","89","1","0","","","49","47"
"","psychophysics","74","588374","0.0-74.0","6132e1c8bab771d0d0f6f3e9","64de81b20235d278246b0bd3","","","","","6628",""," ","key"," ","16.66607052896709","500","250","pz","103","1","0","","","30","43"
"","psychophysics","75","593791","0.0-75.0","6132e1c8bab771d0d0f6f3e9","64de81b20235d278246b0bd3","","","","","5413",""," ","key"," ","16.665700617284056","500","250","pz","61","1","0","","","45","37"
"","psychophysics","76","601803","0.0-76.0","6132e1c8bab771d0d0f6f3e9","64de81b20235d278246b0bd3","","","","","null","","null","key","null","16.66626304801673","500","250","pz","58","1","0","","","20","31"
"","psychophysics","77","602660","0.0-77.0","6132e1c8bab771d0d0f6f3e9","64de81b20235d278246b0bd3","","","","","851",""," ","key"," ","16.66633333333348","500","250","pz","30","1","0","","","31","26"
"","psychophysics","78","610666","0.0-78.0","6132e1c8bab771d0d0f6f3e9","64de81b20235d278246b0bd3","","","","","null","","null","key","null","16.66636951983297","500","250","pz","56","1","0","","","20","33"
"","psychophysics","79","612180","0.0-79.0","6132e1c8bab771d0d0f6f3e9","64de81b20235d278246b0bd3","","","","","1511",""," ","key"," ","16.663433333333685","500","250","inst","","","","","","",""
"","psychophysics","80","623531","0.0-80.0","6132e1c8bab771d0d0f6f3e9","64de81b20235d278246b0bd3","","","","","11348",""," ","key"," ","16.66626029411769","500","250","instPog0","340","2","","0","0","370","340"
"","psychophysics","81","642949","0.0-81.0","6132e1c8bab771d0d0f6f3e9","64de81b20235d278246b0bd3","","","","","19416",""," ","key"," ","16.66598797250866","500","250","instPog1","126","2","","0","0","370","340"
"","psychophysics","82","655248","0.0-82.0","6132e1c8bab771d0d0f6f3e9","64de81b20235d278246b0bd3","","","","","12293",""," ","key"," ","16.666236092266026","500","250","instPog2","332","2","","0","0","340","340"
"","psychophysics","83","658520","0.0-83.0","6132e1c8bab771d0d0f6f3e9","64de81b20235d278246b0bd3","","","","","3267",""," ","key"," ","16.666448979591593","500","250","inst","","","","","","",""
"","psychophysics","84","664689","0.0-84.0","6132e1c8bab771d0d0f6f3e9","64de81b20235d278246b0bd3","","","","","6164",""," ","key"," ","16.66634688346879","500","250","pog","344","2","0","0","0","360","362"
"","psychophysics","85","672235","0.0-85.0","6132e1c8bab771d0d0f6f3e9","64de81b20235d278246b0bd3","","","","","7541",""," ","key"," ","16.666212860310292","500","250","pog","319","2","0","0","0","307","340"
"","psychophysics","86","676227","0.0-86.0","6132e1c8bab771d0d0f6f3e9","64de81b20235d278246b0bd3","","","","","3987",""," ","key"," ","16.666401673640244","500","250","pog","357","2","0","0","0","397","378"
"","psychophysics","87","680835","0.0-87.0","6132e1c8bab771d0d0f6f3e9","64de81b20235d278246b0bd3","","","","","4605",""," ","key"," ","16.665514492753733","500","250","pog","329","2","0","0","0","363","339"
"","psychophysics","88","688842","0.0-88.0","6132e1c8bab771d0d0f6f3e9","64de81b20235d278246b0bd3","","","","","null","","null","key","null","16.665396659707675","500","250","pog","339","2","0","0","0","285","362"
"","psychophysics","89","689608","0.0-89.0","6132e1c8bab771d0d0f6f3e9","64de81b20235d278246b0bd3","","","","","765",""," ","key"," ","16.673066666665385","500","250","pog","334","2","0","0","0","334","363"
"","psychophysics","90","692998","0.0-90.0","6132e1c8bab771d0d0f6f3e9","64de81b20235d278246b0bd3","","","","","3386",""," ","key"," ","16.665059405940326","500","250","pog","307","2","0","0","0","351","336"
"","psychophysics","91","698099","0.0-91.0","6132e1c8bab771d0d0f6f3e9","64de81b20235d278246b0bd3","","","","","5096",""," ","key"," ","16.667403278688397","500","250","pog","338","2","0","0","0","374","375"
"","psychophysics","92","703822","0.0-92.0","6132e1c8bab771d0d0f6f3e9","64de81b20235d278246b0bd3","","","","","5717",""," ","key"," ","16.66638775510203","500","250","pog","260","2","0","0","0","348","320"
"","psychophysics","93","706951","0.0-93.0","6132e1c8bab771d0d0f6f3e9","64de81b20235d278246b0bd3","","","","","3126",""," ","key"," ","16.665588235293942","500","250","pog","333","2","0","0","0","367","364"
"","psychophysics","94","709848","0.0-94.0","6132e1c8bab771d0d0f6f3e9","64de81b20235d278246b0bd3","","","","","2893",""," ","key"," ","16.666447674418354","500","250","pog","311","2","0","0","0","311","339"
"","psychophysics","95","715768","0.0-95.0","6132e1c8bab771d0d0f6f3e9","64de81b20235d278246b0bd3","","","","","5915",""," ","key"," ","16.666490140845212","500","250","pog","310","2","0","0","0","326","328"
"","psychophysics","96","721817","0.0-96.0","6132e1c8bab771d0d0f6f3e9","64de81b20235d278246b0bd3","","","","","6046",""," ","key"," ","16.66575414364648","500","250","pog","304","2","0","0","0","382","310"
"","psychophysics","97","727092","0.0-97.0","6132e1c8bab771d0d0f6f3e9","64de81b20235d278246b0bd3","","","","","5271",""," ","key"," ","16.665644444444304","500","250","pog","321","2","0","0","0","379","321"
"","psychophysics","98","730359","0.0-98.0","6132e1c8bab771d0d0f6f3e9","64de81b20235d278246b0bd3","","","","","3264",""," ","key"," ","16.66730256410292","500","250","pog","335","2","0","0","0","395","362"
"","psychophysics","99","733292","0.0-99.0","6132e1c8bab771d0d0f6f3e9","64de81b20235d278246b0bd3","","","","","2930",""," ","key"," ","16.665737142856898","500","250","inst","","","","","","",""
"","psychophysics","100","738484","0.0-100.0","6132e1c8bab771d0d0f6f3e9","64de81b20235d278246b0bd3","","","","","5189",""," ","key"," ","16.666446945337665","500","250","instEB0","40","1","","0","0","40","40"
"","psychophysics","101","749625","0.0-101.0","6132e1c8bab771d0d0f6f3e9","64de81b20235d278246b0bd3","","","","","11138",""," ","key"," ","16.666013493253242","500","250","instEB1","29","1","","0","0","40","30"
"","psychophysics","102","760204","0.0-102.0","6132e1c8bab771d0d0f6f3e9","64de81b20235d278246b0bd3","","","","","10571",""," ","key"," ","16.666381703470083","500","250","instEB2","39","1","","0","0","30","40"
"","psychophysics","103","768729","0.0-103.0","6132e1c8bab771d0d0f6f3e9","64de81b20235d278246b0bd3","","","","","8521",""," ","key"," ","16.66548823529407","500","250","instEB3","42","1","","0","0","27","45"
"","psychophysics","104","779701","0.0-104.0","6132e1c8bab771d0d0f6f3e9","64de81b20235d278246b0bd3","","","","","10966",""," ","key"," ","16.66601671732532","500","250","instEB4","24","1","","0","0","40","30"
"","psychophysics","105","783011","0.0-105.0","6132e1c8bab771d0d0f6f3e9","64de81b20235d278246b0bd3","","","","","3306",""," ","key"," ","16.66613705583723","500","250","inst","","","","","","",""
"","psychophysics","106","790298","0.0-106.0","6132e1c8bab771d0d0f6f3e9","64de81b20235d278246b0bd3","","","","","7280",""," ","key"," ","16.665949656750616","500","250","eb","19","1","","0","0","39","24"
"","psychophysics","107","798308","0.0-107.0","6132e1c8bab771d0d0f6f3e9","64de81b20235d278246b0bd3","","","","","null","","null","key","null","16.66553444676427","500","250","eb","23","1","","0","0","30","32"
"","psychophysics","108","803748","0.0-108.0","6132e1c8bab771d0d0f6f3e9","64de81b20235d278246b0bd3","","","","","5437",""," ","key"," ","16.66594171779126","500","250","eb","25","1","","0","0","51","36"
"","psychophysics","109","808071","0.0-109.0","6132e1c8bab771d0d0f6f3e9","64de81b20235d278246b0bd3","","","","","4318",""," ","key"," ","16.665379844961034","500","250","eb","27","1","","0","0","52","31"
"","psychophysics","110","812966","0.0-110.0","6132e1c8bab771d0d0f6f3e9","64de81b20235d278246b0bd3","","","","","4891",""," ","key"," ","16.665170648464226","500","250","eb","44","1","","0","0","51","46"
"","psychophysics","111","817108","0.0-111.0","6132e1c8bab771d0d0f6f3e9","64de81b20235d278246b0bd3","","","","","4139",""," ","key"," ","16.666955465587094","500","250","eb","30","1","","0","0","38","37"
"","psychophysics","112","824330","0.0-112.0","6132e1c8bab771d0d0f6f3e9","64de81b20235d278246b0bd3","","","","","7215",""," ","key"," ","16.665789838337208","500","250","eb","37","1","","0","0","27","42"
"","psychophysics","113","828963","0.0-113.0","6132e1c8bab771d0d0f6f3e9","64de81b20235d278246b0bd3","","","","","4627",""," ","key"," ","16.66666064981963","500","250","eb","38","1","","0","0","42","47"
"","psychophysics","114","835083","0.0-114.0","6132e1c8bab771d0d0f6f3e9","64de81b20235d278246b0bd3","","","","","6115",""," ","key"," ","16.665516393442697","500","250","eb","26","1","","0","0","51","26"
"","psychophysics","115","842098","0.0-115.0","6132e1c8bab771d0d0f6f3e9","64de81b20235d278246b0bd3","","","","","7010",""," ","key"," ","16.66620000000001","500","250","eb","33","1","","0","0","35","44"
"","psychophysics","116","846978","0.0-116.0","6132e1c8bab771d0d0f6f3e9","64de81b20235d278246b0bd3","","","","","4874",""," ","key"," ","16.664791095890234","500","250","eb","37","1","","0","0","29","48"
"","psychophysics","117","851659","0.0-117.0","6132e1c8bab771d0d0f6f3e9","64de81b20235d278246b0bd3","","","","","4675",""," ","key"," ","16.66646236559129","500","250","eb","40","1","","0","0","42","49"
"","psychophysics","118","855462","0.0-118.0","6132e1c8bab771d0d0f6f3e9","64de81b20235d278246b0bd3","","","","","3797",""," ","key"," ","16.668100877192686","500","250","eb","55","1","","0","0","42","54"
"","psychophysics","119","861683","0.0-119.0","6132e1c8bab771d0d0f6f3e9","64de81b20235d278246b0bd3","","","","","6218",""," ","key"," ","16.66617204301073","500","250","eb","32","1","","0","0","41","36"
"","psychophysics","120","868321","0.0-120.0","6132e1c8bab771d0d0f6f3e9","64de81b20235d278246b0bd3","","","","","6634",""," ","key"," ","16.666380352644726","500","250","eb","52","1","","0","0","40","53"
"","psychophysics","121","872098","0.0-121.0","6132e1c8bab771d0d0f6f3e9","64de81b20235d278246b0bd3","","","","","3774",""," ","key"," ","16.66723008849555","500","250","inst","","","","","","",""
"","psychophysics","122","891573","0.0-122.0","6132e1c8bab771d0d0f6f3e9","64de81b20235d278246b0bd3","","","","","19471",""," ","key"," ","16.666111396743748","500","250","instBr3","-5","1","","0","0","40","300"
"","psychophysics","123","892989","0.0-123.0","6132e1c8bab771d0d0f6f3e9","64de81b20235d278246b0bd3","","","","","1410",""," ","key"," ","16.670142857143045","500","250","inst","","","","","","",""
"","psychophysics","124","900995","0.0-124.0","6132e1c8bab771d0d0f6f3e9","64de81b20235d278246b0bd3","","","","","null","","null","key","null","16.666029166666704","500","250","br","-12","1","1","-7","-4","-24","224"
"","psychophysics","125","902522","0.0-125.0","6132e1c8bab771d0d0f6f3e9","64de81b20235d278246b0bd3","","","","","1524",""," ","key"," ","16.666055555554987","500","250","br","-21","1","1","13","29","-21","217"
"","psychophysics","126","908452","0.0-126.0","6132e1c8bab771d0d0f6f3e9","64de81b20235d278246b0bd3","","","","","5923",""," ","key"," ","16.666295774647978","500","250","br","-15","1","1","-2","13","-10","204"
"","psychophysics","127","914247","0.0-127.0","6132e1c8bab771d0d0f6f3e9","64de81b20235d278246b0bd3","","","","","5791",""," ","key"," ","16.666602305475468","500","250","br","-14","1","1","28","11","-23","245"
"","psychophysics","128","922256","0.0-128.0","6132e1c8bab771d0d0f6f3e9","64de81b20235d278246b0bd3","","","","","null","","null","key","null","16.665283333333356","500","250","br","3","1","1","-29","-5","21","281"
"","psychophysics","129","925630","0.0-129.0","6132e1c8bab771d0d0f6f3e9","64de81b20235d278246b0bd3","","","","","3370",""," ","key"," ","16.66648258706462","500","250","br","-12","1","1","1","-11","14","298"
"","psychophysics","130","930493","0.0-130.0","6132e1c8bab771d0d0f6f3e9","64de81b20235d278246b0bd3","","","","","4860",""," ","key"," ","16.66584536082494","500","250","br","-10","1","1","-22","-30","-25","286"
"","psychophysics","131","934445","0.0-131.0","6132e1c8bab771d0d0f6f3e9","64de81b20235d278246b0bd3","","","","","3947",""," ","key"," ","16.66458898305082","500","250","br","-14","1","1","-29","-30","-28","277"
"","psychophysics","132","942450","0.0-132.0","6132e1c8bab771d0d0f6f3e9","64de81b20235d278246b0bd3","","","","","null","","null","key","null","16.666292275574072","500","250","br","-4","1","1","-6","2","1","294"
"","psychophysics","133","947746","0.0-133.0","6132e1c8bab771d0d0f6f3e9","64de81b20235d278246b0bd3","","","","","5294",""," ","key"," ","16.666507886435134","500","250","br","-17","1","1","7","27","-16","211"
"","psychophysics","134","949999","0.0-134.0","6132e1c8bab771d0d0f6f3e9","64de81b20235d278246b0bd3","","","","","2249",""," ","key"," ","16.665738805970385","500","250","br","-18","1","1","-16","4","-18","214"
"","psychophysics","135","955163","0.0-135.0","6132e1c8bab771d0d0f6f3e9","64de81b20235d278246b0bd3","","","","","5162",""," ","key"," ","16.665873786407783","500","250","br","-14","1","1","-3","8","3","266"
"","psychophysics","136","959938","0.0-136.0","6132e1c8bab771d0d0f6f3e9","64de81b20235d278246b0bd3","","","","","4772",""," ","key"," ","16.66711228070209","500","250","br","-9","1","1","3","12","0","218"
"","psychophysics","137","965653","0.0-137.0","6132e1c8bab771d0d0f6f3e9","64de81b20235d278246b0bd3","","","","","5712",""," ","key"," ","16.667985380116964","500","250","br","-16","1","1","4","13","7","293"
"","psychophysics","138","970910","0.0-138.0","6132e1c8bab771d0d0f6f3e9","64de81b20235d278246b0bd3","","","","","5250",""," ","key"," ","16.66647936507934","500","250","br","-15","1","1","-14","14","-24","223"
"","psychophysics","139","975279","0.0-139.0","6132e1c8bab771d0d0f6f3e9","64de81b20235d278246b0bd3","","","","","4367",""," ","key"," ","16.66624904214583","500","250","inst","","","","","","",""
"","psychophysics","140","989243","0.0-140.0","6132e1c8bab771d0d0f6f3e9","64de81b20235d278246b0bd3","","","","","13961",""," ","key"," ","16.66608363201924","500","250","instZol1","-7.599999999999989","","","0","0","-1.3",""
"","psychophysics","141","993300","0.0-141.0","6132e1c8bab771d0d0f6f3e9","64de81b20235d278246b0bd3","","","","","4050",""," ","key"," ","16.66613223140507","500","250","instZol2","-7.699999999999989","2","","0","0","2",""
"","psychophysics","142","995823","0.0-142.0","6132e1c8bab771d0d0f6f3e9","64de81b20235d278246b0bd3","","","","","2521",""," ","key"," ","16.667794701987138","500","250","inst","","","","","","",""
"","psychophysics","143","1000723","0.0-143.0","6132e1c8bab771d0d0f6f3e9","64de81b20235d278246b0bd3","","","","","4894",""," ","key"," ","16.665969283276304","500","250","zol","-7.1499999999999915","2","1","30","-10","-0.75",""
"","psychophysics","144","1005747","0.0-144.0","6132e1c8bab771d0d0f6f3e9","64de81b20235d278246b0bd3","","","","","5019",""," ","key"," ","16.666056666666798","500","250","zol","0.58","2","1","-16","27","-0.48",""
"","psychophysics","145","1010373","0.0-145.0","6132e1c8bab771d0d0f6f3e9","64de81b20235d278246b0bd3","","","","","4617",""," ","key"," ","16.66761732851962","500","250","zol","-7.159999999999991","2","1","-22","-27","0.56",""
"","psychophysics","146","1015172","0.0-146.0","6132e1c8bab771d0d0f6f3e9","64de81b20235d278246b0bd3","","","","","4794",""," ","key"," ","16.666376306620208","500","250","zol","-7.539999999999989","2","1","-19","14","-0.66",""
"","psychophysics","147","1022910","0.0-147.0","6132e1c8bab771d0d0f6f3e9","64de81b20235d278246b0bd3","","","","","7732",""," ","key"," ","16.665991360691002","500","250","zol","-7.699999999999989","2","1","-29","-9","0.2",""
"","psychophysics","148","1027832","0.0-148.0","6132e1c8bab771d0d0f6f3e9","64de81b20235d278246b0bd3","","","","","4919",""," ","key"," ","16.665693877550748","500","250","zol","-7.389999999999991","2","1","-22","-4","-0.71",""
"","psychophysics","149","1032884","0.0-149.0","6132e1c8bab771d0d0f6f3e9","64de81b20235d278246b0bd3","","","","","5045",""," ","key"," ","16.666711920530023","500","250","zol","-8.019999999999989","2","1","-17","-23","-0.28",""
"","psychophysics","150","1038050","0.0-150.0","6132e1c8bab771d0d0f6f3e9","64de81b20235d278246b0bd3","","","","","5158",""," ","key"," ","16.66672168284787","500","250","zol","-7.53999999999999","2","1","1","26","-0.06",""
"","psychophysics","151","1046058","0.0-151.0","6132e1c8bab771d0d0f6f3e9","64de81b20235d278246b0bd3","","","","","null","","null","key","null","16.666356249999808","500","250","zol","-7.5299999999999905","2","1","26","22","0.03",""
"","psychophysics","152","1054066","0.0-152.0","6132e1c8bab771d0d0f6f3e9","64de81b20235d278246b0bd3","","","","","null","","null","key","null","16.665947807933318","500","250","zol","-7.759999999999989","2","1","17","28","0.66",""
"","psychophysics","153","1061581","0.0-153.0","6132e1c8bab771d0d0f6f3e9","64de81b20235d278246b0bd3","","","","","7507",""," ","key"," ","16.66587555555575","500","250","zol","-8.049999999999988","2","1","-4","28","0.65",""
"","psychophysics","154","1067841","0.0-154.0","6132e1c8bab771d0d0f6f3e9","64de81b20235d278246b0bd3","","","","","6253",""," ","key"," ","16.66662933333342","500","250","zol","-7.079999999999991","2","1","-27","-20","-0.52",""
"","psychophysics","155","1072019","0.0-155.0","6132e1c8bab771d0d0f6f3e9","64de81b20235d278246b0bd3","","","","","4173",""," ","key"," ","16.666547999999487","500","250","zol","-7.309999999999991","2","1","14","3","0.41",""
"","psychophysics","156","1076027","0.0-156.0","6132e1c8bab771d0d0f6f3e9","64de81b20235d278246b0bd3","","","","","4003",""," ","key"," ","16.66544769874532","500","250","zol","-7.2799999999999905","2","1","0","9","0.38",""
"","psychophysics","157","1080239","0.0-157.0","6132e1c8bab771d0d0f6f3e9","64de81b20235d278246b0bd3","","","","","4204",""," ","key"," ","16.667166666667317","500","250","zol","-7.789999999999989","2","1","24","16","0.19",""
"","psychophysics","158","1081627","0.0-158.0","6132e1c8bab771d0d0f6f3e9","64de81b20235d278246b0bd3","","","","","1385",""," ","key"," ","16.667731707316552","500","250","inst","","","","","","",""
"","psychophysics","159","1093460","0.0-159.0","6132e1c8bab771d0d0f6f3e9","64de81b20235d278246b0bd3","","","","","11829",""," ","key"," ","16.66620451339904","500","250","instPz1","53","2","","","","25","50"
"","psychophysics","160","1098569","0.0-160.0","6132e1c8bab771d0d0f6f3e9","64de81b20235d278246b0bd3","","","","","5105",""," ","key"," ","16.6662352941177","500","250","instPz2","38","2","","","","20","35"
"","psychophysics","161","1109067","0.0-161.0","6132e1c8bab771d0d0f6f3e9","64de81b20235d278246b0bd3","","","","","10493",""," ","key"," ","16.665972972972785","500","250","instPz3","48","2","","","","30","100"
"","psychophysics","162","1113784","0.0-162.0","6132e1c8bab771d0d0f6f3e9","64de81b20235d278246b0bd3","","","","","4714",""," ","key"," ","16.665897163119933","500","250","instPz4","56","2","","","","30","100"
"","psychophysics","163","1115214","0.0-163.0","6132e1c8bab771d0d0f6f3e9","64de81b20235d278246b0bd3","","","","","1427",""," ","key"," ","16.666071428570874","500","250","inst","","","","","","",""
"","psychophysics","164","1122393","0.0-164.0","6132e1c8bab771d0d0f6f3e9","64de81b20235d278246b0bd3","","","","","7175",""," ","key"," ","16.66669534883722","500","250","pz","-69","2","1","","","28","43"
"","psychophysics","165","1126374","0.0-165.0","6132e1c8bab771d0d0f6f3e9","64de81b20235d278246b0bd3","","","","","3975",""," ","key"," ","16.66717226890761","500","250","pz","19","2","1","","","50","27"
"","psychophysics","166","1132485","0.0-166.0","6132e1c8bab771d0d0f6f3e9","64de81b20235d278246b0bd3","","","","","6107",""," ","key"," ","16.66604098360642","500","250","pz","36","2","1","","","29","39"
"","psychophysics","167","1140490","0.0-167.0","6132e1c8bab771d0d0f6f3e9","64de81b20235d278246b0bd3","","","","","null","","null","key","null","16.665135699373888","500","250","pz","54","2","1","","","52","21"
"","psychophysics","168","1141611","0.0-168.0","6132e1c8bab771d0d0f6f3e9","64de81b20235d278246b0bd3","","","","","1118",""," ","key"," ","16.669424242424693","500","250","pz","21","2","1","","","39","58"
"","psychophysics","169","1145016","0.0-169.0","6132e1c8bab771d0d0f6f3e9","64de81b20235d278246b0bd3","","","","","3398",""," ","key"," ","16.666495098039626","500","250","pz","25","2","1","","","52","41"
"","psychophysics","170","1147987","0.0-170.0","6132e1c8bab771d0d0f6f3e9","64de81b20235d278246b0bd3","","","","","2967",""," ","key"," ","16.666067796610665","500","250","pz","32","2","1","","","41","54"
"","psychophysics","171","1150771","0.0-171.0","6132e1c8bab771d0d0f6f3e9","64de81b20235d278246b0bd3","","","","","2781",""," ","key"," ","16.665331325300194","500","250","pz","31","2","1","","","46","57"
"","psychophysics","172","1154709","0.0-172.0","6132e1c8bab771d0d0f6f3e9","64de81b20235d278246b0bd3","","","","","3933",""," ","key"," ","16.665808510638655","500","250","pz","22","2","1","","","43","53"
"","psychophysics","173","1161119","0.0-173.0","6132e1c8bab771d0d0f6f3e9","64de81b20235d278246b0bd3","","","","","6404",""," ","key"," ","16.666752604166806","500","250","pz","19","2","1","","","41","28"
"","psychophysics","174","1164770","0.0-174.0","6132e1c8bab771d0d0f6f3e9","64de81b20235d278246b0bd3","","","","","3647",""," ","key"," ","16.665692660550654","500","250","pz","24","2","1","","","50","56"
"","psychophysics","175","1168731","0.0-175.0","6132e1c8bab771d0d0f6f3e9","64de81b20235d278246b0bd3","","","","","3956",""," ","key"," ","16.66635021097066","500","250","pz","51","2","1","","","29","48"
"","psychophysics","176","1174650","0.0-176.0","6132e1c8bab771d0d0f6f3e9","64de81b20235d278246b0bd3","","","","","5915",""," ","key"," ","16.66643785310733","500","250","pz","33","2","1","","","52","46"
"","psychophysics","177","1177306","0.0-177.0","6132e1c8bab771d0d0f6f3e9","64de81b20235d278246b0bd3","","","","","2652",""," ","key"," ","16.666696202531575","500","250","pz","27","2","1","","","41","35"
"","psychophysics","178","1179740","0.0-178.0","6132e1c8bab771d0d0f6f3e9","64de81b20235d278246b0bd3","","","","","2430",""," ","key"," ","16.668055172413908","500","250","pz","35","2","1","","","38","56"
"","psychophysics","179","1181081","0.0-179.0","6132e1c8bab771d0d0f6f3e9","64de81b20235d278246b0bd3","","","","","1338",""," ","key"," ","16.666512499999953","500","250","inst","","","","","","",""
"","psychophysics","180","1186015","0.0-180.0","6132e1c8bab771d0d0f6f3e9","64de81b20235d278246b0bd3","","","","","4932",""," ","key"," ","16.665450847457496","500","250","instEB1","46","2","","0","0","30","40"
"","psychophysics","181","1190347","0.0-181.0","6132e1c8bab771d0d0f6f3e9","64de81b20235d278246b0bd3","","","","","4328",""," ","key"," ","16.66144015443957","500","250","instEB2","33","2","","0","0","40","30"
"","psychophysics","182","1194135","0.0-182.0","6132e1c8bab771d0d0f6f3e9","64de81b20235d278246b0bd3","","","","","3785",""," ","key"," ","16.66704424778803","500","250","instEB3","32","2","","0","0","45","27"
"","psychophysics","183","1200618","0.0-183.0","6132e1c8bab771d0d0f6f3e9","64de81b20235d278246b0bd3","","","","","6479",""," ","key"," ","16.666474226803984","500","250","instEB4","61","2","","0","0","30","40"
"","psychophysics","184","1203884","0.0-184.0","6132e1c8bab771d0d0f6f3e9","64de81b20235d278246b0bd3","","","","","3263",""," ","key"," ","16.66623076923096","500","250","inst","","","","","","",""
"","psychophysics","185","1207721","0.0-185.0","6132e1c8bab771d0d0f6f3e9","64de81b20235d278246b0bd3","","","","","3831",""," ","key"," ","16.666270742357575","500","250","eb","60","2","","0","0","39","41"
"","psychophysics","186","1210304","0.0-186.0","6132e1c8bab771d0d0f6f3e9","64de81b20235d278246b0bd3","","","","","2580",""," ","key"," ","16.666227272728324","500","250","eb","55","2","","0","0","31","43"
"","psychophysics","187","1215668","0.0-187.0","6132e1c8bab771d0d0f6f3e9","64de81b20235d278246b0bd3","","","","","5360",""," ","key"," ","16.666800623053156","500","250","eb","44","2","","0","0","49","29"
"","psychophysics","188","1218995","0.0-188.0","6132e1c8bab771d0d0f6f3e9","64de81b20235d278246b0bd3","","","","","3322",""," ","key"," ","16.665618090452767","500","250","eb","52","2","","0","0","33","49"
"","psychophysics","189","1224357","0.0-189.0","6132e1c8bab771d0d0f6f3e9","64de81b20235d278246b0bd3","","","","","5356",""," ","key"," ","16.665962500000024","500","250","eb","40","2","","0","0","25","24"
"","psychophysics","190","1228845","0.0-190.0","6132e1c8bab771d0d0f6f3e9","64de81b20235d278246b0bd3","","","","","4483",""," ","key"," ","16.66678810408893","500","250","eb","70","2","","0","0","29","52"
"","psychophysics","191","1232338","0.0-191.0","6132e1c8bab771d0d0f6f3e9","64de81b20235d278246b0bd3","","","","","3488",""," ","key"," ","16.66499038461524","500","250","eb","69","2","","0","0","30","54"
"","psychophysics","192","1235378","0.0-192.0","6132e1c8bab771d0d0f6f3e9","64de81b20235d278246b0bd3","","","","","3033",""," ","key"," ","16.667862637362514","500","250","eb","76","2","","0","0","45","49"
"","psychophysics","193","1239203","0.0-193.0","6132e1c8bab771d0d0f6f3e9","64de81b20235d278246b0bd3","","","","","3821",""," ","key"," ","16.666149122807965","500","250","eb","64","2","","0","0","28","36"
"","psychophysics","194","1242825","0.0-194.0","6132e1c8bab771d0d0f6f3e9","64de81b20235d278246b0bd3","","","","","3618",""," ","key"," ","16.66719907407403","500","250","eb","72","2","","0","0","47","48"
"","psychophysics","195","1246584","0.0-195.0","6132e1c8bab771d0d0f6f3e9","64de81b20235d278246b0bd3","","","","","3753",""," ","key"," ","16.666337777778715","500","250","eb","47","2","","0","0","29","26"
"","psychophysics","196","1249520","0.0-196.0","6132e1c8bab771d0d0f6f3e9","64de81b20235d278246b0bd3","","","","","2932",""," ","key"," ","16.666297142856887","500","250","eb","49","2","","0","0","36","47"
"","psychophysics","197","1253978","0.0-197.0","6132e1c8bab771d0d0f6f3e9","64de81b20235d278246b0bd3","","","","","4452",""," ","key"," ","16.666621722846052","500","250","eb","31","2","","0","0","32","25"
"","psychophysics","198","1257412","0.0-198.0","6132e1c8bab771d0d0f6f3e9","64de81b20235d278246b0bd3","","","","","3429",""," ","key"," ","16.66701463414697","500","250","eb","38","2","","0","0","51","33"
"","psychophysics","199","1260274","0.0-199.0","6132e1c8bab771d0d0f6f3e9","64de81b20235d278246b0bd3","","","","","2857",""," ","key"," ","16.667600000000505","500","250","eb","52","2","","0","0","40","43"
"","psychophysics","200","1261602","0.0-200.0","6132e1c8bab771d0d0f6f3e9","64de81b20235d278246b0bd3","","","","","1323",""," ","key"," ","16.667050632910474","500","250","inst","","","","","","",""
"","psychophysics","201","1272209","0.0-201.0","6132e1c8bab771d0d0f6f3e9","64de81b20235d278246b0bd3","","","","","10604",""," ","key"," ","16.666455974842645","500","250","instPog0","160","1","","0","0","190","160"
"","psychophysics","202","1279982","0.0-202.0","6132e1c8bab771d0d0f6f3e9","64de81b20235d278246b0bd3","","","","","7769",""," ","key"," ","16.66624516128983","500","250","instPog1","164","1","","0","0","190","160"
"","psychophysics","203","1285062","0.0-203.0","6132e1c8bab771d0d0f6f3e9","64de81b20235d278246b0bd3","","","","","5077",""," ","key"," ","16.665625000000308","500","250","instPog2","174","1","","0","0","160","160"
"","psychophysics","204","1289566","0.0-204.0","6132e1c8bab771d0d0f6f3e9","64de81b20235d278246b0bd3","","","","","4502",""," ","key"," ","16.665747211895518","500","250","inst","","","","","","",""
"","psychophysics","205","1294812","0.0-205.0","6132e1c8bab771d0d0f6f3e9","64de81b20235d278246b0bd3","","","","","5240",""," ","key"," ","16.66565286624171","500","250","pog","176","1","1","0","0","120","153"
"","psychophysics","206","1298560","0.0-206.0","6132e1c8bab771d0d0f6f3e9","64de81b20235d278246b0bd3","","","","","3746",""," ","key"," ","16.666379464286106","500","250","pog","178","1","1","0","0","184","154"
"","psychophysics","207","1302738","0.0-207.0","6132e1c8bab771d0d0f6f3e9","64de81b20235d278246b0bd3","","","","","4174",""," ","key"," ","16.666244979919753","500","250","pog","178","1","1","0","0","178","160"
"","psychophysics","208","1309454","0.0-208.0","6132e1c8bab771d0d0f6f3e9","64de81b20235d278246b0bd3","","","","","6710",""," ","key"," ","16.66659701492554","500","250","pog","201","1","1","0","0","141","182"
"","psychophysics","209","1313395","0.0-209.0","6132e1c8bab771d0d0f6f3e9","64de81b20235d278246b0bd3","","","","","3936",""," ","key"," ","16.666211864406883","500","250","pog","169","1","1","0","0","187","139"
"","psychophysics","210","1316899","0.0-210.0","6132e1c8bab771d0d0f6f3e9","64de81b20235d278246b0bd3","","","","","3501",""," ","key"," ","16.665808612440657","500","250","pog","192","1","1","0","0","126","144"
"","psychophysics","211","1319990","0.0-211.0","6132e1c8bab771d0d0f6f3e9","64de81b20235d278246b0bd3","","","","","3086",""," ","key"," ","16.665324324325383","500","250","pog","198","1","1","0","0","184","171"
"","psychophysics","212","1323867","0.0-212.0","6132e1c8bab771d0d0f6f3e9","64de81b20235d278246b0bd3","","","","","3875",""," ","key"," ","16.666935064935718","500","250","pog","168","1","1","0","0","112","146"
"","psychophysics","213","1327652","0.0-213.0","6132e1c8bab771d0d0f6f3e9","64de81b20235d278246b0bd3","","","","","3782",""," ","key"," ","16.666172566372424","500","250","pog","160","1","1","0","0","176","123"
"","psychophysics","214","1334762","0.0-214.0","6132e1c8bab771d0d0f6f3e9","64de81b20235d278246b0bd3","","","","","7104",""," ","key"," ","16.666194835680475","500","250","pog","217","1","1","0","0","127","197"
"","psychophysics","215","1340400","0.0-215.0","6132e1c8bab771d0d0f6f3e9","64de81b20235d278246b0bd3","","","","","5622",""," ","key"," ","16.666486646884703","500","250","pog","151","1","1","0","0","157","145"
"","psychophysics","216","1347286","0.0-216.0","6132e1c8bab771d0d0f6f3e9","64de81b20235d278246b0bd3","","","","","6882",""," ","key"," ","16.666536407767303","500","250","pog","234","1","1","0","0","140","198"
"","psychophysics","217","1350880","0.0-217.0","6132e1c8bab771d0d0f6f3e9","64de81b20235d278246b0bd3","","","","","3587",""," ","key"," ","16.667302325581264","500","250","pog","203","1","1","0","0","137","164"
"","psychophysics","218","1357265","0.0-218.0","6132e1c8bab771d0d0f6f3e9","64de81b20235d278246b0bd3","","","","","6382",""," ","key"," ","16.665719895287786","500","250","pog","154","1","1","0","0","184","122"
"","psychophysics","219","1363571","0.0-219.0","6132e1c8bab771d0d0f6f3e9","64de81b20235d278246b0bd3","","","","","6302",""," ","key"," ","16.665849206349492","500","250","pog","212","1","1","0","0","134","176"
