"success","trial_type","trial_index","time_elapsed","internal_node_id","pid","sid","timeout","failed_images","failed_audio","failed_video","rt","stimulus","response","response_type","key_press","avg_frame_time","center_x","center_y","task","resp","version","block","jitterX","jitterY","start","parA"
"true","fullscreen","0","3022","0.0-0.0","60fe11983fc341ca024436ac","64e50ee2a93acd66a4507664","","","","","","","","","","","","","","","","","","","",""
"true","preload","1","3174","0.0-1.0","60fe11983fc341ca024436ac","64e50ee2a93acd66a4507664","false","[]","[]","[]","","","","","","","","","","","","","","","",""
"","html-button-response","2","5812","0.0-2.0","60fe11983fc341ca024436ac","64e50ee2a93acd66a4507664","","","","","2635","Please Make Sure Your Audio Is On.","0","","","","","","","","","","","","",""
"","psychophysics","3","9424","0.0-3.0","60fe11983fc341ca024436ac","64e50ee2a93acd66a4507664","","","","","3597",""," ","key"," ","16.74358333333333","768","250","","","","","","","",""
"","psychophysics","4","11752","0.0-4.0","60fe11983fc341ca024436ac","64e50ee2a93acd66a4507664","","","","","2312",""," ","key"," ","16.667863309352523","500","250","inst","","","","","","",""
"","psychophysics","5","13890","0.0-5.0","60fe11983fc341ca024436ac","64e50ee2a93acd66a4507664","","","","","2135",""," ","key"," ","16.66580314960629","500","250","sample0","","","","","","",""
"","psychophysics","6","15966","0.0-6.0","60fe11983fc341ca024436ac","64e50ee2a93acd66a4507664","","","","","2067",""," ","key"," ","16.671096774193536","500","250","sample1","","","","","","",""
"","psychophysics","7","28533","0.0-7.0","60fe11983fc341ca024436ac","64e50ee2a93acd66a4507664","","","","","12561",""," ","key"," ","16.667344414893616","500","250","sample2","104","","","","","",""
"","psychophysics","8","36372","0.0-8.0","60fe11983fc341ca024436ac","64e50ee2a93acd66a4507664","","","","","7831",""," ","key"," ","16.664991489361707","500","250","sample3","98","","","","","",""
"","psychophysics","9","45468","0.0-9.0","60fe11983fc341ca024436ac","64e50ee2a93acd66a4507664","","","","","9092",""," ","key"," ","16.666908256880742","500","250","sample4","102","","","","","",""
"","psychophysics","10","48984","0.0-10.0","60fe11983fc341ca024436ac","64e50ee2a93acd66a4507664","","","","","3513",""," ","key"," ","16.66999523809524","500","250","sample5","","","","","","",""
"","psychophysics","11","55389","0.0-11.0","60fe11983fc341ca024436ac","64e50ee2a93acd66a4507664","","","","","6403",""," ","key"," ","16.66677284595299","500","250","sample6","496","","","","","",""
"","psychophysics","12","58642","0.0-12.0","60fe11983fc341ca024436ac","64e50ee2a93acd66a4507664","","","","","3250",""," ","key"," ","16.667118556701006","500","250","inst","","","","","","",""
"","psychophysics","13","62581","0.0-13.0","60fe11983fc341ca024436ac","64e50ee2a93acd66a4507664","","","","","3936",""," ","key"," ","16.668510638297867","500","250","inst","","","","","","",""
"","psychophysics","14","65547","0.0-14.0","60fe11983fc341ca024436ac","64e50ee2a93acd66a4507664","","","","","2955",""," ","key"," ","16.667564971751453","500","250","inst","","","","","","",""
"","psychophysics","15","67589","0.0-15.0","60fe11983fc341ca024436ac","64e50ee2a93acd66a4507664","","","","","2036",""," ","key"," ","16.67017213114765","500","250","inst","","","","","","",""
"","psychophysics","16","69365","0.0-16.0","60fe11983fc341ca024436ac","64e50ee2a93acd66a4507664","","","","","1773",""," ","key"," ","16.670476190476272","500","250","inst","","","","","","",""
"","psychophysics","17","71261","0.0-17.0","60fe11983fc341ca024436ac","64e50ee2a93acd66a4507664","","","","","1890",""," ","key"," ","16.66305309734503","500","250","instZol0","0","","","0","0","0",""
"","psychophysics","18","77334","0.0-18.0","60fe11983fc341ca024436ac","64e50ee2a93acd66a4507664","","","","","6069",""," ","key"," ","16.668491758241775","500","250","instZol1","0.4","","","0","0","-1.3",""
"","psychophysics","19","90652","0.0-19.0","60fe11983fc341ca024436ac","64e50ee2a93acd66a4507664","","","","","13312",""," ","key"," ","16.667837092731823","500","250","instZol2","2.0000000000000013","1","","0","0","2",""
"","psychophysics","20","92609","0.0-20.0","60fe11983fc341ca024436ac","64e50ee2a93acd66a4507664","","","","","1955",""," ","key"," ","16.664767241379288","500","250","inst","","","","","","",""
"","psychophysics","21","97094","0.0-21.0","60fe11983fc341ca024436ac","64e50ee2a93acd66a4507664","","","","","4467",""," ","key"," ","16.668753731343266","500","250","zol","1.24","1","0","-8","28","0.66",""
"","psychophysics","22","104652","0.0-22.0","60fe11983fc341ca024436ac","64e50ee2a93acd66a4507664","","","","","7548",""," ","key"," ","16.66746357615895","500","250","zol","0.86","1","0","-10","11","0.44",""
"","psychophysics","23","112658","0.0-23.0","60fe11983fc341ca024436ac","64e50ee2a93acd66a4507664","","","","","null","","null","key","null","16.667645093945712","500","250","zol","1.7300000000000006","1","0","-29","5","-0.13",""
"","psychophysics","24","117545","0.0-24.0","60fe11983fc341ca024436ac","64e50ee2a93acd66a4507664","","","","","4882",""," ","key"," ","16.667856164383547","500","250","zol","2.230000000000001","1","0","-25","29","-0.53",""
"","psychophysics","25","124821","0.0-25.0","60fe11983fc341ca024436ac","64e50ee2a93acd66a4507664","","","","","7263",""," ","key"," ","16.66713073394497","500","250","zol","1.5400000000000005","1","0","-10","27","0.06",""
"","psychophysics","26","127921","0.0-26.0","60fe11983fc341ca024436ac","64e50ee2a93acd66a4507664","","","","","3091",""," ","key"," ","16.669464864864917","500","250","zol","2.0500000000000007","1","0","9","21","-0.75",""
"","psychophysics","27","131674","0.0-27.0","60fe11983fc341ca024436ac","64e50ee2a93acd66a4507664","","","","","3748",""," ","key"," ","16.666535714285732","500","250","zol","2.140000000000001","1","0","-3","-3","-0.74",""
"","psychophysics","28","136071","0.0-28.0","60fe11983fc341ca024436ac","64e50ee2a93acd66a4507664","","","","","4391",""," ","key"," ","16.667606870229008","500","250","zol","0.82","1","0","-18","15","0.58",""
"","psychophysics","29","140315","0.0-29.0","60fe11983fc341ca024436ac","64e50ee2a93acd66a4507664","","","","","4232",""," ","key"," ","16.66337795275599","500","250","zol","0.94","1","0","-28","20","0.46",""
"","psychophysics","30","145285","0.0-30.0","60fe11983fc341ca024436ac","64e50ee2a93acd66a4507664","","","","","4956",""," ","key"," ","16.668306397306377","500","250","zol","2.0300000000000007","1","0","19","26","-0.73",""
"","psychophysics","31","149342","0.0-31.0","60fe11983fc341ca024436ac","64e50ee2a93acd66a4507664","","","","","4048",""," ","key"," ","16.66851028806586","500","250","zol","0.97","1","0","-8","21","0.43",""
"","psychophysics","32","155429","0.0-32.0","60fe11983fc341ca024436ac","64e50ee2a93acd66a4507664","","","","","6080",""," ","key"," ","16.668101648351605","500","250","zol","1.07","1","0","26","28","0.43",""
"","psychophysics","33","160043","0.0-33.0","60fe11983fc341ca024436ac","64e50ee2a93acd66a4507664","","","","","4603",""," ","key"," ","16.668905797101406","500","250","zol","2.250000000000001","1","0","-2","7","-0.65",""
"","psychophysics","34","168055","0.0-34.0","60fe11983fc341ca024436ac","64e50ee2a93acd66a4507664","","","","","null","","null","key","null","16.666885416666688","500","250","zol","2.2400000000000007","1","0","-18","6","-0.24",""
"","psychophysics","35","172521","0.0-35.0","60fe11983fc341ca024436ac","64e50ee2a93acd66a4507664","","","","","4458",""," ","key"," ","16.666048689138655","500","250","zol","1.5200000000000002","1","0","-22","-7","0.68",""
"","psychophysics","36","173739","0.0-36.0","60fe11983fc341ca024436ac","64e50ee2a93acd66a4507664","","","","","1214",""," ","key"," ","16.67216901408474","500","250","inst","","","","","","",""
"","psychophysics","37","180574","0.0-37.0","60fe11983fc341ca024436ac","64e50ee2a93acd66a4507664","","","","","6827",""," ","key"," ","16.66725916870419","500","250","instPog0","340","2","","0","0","370","340"
"","psychophysics","38","186701","0.0-38.0","60fe11983fc341ca024436ac","64e50ee2a93acd66a4507664","","","","","6121",""," ","key"," ","16.667405994550393","500","250","instPog1","352","2","","0","0","370","340"
"","psychophysics","39","192478","0.0-39.0","60fe11983fc341ca024436ac","64e50ee2a93acd66a4507664","","","","","5774",""," ","key"," ","16.66834104046247","500","250","instPog2","324","2","","0","0","340","340"
"","psychophysics","40","193931","0.0-40.0","60fe11983fc341ca024436ac","64e50ee2a93acd66a4507664","","","","","1451",""," ","key"," ","16.66724418604653","500","250","inst","","","","","","",""
"","psychophysics","41","198744","0.0-41.0","60fe11983fc341ca024436ac","64e50ee2a93acd66a4507664","","","","","4811",""," ","key"," ","16.66696875","500","250","pog","341","2","0","0","0","325","358"
"","psychophysics","42","203989","0.0-42.0","60fe11983fc341ca024436ac","64e50ee2a93acd66a4507664","","","","","5240",""," ","key"," ","16.668677316293937","500","250","pog","294","2","0","0","0","360","304"
"","psychophysics","43","208387","0.0-43.0","60fe11983fc341ca024436ac","64e50ee2a93acd66a4507664","","","","","4392",""," ","key"," ","16.669003802281384","500","250","pog","322","2","0","0","0","294","340"
"","psychophysics","44","212399","0.0-44.0","60fe11983fc341ca024436ac","64e50ee2a93acd66a4507664","","","","","4004",""," ","key"," ","16.669158333333325","500","250","pog","308","2","0","0","0","356","328"
"","psychophysics","45","216219","0.0-45.0","60fe11983fc341ca024436ac","64e50ee2a93acd66a4507664","","","","","3816",""," ","key"," ","16.66783333333335","500","250","pog","304","2","0","0","0","398","329"
"","psychophysics","46","219912","0.0-46.0","60fe11983fc341ca024436ac","64e50ee2a93acd66a4507664","","","","","3691",""," ","key"," ","16.668176470588307","500","250","pog","360","2","0","0","0","350","379"
"","psychophysics","47","225041","0.0-47.0","60fe11983fc341ca024436ac","64e50ee2a93acd66a4507664","","","","","5126",""," ","key"," ","16.667592833876224","500","250","pog","343","2","0","0","0","317","358"
"","psychophysics","48","228361","0.0-48.0","60fe11983fc341ca024436ac","64e50ee2a93acd66a4507664","","","","","3317",""," ","key"," ","16.66897474747472","500","250","pog","330","2","0","0","0","318","354"
"","psychophysics","49","231848","0.0-49.0","60fe11983fc341ca024436ac","64e50ee2a93acd66a4507664","","","","","3483",""," ","key"," ","16.667028846153837","500","250","pog","270","2","0","0","0","306","305"
"","psychophysics","50","237715","0.0-50.0","60fe11983fc341ca024436ac","64e50ee2a93acd66a4507664","","","","","5849",""," ","key"," ","16.668766381766364","500","250","pog","315","2","0","0","0","373","339"
"","psychophysics","51","241703","0.0-51.0","60fe11983fc341ca024436ac","64e50ee2a93acd66a4507664","","","","","3985",""," ","key"," ","16.668394957983107","500","250","pog","326","2","0","0","0","376","337"
"","psychophysics","52","246043","0.0-52.0","60fe11983fc341ca024436ac","64e50ee2a93acd66a4507664","","","","","4332",""," ","key"," ","16.66906153846156","500","250","pog","273","2","0","0","0","347","301"
"","psychophysics","53","249121","0.0-53.0","60fe11983fc341ca024436ac","64e50ee2a93acd66a4507664","","","","","3074",""," ","key"," ","16.667300546448136","500","250","pog","301","2","0","0","0","361","318"
"","psychophysics","54","252009","0.0-54.0","60fe11983fc341ca024436ac","64e50ee2a93acd66a4507664","","","","","2880",""," ","key"," ","16.66722543352597","500","250","pog","340","2","0","0","0","392","352"
"","psychophysics","55","256292","0.0-55.0","60fe11983fc341ca024436ac","64e50ee2a93acd66a4507664","","","","","4278",""," ","key"," ","16.66876862745095","500","250","pog","352","2","0","0","0","316","369"
"","psychophysics","56","258470","0.0-56.0","60fe11983fc341ca024436ac","64e50ee2a93acd66a4507664","","","","","2173",""," ","key"," ","16.663200000000113","500","250","inst","","","","","","",""
"","psychophysics","57","259984","0.0-57.0","60fe11983fc341ca024436ac","64e50ee2a93acd66a4507664","","","","","1507",""," ","key"," ","16.85912359550561","500","250","instEB0","40","1","","0","0","40","40"
"","psychophysics","58","267876","0.0-58.0","60fe11983fc341ca024436ac","64e50ee2a93acd66a4507664","","","","","7889",""," ","key"," ","16.667756871035976","500","250","instEB1","32","1","","0","0","40","30"
"","psychophysics","59","272686","0.0-59.0","60fe11983fc341ca024436ac","64e50ee2a93acd66a4507664","","","","","4806",""," ","key"," ","16.66770034843207","500","250","instEB2","34","1","","0","0","30","40"
"","psychophysics","60","279028","0.0-60.0","60fe11983fc341ca024436ac","64e50ee2a93acd66a4507664","","","","","6334",""," ","key"," ","16.6675789473684","500","250","instEB3","33","1","","0","0","27","45"
"","psychophysics","61","283510","0.0-61.0","60fe11983fc341ca024436ac","64e50ee2a93acd66a4507664","","","","","4479",""," ","key"," ","16.66695522388062","500","250","instEB4","25","1","","0","0","40","30"
"","psychophysics","62","285215","0.0-62.0","60fe11983fc341ca024436ac","64e50ee2a93acd66a4507664","","","","","1701",""," ","key"," ","16.66885148514855","500","250","inst","","","","","","",""
"","psychophysics","63","289468","0.0-63.0","60fe11983fc341ca024436ac","64e50ee2a93acd66a4507664","","","","","4249",""," ","key"," ","16.667055118110355","500","250","eb","38","1","","0","0","42","54"
"","psychophysics","64","292890","0.0-64.0","60fe11983fc341ca024436ac","64e50ee2a93acd66a4507664","","","","","3414",""," ","key"," ","16.669235294117527","500","250","eb","36","1","","0","0","41","53"
"","psychophysics","65","296791","0.0-65.0","60fe11983fc341ca024436ac","64e50ee2a93acd66a4507664","","","","","3893",""," ","key"," ","16.667283261802382","500","250","eb","29","1","","0","0","49","32"
"","psychophysics","66","300069","0.0-66.0","60fe11983fc341ca024436ac","64e50ee2a93acd66a4507664","","","","","3272",""," ","key"," ","16.66811734693878","500","250","eb","30","1","","0","0","42","37"
"","psychophysics","67","303727","0.0-67.0","60fe11983fc341ca024436ac","64e50ee2a93acd66a4507664","","","","","3648",""," ","key"," ","16.66826940639254","500","250","eb","39","1","","0","0","25","52"
"","psychophysics","68","308008","0.0-68.0","60fe11983fc341ca024436ac","64e50ee2a93acd66a4507664","","","","","4276",""," ","key"," ","16.66802352941184","500","250","eb","28","1","","0","0","44","33"
"","psychophysics","69","311953","0.0-69.0","60fe11983fc341ca024436ac","64e50ee2a93acd66a4507664","","","","","3937",""," ","key"," ","16.66653813559328","500","250","eb","36","1","","0","0","34","48"
"","psychophysics","70","314670","0.0-70.0","60fe11983fc341ca024436ac","64e50ee2a93acd66a4507664","","","","","2709",""," ","key"," ","16.669481481481515","500","250","eb","25","1","","0","0","37","32"
"","psychophysics","71","317927","0.0-71.0","60fe11983fc341ca024436ac","64e50ee2a93acd66a4507664","","","","","3249",""," ","key"," ","16.66929743589762","500","250","eb","23","1","","0","0","29","26"
"","psychophysics","72","320853","0.0-72.0","60fe11983fc341ca024436ac","64e50ee2a93acd66a4507664","","","","","2921",""," ","key"," ","16.669454022988425","500","250","eb","23","1","","0","0","43","24"
"","psychophysics","73","324817","0.0-73.0","60fe11983fc341ca024436ac","64e50ee2a93acd66a4507664","","","","","3956",""," ","key"," ","16.669569620253263","500","250","eb","38","1","","0","0","53","44"
"","psychophysics","74","327838","0.0-74.0","60fe11983fc341ca024436ac","64e50ee2a93acd66a4507664","","","","","3010",""," ","key"," ","16.667911111111042","500","250","eb","23","1","","0","0","48","25"
"","psychophysics","75","330051","0.0-75.0","60fe11983fc341ca024436ac","64e50ee2a93acd66a4507664","","","","","2205",""," ","key"," ","16.670204545454578","500","250","eb","23","1","","0","0","26","29"
"","psychophysics","76","332987","0.0-76.0","60fe11983fc341ca024436ac","64e50ee2a93acd66a4507664","","","","","2933",""," ","key"," ","16.669382857142814","500","250","eb","26","1","","0","0","54","24"
"","psychophysics","77","337454","0.0-77.0","60fe11983fc341ca024436ac","64e50ee2a93acd66a4507664","","","","","4459",""," ","key"," ","16.66880524344568","500","250","eb","42","1","","0","0","26","53"
"","psychophysics","78","338475","0.0-78.0","60fe11983fc341ca024436ac","64e50ee2a93acd66a4507664","","","","","1013",""," ","key"," ","16.6714333333337","500","250","inst","","","","","","",""
"","psychophysics","79","340136","0.0-79.0","60fe11983fc341ca024436ac","64e50ee2a93acd66a4507664","","","","","1654",""," ","key"," ","16.666787878787755","500","250","instBr0","0","","","0","0","0","300"
"","psychophysics","80","344726","0.0-80.0","60fe11983fc341ca024436ac","64e50ee2a93acd66a4507664","","","","","4576",""," ","key"," ","16.66837956204379","500","250","instBr1","1","","","0","0","-40","300"
"","psychophysics","81","351078","0.0-81.0","60fe11983fc341ca024436ac","64e50ee2a93acd66a4507664","","","","","6347",""," ","key"," ","16.667593175853025","500","250","instBr3","22","2","","0","0","40","300"
"","psychophysics","82","352084","0.0-82.0","60fe11983fc341ca024436ac","64e50ee2a93acd66a4507664","","","","","1002",""," ","key"," ","16.66945762711802","500","250","inst","","","","","","",""
"","psychophysics","83","355417","0.0-83.0","60fe11983fc341ca024436ac","64e50ee2a93acd66a4507664","","","","","3327",""," ","key"," ","16.667542713567915","500","250","br","20","2","0","-15","12","-8","275"
"","psychophysics","84","357761","0.0-84.0","60fe11983fc341ca024436ac","64e50ee2a93acd66a4507664","","","","","2340",""," ","key"," ","16.668280575539175","500","250","br","18","2","0","-15","-17","19","269"
"","psychophysics","85","361804","0.0-85.0","60fe11983fc341ca024436ac","64e50ee2a93acd66a4507664","","","","","4036",""," ","key"," ","16.667698347107372","500","250","br","26","2","0","-16","28","-22","283"
"","psychophysics","86","365966","0.0-86.0","60fe11983fc341ca024436ac","64e50ee2a93acd66a4507664","","","","","4157",""," ","key"," ","16.66919678714838","500","250","br","11","2","0","-27","-13","21","279"
"","psychophysics","87","369448","0.0-87.0","60fe11983fc341ca024436ac","64e50ee2a93acd66a4507664","","","","","3477",""," ","key"," ","16.669302884615508","500","250","br","14","2","0","-1","20","-7","252"
"","psychophysics","88","371677","0.0-88.0","60fe11983fc341ca024436ac","64e50ee2a93acd66a4507664","","","","","2224",""," ","key"," ","16.666393939393775","500","250","br","12","2","0","-29","-26","10","253"
"","psychophysics","89","374416","0.0-89.0","60fe11983fc341ca024436ac","64e50ee2a93acd66a4507664","","","","","2732",""," ","key"," ","16.66996341463421","500","250","br","16","2","0","24","-2","17","250"
"","psychophysics","90","378317","0.0-90.0","60fe11983fc341ca024436ac","64e50ee2a93acd66a4507664","","","","","3882",""," ","key"," ","16.668862660944335","500","250","br","16","2","0","26","21","-6","247"
"","psychophysics","91","383449","0.0-91.0","60fe11983fc341ca024436ac","64e50ee2a93acd66a4507664","","","","","5126",""," ","key"," ","16.668058631921767","500","250","br","20","2","0","11","-20","-9","252"
"","psychophysics","92","387562","0.0-92.0","60fe11983fc341ca024436ac","64e50ee2a93acd66a4507664","","","","","4108",""," ","key"," ","16.66757551020401","500","250","br","11","2","0","1","1","-30","269"
"","psychophysics","93","390601","0.0-93.0","60fe11983fc341ca024436ac","64e50ee2a93acd66a4507664","","","","","3033",""," ","key"," ","16.668763736263557","500","250","br","18","2","0","29","26","-8","213"
"","psychophysics","94","393991","0.0-94.0","60fe11983fc341ca024436ac","64e50ee2a93acd66a4507664","","","","","3386",""," ","key"," ","16.667539603960364","500","250","br","14","2","0","-16","4","21","279"
"","psychophysics","95","397083","0.0-95.0","60fe11983fc341ca024436ac","64e50ee2a93acd66a4507664","","","","","3082",""," ","key"," ","16.670167567567724","500","250","br","16","2","0","18","-25","-22","230"
"","psychophysics","96","400516","0.0-96.0","60fe11983fc341ca024436ac","64e50ee2a93acd66a4507664","","","","","3429",""," ","key"," ","16.66928292682917","500","250","br","11","2","0","-2","-9","-18","218"
"","psychophysics","97","402212","0.0-97.0","60fe11983fc341ca024436ac","64e50ee2a93acd66a4507664","","","","","1692",""," ","key"," ","16.668099999999978","500","250","br","14","2","0","-7","-20","15","208"
"","psychophysics","98","403228","0.0-98.0","60fe11983fc341ca024436ac","64e50ee2a93acd66a4507664","","","","","1009",""," ","key"," ","16.663883333333068","500","250","inst","","","","","","",""
"","psychophysics","99","404766","0.0-99.0","60fe11983fc341ca024436ac","64e50ee2a93acd66a4507664","","","","","1530",""," ","key"," ","16.66563043478274","500","250","instPzPre","50","0","","","","50","50"
"","psychophysics","100","407033","0.0-100.0","60fe11983fc341ca024436ac","64e50ee2a93acd66a4507664","","","","","2264",""," ","key"," ","16.667355555555506","500","250","instPz0","50","1","","","","50","50"
"","psychophysics","101","414691","0.0-101.0","60fe11983fc341ca024436ac","64e50ee2a93acd66a4507664","","","","","7651",""," ","key"," ","16.667325327510937","500","250","instPz1","49","1","","","","25","50"
"","psychophysics","102","422510","0.0-102.0","60fe11983fc341ca024436ac","64e50ee2a93acd66a4507664","","","","","7815",""," ","key"," ","16.668068376068412","500","250","instPz2","22","1","","","","35","20"
"","psychophysics","103","431363","0.0-103.0","60fe11983fc341ca024436ac","64e50ee2a93acd66a4507664","","","","","8839",""," ","key"," ","16.66813962264151","500","250","instPz3","41","1","","","","100","30"
"","psychophysics","104","437201","0.0-104.0","60fe11983fc341ca024436ac","64e50ee2a93acd66a4507664","","","","","5830",""," ","key"," ","16.66889398280791","500","250","instPz4","43","1","","","","100","30"
"","psychophysics","105","438242","0.0-105.0","60fe11983fc341ca024436ac","64e50ee2a93acd66a4507664","","","","","1035",""," ","key"," ","16.67040322580649","500","250","inst","","","","","","",""
"","psychophysics","106","442886","0.0-106.0","60fe11983fc341ca024436ac","64e50ee2a93acd66a4507664","","","","","4640",""," ","key"," ","16.667602888086563","500","250","pz","64","1","0","","","40","45"
"","psychophysics","107","448788","0.0-107.0","60fe11983fc341ca024436ac","64e50ee2a93acd66a4507664","","","","","5896",""," ","key"," ","16.666725988700424","500","250","pz","71","1","0","","","36","55"
"","psychophysics","108","454881","0.0-108.0","60fe11983fc341ca024436ac","64e50ee2a93acd66a4507664","","","","","6088",""," ","key"," ","16.668299450549448","500","250","pz","71","1","0","","","35","57"
"","psychophysics","109","461149","0.0-109.0","60fe11983fc341ca024436ac","64e50ee2a93acd66a4507664","","","","","6258",""," ","key"," ","16.66739733333327","500","250","pz","62","1","0","","","21","41"
"","psychophysics","110","466895","0.0-110.0","60fe11983fc341ca024436ac","64e50ee2a93acd66a4507664","","","","","5738",""," ","key"," ","16.66857558139532","500","250","pz","44","1","0","","","60","28"
"","psychophysics","111","470975","0.0-111.0","60fe11983fc341ca024436ac","64e50ee2a93acd66a4507664","","","","","4061",""," ","key"," ","16.66820081967224","500","250","pz","73","1","0","","","55","53"
"","psychophysics","112","475436","0.0-112.0","60fe11983fc341ca024436ac","64e50ee2a93acd66a4507664","","","","","4456",""," ","key"," ","16.668349624060216","500","250","pz","49","1","0","","","29","36"
"","psychophysics","113","477959","0.0-113.0","60fe11983fc341ca024436ac","64e50ee2a93acd66a4507664","","","","","2516",""," ","key"," ","16.664781456953918","500","250","pz","40","1","0","","","33","28"
"","psychophysics","114","480353","0.0-114.0","60fe11983fc341ca024436ac","64e50ee2a93acd66a4507664","","","","","2389",""," ","key"," ","16.667528169014012","500","250","pz","33","1","0","","","28","20"
"","psychophysics","115","483290","0.0-115.0","60fe11983fc341ca024436ac","64e50ee2a93acd66a4507664","","","","","2930",""," ","key"," ","16.668443181818226","500","250","pz","48","1","0","","","29","28"
"","psychophysics","116","488945","0.0-116.0","60fe11983fc341ca024436ac","64e50ee2a93acd66a4507664","","","","","5651",""," ","key"," ","16.667476331360827","500","250","pz","79","1","0","","","32","54"
"","psychophysics","117","492271","0.0-117.0","60fe11983fc341ca024436ac","64e50ee2a93acd66a4507664","","","","","3323",""," ","key"," ","16.665535353535418","500","250","pz","73","1","0","","","32","54"
"","psychophysics","118","494574","0.0-118.0","60fe11983fc341ca024436ac","64e50ee2a93acd66a4507664","","","","","2295",""," ","key"," ","16.66487681159397","500","250","pz","55","1","0","","","42","32"
"","psychophysics","119","497823","0.0-119.0","60fe11983fc341ca024436ac","64e50ee2a93acd66a4507664","","","","","3244",""," ","key"," ","16.668917525773292","500","250","pz","73","1","0","","","32","55"
"","psychophysics","120","500956","0.0-120.0","60fe11983fc341ca024436ac","64e50ee2a93acd66a4507664","","","","","3129",""," ","key"," ","16.668909090909146","500","250","pz","78","1","0","","","50","55"
"","psychophysics","121","501987","0.0-121.0","60fe11983fc341ca024436ac","64e50ee2a93acd66a4507664","","","","","1028",""," ","key"," ","16.668516666666257","500","250","inst","","","","","","",""
"","psychophysics","122","507946","0.0-122.0","60fe11983fc341ca024436ac","64e50ee2a93acd66a4507664","","","","","5952",""," ","key"," ","16.66621008403361","500","250","instZol1","0.09999999999999981","","","0","0","-1.3",""
"","psychophysics","123","515571","0.0-123.0","60fe11983fc341ca024436ac","64e50ee2a93acd66a4507664","","","","","7609",""," ","key"," ","16.667971491228137","500","250","instZol2","-2.6000000000000005","2","","0","0","2",""
"","psychophysics","124","516465","0.0-124.0","60fe11983fc341ca024436ac","64e50ee2a93acd66a4507664","","","","","888",""," ","key"," ","16.66343396226436","500","250","inst","","","","","","",""
"","psychophysics","125","519772","0.0-125.0","60fe11983fc341ca024436ac","64e50ee2a93acd66a4507664","","","","","3296",""," ","key"," ","16.668421319796973","500","250","zol","-1.9900000000000007","2","1","-14","5","0.49",""
"","psychophysics","126","522591","0.0-126.0","60fe11983fc341ca024436ac","64e50ee2a93acd66a4507664","","","","","2812",""," ","key"," ","16.66742603550321","500","250","zol","-1.6100000000000005","2","1","29","17","-0.19",""
"","psychophysics","127","524851","0.0-127.0","60fe11983fc341ca024436ac","64e50ee2a93acd66a4507664","","","","","2252",""," ","key"," ","16.668216417910212","500","250","zol","-1.5000000000000002","2","1","4","12","-0.1",""
"","psychophysics","128","527857","0.0-128.0","60fe11983fc341ca024436ac","64e50ee2a93acd66a4507664","","","","","2997",""," ","key"," ","16.670088888888454","500","250","zol","-1.9000000000000006","2","1","-1","-10","0.2",""
"","psychophysics","129","530429","0.0-129.0","60fe11983fc341ca024436ac","64e50ee2a93acd66a4507664","","","","","2566",""," ","key"," ","16.665385620915057","500","250","zol","-1.9700000000000006","2","1","25","-17","-0.33",""
"","psychophysics","130","533083","0.0-130.0","60fe11983fc341ca024436ac","64e50ee2a93acd66a4507664","","","","","2651",""," ","key"," ","16.67012658227851","500","250","zol","-2.250000000000001","2","1","13","-15","0.35",""
"","psychophysics","131","536724","0.0-131.0","60fe11983fc341ca024436ac","64e50ee2a93acd66a4507664","","","","","3632",""," ","key"," ","16.669266055045977","500","250","zol","-2.7300000000000013","2","1","4","11","0.53",""
"","psychophysics","132","540525","0.0-132.0","60fe11983fc341ca024436ac","64e50ee2a93acd66a4507664","","","","","3794",""," ","key"," ","16.6675330396477","500","250","zol","-2.1600000000000006","2","1","-25","-16","-0.64",""
"","psychophysics","133","546382","0.0-133.0","60fe11983fc341ca024436ac","64e50ee2a93acd66a4507664","","","","","5850",""," ","key"," ","16.66899428571441","500","250","zol","-2.410000000000001","2","1","20","30","-0.59",""
"","psychophysics","134","549608","0.0-134.0","60fe11983fc341ca024436ac","64e50ee2a93acd66a4507664","","","","","3210",""," ","key"," ","16.66774093264224","500","250","zol","-2.350000000000001","2","1","-9","30","0.05",""
"","psychophysics","135","552299","0.0-135.0","60fe11983fc341ca024436ac","64e50ee2a93acd66a4507664","","","","","2684",""," ","key"," ","16.666093750000435","500","250","zol","-2.530000000000001","2","1","-4","8","0.53",""
"","psychophysics","136","554883","0.0-136.0","60fe11983fc341ca024436ac","64e50ee2a93acd66a4507664","","","","","2573",""," ","key"," ","16.669675324675357","500","250","zol","-2.250000000000001","2","1","-7","-22","0.35",""
"","psychophysics","137","558224","0.0-137.0","60fe11983fc341ca024436ac","64e50ee2a93acd66a4507664","","","","","3330",""," ","key"," ","16.667390000000015","500","250","zol","-2.1100000000000008","2","1","25","-26","0.01",""
"","psychophysics","138","560292","0.0-138.0","60fe11983fc341ca024436ac","64e50ee2a93acd66a4507664","","","","","2062",""," ","key"," ","16.670276422763425","500","250","zol","-1.4900000000000002","2","1","30","-19","0.19",""
"","psychophysics","139","562707","0.0-139.0","60fe11983fc341ca024436ac","64e50ee2a93acd66a4507664","","","","","2406",""," ","key"," ","16.67027272727223","500","250","zol","-1.37","2","1","-7","10","-0.63",""
"","psychophysics","140","563842","0.0-140.0","60fe11983fc341ca024436ac","64e50ee2a93acd66a4507664","","","","","1129",""," ","key"," ","16.661029850746115","500","250","inst","","","","","","",""
"","psychophysics","141","568492","0.0-141.0","60fe11983fc341ca024436ac","64e50ee2a93acd66a4507664","","","","","4644",""," ","key"," ","16.667749103942743","500","250","instEB1","41","2","","0","0","30","40"
"","psychophysics","142","571092","0.0-142.0","60fe11983fc341ca024436ac","64e50ee2a93acd66a4507664","","","","","2596",""," ","key"," ","16.669864516129206","500","250","instEB2","37","2","","0","0","40","30"
"","psychophysics","143","575585","0.0-143.0","60fe11983fc341ca024436ac","64e50ee2a93acd66a4507664","","","","","4488",""," ","key"," ","16.668906716417883","500","250","instEB3","44","2","","0","0","45","27"
"","psychophysics","144","580618","0.0-144.0","60fe11983fc341ca024436ac","64e50ee2a93acd66a4507664","","","","","5024",""," ","key"," ","16.668664451826988","500","250","instEB4","50","2","","0","0","30","40"
"","psychophysics","145","581357","0.0-145.0","60fe11983fc341ca024436ac","64e50ee2a93acd66a4507664","","","","","737",""," ","key"," ","16.67509302325536","500","250","inst","","","","","","",""
"","psychophysics","146","584574","0.0-146.0","60fe11983fc341ca024436ac","64e50ee2a93acd66a4507664","","","","","3208",""," ","key"," ","16.666192708333256","500","250","eb","56","2","","0","0","48","38"
"","psychophysics","147","587486","0.0-147.0","60fe11983fc341ca024436ac","64e50ee2a93acd66a4507664","","","","","2906",""," ","key"," ","16.66631609195343","500","250","eb","49","2","","0","0","32","42"
"","psychophysics","148","589736","0.0-148.0","60fe11983fc341ca024436ac","64e50ee2a93acd66a4507664","","","","","2241",""," ","key"," ","16.669985074627235","500","250","eb","52","2","","0","0","49","43"
"","psychophysics","149","592080","0.0-149.0","60fe11983fc341ca024436ac","64e50ee2a93acd66a4507664","","","","","2336",""," ","key"," ","16.67056428571481","500","250","eb","37","2","","0","0","47","24"
"","psychophysics","150","594884","0.0-150.0","60fe11983fc341ca024436ac","64e50ee2a93acd66a4507664","","","","","2797",""," ","key"," ","16.67137125748472","500","250","eb","55","2","","0","0","40","46"
"","psychophysics","151","596998","0.0-151.0","60fe11983fc341ca024436ac","64e50ee2a93acd66a4507664","","","","","2109",""," ","key"," ","16.66638095238124","500","250","eb","57","2","","0","0","46","37"
"","psychophysics","152","599797","0.0-152.0","60fe11983fc341ca024436ac","64e50ee2a93acd66a4507664","","","","","2795",""," ","key"," ","16.667137724550965","500","250","eb","44","2","","0","0","52","30"
"","psychophysics","153","604332","0.0-153.0","60fe11983fc341ca024436ac","64e50ee2a93acd66a4507664","","","","","4531",""," ","key"," ","16.667136531365294","500","250","eb","52","2","","0","0","31","45"
"","psychophysics","154","607691","0.0-154.0","60fe11983fc341ca024436ac","64e50ee2a93acd66a4507664","","","","","3355",""," ","key"," ","16.666689999999946","500","250","eb","35","2","","0","0","39","25"
"","psychophysics","155","611855","0.0-155.0","60fe11983fc341ca024436ac","64e50ee2a93acd66a4507664","","","","","4157",""," ","key"," ","16.668622489960164","500","250","eb","55","2","","0","0","28","51"
"","psychophysics","156","615146","0.0-156.0","60fe11983fc341ca024436ac","64e50ee2a93acd66a4507664","","","","","3283",""," ","key"," ","16.668111675126987","500","250","eb","39","2","","0","0","37","29"
"","psychophysics","157","617112","0.0-157.0","60fe11983fc341ca024436ac","64e50ee2a93acd66a4507664","","","","","1961",""," ","key"," ","16.666846153845725","500","250","eb","36","2","","0","0","36","27"
"","psychophysics","158","620310","0.0-158.0","60fe11983fc341ca024436ac","64e50ee2a93acd66a4507664","","","","","3194",""," ","key"," ","16.669378947367964","500","250","eb","52","2","","0","0","35","43"
"","psychophysics","159","624307","0.0-159.0","60fe11983fc341ca024436ac","64e50ee2a93acd66a4507664","","","","","3991",""," ","key"," ","16.664029288702842","500","250","eb","47","2","","0","0","53","33"
"","psychophysics","160","626869","0.0-160.0","60fe11983fc341ca024436ac","64e50ee2a93acd66a4507664","","","","","2555",""," ","key"," ","16.66989542483626","500","250","eb","50","2","","0","0","46","35"
"","psychophysics","161","627676","0.0-161.0","60fe11983fc341ca024436ac","64e50ee2a93acd66a4507664","","","","","804",""," ","key"," ","16.667297872340683","500","250","inst","","","","","","",""
"","psychophysics","162","636376","0.0-162.0","60fe11983fc341ca024436ac","64e50ee2a93acd66a4507664","","","","","8694",""," ","key"," ","16.66758157389646","500","250","instPz1","50","2","","","","25","50"
"","psychophysics","163","639389","0.0-163.0","60fe11983fc341ca024436ac","64e50ee2a93acd66a4507664","","","","","3006",""," ","key"," ","16.667905555555546","500","250","instPz2","32","2","","","","20","35"
"","psychophysics","164","648356","0.0-164.0","60fe11983fc341ca024436ac","64e50ee2a93acd66a4507664","","","","","8957",""," ","key"," ","16.667880819366857","500","250","instPz3","70","2","","","","30","100"
"","psychophysics","165","653894","0.0-165.0","60fe11983fc341ca024436ac","64e50ee2a93acd66a4507664","","","","","5533",""," ","key"," ","16.66740361445812","500","250","instPz4","79","2","","","","30","100"
"","psychophysics","166","654929","0.0-166.0","60fe11983fc341ca024436ac","64e50ee2a93acd66a4507664","","","","","1031",""," ","key"," ","16.66380327868802","500","250","inst","","","","","","",""
"","psychophysics","167","660641","0.0-167.0","60fe11983fc341ca024436ac","64e50ee2a93acd66a4507664","","","","","5706",""," ","key"," ","16.668609970674613","500","250","pz","20","2","1","","","32","25"
"","psychophysics","168","663880","0.0-168.0","60fe11983fc341ca024436ac","64e50ee2a93acd66a4507664","","","","","3232",""," ","key"," ","16.668500000000066","500","250","pz","34","2","1","","","31","43"
"","psychophysics","169","668781","0.0-169.0","60fe11983fc341ca024436ac","64e50ee2a93acd66a4507664","","","","","4898",""," ","key"," ","16.666191126279923","500","250","pz","46","2","1","","","42","57"
"","psychophysics","170","671949","0.0-170.0","60fe11983fc341ca024436ac","64e50ee2a93acd66a4507664","","","","","3164",""," ","key"," ","16.667015873015828","500","250","pz","48","2","1","","","28","53"
"","psychophysics","171","675318","0.0-171.0","60fe11983fc341ca024436ac","64e50ee2a93acd66a4507664","","","","","3365",""," ","key"," ","16.66901492537289","500","250","pz","42","2","1","","","27","41"
"","psychophysics","172","678416","0.0-172.0","60fe11983fc341ca024436ac","64e50ee2a93acd66a4507664","","","","","3094",""," ","key"," ","16.669886486486508","500","250","pz","49","2","1","","","55","56"
"","psychophysics","173","680720","0.0-173.0","60fe11983fc341ca024436ac","64e50ee2a93acd66a4507664","","","","","2300",""," ","key"," ","16.66759854014606","500","250","pz","45","2","1","","","51","46"
"","psychophysics","174","685219","0.0-174.0","60fe11983fc341ca024436ac","64e50ee2a93acd66a4507664","","","","","4495",""," ","key"," ","16.66711895910765","500","250","pz","31","2","1","","","53","37"
"","psychophysics","175","688169","0.0-175.0","60fe11983fc341ca024436ac","64e50ee2a93acd66a4507664","","","","","2937",""," ","key"," ","16.66658522727283","500","250","pz","36","2","1","","","42","43"
"","psychophysics","176","692054","0.0-176.0","60fe11983fc341ca024436ac","64e50ee2a93acd66a4507664","","","","","3881",""," ","key"," ","16.66844827586239","500","250","pz","19","2","1","","","29","22"
"","psychophysics","177","695062","0.0-177.0","60fe11983fc341ca024436ac","64e50ee2a93acd66a4507664","","","","","3000",""," ","key"," ","16.66933888888905","500","250","pz","25","2","1","","","36","28"
"","psychophysics","178","697614","0.0-178.0","60fe11983fc341ca024436ac","64e50ee2a93acd66a4507664","","","","","2549",""," ","key"," ","16.67012500000036","500","250","pz","30","2","1","","","36","40"
"","psychophysics","179","700179","0.0-179.0","60fe11983fc341ca024436ac","64e50ee2a93acd66a4507664","","","","","2562",""," ","key"," ","16.666346405228765","500","250","pz","28","2","1","","","50","25"
"","psychophysics","180","703913","0.0-180.0","60fe11983fc341ca024436ac","64e50ee2a93acd66a4507664","","","","","3730",""," ","key"," ","16.668094170403524","500","250","pz","51","2","1","","","34","58"
"","psychophysics","181","707087","0.0-181.0","60fe11983fc341ca024436ac","64e50ee2a93acd66a4507664","","","","","3170",""," ","key"," ","16.66724338624306","500","250","pz","33","2","1","","","36","41"
"","psychophysics","182","707916","0.0-182.0","60fe11983fc341ca024436ac","64e50ee2a93acd66a4507664","","","","","827",""," ","key"," ","16.667734693878387","500","250","inst","","","","","","",""
"","psychophysics","183","713211","0.0-183.0","60fe11983fc341ca024436ac","64e50ee2a93acd66a4507664","","","","","5291",""," ","key"," ","16.667441640378268","500","250","instPog0","160","1","","0","0","190","160"
"","psychophysics","184","716620","0.0-184.0","60fe11983fc341ca024436ac","64e50ee2a93acd66a4507664","","","","","3407",""," ","key"," ","16.669162561576194","500","250","instPog1","164","1","","0","0","190","160"
"","psychophysics","185","720832","0.0-185.0","60fe11983fc341ca024436ac","64e50ee2a93acd66a4507664","","","","","4211",""," ","key"," ","16.66846825396836","500","250","instPog2","182","1","","0","0","160","160"
"","psychophysics","186","721517","0.0-186.0","60fe11983fc341ca024436ac","64e50ee2a93acd66a4507664","","","","","682",""," ","key"," ","16.660800000000744","500","250","inst","","","","","","",""
"","psychophysics","187","724347","0.0-187.0","60fe11983fc341ca024436ac","64e50ee2a93acd66a4507664","","","","","2827",""," ","key"," ","16.66889940828399","500","250","pog","174","1","1","0","0","198","157"
"","psychophysics","188","727819","0.0-188.0","60fe11983fc341ca024436ac","64e50ee2a93acd66a4507664","","","","","3469",""," ","key"," ","16.66713043478214","500","250","pog","160","1","1","0","0","148","141"
"","psychophysics","189","730426","0.0-189.0","60fe11983fc341ca024436ac","64e50ee2a93acd66a4507664","","","","","2603",""," ","key"," ","16.665896774193783","500","250","pog","172","1","1","0","0","160","148"
"","psychophysics","190","733868","0.0-190.0","60fe11983fc341ca024436ac","64e50ee2a93acd66a4507664","","","","","3435",""," ","key"," ","16.668000000000035","500","250","pog","184","1","1","0","0","108","170"
"","psychophysics","191","737063","0.0-191.0","60fe11983fc341ca024436ac","64e50ee2a93acd66a4507664","","","","","3192",""," ","key"," ","16.669189473683947","500","250","pog","175","1","1","0","0","101","156"
"","psychophysics","192","740653","0.0-192.0","60fe11983fc341ca024436ac","64e50ee2a93acd66a4507664","","","","","3583",""," ","key"," ","16.667813953488178","500","250","pog","161","1","1","0","0","205","143"
"","psychophysics","193","745764","0.0-193.0","60fe11983fc341ca024436ac","64e50ee2a93acd66a4507664","","","","","5109",""," ","key"," ","16.666111111110975","500","250","pog","204","1","1","0","0","120","181"
"","psychophysics","194","751395","0.0-194.0","60fe11983fc341ca024436ac","64e50ee2a93acd66a4507664","","","","","5627",""," ","key"," ","16.66710119047604","500","250","pog","150","1","1","0","0","116","124"
"","psychophysics","195","755169","0.0-195.0","60fe11983fc341ca024436ac","64e50ee2a93acd66a4507664","","","","","3769",""," ","key"," ","16.66848230088517","500","250","pog","149","1","1","0","0","161","148"
"","psychophysics","196","759875","0.0-196.0","60fe11983fc341ca024436ac","64e50ee2a93acd66a4507664","","","","","4703",""," ","key"," ","16.66556227758023","500","250","pog","183","1","1","0","0","179","162"
"","psychophysics","197","763735","0.0-197.0","60fe11983fc341ca024436ac","64e50ee2a93acd66a4507664","","","","","3853",""," ","key"," ","16.669099567099718","500","250","pog","206","1","1","0","0","116","188"
"","psychophysics","198","766816","0.0-198.0","60fe11983fc341ca024436ac","64e50ee2a93acd66a4507664","","","","","3077",""," ","key"," ","16.66760326086976","500","250","pog","142","1","1","0","0","106","122"
"","psychophysics","199","772555","0.0-199.0","60fe11983fc341ca024436ac","64e50ee2a93acd66a4507664","","","","","5734",""," ","key"," ","16.66864139941703","500","250","pog","171","1","1","0","0","181","148"
"","psychophysics","200","776546","0.0-200.0","60fe11983fc341ca024436ac","64e50ee2a93acd66a4507664","","","","","3987",""," ","key"," ","16.667466386554455","500","250","pog","198","1","1","0","0","190","169"
"","psychophysics","201","779044","0.0-201.0","60fe11983fc341ca024436ac","64e50ee2a93acd66a4507664","","","","","2492",""," ","key"," ","16.66743624161057","500","250","pog","135","1","1","0","0","163","131"
"","psychophysics","202","779925","0.0-202.0","60fe11983fc341ca024436ac","64e50ee2a93acd66a4507664","","","","","874",""," ","key"," ","16.669769230768836","500","250","inst","","","","","","",""
"","psychophysics","203","787516","0.0-203.0","60fe11983fc341ca024436ac","64e50ee2a93acd66a4507664","","","","","7589",""," ","key"," ","16.66681497797369","500","250","instBr3","-21","1","","0","0","40","300"
"","psychophysics","204","788439","0.0-204.0","60fe11983fc341ca024436ac","64e50ee2a93acd66a4507664","","","","","919",""," ","key"," ","16.666218181820163","500","250","inst","","","","","","",""
"","psychophysics","205","792167","0.0-205.0","60fe11983fc341ca024436ac","64e50ee2a93acd66a4507664","","","","","3725",""," ","key"," ","16.667578475336303","500","250","br","-20","1","1","21","-26","0","248"
"","psychophysics","206","795959","0.0-206.0","60fe11983fc341ca024436ac","64e50ee2a93acd66a4507664","","","","","3789",""," ","key"," ","16.668814159292044","500","250","br","-12","1","1","24","-19","21","224"
"","psychophysics","207","800141","0.0-207.0","60fe11983fc341ca024436ac","64e50ee2a93acd66a4507664","","","","","4178",""," ","key"," ","16.668019999999554","500","250","br","-13","1","1","5","-23","-9","282"
"","psychophysics","208","803776","0.0-208.0","60fe11983fc341ca024436ac","64e50ee2a93acd66a4507664","","","","","3630",""," ","key"," ","16.668188940092044","500","250","br","-14","1","1","-20","24","-30","222"
"","psychophysics","209","808608","0.0-209.0","60fe11983fc341ca024436ac","64e50ee2a93acd66a4507664","","","","","4829",""," ","key"," ","16.668391003460336","500","250","br","-10","1","1","-12","-14","-27","284"
"","psychophysics","210","812152","0.0-210.0","60fe11983fc341ca024436ac","64e50ee2a93acd66a4507664","","","","","3539",""," ","key"," ","16.66790566037745","500","250","br","-13","1","1","-13","7","-28","265"
"","psychophysics","211","815503","0.0-211.0","60fe11983fc341ca024436ac","64e50ee2a93acd66a4507664","","","","","3346",""," ","key"," ","16.66981000000029","500","250","br","-20","1","1","-5","-18","1","252"
"","psychophysics","212","819546","0.0-212.0","60fe11983fc341ca024436ac","64e50ee2a93acd66a4507664","","","","","4039",""," ","key"," ","16.668024896265827","500","250","br","-15","1","1","1","26","22","256"
"","psychophysics","213","823803","0.0-213.0","60fe11983fc341ca024436ac","64e50ee2a93acd66a4507664","","","","","4249",""," ","key"," ","16.66898431372555","500","250","br","-20","1","1","21","5","23","298"
"","psychophysics","214","827273","0.0-214.0","60fe11983fc341ca024436ac","64e50ee2a93acd66a4507664","","","","","3465",""," ","key"," ","16.667338164251607","500","250","br","-18","1","1","-26","-15","3","224"
"","psychophysics","215","832060","0.0-215.0","60fe11983fc341ca024436ac","64e50ee2a93acd66a4507664","","","","","4783",""," ","key"," ","16.667500000000096","500","250","br","-17","1","1","-4","-15","26","226"
"","psychophysics","216","835510","0.0-216.0","60fe11983fc341ca024436ac","64e50ee2a93acd66a4507664","","","","","3439",""," ","key"," ","16.669203883495285","500","250","br","-20","1","1","-27","30","24","288"
"","psychophysics","217","839419","0.0-217.0","60fe11983fc341ca024436ac","64e50ee2a93acd66a4507664","","","","","3905",""," ","key"," ","16.66859227467764","500","250","br","-19","1","1","-2","6","30","278"
"","psychophysics","218","842654","0.0-218.0","60fe11983fc341ca024436ac","64e50ee2a93acd66a4507664","","","","","3229",""," ","key"," ","16.667015463917892","500","250","br","-13","1","1","26","4","-8","243"
"","psychophysics","219","844786","0.0-219.0","60fe11983fc341ca024436ac","64e50ee2a93acd66a4507664","","","","","2129",""," ","key"," ","16.66523622047233","500","250","br","-13","1","1","-16","11","-6","294"
