"success","trial_type","trial_index","time_elapsed","internal_node_id","pid","sid","timeout","failed_images","failed_audio","failed_video","rt","response_type","key_press","response","avg_frame_time","center_x","center_y","task","resp","start","version","jitterX","jitterY","parA"
"true","fullscreen","0","2853","0.0-0.0","571e332b1bdf1a00119149f2","64b441b4d8ecfb2d8a116aed","","","","","","","","","","","","","","","","","",""
"true","preload","1","2855","0.0-1.0","571e332b1bdf1a00119149f2","64b441b4d8ecfb2d8a116aed","false","[]","[]","[]","","","","","","","","","","","","","",""
"","psychophysics","2","7186","0.0-2.0","571e332b1bdf1a00119149f2","64b441b4d8ecfb2d8a116aed","","","","","4324","key"," "," ","33.332","499.9999891627921","249.99999458139604","inst","","","","","",""
"","psychophysics","3","17839","0.0-3.0","571e332b1bdf1a00119149f2","64b441b4d8ecfb2d8a116aed","","","","","10650","key"," "," ","33.33350156739812","499.9999891627921","249.99999458139604","sample1","","","","","",""
"","psychophysics","4","38087","0.0-4.0","571e332b1bdf1a00119149f2","64b441b4d8ecfb2d8a116aed","","","","","20246","key"," "," ","33.333099009900984","499.9999891627921","249.99999458139604","sample2","102","","","","",""
"","psychophysics","5","43663","0.0-5.0","571e332b1bdf1a00119149f2","64b441b4d8ecfb2d8a116aed","","","","","5571","key"," "," ","33.33399401197606","499.9999891627921","249.99999458139604","sample3","100","","","","",""
"","psychophysics","6","50413","0.0-6.0","571e332b1bdf1a00119149f2","64b441b4d8ecfb2d8a116aed","","","","","6747","key"," "," ","33.33199999999998","499.9999891627921","249.99999458139604","sample4","98","","","","",""
"","psychophysics","7","55984","0.0-7.0","571e332b1bdf1a00119149f2","64b441b4d8ecfb2d8a116aed","","","","","5568","key"," "," ","33.33200000000001","499.9999891627921","249.99999458139604","sample5","","","","","",""
"","psychophysics","8","64195","0.0-8.0","571e332b1bdf1a00119149f2","64b441b4d8ecfb2d8a116aed","","","","","8209","key"," "," ","33.334711382113824","499.9999891627921","249.99999458139604","sample7","500","","","","",""
"","psychophysics","9","69182","0.0-9.0","571e332b1bdf1a00119149f2","64b441b4d8ecfb2d8a116aed","","","","","4985","key"," "," ","33.331999999999994","499.9999891627921","249.99999458139604","inst","","","","","",""
"","psychophysics","10","75238","0.0-10.0","571e332b1bdf1a00119149f2","64b441b4d8ecfb2d8a116aed","","","","","6052","key"," "," ","33.33383977900546","499.9999891627921","249.99999458139604","inst","","","","","",""
"","psychophysics","11","80184","0.0-11.0","571e332b1bdf1a00119149f2","64b441b4d8ecfb2d8a116aed","","","","","4944","key"," "," ","33.33199999999993","499.9999891627921","249.99999458139604","inst","","","","","",""
"","psychophysics","12","81261","0.0-12.0","571e332b1bdf1a00119149f2","64b441b4d8ecfb2d8a116aed","","","","","1074","key"," "," ","33.33199999999988","499.9999891627921","249.99999458139604","inst","","","","","",""
"","psychophysics","13","82424","0.0-13.0","571e332b1bdf1a00119149f2","64b441b4d8ecfb2d8a116aed","","","","","1158","key"," "," ","33.340852941176685","499.9999891627921","249.99999458139604","inst","","","","","",""
"","psychophysics","14","88092","0.0-14.0","571e332b1bdf1a00119149f2","64b441b4d8ecfb2d8a116aed","","","","","5665","key"," "," ","33.33200000000004","499.9999891627921","249.99999458139604","instEB0","41","40","","0","0","40"
"","psychophysics","15","100487","0.0-15.0","571e332b1bdf1a00119149f2","64b441b4d8ecfb2d8a116aed","","","","","12393","key"," "," ","33.3329027027027","499.9999891627921","249.99999458139604","instEB1","68","30","2","0","0","70"
"","psychophysics","16","113230","0.0-16.0","571e332b1bdf1a00119149f2","64b441b4d8ecfb2d8a116aed","","","","","12739","key"," "," ","33.3337434554974","499.9999891627921","249.99999458139604","instEB2","40","60","2","0","0","40"
"","psychophysics","17","123543","0.0-17.0","571e332b1bdf1a00119149f2","64b441b4d8ecfb2d8a116aed","","","","","10312","key"," "," ","33.33308116883119","499.9999891627921","249.99999458139604","instEB3","65","45","2","0","0","65"
"","psychophysics","18","133241","0.0-18.0","571e332b1bdf1a00119149f2","64b441b4d8ecfb2d8a116aed","","","","","9694","key"," "," ","33.33200000000004","499.9999891627921","249.99999458139604","instEB4","42","40","2","0","0","40"
"","psychophysics","19","135423","0.0-19.0","571e332b1bdf1a00119149f2","64b441b4d8ecfb2d8a116aed","","","","","2180","key"," "," ","33.3319999999998","499.9999891627921","249.99999458139604","inst","","","","","",""
"","psychophysics","20","142140","0.0-20.0","571e332b1bdf1a00119149f2","64b441b4d8ecfb2d8a116aed","","","","","6715","key"," "," ","33.332000000000114","499.9999891627921","249.99999458139604","eb","31","41","2","0","0","27"
"","psychophysics","21","150923","0.0-21.0","571e332b1bdf1a00119149f2","64b441b4d8ecfb2d8a116aed","","","","","8780","key"," "," ","33.33453612167303","499.9999891627921","249.99999458139604","eb","45","29","2","0","0","44"
"","psychophysics","22","156829","0.0-22.0","571e332b1bdf1a00119149f2","64b441b4d8ecfb2d8a116aed","","","","","5904","key"," "," ","33.332","499.9999891627921","249.99999458139604","eb","36","40","2","0","0","31"
"","psychophysics","23","160852","0.0-23.0","571e332b1bdf1a00119149f2","64b441b4d8ecfb2d8a116aed","","","","","4021","key"," "," ","33.332000000000015","499.9999891627921","249.99999458139604","eb","31","34","2","0","0","27"
"","psychophysics","24","167987","0.0-24.0","571e332b1bdf1a00119149f2","64b441b4d8ecfb2d8a116aed","","","","","7131","key"," "," ","33.33512676056344","499.9999891627921","249.99999458139604","eb","53","33","2","0","0","48"
"","psychophysics","25","173213","0.0-25.0","571e332b1bdf1a00119149f2","64b441b4d8ecfb2d8a116aed","","","","","5224","key"," "," ","33.331999999999915","499.9999891627921","249.99999458139604","eb","44","32","2","0","0","40"
"","psychophysics","26","181596","0.0-26.0","571e332b1bdf1a00119149f2","64b441b4d8ecfb2d8a116aed","","","","","8381","key"," "," ","33.33200000000009","499.9999891627921","249.99999458139604","eb","40","51","2","0","0","36"
"","psychophysics","27","186406","0.0-27.0","571e332b1bdf1a00119149f2","64b441b4d8ecfb2d8a116aed","","","","","4804","key"," "," ","33.33665034965037","499.9999891627921","249.99999458139604","eb","57","36","2","0","0","54"
"","psychophysics","28","190217","0.0-28.0","571e332b1bdf1a00119149f2","64b441b4d8ecfb2d8a116aed","","","","","3804","key"," "," ","33.33200000000003","499.9999891627921","249.99999458139604","eb","35","27","2","0","0","36"
"","psychophysics","29","193666","0.0-29.0","571e332b1bdf1a00119149f2","64b441b4d8ecfb2d8a116aed","","","","","3445","key"," "," ","33.334922330097115","499.9999891627921","249.99999458139604","eb","30","42","2","0","0","28"
"","psychophysics","30","196110","0.0-30.0","571e332b1bdf1a00119149f2","64b441b4d8ecfb2d8a116aed","","","","","2437","key"," "," ","33.332000000000136","499.9999891627921","249.99999458139604","eb","35","41","2","0","0","31"
"","psychophysics","31","198254","0.0-31.0","571e332b1bdf1a00119149f2","64b441b4d8ecfb2d8a116aed","","","","","2142","key"," "," ","33.33199999999996","499.9999891627921","249.99999458139604","eb","55","52","2","0","0","48"
"","psychophysics","32","202324","0.0-32.0","571e332b1bdf1a00119149f2","64b441b4d8ecfb2d8a116aed","","","","","4065","key"," "," ","33.33199999999993","499.9999891627921","249.99999458139604","eb","43","31","2","0","0","36"
"","psychophysics","33","206066","0.0-33.0","571e332b1bdf1a00119149f2","64b441b4d8ecfb2d8a116aed","","","","","3739","key"," "," ","33.331999999999816","499.9999891627921","249.99999458139604","eb","42","52","2","0","0","34"
"","psychophysics","34","213648","0.0-34.0","571e332b1bdf1a00119149f2","64b441b4d8ecfb2d8a116aed","","","","","7577","key"," "," ","33.334946902654885","499.9999891627921","249.99999458139604","eb","30","54","2","0","0","28"
"","psychophysics","35","215065","0.0-35.0","571e332b1bdf1a00119149f2","64b441b4d8ecfb2d8a116aed","","","","","1414","key"," "," ","33.331999999999844","499.9999891627921","249.99999458139604","inst","","","","","",""
"","psychophysics","36","217657","0.0-36.0","571e332b1bdf1a00119149f2","64b441b4d8ecfb2d8a116aed","","","","","2584","key"," "," ","33.331999999999795","499.9999891627921","249.99999458139604","instPz0","50","50","2","","","50"
"","psychophysics","37","225117","0.0-37.0","571e332b1bdf1a00119149f2","64b441b4d8ecfb2d8a116aed","","","","","7450","key"," "," ","33.333493273542494","499.9999891627921","249.99999458139604","instPz1","48","25","2","","","50"
"","psychophysics","38","228715","0.0-38.0","571e332b1bdf1a00119149f2","64b441b4d8ecfb2d8a116aed","","","","","3595","key"," "," ","33.33199999999977","499.9999891627921","249.99999458139604","instPz2","22","15","2","","","25"
"","psychophysics","39","237557","0.0-39.0","571e332b1bdf1a00119149f2","64b441b4d8ecfb2d8a116aed","","","","","8838","key"," "," ","33.33326515151511","499.9999891627921","249.99999458139604","instPz3","38","25","2","","","50"
"","psychophysics","40","244716","0.0-40.0","571e332b1bdf1a00119149f2","64b441b4d8ecfb2d8a116aed","","","","","7156","key"," "," ","33.33200000000004","499.9999891627921","249.99999458139604","instPz4","22","15","2","","","30"
"","psychophysics","41","246108","0.0-41.0","571e332b1bdf1a00119149f2","64b441b4d8ecfb2d8a116aed","","","","","1389","key"," "," ","33.331999999999844","499.9999891627921","249.99999458139604","inst","","","","","",""
"","psychophysics","42","250461","0.0-42.0","571e332b1bdf1a00119149f2","64b441b4d8ecfb2d8a116aed","","","","","4350","key"," "," ","33.332000000000065","499.9999891627921","249.99999458139604","pz","36","33","2","","","49"
"","psychophysics","43","252809","0.0-43.0","571e332b1bdf1a00119149f2","64b441b4d8ecfb2d8a116aed","","","","","2345","key"," "," ","33.34151428571453","499.9999891627921","249.99999458139604","pz","33","40","2","","","45"
"","psychophysics","44","255335","0.0-44.0","571e332b1bdf1a00119149f2","64b441b4d8ecfb2d8a116aed","","","","","2520","key"," "," ","33.331999999999994","499.9999891627921","249.99999458139604","pz","41","38","2","","","53"
"","psychophysics","45","257072","0.0-45.0","571e332b1bdf1a00119149f2","64b441b4d8ecfb2d8a116aed","","","","","1732","key"," "," ","33.331999999999915","499.9999891627921","249.99999458139604","pz","49","49","2","","","56"
"","psychophysics","46","258403","0.0-46.0","571e332b1bdf1a00119149f2","64b441b4d8ecfb2d8a116aed","","","","","1329","key"," "," ","33.3320000000001","499.9999891627921","249.99999458139604","pz","49","49","2","","","55"
"","psychophysics","47","261086","0.0-47.0","571e332b1bdf1a00119149f2","64b441b4d8ecfb2d8a116aed","","","","","2678","key"," "," ","33.332000000000406","499.9999891627921","249.99999458139604","pz","32","37","2","","","39"
"","psychophysics","48","266325","0.0-48.0","571e332b1bdf1a00119149f2","64b441b4d8ecfb2d8a116aed","","","","","5236","key"," "," ","33.33414102564096","499.9999891627921","249.99999458139604","pz","28","41","2","","","40"
"","psychophysics","49","271784","0.0-49.0","571e332b1bdf1a00119149f2","64b441b4d8ecfb2d8a116aed","","","","","5455","key"," "," ","33.33199999999988","499.9999891627921","249.99999458139604","pz","35","58","2","","","41"
"","psychophysics","50","273921","0.0-50.0","571e332b1bdf1a00119149f2","64b441b4d8ecfb2d8a116aed","","","","","2130","key"," "," ","33.33728571428588","499.9999891627921","249.99999458139604","pz","22","20","2","","","31"
"","psychophysics","51","277197","0.0-51.0","571e332b1bdf1a00119149f2","64b441b4d8ecfb2d8a116aed","","","","","3271","key"," "," ","33.33200000000028","499.9999891627921","249.99999458139604","pz","28","21","2","","","46"
"","psychophysics","52","279136","0.0-52.0","571e332b1bdf1a00119149f2","64b441b4d8ecfb2d8a116aed","","","","","1934","key"," "," ","33.331999999999894","499.9999891627921","249.99999458139604","pz","37","40","2","","","60"
"","psychophysics","53","284821","0.0-53.0","571e332b1bdf1a00119149f2","64b441b4d8ecfb2d8a116aed","","","","","5678","key"," "," ","33.33397633136118","499.9999891627921","249.99999458139604","pz","14","26","2","","","24"
"","psychophysics","54","286547","0.0-54.0","571e332b1bdf1a00119149f2","64b441b4d8ecfb2d8a116aed","","","","","1722","key"," "," ","33.33199999999945","499.9999891627921","249.99999458139604","pz","36","34","2","","","52"
"","psychophysics","55","290460","0.0-55.0","571e332b1bdf1a00119149f2","64b441b4d8ecfb2d8a116aed","","","","","3911","key"," "," ","33.331999999999894","499.9999891627921","249.99999458139604","pz","30","46","2","","","43"
"","psychophysics","56","292996","0.0-56.0","571e332b1bdf1a00119149f2","64b441b4d8ecfb2d8a116aed","","","","","2532","key"," "," ","33.33645333333406","499.9999891627921","249.99999458139604","pz","20","27","2","","","28"
"","psychophysics","57","293921","0.0-57.0","571e332b1bdf1a00119149f2","64b441b4d8ecfb2d8a116aed","","","","","922","key"," "," ","33.33199999999919","499.9999891627921","249.99999458139604","inst","","","","","",""
"","psychophysics","58","296128","0.0-58.0","571e332b1bdf1a00119149f2","64b441b4d8ecfb2d8a116aed","","","","","2201","key"," "," ","33.33200000000025","499.9999891627921","249.99999458139604","instBr0","NaN","0","","0","0","300"
"","psychophysics","59","304574","0.0-59.0","571e332b1bdf1a00119149f2","64b441b4d8ecfb2d8a116aed","","","","","8443","key"," "," ","33.33331620553347","499.9999891627921","249.99999458139604","instBr1","NaN","-40","","0","0","300"
"","psychophysics","60","313300","0.0-60.0","571e332b1bdf1a00119149f2","64b441b4d8ecfb2d8a116aed","","","","","8724","key"," "," ","33.33315769230763","499.9999891627921","249.99999458139604","instBr","-21","40","1","0","0","300"
"","psychophysics","61","313982","0.0-61.0","571e332b1bdf1a00119149f2","64b441b4d8ecfb2d8a116aed","","","","","677","key"," "," ","33.3320000000007","499.9999891627921","249.99999458139604","inst","","","","","",""
"","psychophysics","62","320670","0.0-62.0","571e332b1bdf1a00119149f2","64b441b4d8ecfb2d8a116aed","","","","","6685","key"," "," ","33.33199999999985","499.9999891627921","249.99999458139604","br","-19","26","1","-25","-4","300"
"","psychophysics","63","325827","0.0-63.0","571e332b1bdf1a00119149f2","64b441b4d8ecfb2d8a116aed","","","","","5153","key"," "," ","33.33200000000017","499.9999891627921","249.99999458139604","br","-23","16","1","-3","14","300"
"","psychophysics","64","328290","0.0-64.0","571e332b1bdf1a00119149f2","64b441b4d8ecfb2d8a116aed","","","","","2460","key"," "," ","33.33199999999966","499.9999891627921","249.99999458139604","br","-25","-22","1","-1","1","300"
"","psychophysics","65","335194","0.0-65.0","571e332b1bdf1a00119149f2","64b441b4d8ecfb2d8a116aed","","","","","6896","key"," "," ","33.33523300970883","499.9999891627921","249.99999458139604","br","-27","31","1","-7","15","300"
"","psychophysics","66","341775","0.0-66.0","571e332b1bdf1a00119149f2","64b441b4d8ecfb2d8a116aed","","","","","6579","key"," "," ","33.3320000000002","499.9999891627921","249.99999458139604","br","-28","35","1","-26","-25","300"
"","psychophysics","67","349711","0.0-67.0","571e332b1bdf1a00119149f2","64b441b4d8ecfb2d8a116aed","","","","","7935","key"," "," ","33.333409282700345","499.9999891627921","249.99999458139604","br","-28","40","1","4","-27","300"
"","psychophysics","68","356353","0.0-68.0","571e332b1bdf1a00119149f2","64b441b4d8ecfb2d8a116aed","","","","","6640","key"," "," ","33.33199999999987","499.9999891627921","249.99999458139604","br","-20","40","1","18","-14","300"
"","psychophysics","69","360664","0.0-69.0","571e332b1bdf1a00119149f2","64b441b4d8ecfb2d8a116aed","","","","","4309","key"," "," ","33.33199999999988","499.9999891627921","249.99999458139604","br","-21","-40","1","-26","12","300"
"","psychophysics","70","363696","0.0-70.0","571e332b1bdf1a00119149f2","64b441b4d8ecfb2d8a116aed","","","","","3028","key"," "," ","33.3393999999997","499.9999891627921","249.99999458139604","br","-19","-4","1","15","29","300"
"","psychophysics","71","366919","0.0-71.0","571e332b1bdf1a00119149f2","64b441b4d8ecfb2d8a116aed","","","","","3220","key"," "," ","33.332000000000335","499.9999891627921","249.99999458139604","br","-20","-18","1","-23","15","300"
"","psychophysics","72","369311","0.0-72.0","571e332b1bdf1a00119149f2","64b441b4d8ecfb2d8a116aed","","","","","2389","key"," "," ","33.331999999999795","499.9999891627921","249.99999458139604","br","-24","-30","1","3","-16","300"
"","psychophysics","73","372414","0.0-73.0","571e332b1bdf1a00119149f2","64b441b4d8ecfb2d8a116aed","","","","","3097","key"," "," ","33.33199999999994","499.9999891627921","249.99999458139604","br","-27","-38","1","-19","-25","300"
"","psychophysics","74","375594","0.0-74.0","571e332b1bdf1a00119149f2","64b441b4d8ecfb2d8a116aed","","","","","3179","key"," "," ","33.33555319148891","499.9999891627921","249.99999458139604","br","-24","-26","1","26","-15","300"
"","psychophysics","75","381447","0.0-75.0","571e332b1bdf1a00119149f2","64b441b4d8ecfb2d8a116aed","","","","","5850","key"," "," ","33.3320000000002","499.9999891627921","249.99999458139604","br","-24","14","1","27","20","300"
"","psychophysics","76","385605","0.0-76.0","571e332b1bdf1a00119149f2","64b441b4d8ecfb2d8a116aed","","","","","4154","key"," "," ","33.33200000000004","499.9999891627921","249.99999458139604","br","-20","-42","1","-16","-6","300"
"","psychophysics","77","386435","0.0-77.0","571e332b1bdf1a00119149f2","64b441b4d8ecfb2d8a116aed","","","","","828","key"," "," ","33.33199999999994","499.9999891627921","249.99999458139604","inst","","","","","",""
"","psychophysics","78","388880","0.0-78.0","571e332b1bdf1a00119149f2","64b441b4d8ecfb2d8a116aed","","","","","2436","key"," "," ","33.33199999999966","499.9999891627921","249.99999458139604","instZol0","0","0","","0","0",""
"","psychophysics","79","406163","0.0-79.0","571e332b1bdf1a00119149f2","64b441b4d8ecfb2d8a116aed","","","","","17279","key"," "," ","33.33393230174089","499.9999891627921","249.99999458139604","instZol1","-0.09999999999999998","-1.3","","0","0",""
"","psychophysics","80","436739","0.0-80.0","571e332b1bdf1a00119149f2","64b441b4d8ecfb2d8a116aed","","","","","30571","key"," "," ","33.33272628135222","499.9999891627921","249.99999458139604","instZol2","-1.0999999999999992","2","2","0","0",""
"","psychophysics","81","437467","0.0-81.0","571e332b1bdf1a00119149f2","64b441b4d8ecfb2d8a116aed","","","","","726","key"," "," ","33.3320000000007","499.9999891627921","249.99999458139604","inst","","","","","",""
"","psychophysics","82","444035","0.0-82.0","571e332b1bdf1a00119149f2","64b441b4d8ecfb2d8a116aed","","","","","6562","key"," "," ","33.33523469387758","499.9999891627921","249.99999458139604","zol","-1.6000000000000003","-0.1","2","3","-6",""
"","psychophysics","83","450799","0.0-83.0","571e332b1bdf1a00119149f2","64b441b4d8ecfb2d8a116aed","","","","","6760","key"," "," ","33.332000000000065","499.9999891627921","249.99999458139604","zol","-0.7700000000000001","-0.43","2","14","-2",""
"","psychophysics","84","469226","0.0-84.0","571e332b1bdf1a00119149f2","64b441b4d8ecfb2d8a116aed","","","","","18421","key"," "," ","33.333206521739115","499.9999891627921","249.99999458139604","zol","0.19000000000000009","-0.59","2","-21","-24",""
"","psychophysics","85","470308","0.0-85.0","571e332b1bdf1a00119149f2","64b441b4d8ecfb2d8a116aed","","","","","1079","key"," "," ","33.332000000000335","499.9999891627921","249.99999458139604","zol","-0.27","0.27","2","26","5",""
"","psychophysics","86","473949","0.0-86.0","571e332b1bdf1a00119149f2","64b441b4d8ecfb2d8a116aed","","","","","3639","key"," "," ","33.33508333333345","499.9999891627921","249.99999458139604","zol","-0.9499999999999998","-0.75","2","-9","29",""
"","psychophysics","87","479395","0.0-87.0","571e332b1bdf1a00119149f2","64b441b4d8ecfb2d8a116aed","","","","","5442","key"," "," ","33.33199999999991","499.9999891627921","249.99999458139604","zol","-1.3800000000000001","-0.32","2","-2","-5",""
"","psychophysics","88","482534","0.0-88.0","571e332b1bdf1a00119149f2","64b441b4d8ecfb2d8a116aed","","","","","3134","key"," "," ","33.33199999999989","499.9999891627921","249.99999458139604","zol","-1.2100000000000002","0.01","2","-23","4",""
"","psychophysics","89","497851","0.0-89.0","571e332b1bdf1a00119149f2","64b441b4d8ecfb2d8a116aed","","","","","15312","key"," "," ","33.333453159041504","499.9999891627921","249.99999458139604","zol","0.6599999999999998","0.74","2","7","1",""
"","psychophysics","90","501679","0.0-90.0","571e332b1bdf1a00119149f2","64b441b4d8ecfb2d8a116aed","","","","","3825","key"," "," ","33.33199999999999","499.9999891627921","249.99999458139604","zol","-2.5800000000000014","0.68","2","25","21",""
"","psychophysics","91","505623","0.0-91.0","571e332b1bdf1a00119149f2","64b441b4d8ecfb2d8a116aed","","","","","3940","key"," "," ","33.33485470085483","499.9999891627921","249.99999458139604","zol","-1.4900000000000002","-0.61","2","-7","24",""
"","psychophysics","92","508196","0.0-92.0","571e332b1bdf1a00119149f2","64b441b4d8ecfb2d8a116aed","","","","","2570","key"," "," ","33.331999999999475","499.9999891627921","249.99999458139604","zol","-0.8799999999999999","-0.72","2","14","-24",""
"","psychophysics","93","510543","0.0-93.0","571e332b1bdf1a00119149f2","64b441b4d8ecfb2d8a116aed","","","","","2343","key"," "," ","33.3320000000007","499.9999891627921","249.99999458139604","zol","-0.8699999999999999","-0.13","2","-18","-27",""
"","psychophysics","94","514341","0.0-94.0","571e332b1bdf1a00119149f2","64b441b4d8ecfb2d8a116aed","","","","","3795","key"," "," ","33.33200000000003","499.9999891627921","249.99999458139604","zol","-1.7600000000000005","-0.54","2","-27","29",""
"","psychophysics","95","521850","0.0-95.0","571e332b1bdf1a00119149f2","64b441b4d8ecfb2d8a116aed","","","","","7506","key"," "," ","33.331999999999816","499.9999891627921","249.99999458139604","zol","-0.9799999999999999","-0.72","2","-27","-17",""
"","psychophysics","96","525142","0.0-96.0","571e332b1bdf1a00119149f2","64b441b4d8ecfb2d8a116aed","","","","","3289","key"," "," ","33.338795918367246","499.9999891627921","249.99999458139604","zol","-1.35","-0.05","2","-11","17",""
"","psychophysics","97","526125","0.0-97.0","571e332b1bdf1a00119149f2","64b441b4d8ecfb2d8a116aed","","","","","981","key"," "," ","33.331999999999034","499.9999891627921","249.99999458139604","inst","","","","","",""
"","psychophysics","98","539447","0.0-98.0","571e332b1bdf1a00119149f2","64b441b4d8ecfb2d8a116aed","","","","","13318","key"," "," ","33.3328370927316","499.9999891627921","249.99999458139604","instPog0","160","190","1","0","0","160"
"","psychophysics","99","548016","0.0-99.0","571e332b1bdf1a00119149f2","64b441b4d8ecfb2d8a116aed","","","","","8567","key"," "," ","33.33330078124982","499.9999891627921","249.99999458139604","instPog1","161","190","1","0","0","160"
"","psychophysics","100","553074","0.0-100.0","571e332b1bdf1a00119149f2","64b441b4d8ecfb2d8a116aed","","","","","5056","key"," "," ","33.33199999999989","499.9999891627921","249.99999458139604","instPog2","189","190","1","0","0","160"
"","psychophysics","101","553982","0.0-101.0","571e332b1bdf1a00119149f2","64b441b4d8ecfb2d8a116aed","","","","","907","key"," "," ","33.331999999999354","499.9999891627921","249.99999458139604","inst","","","","","",""
"","psychophysics","102","558794","0.0-102.0","571e332b1bdf1a00119149f2","64b441b4d8ecfb2d8a116aed","","","","","4810","key"," "," ","33.33200000000017","499.9999891627921","249.99999458139604","pog","156","135","1","0","0","130"
"","psychophysics","103","568291","0.0-103.0","571e332b1bdf1a00119149f2","64b441b4d8ecfb2d8a116aed","","","","","9489","key"," "," ","33.33423239436586","499.9999891627921","249.99999458139604","pog","171","240","1","0","0","136"
"","psychophysics","104","581233","0.0-104.0","571e332b1bdf1a00119149f2","64b441b4d8ecfb2d8a116aed","","","","","12939","key"," "," ","33.33200000000014","499.9999891627921","249.99999458139604","pog","213","101","1","0","0","188"
"","psychophysics","105","593243","0.0-105.0","571e332b1bdf1a00119149f2","64b441b4d8ecfb2d8a116aed","","","","","12005","key"," "," ","33.33384999999996","499.9999891627921","249.99999458139604","pog","152","192","1","0","0","132"
"","psychophysics","106","599879","0.0-106.0","571e332b1bdf1a00119149f2","64b441b4d8ecfb2d8a116aed","","","","","6635","key"," "," ","33.33199999999958","499.9999891627921","249.99999458139604","pog","169","158","1","0","0","148"
"","psychophysics","107","606653","0.0-107.0","571e332b1bdf1a00119149f2","64b441b4d8ecfb2d8a116aed","","","","","6771","key"," "," ","33.33529702970288","499.9999891627921","249.99999458139604","pog","188","151","1","0","0","164"
"","psychophysics","108","615272","0.0-108.0","571e332b1bdf1a00119149f2","64b441b4d8ecfb2d8a116aed","","","","","8615","key"," "," ","33.331999999999844","499.9999891627921","249.99999458139604","pog","215","158","1","0","0","193"
"","psychophysics","109","622006","0.0-109.0","571e332b1bdf1a00119149f2","64b441b4d8ecfb2d8a116aed","","","","","6733","key"," "," ","33.3319999999998","499.9999891627921","249.99999458139604","pog","164","118","1","0","0","141"
"","psychophysics","110","635452","0.0-110.0","571e332b1bdf1a00119149f2","64b441b4d8ecfb2d8a116aed","","","","","13444","key"," "," ","33.334487562189146","499.9999891627921","249.99999458139604","pog","201","93","1","0","0","181"
"","psychophysics","111","648722","0.0-111.0","571e332b1bdf1a00119149f2","64b441b4d8ecfb2d8a116aed","","","","","13267","key"," "," ","33.33200000000001","499.9999891627921","249.99999458139604","pog","219","116","1","0","0","188"
"","psychophysics","112","663226","0.0-112.0","571e332b1bdf1a00119149f2","64b441b4d8ecfb2d8a116aed","","","","","14501","key"," "," ","33.33353456221215","499.9999891627921","249.99999458139604","pog","221","94","1","0","0","195"
"","psychophysics","113","677217","0.0-113.0","571e332b1bdf1a00119149f2","64b441b4d8ecfb2d8a116aed","","","","","13987","key"," "," ","33.333591885441585","499.9999891627921","249.99999458139604","pog","214","98","1","0","0","195"
"","psychophysics","114","678735","0.0-114.0","571e332b1bdf1a00119149f2","64b441b4d8ecfb2d8a116aed","","","","","1516","key"," "," ","33.33200000000017","499.9999891627921","249.99999458139604","pog","164","164","1","0","0","154"
"","psychophysics","115","685167","0.0-115.0","571e332b1bdf1a00119149f2","64b441b4d8ecfb2d8a116aed","","","","","6425","key"," "," ","33.33199999999973","499.9999891627921","249.99999458139604","pog","146","97","1","0","0","132"
"","psychophysics","116","692241","0.0-116.0","571e332b1bdf1a00119149f2","64b441b4d8ecfb2d8a116aed","","","","","7071","key"," "," ","33.33199999999982","499.9999891627921","249.99999458139604","pog","179","212","1","0","0","157"
"","psychophysics","117","693008","0.0-117.0","571e332b1bdf1a00119149f2","64b441b4d8ecfb2d8a116aed","","","","","766","key"," "," ","33.33200000000017","499.9999891627921","249.99999458139604","inst","","","","","",""
"","psychophysics","118","711165","0.0-118.0","571e332b1bdf1a00119149f2","64b441b4d8ecfb2d8a116aed","","","","","18152","key"," "," ","33.33378084714552","499.9999891627921","249.99999458139604","instZol2","1.9000000000000012","2","1","0","0",""
"","psychophysics","119","711849","0.0-119.0","571e332b1bdf1a00119149f2","64b441b4d8ecfb2d8a116aed","","","","","682","key"," "," ","33.3320000000007","499.9999891627921","249.99999458139604","inst","","","","","",""
"","psychophysics","120","715954","0.0-120.0","571e332b1bdf1a00119149f2","64b441b4d8ecfb2d8a116aed","","","","","4102","key"," "," ","33.33472950819719","499.9999891627921","249.99999458139604","zol","1.6600000000000004","0.24","1","-16","-25",""
"","psychophysics","121","722740","0.0-121.0","571e332b1bdf1a00119149f2","64b441b4d8ecfb2d8a116aed","","","","","6782","key"," "," ","33.33200000000033","499.9999891627921","249.99999458139604","zol","1.3900000000000001","-0.09","1","-6","-8",""
"","psychophysics","122","728154","0.0-122.0","571e332b1bdf1a00119149f2","64b441b4d8ecfb2d8a116aed","","","","","5411","key"," "," ","33.33407453416127","499.9999891627921","249.99999458139604","zol","1.0599999999999998","0.14","1","-9","12",""
"","psychophysics","123","731249","0.0-123.0","571e332b1bdf1a00119149f2","64b441b4d8ecfb2d8a116aed","","","","","3092","key"," "," ","33.33199999999994","499.9999891627921","249.99999458139604","zol","1.8400000000000007","-0.64","1","2","-7",""
"","psychophysics","124","734948","0.0-124.0","571e332b1bdf1a00119149f2","64b441b4d8ecfb2d8a116aed","","","","","3695","key"," "," ","33.33199999999911","499.9999891627921","249.99999458139604","zol","1.4300000000000004","-0.03","1","18","27",""
"","psychophysics","125","739595","0.0-125.0","571e332b1bdf1a00119149f2","64b441b4d8ecfb2d8a116aed","","","","","4644","key"," "," ","33.33199999999994","499.9999891627921","249.99999458139604","zol","1.7200000000000006","0.18","1","-23","-22",""
"","psychophysics","126","746564","0.0-126.0","571e332b1bdf1a00119149f2","64b441b4d8ecfb2d8a116aed","","","","","6965","key"," "," ","33.33520192307669","499.9999891627921","249.99999458139604","zol","0.48","0.62","1","-1","18",""
"","psychophysics","127","751925","0.0-127.0","571e332b1bdf1a00119149f2","64b441b4d8ecfb2d8a116aed","","","","","5357","key"," "," ","33.33199999999997","499.9999891627921","249.99999458139604","zol","1.37","-0.57","1","0","29",""
"","psychophysics","128","755722","0.0-128.0","571e332b1bdf1a00119149f2","64b441b4d8ecfb2d8a116aed","","","","","3789","key"," "," ","33.33200000000054","499.9999891627921","249.99999458139604","zol","1.26","-0.26","1","-21","-2",""
"","psychophysics","129","758910","0.0-129.0","571e332b1bdf1a00119149f2","64b441b4d8ecfb2d8a116aed","","","","","3184","key"," "," ","33.33200000000039","499.9999891627921","249.99999458139604","zol","1.3500000000000003","-0.55","1","-26","11",""
"","psychophysics","130","762725","0.0-130.0","571e332b1bdf1a00119149f2","64b441b4d8ecfb2d8a116aed","","","","","3813","key"," "," ","33.33200000000054","499.9999891627921","249.99999458139604","zol","1.4200000000000004","-0.42","1","4","6",""
"","psychophysics","131","767913","0.0-131.0","571e332b1bdf1a00119149f2","64b441b4d8ecfb2d8a116aed","","","","","5185","key"," "," ","33.336290322580645","499.9999891627921","249.99999458139604","zol","1.11","0.29","1","9","-6",""
"","psychophysics","132","775488","0.0-132.0","571e332b1bdf1a00119149f2","64b441b4d8ecfb2d8a116aed","","","","","7573","key"," "," ","33.33200000000003","499.9999891627921","249.99999458139604","zol","1.18","-0.58","1","11","-26",""
"","psychophysics","133","781149","0.0-133.0","571e332b1bdf1a00119149f2","64b441b4d8ecfb2d8a116aed","","","","","5656","key"," "," ","33.33200000000004","499.9999891627921","249.99999458139604","zol","0.9700000000000001","-0.67","1","-21","-6",""
"","psychophysics","134","785552","0.0-134.0","571e332b1bdf1a00119149f2","64b441b4d8ecfb2d8a116aed","","","","","4400","key"," "," ","33.33708396946517","499.9999891627921","249.99999458139604","zol","0.94","0.06","1","-20","21",""
"","psychophysics","135","786392","0.0-135.0","571e332b1bdf1a00119149f2","64b441b4d8ecfb2d8a116aed","","","","","838","key"," "," ","33.33199999999973","499.9999891627921","249.99999458139604","inst","","","","","",""
"","psychophysics","136","790205","0.0-136.0","571e332b1bdf1a00119149f2","64b441b4d8ecfb2d8a116aed","","","","","3811","key"," "," ","33.33199999999951","499.9999891627921","249.99999458139604","instPog0","366.5","349.5","2","0","0","319.5"
"","psychophysics","137","798388","0.0-137.0","571e332b1bdf1a00119149f2","64b441b4d8ecfb2d8a116aed","","","","","8179","key"," "," ","33.331999999999866","499.9999891627921","249.99999458139604","instPog1","420.5","349.5","2","0","0","319.5"
"","psychophysics","138","803605","0.0-138.0","571e332b1bdf1a00119149f2","64b441b4d8ecfb2d8a116aed","","","","","5214","key"," "," ","33.33608387096845","499.9999891627921","249.99999458139604","instPog2","382.5","349.5","2","0","0","319.5"
"","psychophysics","139","804365","0.0-139.0","571e332b1bdf1a00119149f2","64b441b4d8ecfb2d8a116aed","","","","","753","key"," "," ","33.33200000000017","499.9999891627921","249.99999458139604","inst","","","","","",""
"","psychophysics","140","810353","0.0-140.0","571e332b1bdf1a00119149f2","64b441b4d8ecfb2d8a116aed","","","","","5986","key"," "," ","33.33199999999975","499.9999891627921","249.99999458139604","pog","365.5","330.5","2","0","0","279.5"
"","psychophysics","141","827407","0.0-141.0","571e332b1bdf1a00119149f2","64b441b4d8ecfb2d8a116aed","","","","","17052","key"," "," ","33.333305283757376","499.9999891627921","249.99999458139604","pog","416.5","278.5","2","0","0","342.5"
"","psychophysics","142","834968","0.0-142.0","571e332b1bdf1a00119149f2","64b441b4d8ecfb2d8a116aed","","","","","7559","key"," "," ","33.331999999999795","499.9999891627921","249.99999458139604","pog","409.5","347.5","2","0","0","339.5"
"","psychophysics","143","852958","0.0-143.0","571e332b1bdf1a00119149f2","64b441b4d8ecfb2d8a116aed","","","","","17988","key"," "," ","33.33323562152123","499.9999891627921","249.99999458139604","pog","437.5","257.5","2","0","0","357.5"
"","psychophysics","144","867694","0.0-144.0","571e332b1bdf1a00119149f2","64b441b4d8ecfb2d8a116aed","","","","","14733","key"," "," ","33.33350793650778","499.9999891627921","249.99999458139604","pog","404.5","293.5","2","0","0","327.5"
"","psychophysics","145","868806","0.0-145.0","571e332b1bdf1a00119149f2","64b441b4d8ecfb2d8a116aed","","","","","1110","key"," "," ","33.33200000000017","499.9999891627921","249.99999458139604","pog","394.5","394.5","2","0","0","313.5"
"","psychophysics","146","876776","0.0-146.0","571e332b1bdf1a00119149f2","64b441b4d8ecfb2d8a116aed","","","","","7967","key"," "," ","33.33200000000026","499.9999891627921","249.99999458139604","pog","425.5","363.5","2","0","0","356.5"
"","psychophysics","147","877855","0.0-147.0","571e332b1bdf1a00119149f2","64b441b4d8ecfb2d8a116aed","","","","","1078","key"," "," ","33.331999999996754","499.9999891627921","249.99999458139604","pog","372.5","372.5","2","0","0","317.5"
"","psychophysics","148","887042","0.0-148.0","571e332b1bdf1a00119149f2","64b441b4d8ecfb2d8a116aed","","","","","9185","key"," "," ","33.33442181818187","499.9999891627921","249.99999458139604","pog","411.5","328.5","2","0","0","351.5"
"","psychophysics","149","894412","0.0-149.0","571e332b1bdf1a00119149f2","64b441b4d8ecfb2d8a116aed","","","","","7368","key"," "," ","33.3335181818185","499.9999891627921","249.99999458139604","pog","353.5","303.5","2","0","0","281.5"
"","psychophysics","150","908332","0.0-150.0","571e332b1bdf1a00119149f2","64b441b4d8ecfb2d8a116aed","","","","","13919","key"," "," ","33.332802884615376","499.9999891627921","249.99999458139604","pog","380.5","250.5","2","0","0","314.5"
"","psychophysics","151","913902","0.0-151.0","571e332b1bdf1a00119149f2","64b441b4d8ecfb2d8a116aed","","","","","5567","key"," "," ","33.33400602409608","499.9999891627921","249.99999458139604","pog","414.5","366.5","2","0","0","351.5"
"","psychophysics","152","925918","0.0-152.0","571e332b1bdf1a00119149f2","64b441b4d8ecfb2d8a116aed","","","","","12014","key"," "," ","33.33200000000005","499.9999891627921","249.99999458139604","pog","389.5","265.5","2","0","0","319.5"
"","psychophysics","153","936087","0.0-153.0","571e332b1bdf1a00119149f2","64b441b4d8ecfb2d8a116aed","","","","","10165","key"," "," ","33.3340855263159","499.9999891627921","249.99999458139604","pog","391.5","294.5","2","0","0","317.5"
"","psychophysics","154","944810","0.0-154.0","571e332b1bdf1a00119149f2","64b441b4d8ecfb2d8a116aed","","","","","8720","key"," "," ","33.33200000000001","499.9999891627921","249.99999458139604","pog","410.5","349.5","2","0","0","338.5"
"","psychophysics","155","946215","0.0-155.0","571e332b1bdf1a00119149f2","64b441b4d8ecfb2d8a116aed","","","","","1403","key"," "," ","33.331999999999134","499.9999891627921","249.99999458139604","inst","","","","","",""
"","psychophysics","156","947632","0.0-156.0","571e332b1bdf1a00119149f2","64b441b4d8ecfb2d8a116aed","","","","","1415","key"," "," ","33.331999999999134","499.9999891627921","249.99999458139604","instPz4","15","15","1","","","30"
"","psychophysics","157","948656","0.0-157.0","571e332b1bdf1a00119149f2","64b441b4d8ecfb2d8a116aed","","","","","1022","key"," "," ","33.33199999999876","499.9999891627921","249.99999458139604","inst","","","","","",""
"","psychophysics","158","949059","0.0-158.0","571e332b1bdf1a00119149f2","64b441b4d8ecfb2d8a116aed","","","","","401","key"," "," ","33.33200000000017","499.9999891627921","249.99999458139604","pz","45","45","1","","","45"
"","psychophysics","159","949851","0.0-159.0","571e332b1bdf1a00119149f2","64b441b4d8ecfb2d8a116aed","","","","","787","key"," "," ","33.33200000000247","499.9999891627921","249.99999458139604","pz","55","55","1","","","49"
"","psychophysics","160","953969","0.0-160.0","571e332b1bdf1a00119149f2","64b441b4d8ecfb2d8a116aed","","","","","4116","key"," "," ","33.33745901639379","499.9999891627921","249.99999458139604","pz","37","28","1","","","20"
"","psychophysics","161","957722","0.0-161.0","571e332b1bdf1a00119149f2","64b441b4d8ecfb2d8a116aed","","","","","3751","key"," "," ","33.33200000000007","499.9999891627921","249.99999458139604","pz","49","32","1","","","35"
"","psychophysics","162","962616","0.0-162.0","571e332b1bdf1a00119149f2","64b441b4d8ecfb2d8a116aed","","","","","4891","key"," "," ","33.33199999999966","499.9999891627921","249.99999458139604","pz","83","40","1","","","56"
"","psychophysics","163","968522","0.0-163.0","571e332b1bdf1a00119149f2","64b441b4d8ecfb2d8a116aed","","","","","5903","key"," "," ","33.33200000000017","499.9999891627921","249.99999458139604","pz","58","39","1","","","48"
"","psychophysics","164","971967","0.0-164.0","571e332b1bdf1a00119149f2","64b441b4d8ecfb2d8a116aed","","","","","3441","key"," "," ","33.33200000000058","499.9999891627921","249.99999458139604","pz","45","28","1","","","33"
"","psychophysics","165","976413","0.0-165.0","571e332b1bdf1a00119149f2","64b441b4d8ecfb2d8a116aed","","","","","4443","key"," "," ","33.33700751879732","499.9999891627921","249.99999458139604","pz","55","23","1","","","47"
"","psychophysics","166","977334","0.0-166.0","571e332b1bdf1a00119149f2","64b441b4d8ecfb2d8a116aed","","","","","920","key"," "," ","33.331999999999354","499.9999891627921","249.99999458139604","pz","51","51","1","","","34"
"","psychophysics","167","979689","0.0-167.0","571e332b1bdf1a00119149f2","64b441b4d8ecfb2d8a116aed","","","","","2352","key"," "," ","33.331999999999866","499.9999891627921","249.99999458139604","pz","62","51","1","","","50"
"","psychophysics","168","982383","0.0-168.0","571e332b1bdf1a00119149f2","64b441b4d8ecfb2d8a116aed","","","","","2688","key"," "," ","33.33199999999924","499.9999891627921","249.99999458139604","pz","67","49","1","","","53"
"","psychophysics","169","986924","0.0-169.0","571e332b1bdf1a00119149f2","64b441b4d8ecfb2d8a116aed","","","","","4538","key"," "," ","33.33199999999962","499.9999891627921","249.99999458139604","pz","89","52","1","","","57"
"","psychophysics","170","990238","0.0-170.0","571e332b1bdf1a00119149f2","64b441b4d8ecfb2d8a116aed","","","","","3310","key"," "," ","33.33199999999963","499.9999891627921","249.99999458139604","pz","83","58","1","","","53"
"","psychophysics","171","993355","0.0-171.0","571e332b1bdf1a00119149f2","64b441b4d8ecfb2d8a116aed","","","","","3114","key"," "," ","33.33200000000051","499.9999891627921","249.99999458139604","pz","48","43","1","","","24"
"","psychophysics","172","996098","0.0-172.0","571e332b1bdf1a00119149f2","64b441b4d8ecfb2d8a116aed","","","","","2739","key"," "," ","33.3402469135795","499.9999891627921","249.99999458139604","pz","70","52","1","","","44"
"","psychophysics","173","996829","0.0-173.0","571e332b1bdf1a00119149f2","64b441b4d8ecfb2d8a116aed","","","","","725","key"," "," ","33.33199999999765","499.9999891627921","249.99999458139604","inst","","","","","",""
"","psychophysics","174","1005905","0.0-174.0","571e332b1bdf1a00119149f2","64b441b4d8ecfb2d8a116aed","","","","","9072","key"," "," ","33.331999999999816","499.9999891627921","249.99999458139604","instEB4","51","40","1","0","0","40"
"","psychophysics","175","1006462","0.0-175.0","571e332b1bdf1a00119149f2","64b441b4d8ecfb2d8a116aed","","","","","553","key"," "," ","33.33199999999488","499.9999891627921","249.99999458139604","inst","","","","","",""
"","psychophysics","176","1009817","0.0-176.0","571e332b1bdf1a00119149f2","64b441b4d8ecfb2d8a116aed","","","","","3352","key"," "," ","33.33199999999953","499.9999891627921","249.99999458139604","eb","39","27","1","0","0","26"
"","psychophysics","177","1012618","0.0-177.0","571e332b1bdf1a00119149f2","64b441b4d8ecfb2d8a116aed","","","","","2799","key"," "," ","33.33199999999979","499.9999891627921","249.99999458139604","eb","50","31","1","0","0","42"
"","psychophysics","178","1014408","0.0-178.0","571e332b1bdf1a00119149f2","64b441b4d8ecfb2d8a116aed","","","","","1789","key"," "," ","33.344547169812394","499.9999891627921","249.99999458139604","eb","59","50","1","0","0","48"
"","psychophysics","179","1016310","0.0-179.0","571e332b1bdf1a00119149f2","64b441b4d8ecfb2d8a116aed","","","","","1900","key"," "," ","33.331999999999034","499.9999891627921","249.99999458139604","eb","57","48","1","0","0","50"
"","psychophysics","180","1018144","0.0-180.0","571e332b1bdf1a00119149f2","64b441b4d8ecfb2d8a116aed","","","","","1833","key"," "," ","33.33199999999919","499.9999891627921","249.99999458139604","eb","52","42","1","0","0","51"
"","psychophysics","181","1022148","0.0-181.0","571e332b1bdf1a00119149f2","64b441b4d8ecfb2d8a116aed","","","","","4002","key"," "," ","33.33200000000026","499.9999891627921","249.99999458139604","eb","57","34","1","0","0","48"
"","psychophysics","182","1024537","0.0-182.0","571e332b1bdf1a00119149f2","64b441b4d8ecfb2d8a116aed","","","","","2388","key"," "," ","33.33675714285678","499.9999891627921","249.99999458139604","eb","23","30","1","0","0","24"
"","psychophysics","183","1025844","0.0-183.0","571e332b1bdf1a00119149f2","64b441b4d8ecfb2d8a116aed","","","","","1302","key"," "," ","33.331999999999354","499.9999891627921","249.99999458139604","eb","52","52","1","0","0","50"
"","psychophysics","184","1029763","0.0-184.0","571e332b1bdf1a00119149f2","64b441b4d8ecfb2d8a116aed","","","","","3918","key"," "," ","33.331999999999894","499.9999891627921","249.99999458139604","eb","50","34","1","0","0","44"
"","psychophysics","185","1031765","0.0-185.0","571e332b1bdf1a00119149f2","64b441b4d8ecfb2d8a116aed","","","","","1999","key"," "," ","33.33199999999981","499.9999891627921","249.99999458139604","eb","45","51","1","0","0","37"
"","psychophysics","186","1034252","0.0-186.0","571e332b1bdf1a00119149f2","64b441b4d8ecfb2d8a116aed","","","","","2485","key"," "," ","33.331999999999596","499.9999891627921","249.99999458139604","eb","38","24","1","0","0","34"
"","psychophysics","187","1036513","0.0-187.0","571e332b1bdf1a00119149f2","64b441b4d8ecfb2d8a116aed","","","","","2257","key"," "," ","33.33200000000096","499.9999891627921","249.99999458139604","eb","52","39","1","0","0","42"
"","psychophysics","188","1039132","0.0-188.0","571e332b1bdf1a00119149f2","64b441b4d8ecfb2d8a116aed","","","","","2618","key"," "," ","33.33200000000017","499.9999891627921","249.99999458139604","eb","47","34","1","0","0","39"
"","psychophysics","189","1041717","0.0-189.0","571e332b1bdf1a00119149f2","64b441b4d8ecfb2d8a116aed","","","","","2583","key"," "," ","33.33200000000017","499.9999891627921","249.99999458139604","eb","23","30","1","0","0","24"
"","psychophysics","190","1043572","0.0-190.0","571e332b1bdf1a00119149f2","64b441b4d8ecfb2d8a116aed","","","","","1854","key"," "," ","33.332000000001344","499.9999891627921","249.99999458139604","eb","55","46","1","0","0","47"
"","psychophysics","191","1044314","0.0-191.0","571e332b1bdf1a00119149f2","64b441b4d8ecfb2d8a116aed","","","","","739","key"," "," ","33.36081818181662","499.9999891627921","249.99999458139604","inst","","","","","",""
"","psychophysics","192","1048785","0.0-192.0","571e332b1bdf1a00119149f2","64b441b4d8ecfb2d8a116aed","","","","","4465","key"," "," ","33.331999999999695","499.9999891627921","249.99999458139604","instBr","37","40","2","0","0","300"
"","psychophysics","193","1049366","0.0-193.0","571e332b1bdf1a00119149f2","64b441b4d8ecfb2d8a116aed","","","","","580","key"," "," ","33.33200000000943","499.9999891627921","249.99999458139604","inst","","","","","",""
"","psychophysics","194","1052283","0.0-194.0","571e332b1bdf1a00119149f2","64b441b4d8ecfb2d8a116aed","","","","","2913","key"," "," ","33.332000000000896","499.9999891627921","249.99999458139604","br","40","25","2","26","-17","300"
"","psychophysics","195","1054290","0.0-195.0","571e332b1bdf1a00119149f2","64b441b4d8ecfb2d8a116aed","","","","","2006","key"," "," ","33.33199999999981","499.9999891627921","249.99999458139604","br","29","2","2","-20","-17","300"
"","psychophysics","196","1060339","0.0-196.0","571e332b1bdf1a00119149f2","64b441b4d8ecfb2d8a116aed","","","","","6047","key"," "," ","33.33200000000005","499.9999891627921","249.99999458139604","br","30","-49","2","11","8","300"
"","psychophysics","197","1066457","0.0-197.0","571e332b1bdf1a00119149f2","64b441b4d8ecfb2d8a116aed","","","","","6113","key"," "," ","33.335644808742906","499.9999891627921","249.99999458139604","br","34","-37","2","27","-27","300"
"","psychophysics","198","1071362","0.0-198.0","571e332b1bdf1a00119149f2","64b441b4d8ecfb2d8a116aed","","","","","4903","key"," "," ","33.33200000000046","499.9999891627921","249.99999458139604","br","34","-31","2","4","-25","300"
"","psychophysics","199","1073596","0.0-199.0","571e332b1bdf1a00119149f2","64b441b4d8ecfb2d8a116aed","","","","","2231","key"," "," ","33.33200000000017","499.9999891627921","249.99999458139604","br","37","18","2","-19","26","300"
"","psychophysics","200","1077016","0.0-200.0","571e332b1bdf1a00119149f2","64b441b4d8ecfb2d8a116aed","","","","","3418","key"," "," ","33.33200000000058","499.9999891627921","249.99999458139604","br","22","-30","2","-24","-27","300"
"","psychophysics","201","1078700","0.0-201.0","571e332b1bdf1a00119149f2","64b441b4d8ecfb2d8a116aed","","","","","1679","key"," "," ","33.33200000000319","499.9999891627921","249.99999458139604","br","30","-6","2","-2","14","300"
"","psychophysics","202","1082640","0.0-202.0","571e332b1bdf1a00119149f2","64b441b4d8ecfb2d8a116aed","","","","","3936","key"," "," ","33.33200000000035","499.9999891627921","249.99999458139604","br","27","23","2","27","-6","300"
"","psychophysics","203","1084378","0.0-203.0","571e332b1bdf1a00119149f2","64b441b4d8ecfb2d8a116aed","","","","","1734","key"," "," ","33.34480769230644","499.9999891627921","249.99999458139604","br","30","-6","2","-11","-25","300"
"","psychophysics","204","1086989","0.0-204.0","571e332b1bdf1a00119149f2","64b441b4d8ecfb2d8a116aed","","","","","2608","key"," "," ","33.331999999997144","499.9999891627921","249.99999458139604","br","27","-17","2","-14","10","300"
"","psychophysics","205","1089664","0.0-205.0","571e332b1bdf1a00119149f2","64b441b4d8ecfb2d8a116aed","","","","","2672","key"," "," ","33.33199999999856","499.9999891627921","249.99999458139604","br","20","-30","2","-18","8","300"
"","psychophysics","206","1092824","0.0-206.0","571e332b1bdf1a00119149f2","64b441b4d8ecfb2d8a116aed","","","","","3158","key"," "," ","33.33200000000107","499.9999891627921","249.99999458139604","br","37","28","2","29","-22","300"
"","psychophysics","207","1096015","0.0-207.0","571e332b1bdf1a00119149f2","64b441b4d8ecfb2d8a116aed","","","","","3189","key"," "," ","33.33551578947441","499.9999891627921","249.99999458139604","br","34","23","2","-13","-15","300"
"","psychophysics","208","1101857","0.0-208.0","571e332b1bdf1a00119149f2","64b441b4d8ecfb2d8a116aed","","","","","5841","key"," "," ","33.332000000000896","499.9999891627921","249.99999458139604","br","21","-47","2","27","2","300"
"true","fullscreen","0","4152","0.0-0.0","5b70ed4b99982e000145eb7b","64b44378efeb42b2ca945f5d","","","","","","","","","","","","","","","","","",""
"true","preload","1","4153","0.0-1.0","5b70ed4b99982e000145eb7b","64b44378efeb42b2ca945f5d","false","[]","[]","[]","","","","","","","","","","","","","",""
"","psychophysics","2","23110","0.0-2.0","5b70ed4b99982e000145eb7b","64b44378efeb42b2ca945f5d","","","","","18952","key"," "," ","16.683508802816903","500","250","inst","","","","","",""
"","psychophysics","3","29615","0.0-3.0","5b70ed4b99982e000145eb7b","64b44378efeb42b2ca945f5d","","","","","6502","key"," "," ","16.68385347043702","500","250","sample1","","","","","",""
"","psychophysics","4","47175","0.0-4.0","5b70ed4b99982e000145eb7b","64b44378efeb42b2ca945f5d","","","","","17559","key"," "," ","16.683786121673005","500","250","sample2","100","","","","",""
"","psychophysics","5","55344","0.0-5.0","5b70ed4b99982e000145eb7b","64b44378efeb42b2ca945f5d","","","","","8167","key"," "," ","16.683784836065584","500","250","sample3","102","","","","",""
"","psychophysics","6","64944","0.0-6.0","5b70ed4b99982e000145eb7b","64b44378efeb42b2ca945f5d","","","","","9595","key"," "," ","16.683754782608695","500","250","sample4","100","","","","",""
"","psychophysics","7","74865","0.0-7.0","5b70ed4b99982e000145eb7b","64b44378efeb42b2ca945f5d","","","","","9920","key"," "," ","16.683652613828","500","250","sample5","","","","","",""
"","psychophysics","8","84361","0.0-8.0","5b70ed4b99982e000145eb7b","64b44378efeb42b2ca945f5d","","","","","9493","key"," "," ","16.683831282952557","500","250","sample7","500","","","","",""
"","psychophysics","9","87793","0.0-9.0","5b70ed4b99982e000145eb7b","64b44378efeb42b2ca945f5d","","","","","3431","key"," "," ","16.68362254901962","500","250","inst","","","","","",""
"","psychophysics","10","92177","0.0-10.0","5b70ed4b99982e000145eb7b","64b44378efeb42b2ca945f5d","","","","","4382","key"," "," ","16.683809160305383","500","250","inst","","","","","",""
"","psychophysics","11","95057","0.0-11.0","5b70ed4b99982e000145eb7b","64b44378efeb42b2ca945f5d","","","","","2879","key"," "," ","16.68382558139536","500","250","inst","","","","","",""
"","psychophysics","12","97585","0.0-12.0","5b70ed4b99982e000145eb7b","64b44378efeb42b2ca945f5d","","","","","2527","key"," "," ","16.683853333333293","500","250","inst","","","","","",""
"","psychophysics","13","99754","0.0-13.0","5b70ed4b99982e000145eb7b","64b44378efeb42b2ca945f5d","","","","","2168","key"," "," ","16.68385271317833","500","250","inst","","","","","",""
"","psychophysics","14","130425","0.0-14.0","5b70ed4b99982e000145eb7b","64b44378efeb42b2ca945f5d","","","","","30671","key"," "," ","16.68379216539718","500","250","instPog0","160","1","190","0","0","160"
"","psychophysics","15","147786","0.0-15.0","5b70ed4b99982e000145eb7b","64b44378efeb42b2ca945f5d","","","","","17359","key"," "," ","16.68381905678538","500","250","instPog1","164","1","190","0","0","160"
"","psychophysics","16","158858","0.0-16.0","5b70ed4b99982e000145eb7b","64b44378efeb42b2ca945f5d","","","","","11071","key"," "," ","16.683698340874834","500","250","instPog2","177","1","190","0","0","160"
"","psychophysics","17","162746","0.0-17.0","5b70ed4b99982e000145eb7b","64b44378efeb42b2ca945f5d","","","","","3887","key"," "," ","16.683823275862057","500","250","inst","","","","","",""
"","psychophysics","18","169690","0.0-18.0","5b70ed4b99982e000145eb7b","64b44378efeb42b2ca945f5d","","","","","6943","key"," "," ","16.68372771084338","500","250","pog","217","1","165","0","0","186"
"","psychophysics","19","181299","0.0-19.0","5b70ed4b99982e000145eb7b","64b44378efeb42b2ca945f5d","","","","","11607","key"," "," ","16.683838848920836","500","250","pog","187","1","122","0","0","155"
"","psychophysics","20","201524","0.0-20.0","5b70ed4b99982e000145eb7b","64b44378efeb42b2ca945f5d","","","","","20223","key"," "," ","16.68373988439308","500","250","pog","166","1","94","0","0","126"
"","psychophysics","21","213052","0.0-21.0","5b70ed4b99982e000145eb7b","64b44378efeb42b2ca945f5d","","","","","11527","key"," "," ","16.6837695652174","500","250","pog","189","1","85","0","0","149"
"","psychophysics","22","226468","0.0-22.0","5b70ed4b99982e000145eb7b","64b44378efeb42b2ca945f5d","","","","","13416","key"," "," ","16.683718555417165","500","250","pog","235","1","114","0","0","196"
"","psychophysics","23","239484","0.0-23.0","5b70ed4b99982e000145eb7b","64b44378efeb42b2ca945f5d","","","","","13015","key"," "," ","16.68376282051281","500","250","pog","200","1","202","0","0","171"
"","psychophysics","24","245852","0.0-24.0","5b70ed4b99982e000145eb7b","64b44378efeb42b2ca945f5d","","","","","6367","key"," "," ","16.68395000000003","500","250","pog","159","1","192","0","0","121"
"","psychophysics","25","251693","0.0-25.0","5b70ed4b99982e000145eb7b","64b44378efeb42b2ca945f5d","","","","","5840","key"," "," ","16.683696275071593","500","250","pog","151","1","172","0","0","120"
"","psychophysics","26","262277","0.0-26.0","5b70ed4b99982e000145eb7b","64b44378efeb42b2ca945f5d","","","","","10583","key"," "," ","16.683820189274428","500","250","pog","229","1","158","0","0","191"
"","psychophysics","27","273317","0.0-27.0","5b70ed4b99982e000145eb7b","64b44378efeb42b2ca945f5d","","","","","11039","key"," "," ","16.68373484848487","500","250","pog","213","1","216","0","0","179"
"","psychophysics","28","279861","0.0-28.0","5b70ed4b99982e000145eb7b","64b44378efeb42b2ca945f5d","","","","","6543","key"," "," ","16.683770408163266","500","250","pog","191","1","145","0","0","159"
"","psychophysics","29","292925","0.0-29.0","5b70ed4b99982e000145eb7b","64b44378efeb42b2ca945f5d","","","","","13063","key"," "," ","16.68400767263431","500","250","pog","215","1","111","0","0","176"
"","psychophysics","30","309742","0.0-30.0","5b70ed4b99982e000145eb7b","64b44378efeb42b2ca945f5d","","","","","16815","key"," "," ","16.683757696127106","500","250","pog","217","1","105","0","0","173"
"","psychophysics","31","321199","0.0-31.0","5b70ed4b99982e000145eb7b","64b44378efeb42b2ca945f5d","","","","","11456","key"," "," ","16.68374744525543","500","250","pog","221","1","88","0","0","183"
"","psychophysics","32","326150","0.0-32.0","5b70ed4b99982e000145eb7b","64b44378efeb42b2ca945f5d","","","","","4951","key"," "," ","16.68386148648652","500","250","pog","168","1","212","0","0","132"
"","psychophysics","33","328255","0.0-33.0","5b70ed4b99982e000145eb7b","64b44378efeb42b2ca945f5d","","","","","2103","key"," "," ","16.68377600000007","500","250","inst","","","","","",""
"","psychophysics","34","331847","0.0-34.0","5b70ed4b99982e000145eb7b","64b44378efeb42b2ca945f5d","","","","","3591","key"," "," ","16.683576744185967","500","250","instZol0","0","","0","0","0",""
"","psychophysics","35","343311","0.0-35.0","5b70ed4b99982e000145eb7b","64b44378efeb42b2ca945f5d","","","","","11460","key"," "," ","16.683819241982473","500","250","instZol1","-0.1000000000000002","","-1.3","0","0",""
"","psychophysics","36","382080","0.0-36.0","5b70ed4b99982e000145eb7b","64b44378efeb42b2ca945f5d","","","","","38767","key"," "," ","16.6837562446167","500","250","instZol2","1.5000000000000004","1","2","0","0",""
"","psychophysics","37","383872","0.0-37.0","5b70ed4b99982e000145eb7b","64b44378efeb42b2ca945f5d","","","","","1787","key"," "," ","16.68365420560705","500","250","inst","","","","","",""
"","psychophysics","38","411785","0.0-38.0","5b70ed4b99982e000145eb7b","64b44378efeb42b2ca945f5d","","","","","27911","key"," "," ","16.683778708134","500","250","zol","1.6200000000000006","1","0.58","-24","6",""
"","psychophysics","39","415800","0.0-39.0","5b70ed4b99982e000145eb7b","64b44378efeb42b2ca945f5d","","","","","4014","key"," "," ","16.68374166666666","500","250","zol","1.27","1","-0.07","-26","-30",""
"","psychophysics","40","419377","0.0-40.0","5b70ed4b99982e000145eb7b","64b44378efeb42b2ca945f5d","","","","","3574","key"," "," ","16.6838309859153","500","250","zol","1.6900000000000004","1","0.11","-17","-23",""
"","psychophysics","41","423705","0.0-41.0","5b70ed4b99982e000145eb7b","64b44378efeb42b2ca945f5d","","","","","4327","key"," "," ","16.68482558139534","500","250","zol","1.6600000000000004","1","0.14","-6","-11",""
"","psychophysics","42","429225","0.0-42.0","5b70ed4b99982e000145eb7b","64b44378efeb42b2ca945f5d","","","","","5518","key"," "," ","16.68349090909081","500","250","zol","1.7500000000000004","1","0.25","-17","-1",""
"","psychophysics","43","433185","0.0-43.0","5b70ed4b99982e000145eb7b","64b44378efeb42b2ca945f5d","","","","","3958","key"," "," ","16.683742616033594","500","250","zol","1.5000000000000002","1","0.7","23","-13",""
"","psychophysics","44","439425","0.0-44.0","5b70ed4b99982e000145eb7b","64b44378efeb42b2ca945f5d","","","","","6239","key"," "," ","16.68385790884726","500","250","zol","2.270000000000001","1","-0.37","-20","2",""
"","psychophysics","45","445129","0.0-45.0","5b70ed4b99982e000145eb7b","64b44378efeb42b2ca945f5d","","","","","5703","key"," "," ","16.683765395894397","500","250","zol","1.5900000000000003","1","-0.09","21","-12",""
"","psychophysics","46","448945","0.0-46.0","5b70ed4b99982e000145eb7b","64b44378efeb42b2ca945f5d","","","","","3815","key"," "," ","16.683823788546267","500","250","zol","1.4800000000000002","1","-0.38","-11","-16",""
"","psychophysics","47","454122","0.0-47.0","5b70ed4b99982e000145eb7b","64b44378efeb42b2ca945f5d","","","","","5175","key"," "," ","16.683832258064555","500","250","zol","1.9300000000000008","1","-0.33","-6","-30",""
"","psychophysics","48","457322","0.0-48.0","5b70ed4b99982e000145eb7b","64b44378efeb42b2ca945f5d","","","","","3198","key"," "," ","16.684010526315788","500","250","zol","0.9199999999999998","1","0.68","-13","-19",""
"","psychophysics","49","461906","0.0-49.0","5b70ed4b99982e000145eb7b","64b44378efeb42b2ca945f5d","","","","","4583","key"," "," ","16.683700729926912","500","250","zol","1.5700000000000003","1","0.03","14","-26",""
"","psychophysics","50","465226","0.0-50.0","5b70ed4b99982e000145eb7b","64b44378efeb42b2ca945f5d","","","","","3318","key"," "," ","16.683616161616307","500","250","zol","2.1800000000000006","1","-0.18","-4","17",""
"","psychophysics","51","472378","0.0-51.0","5b70ed4b99982e000145eb7b","64b44378efeb42b2ca945f5d","","","","","7151","key"," "," ","16.684350467289725","500","250","zol","2.0100000000000007","1","-0.01","-24","-28",""
"","psychophysics","52","479130","0.0-52.0","5b70ed4b99982e000145eb7b","64b44378efeb42b2ca945f5d","","","","","6751","key"," "," ","16.683688118811933","500","250","zol","1.7500000000000007","1","0.35","-5","21",""
"","psychophysics","53","480674","0.0-53.0","5b70ed4b99982e000145eb7b","64b44378efeb42b2ca945f5d","","","","","1542","key"," "," ","16.68394505494507","500","250","inst","","","","","",""
"","psychophysics","54","483066","0.0-54.0","5b70ed4b99982e000145eb7b","64b44378efeb42b2ca945f5d","","","","","2392","key"," "," ","16.6839436619718","500","250","instEB0","40","","40","0","0","40"
"","psychophysics","55","497498","0.0-55.0","5b70ed4b99982e000145eb7b","64b44378efeb42b2ca945f5d","","","","","14430","key"," "," ","16.683767361111137","500","250","instEB1","71","1","30","0","0","70"
"","psychophysics","56","511563","0.0-56.0","5b70ed4b99982e000145eb7b","64b44378efeb42b2ca945f5d","","","","","14062","key"," "," ","16.683796912114065","500","250","instEB2","43","1","60","0","0","40"
"","psychophysics","57","518587","0.0-57.0","5b70ed4b99982e000145eb7b","64b44378efeb42b2ca945f5d","","","","","7022","key"," "," ","16.68382185273165","500","250","instEB3","68","1","45","0","0","65"
"","psychophysics","58","527955","0.0-58.0","5b70ed4b99982e000145eb7b","64b44378efeb42b2ca945f5d","","","","","9366","key"," "," ","16.683733928571435","500","250","instEB4","44","1","40","0","0","40"
"","psychophysics","59","529595","0.0-59.0","5b70ed4b99982e000145eb7b","64b44378efeb42b2ca945f5d","","","","","1639","key"," "," ","16.683762886597457","500","250","inst","","","","","",""
"","psychophysics","60","536796","0.0-60.0","5b70ed4b99982e000145eb7b","64b44378efeb42b2ca945f5d","","","","","7199","key"," "," ","16.68441763341053","500","250","eb","54","1","25","0","0","51"
"","psychophysics","61","545436","0.0-61.0","5b70ed4b99982e000145eb7b","64b44378efeb42b2ca945f5d","","","","","8639","key"," "," ","16.68367311411976","500","250","eb","50","1","30","0","0","48"
"","psychophysics","62","553372","0.0-62.0","5b70ed4b99982e000145eb7b","64b44378efeb42b2ca945f5d","","","","","7935","key"," "," ","16.6836919831225","500","250","eb","52","1","46","0","0","51"
"","psychophysics","63","559372","0.0-63.0","5b70ed4b99982e000145eb7b","64b44378efeb42b2ca945f5d","","","","","5994","key"," "," ","16.68378272980502","500","250","eb","41","1","46","0","0","37"
"","psychophysics","64","566836","0.0-64.0","5b70ed4b99982e000145eb7b","64b44378efeb42b2ca945f5d","","","","","7463","key"," "," ","16.683802690582752","500","250","eb","31","1","34","0","0","29"
"","psychophysics","65","573420","0.0-65.0","5b70ed4b99982e000145eb7b","64b44378efeb42b2ca945f5d","","","","","6582","key"," "," ","16.68370050761428","500","250","eb","33","1","28","0","0","30"
"","psychophysics","66","579109","0.0-66.0","5b70ed4b99982e000145eb7b","64b44378efeb42b2ca945f5d","","","","","5687","key"," "," ","16.683735294117565","500","250","eb","56","1","32","0","0","52"
"","psychophysics","67","586901","0.0-67.0","5b70ed4b99982e000145eb7b","64b44378efeb42b2ca945f5d","","","","","7791","key"," "," ","16.68457725321871","500","250","eb","57","1","47","0","0","52"
"","psychophysics","68","594540","0.0-68.0","5b70ed4b99982e000145eb7b","64b44378efeb42b2ca945f5d","","","","","7639","key"," "," ","16.683750547046053","500","250","eb","42","1","52","0","0","38"
"","psychophysics","69","602628","0.0-69.0","5b70ed4b99982e000145eb7b","64b44378efeb42b2ca945f5d","","","","","8087","key"," "," ","16.683801652892484","500","250","eb","35","1","44","0","0","30"
"","psychophysics","70","608245","0.0-70.0","5b70ed4b99982e000145eb7b","64b44378efeb42b2ca945f5d","","","","","5615","key"," "," ","16.68374925373129","500","250","eb","47","1","43","0","0","44"
"","psychophysics","71","614381","0.0-71.0","5b70ed4b99982e000145eb7b","64b44378efeb42b2ca945f5d","","","","","6131","key"," "," ","16.68380108991814","500","250","eb","44","1","53","0","0","40"
"","psychophysics","72","620469","0.0-72.0","5b70ed4b99982e000145eb7b","64b44378efeb42b2ca945f5d","","","","","6087","key"," "," ","16.683755494505462","500","250","eb","46","1","31","0","0","42"
"","psychophysics","73","625933","0.0-73.0","5b70ed4b99982e000145eb7b","64b44378efeb42b2ca945f5d","","","","","5463","key"," "," ","16.683568807339455","500","250","eb","53","1","39","0","0","48"
"","psychophysics","74","632614","0.0-74.0","5b70ed4b99982e000145eb7b","64b44378efeb42b2ca945f5d","","","","","6680","key"," "," ","16.683802005012677","500","250","eb","51","1","28","0","0","46"
"","psychophysics","75","633973","0.0-75.0","5b70ed4b99982e000145eb7b","64b44378efeb42b2ca945f5d","","","","","1358","key"," "," ","16.683925925926477","500","250","inst","","","","","",""
"","psychophysics","76","636205","0.0-76.0","5b70ed4b99982e000145eb7b","64b44378efeb42b2ca945f5d","","","","","2231","key"," "," ","16.683583333333388","500","250","instBr0","NaN","","0","0","0","300"
"","psychophysics","77","644662","0.0-77.0","5b70ed4b99982e000145eb7b","64b44378efeb42b2ca945f5d","","","","","8455","key"," "," ","16.683725296442624","500","250","instBr1","NaN","","-40","0","0","300"
"","psychophysics","78","657631","0.0-78.0","5b70ed4b99982e000145eb7b","64b44378efeb42b2ca945f5d","","","","","12967","key"," "," ","16.68377091377096","500","250","instBr","24","2","40","0","0","300"
"","psychophysics","79","659158","0.0-79.0","5b70ed4b99982e000145eb7b","64b44378efeb42b2ca945f5d","","","","","1527","key"," "," ","16.683811111110522","500","250","inst","","","","","",""
"","psychophysics","80","664558","0.0-80.0","5b70ed4b99982e000145eb7b","64b44378efeb42b2ca945f5d","","","","","5396","key"," "," ","16.683761609907062","500","250","br","19","2","-33","-5","3","300"
"","psychophysics","81","671078","0.0-81.0","5b70ed4b99982e000145eb7b","64b44378efeb42b2ca945f5d","","","","","6519","key"," "," ","16.68360769230759","500","250","br","22","2","33","-15","-7","300"
"","psychophysics","82","680023","0.0-82.0","5b70ed4b99982e000145eb7b","64b44378efeb42b2ca945f5d","","","","","8943","key"," "," ","16.68383177570089","500","250","br","24","2","23","-6","9","300"
"","psychophysics","83","683071","0.0-83.0","5b70ed4b99982e000145eb7b","64b44378efeb42b2ca945f5d","","","","","3047","key"," "," ","16.684071823203993","500","250","br","22","2","5","-5","0","300"
"","psychophysics","84","690959","0.0-84.0","5b70ed4b99982e000145eb7b","64b44378efeb42b2ca945f5d","","","","","7887","key"," "," ","16.68373305084735","500","250","br","34","2","41","-13","-16","300"
"","psychophysics","85","695015","0.0-85.0","5b70ed4b99982e000145eb7b","64b44378efeb42b2ca945f5d","","","","","4055","key"," "," ","16.683834710743852","500","250","br","25","2","0","20","-2","300"
"","psychophysics","86","700031","0.0-86.0","5b70ed4b99982e000145eb7b","64b44378efeb42b2ca945f5d","","","","","5015","key"," "," ","16.685190000000098","500","250","br","25","2","-38","13","-10","300"
"","psychophysics","87","712680","0.0-87.0","5b70ed4b99982e000145eb7b","64b44378efeb42b2ca945f5d","","","","","12647","key"," "," ","16.68371334214002","500","250","br","24","2","48","24","-14","300"
"","psychophysics","88","715648","0.0-88.0","5b70ed4b99982e000145eb7b","64b44378efeb42b2ca945f5d","","","","","2967","key"," "," ","16.685158192090647","500","250","br","19","2","-7","-9","-24","300"
"","psychophysics","89","719024","0.0-89.0","5b70ed4b99982e000145eb7b","64b44378efeb42b2ca945f5d","","","","","3375","key"," "," ","16.683412935323574","500","250","br","18","2","-22","3","-2","300"
"","psychophysics","90","722728","0.0-90.0","5b70ed4b99982e000145eb7b","64b44378efeb42b2ca945f5d","","","","","3703","key"," "," ","16.683791855203697","500","250","br","30","2","22","-29","21","300"
"","psychophysics","91","728704","0.0-91.0","5b70ed4b99982e000145eb7b","64b44378efeb42b2ca945f5d","","","","","5975","key"," "," ","16.68382960893851","500","250","br","17","2","-39","11","8","300"
"","psychophysics","92","734256","0.0-92.0","5b70ed4b99982e000145eb7b","64b44378efeb42b2ca945f5d","","","","","5551","key"," "," ","16.683836858006323","500","250","br","25","2","5","11","-27","300"
"","psychophysics","93","739881","0.0-93.0","5b70ed4b99982e000145eb7b","64b44378efeb42b2ca945f5d","","","","","5624","key"," "," ","16.68364094955486","500","250","br","17","2","-34","16","11","300"
"","psychophysics","94","747432","0.0-94.0","5b70ed4b99982e000145eb7b","64b44378efeb42b2ca945f5d","","","","","7550","key"," "," ","16.683771618625393","500","250","br","19","2","32","-10","-29","300"
"","psychophysics","95","748705","0.0-95.0","5b70ed4b99982e000145eb7b","64b44378efeb42b2ca945f5d","","","","","1271","key"," "," ","16.684039999999417","500","250","inst","","","","","",""
"","psychophysics","96","752041","0.0-96.0","5b70ed4b99982e000145eb7b","64b44378efeb42b2ca945f5d","","","","","3335","key"," "," ","16.683577889447267","500","250","instPz0","50","1","50","","","50"
"","psychophysics","97","761617","0.0-97.0","5b70ed4b99982e000145eb7b","64b44378efeb42b2ca945f5d","","","","","9574","key"," "," ","16.683820244328146","500","250","instPz1","49","1","25","","","50"
"","psychophysics","98","766545","0.0-98.0","5b70ed4b99982e000145eb7b","64b44378efeb42b2ca945f5d","","","","","4927","key"," "," ","16.68458644067829","500","250","instPz2","24","1","15","","","25"
"","psychophysics","99","774545","0.0-99.0","5b70ed4b99982e000145eb7b","64b44378efeb42b2ca945f5d","","","","","7998","key"," "," ","16.68383891213389","500","250","instPz3","51","1","25","","","50"
"","psychophysics","100","780665","0.0-100.0","5b70ed4b99982e000145eb7b","64b44378efeb42b2ca945f5d","","","","","6119","key"," "," ","16.683827868852664","500","250","instPz4","34","1","15","","","30"
"","psychophysics","101","782633","0.0-101.0","5b70ed4b99982e000145eb7b","64b44378efeb42b2ca945f5d","","","","","1967","key"," "," ","16.684094017094925","500","250","inst","","","","","",""
"","psychophysics","102","793034","0.0-102.0","5b70ed4b99982e000145eb7b","64b44378efeb42b2ca945f5d","","","","","10399","key"," "," ","16.68380868167207","500","250","pz","36","1","34","","","33"
"","psychophysics","103","798194","0.0-103.0","5b70ed4b99982e000145eb7b","64b44378efeb42b2ca945f5d","","","","","5159","key"," "," ","16.6838025889969","500","250","pz","45","1","48","","","36"
"","psychophysics","104","804794","0.0-104.0","5b70ed4b99982e000145eb7b","64b44378efeb42b2ca945f5d","","","","","6599","key"," "," ","16.683672588832408","500","250","pz","34","1","59","","","24"
"","psychophysics","105","812818","0.0-105.0","5b70ed4b99982e000145eb7b","64b44378efeb42b2ca945f5d","","","","","8023","key"," "," ","16.683752083333335","500","250","pz","43","1","32","","","34"
"","psychophysics","106","816882","0.0-106.0","5b70ed4b99982e000145eb7b","64b44378efeb42b2ca945f5d","","","","","4063","key"," "," ","16.683646090535174","500","250","pz","56","1","37","","","50"
"","psychophysics","107","821410","0.0-107.0","5b70ed4b99982e000145eb7b","64b44378efeb42b2ca945f5d","","","","","4527","key"," "," ","16.683722222222585","500","250","pz","39","1","54","","","34"
"","psychophysics","108","827922","0.0-108.0","5b70ed4b99982e000145eb7b","64b44378efeb42b2ca945f5d","","","","","6511","key"," "," ","16.683725641025468","500","250","pz","56","1","36","","","48"
"","psychophysics","109","833171","0.0-109.0","5b70ed4b99982e000145eb7b","64b44378efeb42b2ca945f5d","","","","","5247","key"," "," ","16.683869009584594","500","250","pz","42","1","25","","","36"
"","psychophysics","110","840715","0.0-110.0","5b70ed4b99982e000145eb7b","64b44378efeb42b2ca945f5d","","","","","7543","key"," "," ","16.683860310421483","500","250","pz","56","1","47","","","44"
"","psychophysics","111","849355","0.0-111.0","5b70ed4b99982e000145eb7b","64b44378efeb42b2ca945f5d","","","","","8639","key"," "," ","16.683762088974863","500","250","pz","56","1","20","","","48"
"","psychophysics","112","853067","0.0-112.0","5b70ed4b99982e000145eb7b","64b44378efeb42b2ca945f5d","","","","","3707","key"," "," ","16.683531531531298","500","250","pz","57","1","47","","","50"
"","psychophysics","113","859339","0.0-113.0","5b70ed4b99982e000145eb7b","64b44378efeb42b2ca945f5d","","","","","6271","key"," "," ","16.6838293333333","500","250","pz","56","1","43","","","48"
"","psychophysics","114","864067","0.0-114.0","5b70ed4b99982e000145eb7b","64b44378efeb42b2ca945f5d","","","","","4727","key"," "," ","16.68465248226966","500","250","pz","25","1","34","","","22"
"","psychophysics","115","870316","0.0-115.0","5b70ed4b99982e000145eb7b","64b44378efeb42b2ca945f5d","","","","","6247","key"," "," ","16.68370053475943","500","250","pz","25","1","47","","","20"
"","psychophysics","116","876732","0.0-116.0","5b70ed4b99982e000145eb7b","64b44378efeb42b2ca945f5d","","","","","6415","key"," "," ","16.6838929503916","500","250","pz","57","1","59","","","48"
"","psychophysics","117","878052","0.0-117.0","5b70ed4b99982e000145eb7b","64b44378efeb42b2ca945f5d","","","","","1319","key"," "," ","16.684128205129245","500","250","inst","","","","","",""
"","psychophysics","118","900852","0.0-118.0","5b70ed4b99982e000145eb7b","64b44378efeb42b2ca945f5d","","","","","22799","key"," "," ","16.683773792093643","500","250","instPz4","21","2","15","","","30"
"","psychophysics","119","902812","0.0-119.0","5b70ed4b99982e000145eb7b","64b44378efeb42b2ca945f5d","","","","","1959","key"," "," ","16.683586206897324","500","250","inst","","","","","",""
"","psychophysics","120","909260","0.0-120.0","5b70ed4b99982e000145eb7b","64b44378efeb42b2ca945f5d","","","","","6447","key"," "," ","16.68374352331618","500","250","pz","43","2","52","","","54"
"","psychophysics","121","913716","0.0-121.0","5b70ed4b99982e000145eb7b","64b44378efeb42b2ca945f5d","","","","","4455","key"," "," ","16.683654135338614","500","250","pz","31","2","24","","","36"
"","psychophysics","122","920869","0.0-122.0","5b70ed4b99982e000145eb7b","64b44378efeb42b2ca945f5d","","","","","7151","key"," "," ","16.683747663551607","500","250","pz","25","2","24","","","34"
"","psychophysics","123","927397","0.0-123.0","5b70ed4b99982e000145eb7b","64b44378efeb42b2ca945f5d","","","","","6528","key"," "," ","16.683876923076774","500","250","pz","41","2","45","","","53"
"","psychophysics","124","932877","0.0-124.0","5b70ed4b99982e000145eb7b","64b44378efeb42b2ca945f5d","","","","","5478","key"," "," ","16.6838012232416","500","250","pz","29","2","35","","","35"
"","psychophysics","125","938461","0.0-125.0","5b70ed4b99982e000145eb7b","64b44378efeb42b2ca945f5d","","","","","5583","key"," "," ","16.68378143712584","500","250","pz","36","2","25","","","50"
"","psychophysics","126","941285","0.0-126.0","5b70ed4b99982e000145eb7b","64b44378efeb42b2ca945f5d","","","","","2823","key"," "," ","16.6851488095237","500","250","pz","33","2","35","","","46"
"","psychophysics","127","944589","0.0-127.0","5b70ed4b99982e000145eb7b","64b44378efeb42b2ca945f5d","","","","","3298","key"," "," ","16.68388832487322","500","250","pz","33","2","29","","","50"
"","psychophysics","128","950894","0.0-128.0","5b70ed4b99982e000145eb7b","64b44378efeb42b2ca945f5d","","","","","6303","key"," "," ","16.683655172413825","500","250","pz","17","2","43","","","22"
"","psychophysics","129","955925","0.0-129.0","5b70ed4b99982e000145eb7b","64b44378efeb42b2ca945f5d","","","","","5031","key"," "," ","16.683624584717442","500","250","pz","21","2","26","","","24"
"","psychophysics","130","961245","0.0-130.0","5b70ed4b99982e000145eb7b","64b44378efeb42b2ca945f5d","","","","","5319","key"," "," ","16.68394025157238","500","250","pz","35","2","25","","","40"
"","psychophysics","131","964029","0.0-131.0","5b70ed4b99982e000145eb7b","64b44378efeb42b2ca945f5d","","","","","2783","key"," "," ","16.683710843373753","500","250","pz","39","2","32","","","54"
"","psychophysics","132","968838","0.0-132.0","5b70ed4b99982e000145eb7b","64b44378efeb42b2ca945f5d","","","","","4808","key"," "," ","16.683738675958214","500","250","pz","40","2","58","","","57"
"","psychophysics","133","973670","0.0-133.0","5b70ed4b99982e000145eb7b","64b44378efeb42b2ca945f5d","","","","","4831","key"," "," ","16.683833333333396","500","250","pz","20","2","32","","","22"
"","psychophysics","134","977885","0.0-134.0","5b70ed4b99982e000145eb7b","64b44378efeb42b2ca945f5d","","","","","4214","key"," "," ","16.683730158730345","500","250","pz","39","2","31","","","56"
"","psychophysics","135","979110","0.0-135.0","5b70ed4b99982e000145eb7b","64b44378efeb42b2ca945f5d","","","","","1224","key"," "," ","16.683863013697316","500","250","inst","","","","","",""
"","psychophysics","136","981814","0.0-136.0","5b70ed4b99982e000145eb7b","64b44378efeb42b2ca945f5d","","","","","2700","key"," "," ","16.684161490683376","500","250","instBr","39","1","40","0","0","300"
"","psychophysics","137","983093","0.0-137.0","5b70ed4b99982e000145eb7b","64b44378efeb42b2ca945f5d","","","","","1277","key"," "," ","16.68344000000041","500","250","inst","","","","","",""
"","psychophysics","138","988902","0.0-138.0","5b70ed4b99982e000145eb7b","64b44378efeb42b2ca945f5d","","","","","5807","key"," "," ","16.683792507204814","500","250","br","-1","1","-5","28","-9","300"
"","psychophysics","139","996638","0.0-139.0","5b70ed4b99982e000145eb7b","64b44378efeb42b2ca945f5d","","","","","7733","key"," "," ","16.68356371490279","500","250","br","-5","1","-33","18","-15","300"
"","psychophysics","140","1001166","0.0-140.0","5b70ed4b99982e000145eb7b","64b44378efeb42b2ca945f5d","","","","","4527","key"," "," ","16.68381549815503","500","250","br","-1","1","-13","23","-20","300"
"","psychophysics","141","1007110","0.0-141.0","5b70ed4b99982e000145eb7b","64b44378efeb42b2ca945f5d","","","","","5943","key"," "," ","16.683774647887297","500","250","br","-8","1","-47","22","1","300"
"","psychophysics","142","1012286","0.0-142.0","5b70ed4b99982e000145eb7b","64b44378efeb42b2ca945f5d","","","","","5175","key"," "," ","16.683611650485545","500","250","br","-9","1","-39","-7","-30","300"
"","psychophysics","143","1017983","0.0-143.0","5b70ed4b99982e000145eb7b","64b44378efeb42b2ca945f5d","","","","","5695","key"," "," ","16.68375953079148","500","250","br","-7","1","43","24","24","300"
"","psychophysics","144","1023679","0.0-144.0","5b70ed4b99982e000145eb7b","64b44378efeb42b2ca945f5d","","","","","5695","key"," "," ","16.68383235294091","500","250","br","5","1","40","0","15","300"
"","psychophysics","145","1030071","0.0-145.0","5b70ed4b99982e000145eb7b","64b44378efeb42b2ca945f5d","","","","","6391","key"," "," ","16.68375654450279","500","250","br","-10","1","-26","11","-19","300"
"","psychophysics","146","1032695","0.0-146.0","5b70ed4b99982e000145eb7b","64b44378efeb42b2ca945f5d","","","","","2623","key"," "," ","16.683961538462125","500","250","br","-4","1","-2","-14","-8","300"
"","psychophysics","147","1036663","0.0-147.0","5b70ed4b99982e000145eb7b","64b44378efeb42b2ca945f5d","","","","","3967","key"," "," ","16.68394936708869","500","250","br","-2","1","14","15","-21","300"
"","psychophysics","148","1040312","0.0-148.0","5b70ed4b99982e000145eb7b","64b44378efeb42b2ca945f5d","","","","","3647","key"," "," ","16.68387614678882","500","250","br","-12","1","-24","-1","-28","300"
"","psychophysics","149","1048032","0.0-149.0","5b70ed4b99982e000145eb7b","64b44378efeb42b2ca945f5d","","","","","7719","key"," "," ","16.68366233766224","500","250","br","-7","1","27","-24","14","300"
"","psychophysics","150","1054384","0.0-150.0","5b70ed4b99982e000145eb7b","64b44378efeb42b2ca945f5d","","","","","6352","key"," "," ","16.68377044854875","500","250","br","-10","1","-25","26","-9","300"
"","psychophysics","151","1063200","0.0-151.0","5b70ed4b99982e000145eb7b","64b44378efeb42b2ca945f5d","","","","","8815","key"," "," ","16.683708333333154","500","250","br","-1","1","50","-21","13","300"
"","psychophysics","152","1071833","0.0-152.0","5b70ed4b99982e000145eb7b","64b44378efeb42b2ca945f5d","","","","","8631","key"," "," ","16.68372674418619","500","250","br","-7","1","14","-12","12","300"
"","psychophysics","153","1073016","0.0-153.0","5b70ed4b99982e000145eb7b","64b44378efeb42b2ca945f5d","","","","","1182","key"," "," ","16.684728571426657","500","250","inst","","","","","",""
"","psychophysics","154","1080297","0.0-154.0","5b70ed4b99982e000145eb7b","64b44378efeb42b2ca945f5d","","","","","7278","key"," "," ","16.683747126436632","500","250","instZol2","-2.3000000000000003","2","2","0","0",""
"","psychophysics","155","1081777","0.0-155.0","5b70ed4b99982e000145eb7b","64b44378efeb42b2ca945f5d","","","","","1478","key"," "," ","16.68348863636228","500","250","inst","","","","","",""
"","psychophysics","156","1099642","0.0-156.0","5b70ed4b99982e000145eb7b","64b44378efeb42b2ca945f5d","","","","","17864","key"," "," ","16.683759813084023","500","250","zol","-0.7100000000000001","2","-0.49","20","-17",""
"","psychophysics","157","1115073","0.0-157.0","5b70ed4b99982e000145eb7b","64b44378efeb42b2ca945f5d","","","","","15430","key"," "," ","16.683745670995627","500","250","zol","-1.9100000000000006","2","0.31","-21","22",""
"","psychophysics","158","1120314","0.0-158.0","5b70ed4b99982e000145eb7b","64b44378efeb42b2ca945f5d","","","","","5239","key"," "," ","16.68377635782784","500","250","zol","-0.51","2","-0.69","23","30",""
"","psychophysics","159","1123322","0.0-159.0","5b70ed4b99982e000145eb7b","64b44378efeb42b2ca945f5d","","","","","3006","key"," "," ","16.683743016759205","500","250","zol","-1.25","2","-0.25","-3","18",""
"","psychophysics","160","1126314","0.0-160.0","5b70ed4b99982e000145eb7b","64b44378efeb42b2ca945f5d","","","","","2990","key"," "," ","16.68370949720714","500","250","zol","-2.120000000000001","2","0.62","30","23",""
"","psychophysics","161","1129250","0.0-161.0","5b70ed4b99982e000145eb7b","64b44378efeb42b2ca945f5d","","","","","2935","key"," "," ","16.683622857143305","500","250","zol","-1.1400000000000001","2","-0.36","8","-1",""
"","psychophysics","162","1132666","0.0-162.0","5b70ed4b99982e000145eb7b","64b44378efeb42b2ca945f5d","","","","","3415","key"," "," ","16.683807881772655","500","250","zol","-2.5400000000000014","2","0.74","28","-11",""
"","psychophysics","163","1135802","0.0-163.0","5b70ed4b99982e000145eb7b","64b44378efeb42b2ca945f5d","","","","","3134","key"," "," ","16.683802139037663","500","250","zol","-1.0899999999999999","2","-0.71","17","-24",""
"","psychophysics","164","1139474","0.0-164.0","5b70ed4b99982e000145eb7b","64b44378efeb42b2ca945f5d","","","","","3671","key"," "," ","16.6837442922374","500","250","zol","-1.6200000000000006","2","-0.18","25","20",""
"","psychophysics","165","1142778","0.0-165.0","5b70ed4b99982e000145eb7b","64b44378efeb42b2ca945f5d","","","","","3302","key"," "," ","16.683742424242688","500","250","zol","-1.25","2","-0.75","30","18",""
"","psychophysics","166","1145730","0.0-166.0","5b70ed4b99982e000145eb7b","64b44378efeb42b2ca945f5d","","","","","2951","key"," "," ","16.683639999999265","500","250","zol","-1.7200000000000006","2","-0.58","-28","-14",""
"","psychophysics","167","1148826","0.0-167.0","5b70ed4b99982e000145eb7b","64b44378efeb42b2ca945f5d","","","","","3094","key"," "," ","16.68380000000014","500","250","zol","-2.1000000000000005","2","-0.4","19","-6",""
"","psychophysics","168","1152914","0.0-168.0","5b70ed4b99982e000145eb7b","64b44378efeb42b2ca945f5d","","","","","4087","key"," "," ","16.68382786885171","500","250","zol","-1.9100000000000008","2","-0.49","-26","3",""
"","psychophysics","169","1156418","0.0-169.0","5b70ed4b99982e000145eb7b","64b44378efeb42b2ca945f5d","","","","","3502","key"," "," ","16.683803827751376","500","250","zol","-2.4600000000000013","2","0.46","-5","-19",""
"","psychophysics","170","1160555","0.0-170.0","5b70ed4b99982e000145eb7b","64b44378efeb42b2ca945f5d","","","","","4135","key"," "," ","16.683712550606728","500","250","zol","-2.140000000000001","2","0.64","19","1",""
"","psychophysics","171","1162027","0.0-171.0","5b70ed4b99982e000145eb7b","64b44378efeb42b2ca945f5d","","","","","1471","key"," "," ","16.68417241379362","500","250","inst","","","","","",""
"","psychophysics","172","1173283","0.0-172.0","5b70ed4b99982e000145eb7b","64b44378efeb42b2ca945f5d","","","","","11255","key"," "," ","16.683824925815745","500","250","instPog0","367.5","2","349.5","0","0","319.5"
"","psychophysics","173","1189027","0.0-173.0","5b70ed4b99982e000145eb7b","64b44378efeb42b2ca945f5d","","","","","15743","key"," "," ","16.683785790031873","500","250","instPog1","423.5","2","349.5","0","0","319.5"
"","psychophysics","174","1194019","0.0-174.0","5b70ed4b99982e000145eb7b","64b44378efeb42b2ca945f5d","","","","","4991","key"," "," ","16.68370805369165","500","250","instPog2","391.5","2","349.5","0","0","319.5"
"","psychophysics","175","1195739","0.0-175.0","5b70ed4b99982e000145eb7b","64b44378efeb42b2ca945f5d","","","","","1719","key"," "," ","16.683666666666063","500","250","inst","","","","","",""
"","psychophysics","176","1201988","0.0-176.0","5b70ed4b99982e000145eb7b","64b44378efeb42b2ca945f5d","","","","","6247","key"," "," ","16.68374530831102","500","250","pog","399.5","2","334.5","0","0","334.5"
"","psychophysics","177","1204547","0.0-177.0","5b70ed4b99982e000145eb7b","64b44378efeb42b2ca945f5d","","","","","2558","key"," "," ","16.683725490195226","500","250","pog","357.5","2","354.5","0","0","288.5"
"","psychophysics","178","1209996","0.0-178.0","5b70ed4b99982e000145eb7b","64b44378efeb42b2ca945f5d","","","","","5447","key"," "," ","16.683652307692057","500","250","pog","395.5","2","353.5","0","0","324.5"
"","psychophysics","179","1217788","0.0-179.0","5b70ed4b99982e000145eb7b","64b44378efeb42b2ca945f5d","","","","","7790","key"," "," ","16.683781115879814","500","250","pog","362.5","2","271.5","0","0","291.5"
"","psychophysics","180","1219972","0.0-180.0","5b70ed4b99982e000145eb7b","64b44378efeb42b2ca945f5d","","","","","2179","key"," "," ","16.68394615384571","500","250","pog","381.5","2","379.5","0","0","315.5"
"","psychophysics","181","1227332","0.0-181.0","5b70ed4b99982e000145eb7b","64b44378efeb42b2ca945f5d","","","","","7359","key"," "," ","16.683646258503163","500","250","pog","389.5","2","250.5","0","0","319.5"
"","psychophysics","182","1233381","0.0-182.0","5b70ed4b99982e000145eb7b","64b44378efeb42b2ca945f5d","","","","","6048","key"," "," ","16.683853185595687","500","250","pog","395.5","2","335.5","0","0","323.5"
"","psychophysics","183","1240229","0.0-183.0","5b70ed4b99982e000145eb7b","64b44378efeb42b2ca945f5d","","","","","6847","key"," "," ","16.683685365854195","500","250","pog","365.5","2","262.5","0","0","297.5"
"","psychophysics","184","1249013","0.0-184.0","5b70ed4b99982e000145eb7b","64b44378efeb42b2ca945f5d","","","","","8783","key"," "," ","16.68389523809554","500","250","pog","402.5","2","243.5","0","0","334.5"
"","psychophysics","185","1256901","0.0-185.0","5b70ed4b99982e000145eb7b","64b44378efeb42b2ca945f5d","","","","","7887","key"," "," ","16.683684322033944","500","250","pog","410.5","2","286.5","0","0","334.5"
"","psychophysics","186","1263670","0.0-186.0","5b70ed4b99982e000145eb7b","64b44378efeb42b2ca945f5d","","","","","6768","key"," "," ","16.6838567901236","500","250","pog","387.5","2","315.5","0","0","312.5"
"","psychophysics","187","1272717","0.0-187.0","5b70ed4b99982e000145eb7b","64b44378efeb42b2ca945f5d","","","","","9047","key"," "," ","16.683730129390103","500","250","pog","384.5","2","276.5","0","0","309.5"
"","psychophysics","188","1281550","0.0-188.0","5b70ed4b99982e000145eb7b","64b44378efeb42b2ca945f5d","","","","","8831","key"," "," ","16.68379356060574","500","250","pog","400.5","2","262.5","0","0","335.5"
"","psychophysics","189","1286317","0.0-189.0","5b70ed4b99982e000145eb7b","64b44378efeb42b2ca945f5d","","","","","4767","key"," "," ","16.683971929823848","500","250","pog","426.5","2","399.5","0","0","359.5"
"","psychophysics","190","1293294","0.0-190.0","5b70ed4b99982e000145eb7b","64b44378efeb42b2ca945f5d","","","","","6975","key"," "," ","16.68379616306936","500","250","pog","352.5","2","283.5","0","0","292.5"
"","psychophysics","191","1294726","0.0-191.0","5b70ed4b99982e000145eb7b","64b44378efeb42b2ca945f5d","","","","","1431","key"," "," ","16.68360000000171","500","250","inst","","","","","",""
"","psychophysics","192","1301398","0.0-192.0","5b70ed4b99982e000145eb7b","64b44378efeb42b2ca945f5d","","","","","6670","key"," "," ","16.683992481202864","500","250","instEB4","43","2","40","0","0","40"
"","psychophysics","193","1302614","0.0-193.0","5b70ed4b99982e000145eb7b","64b44378efeb42b2ca945f5d","","","","","1215","key"," "," ","16.68338888888765","500","250","inst","","","","","",""
"","psychophysics","194","1309878","0.0-194.0","5b70ed4b99982e000145eb7b","64b44378efeb42b2ca945f5d","","","","","7263","key"," "," ","16.68362211981576","500","250","eb","45","2","40","0","0","42"
"","psychophysics","195","1316974","0.0-195.0","5b70ed4b99982e000145eb7b","64b44378efeb42b2ca945f5d","","","","","7095","key"," "," ","16.683752941176405","500","250","eb","50","2","29","0","0","49"
"","psychophysics","196","1323565","0.0-196.0","5b70ed4b99982e000145eb7b","64b44378efeb42b2ca945f5d","","","","","6590","key"," "," ","16.683682741116268","500","250","eb","36","2","36","0","0","36"
"","psychophysics","197","1327182","0.0-197.0","5b70ed4b99982e000145eb7b","64b44378efeb42b2ca945f5d","","","","","3616","key"," "," ","16.683581395348707","500","250","eb","42","2","39","0","0","41"
"","psychophysics","198","1332126","0.0-198.0","5b70ed4b99982e000145eb7b","64b44378efeb42b2ca945f5d","","","","","4941","key"," "," ","16.683864864865257","500","250","eb","24","2","49","0","0","26"
"","psychophysics","199","1340526","0.0-199.0","5b70ed4b99982e000145eb7b","64b44378efeb42b2ca945f5d","","","","","8399","key"," "," ","16.683671314740995","500","250","eb","29","2","46","0","0","29"
"","psychophysics","200","1350342","0.0-200.0","5b70ed4b99982e000145eb7b","64b44378efeb42b2ca945f5d","","","","","9815","key"," "," ","16.683840136054418","500","250","eb","36","2","52","0","0","35"
"","psychophysics","201","1357559","0.0-201.0","5b70ed4b99982e000145eb7b","64b44378efeb42b2ca945f5d","","","","","7215","key"," "," ","16.68318097447769","500","250","eb","41","2","50","0","0","40"
"","psychophysics","202","1365223","0.0-202.0","5b70ed4b99982e000145eb7b","64b44378efeb42b2ca945f5d","","","","","7663","key"," "," ","16.683856209150612","500","250","eb","39","2","39","0","0","39"
"","psychophysics","203","1369151","0.0-203.0","5b70ed4b99982e000145eb7b","64b44378efeb42b2ca945f5d","","","","","3927","key"," "," ","16.683623931623405","500","250","eb","40","2","38","0","0","37"
"","psychophysics","204","1375952","0.0-204.0","5b70ed4b99982e000145eb7b","64b44378efeb42b2ca945f5d","","","","","6799","key"," "," ","16.683815724815354","500","250","eb","34","2","49","0","0","35"
"","psychophysics","205","1379728","0.0-205.0","5b70ed4b99982e000145eb7b","64b44378efeb42b2ca945f5d","","","","","3775","key"," "," ","16.683831111110955","500","250","eb","48","2","42","0","0","47"
"","psychophysics","206","1386192","0.0-206.0","5b70ed4b99982e000145eb7b","64b44378efeb42b2ca945f5d","","","","","6463","key"," "," ","16.683733160621994","500","250","eb","33","2","26","0","0","32"
"","psychophysics","207","1392128","0.0-207.0","5b70ed4b99982e000145eb7b","64b44378efeb42b2ca945f5d","","","","","5935","key"," "," ","16.683816901408136","500","250","eb","50","2","27","0","0","48"
"","psychophysics","208","1399936","0.0-208.0","5b70ed4b99982e000145eb7b","64b44378efeb42b2ca945f5d","","","","","7807","key"," "," ","16.683882226980526","500","250","eb","32","2","34","0","0","31"
"true","fullscreen","0","4957","0.0-0.0","5dd4189ef30aa640b4e9c094","64b4424ad4e0270a62f8fd51","","","","","","","","","","","","","","","","","",""
"true","preload","1","4962","0.0-1.0","5dd4189ef30aa640b4e9c094","64b4424ad4e0270a62f8fd51","false","[]","[]","[]","","","","","","","","","","","","","",""
"","psychophysics","2","19685","0.0-2.0","5dd4189ef30aa640b4e9c094","64b4424ad4e0270a62f8fd51","","","","","14611","key"," "," ","16.79504908675799","500","250","inst","","","","","",""
"","psychophysics","3","23801","0.0-3.0","5dd4189ef30aa640b4e9c094","64b4424ad4e0270a62f8fd51","","","","","4095","key"," "," ","16.697930894308953","500","250","sample1","","","","","",""
"","psychophysics","4","71791","0.0-4.0","5dd4189ef30aa640b4e9c094","64b4424ad4e0270a62f8fd51","","","","","47985","key"," "," ","16.697598677340757","500","250","sample2","112","","","","",""
"","psychophysics","5","83732","0.0-5.0","5dd4189ef30aa640b4e9c094","64b4424ad4e0270a62f8fd51","","","","","11936","key"," "," ","16.69753501400559","500","250","sample3","102","","","","",""
"","psychophysics","6","97711","0.0-6.0","5dd4189ef30aa640b4e9c094","64b4424ad4e0270a62f8fd51","","","","","13973","key"," "," ","16.697620813397123","500","250","sample4","100","","","","",""
"","psychophysics","7","104517","0.0-7.0","5dd4189ef30aa640b4e9c094","64b4424ad4e0270a62f8fd51","","","","","6753","key"," "," ","16.738706896551744","500","250","sample5","","","","","",""
"","psychophysics","8","115940","0.0-8.0","5dd4189ef30aa640b4e9c094","64b4424ad4e0270a62f8fd51","","","","","11417","key"," "," ","16.697674963396782","500","250","sample7","502","","","","",""
"","psychophysics","9","120359","0.0-9.0","5dd4189ef30aa640b4e9c094","64b4424ad4e0270a62f8fd51","","","","","4414","key"," "," ","16.697684410646367","500","250","inst","","","","","",""
"","psychophysics","10","124778","0.0-10.0","5dd4189ef30aa640b4e9c094","64b4424ad4e0270a62f8fd51","","","","","4411","key"," "," ","16.69746212121214","500","250","inst","","","","","",""
"","psychophysics","11","129988","0.0-11.0","5dd4189ef30aa640b4e9c094","64b4424ad4e0270a62f8fd51","","","","","5206","key"," "," ","16.697601286173672","500","250","inst","","","","","",""
"","psychophysics","12","133085","0.0-12.0","5dd4189ef30aa640b4e9c094","64b4424ad4e0270a62f8fd51","","","","","3087","key"," "," ","16.69760000000006","500","250","inst","","","","","",""
"","psychophysics","13","135639","0.0-13.0","5dd4189ef30aa640b4e9c094","64b4424ad4e0270a62f8fd51","","","","","2548","key"," "," ","16.697172185430567","500","250","inst","","","","","",""
"","psychophysics","14","139606","0.0-14.0","5dd4189ef30aa640b4e9c094","64b4424ad4e0270a62f8fd51","","","","","3842","key"," "," ","17.13129870129877","500","250","instEB0","40","40","","0","0","40"
"","psychophysics","15","156298","0.0-15.0","5dd4189ef30aa640b4e9c094","64b4424ad4e0270a62f8fd51","","","","","16689","key"," "," ","16.69762962962963","500","250","instEB1","67","30","1","0","0","70"
"","psychophysics","16","181528","0.0-16.0","5dd4189ef30aa640b4e9c094","64b4424ad4e0270a62f8fd51","","","","","25224","key"," "," ","16.697607284768203","500","250","instEB2","43","60","1","0","0","40"
"","psychophysics","17","200553","0.0-17.0","5dd4189ef30aa640b4e9c094","64b4424ad4e0270a62f8fd51","","","","","19018","key"," "," ","16.697618629174002","500","250","instEB3","70","45","1","0","0","65"
"","psychophysics","18","215210","0.0-18.0","5dd4189ef30aa640b4e9c094","64b4424ad4e0270a62f8fd51","","","","","14646","key"," "," ","16.697604332953247","500","250","instEB4","48","40","1","0","0","40"
"","psychophysics","19","220183","0.0-19.0","5dd4189ef30aa640b4e9c094","64b4424ad4e0270a62f8fd51","","","","","4969","key"," "," ","16.69752188552185","500","250","inst","","","","","",""
"","psychophysics","20","232748","0.0-20.0","5dd4189ef30aa640b4e9c094","64b4424ad4e0270a62f8fd51","","","","","12557","key"," "," ","16.69759920106524","500","250","eb","43","33","1","0","0","37"
"","psychophysics","21","240304","0.0-21.0","5dd4189ef30aa640b4e9c094","64b4424ad4e0270a62f8fd51","","","","","7541","key"," "," ","16.697632743362803","500","250","eb","40","33","1","0","0","38"
"","psychophysics","22","243382","0.0-22.0","5dd4189ef30aa640b4e9c094","64b4424ad4e0270a62f8fd51","","","","","3073","key"," "," ","16.697480874316916","500","250","eb","28","28","1","0","0","24"
"","psychophysics","23","250003","0.0-23.0","5dd4189ef30aa640b4e9c094","64b4424ad4e0270a62f8fd51","","","","","6607","key"," "," ","16.69760101010101","500","250","eb","31","25","1","0","0","30"
"","psychophysics","24","255298","0.0-24.0","5dd4189ef30aa640b4e9c094","64b4424ad4e0270a62f8fd51","","","","","5290","key"," "," ","16.697512658227815","500","250","eb","42","40","1","0","0","38"
"","psychophysics","25","261280","0.0-25.0","5dd4189ef30aa640b4e9c094","64b4424ad4e0270a62f8fd51","","","","","5975","key"," "," ","16.69767507002803","500","250","eb","56","51","1","0","0","53"
"","psychophysics","26","265552","0.0-26.0","5dd4189ef30aa640b4e9c094","64b4424ad4e0270a62f8fd51","","","","","4252","key"," "," ","16.69766666666655","500","250","eb","56","54","1","0","0","52"
"","psychophysics","27","272946","0.0-27.0","5dd4189ef30aa640b4e9c094","64b4424ad4e0270a62f8fd51","","","","","7388","key"," "," ","16.697730769230763","500","250","eb","45","31","1","0","0","43"
"","psychophysics","28","279026","0.0-28.0","5dd4189ef30aa640b4e9c094","64b4424ad4e0270a62f8fd51","","","","","6076","key"," "," ","16.697622589531743","500","250","eb","53","50","1","0","0","48"
"","psychophysics","29","287791","0.0-29.0","5dd4189ef30aa640b4e9c094","64b4424ad4e0270a62f8fd51","","","","","8760","key"," "," ","16.69759923664114","500","250","eb","55","37","1","0","0","50"
"","psychophysics","30","289839","0.0-30.0","5dd4189ef30aa640b4e9c094","64b4424ad4e0270a62f8fd51","","","","","2044","key"," "," ","16.69742975206632","500","250","eb","35","35","1","0","0","33"
"","psychophysics","31","296608","0.0-31.0","5dd4189ef30aa640b4e9c094","64b4424ad4e0270a62f8fd51","","","","","6754","key"," "," ","16.697580246913628","500","250","eb","50","42","1","0","0","44"
"","psychophysics","32","303506","0.0-32.0","5dd4189ef30aa640b4e9c094","64b4424ad4e0270a62f8fd51","","","","","6893","key"," "," ","16.697766990291218","500","250","eb","48","36","1","0","0","45"
"","psychophysics","33","310455","0.0-33.0","5dd4189ef30aa640b4e9c094","64b4424ad4e0270a62f8fd51","","","","","6943","key"," "," ","16.697643373493968","500","250","eb","55","49","1","0","0","50"
"","psychophysics","34","319519","0.0-34.0","5dd4189ef30aa640b4e9c094","64b4424ad4e0270a62f8fd51","","","","","9047","key"," "," ","16.697699261992604","500","250","eb","34","50","1","0","0","27"
"","psychophysics","35","327786","0.0-35.0","5dd4189ef30aa640b4e9c094","64b4424ad4e0270a62f8fd51","","","","","8264","key"," "," ","16.69761538461545","500","250","inst","","","","","",""
"","psychophysics","36","331606","0.0-36.0","5dd4189ef30aa640b4e9c094","64b4424ad4e0270a62f8fd51","","","","","3815","key"," "," ","17.07202690582949","500","250","instZol0","0","0","","0","0",""
"","psychophysics","37","372595","0.0-37.0","5dd4189ef30aa640b4e9c094","64b4424ad4e0270a62f8fd51","","","","","40984","key"," "," ","16.697630399347997","500","250","instZol1","2.1000000000000005","-1.3","","0","0",""
"","psychophysics","38","396550","0.0-38.0","5dd4189ef30aa640b4e9c094","64b4424ad4e0270a62f8fd51","","","","","23945","key"," "," ","16.697642707606427","500","250","instZol2","-2.8000000000000007","2","1","0","0",""
"","psychophysics","39","399262","0.0-39.0","5dd4189ef30aa640b4e9c094","64b4424ad4e0270a62f8fd51","","","","","2706","key"," "," ","16.69780246913577","500","250","inst","","","","","",""
"","psychophysics","40","425700","0.0-40.0","5dd4189ef30aa640b4e9c094","64b4424ad4e0270a62f8fd51","","","","","26428","key"," "," ","16.718762025316476","500","250","zol","-0.06","-0.34","1","-13","19",""
"","psychophysics","41","437137","0.0-41.0","5dd4189ef30aa640b4e9c094","64b4424ad4e0270a62f8fd51","","","","","11423","key"," "," ","16.697538011695876","500","250","zol","-1.7400000000000007","-0.16","1","22","9",""
"","psychophysics","42","438204","0.0-42.0","5dd4189ef30aa640b4e9c094","64b4424ad4e0270a62f8fd51","","","","","1051","key"," "," ","16.697936507936987","500","250","zol","0.53","-0.53","1","0","18",""
"","psychophysics","43","439341","0.0-43.0","5dd4189ef30aa640b4e9c094","64b4424ad4e0270a62f8fd51","","","","","1129","key"," "," ","16.69747761194073","500","250","zol","0.6","-0.6","1","-15","23",""
"","psychophysics","44","440272","0.0-44.0","5dd4189ef30aa640b4e9c094","64b4424ad4e0270a62f8fd51","","","","","919","key"," "," ","16.697781818182293","500","250","zol","-0.25","0.25","1","22","-9",""
"","psychophysics","45","441023","0.0-45.0","5dd4189ef30aa640b4e9c094","64b4424ad4e0270a62f8fd51","","","","","741","key"," "," ","16.698454545454958","500","250","zol","0.41","-0.41","1","24","12",""
"","psychophysics","46","441709","0.0-46.0","5dd4189ef30aa640b4e9c094","64b4424ad4e0270a62f8fd51","","","","","678","key"," "," ","16.69697499999893","500","250","zol","0.68","-0.68","1","-18","8",""
"","psychophysics","47","442411","0.0-47.0","5dd4189ef30aa640b4e9c094","64b4424ad4e0270a62f8fd51","","","","","693","key"," "," ","16.698560975609837","500","250","zol","-0.61","0.61","1","-1","-30",""
"","psychophysics","48","443109","0.0-48.0","5dd4189ef30aa640b4e9c094","64b4424ad4e0270a62f8fd51","","","","","689","key"," "," ","16.696634146342305","500","250","zol","0.12","-0.12","1","-9","20",""
