"success","trial_type","trial_index","time_elapsed","internal_node_id","pid","sid","timeout","failed_images","failed_audio","failed_video","rt","response_type","key_press","response","avg_frame_time","center_x","center_y","task","resp","version","jitterX","jitterY","start","parA"
"true","fullscreen","0","9763","0.0-0.0","63dd2985d0d2d04b0acd026f","64b4437f1f7fa68761fe4bcc","","","","","","","","","","","","","","","","","",""
"true","preload","1","9766","0.0-1.0","63dd2985d0d2d04b0acd026f","64b4437f1f7fa68761fe4bcc","false","[]","[]","[]","","","","","","","","","","","","","",""
"","psychophysics","2","17303","0.0-2.0","63dd2985d0d2d04b0acd026f","64b4437f1f7fa68761fe4bcc","","","","","7461","key"," "," ","16.892089686098654","500","250","inst","","","","","",""
"","psychophysics","3","61136","0.0-3.0","63dd2985d0d2d04b0acd026f","64b4437f1f7fa68761fe4bcc","","","","","43830","key"," "," ","16.68050666159117","500","250","sample1","","","","","",""
"","psychophysics","4","84432","0.0-4.0","63dd2985d0d2d04b0acd026f","64b4437f1f7fa68761fe4bcc","","","","","23289","key"," "," ","16.7036893830703","500","250","sample2","98","","","","",""
"","psychophysics","5","100002","0.0-5.0","63dd2985d0d2d04b0acd026f","64b4437f1f7fa68761fe4bcc","","","","","15568","key"," "," ","16.667802786709537","500","250","sample3","102","","","","",""
"","psychophysics","6","116076","0.0-6.0","63dd2985d0d2d04b0acd026f","64b4437f1f7fa68761fe4bcc","","","","","16071","key"," "," ","16.667815160955346","500","250","sample4","100","","","","",""
"","psychophysics","7","126555","0.0-7.0","63dd2985d0d2d04b0acd026f","64b4437f1f7fa68761fe4bcc","","","","","10458","key"," "," ","16.667820063694297","500","250","sample5","","","","","",""
"","psychophysics","8","146806","0.0-8.0","63dd2985d0d2d04b0acd026f","64b4437f1f7fa68761fe4bcc","","","","","20248","key"," "," ","16.66780724876441","500","250","sample7","498","","","","",""
"","psychophysics","9","152774","0.0-9.0","63dd2985d0d2d04b0acd026f","64b4437f1f7fa68761fe4bcc","","","","","5965","key"," "," ","16.667809523809513","500","250","inst","","","","","",""
"","psychophysics","10","159628","0.0-10.0","63dd2985d0d2d04b0acd026f","64b4437f1f7fa68761fe4bcc","","","","","6851","key"," "," ","16.66779756097559","500","250","inst","","","","","",""
"","psychophysics","11","168350","0.0-11.0","63dd2985d0d2d04b0acd026f","64b4437f1f7fa68761fe4bcc","","","","","8719","key"," "," ","16.66779732313576","500","250","inst","","","","","",""
"","psychophysics","12","174783","0.0-12.0","63dd2985d0d2d04b0acd026f","64b4437f1f7fa68761fe4bcc","","","","","6431","key"," "," ","16.66779220779222","500","250","inst","","","","","",""
"","psychophysics","13","178191","0.0-13.0","63dd2985d0d2d04b0acd026f","64b4437f1f7fa68761fe4bcc","","","","","3406","key"," "," ","16.667783251231658","500","250","inst","","","","","",""
"","psychophysics","14","187573","0.0-14.0","63dd2985d0d2d04b0acd026f","64b4437f1f7fa68761fe4bcc","","","","","9379","key"," "," ","16.697547237076687","500","250","instBr0","NaN","","0","0","0","300"
"","psychophysics","15","197163","0.0-15.0","63dd2985d0d2d04b0acd026f","64b4437f1f7fa68761fe4bcc","","","","","9587","key"," "," ","16.66779268292682","500","250","instBr1","NaN","","0","0","-40","300"
"","psychophysics","16","209123","0.0-16.0","63dd2985d0d2d04b0acd026f","64b4437f1f7fa68761fe4bcc","","","","","11955","key"," "," ","16.667820083681995","500","250","instBr","-19","1","0","0","40","300"
"","psychophysics","17","215186","0.0-17.0","63dd2985d0d2d04b0acd026f","64b4437f1f7fa68761fe4bcc","","","","","6061","key"," "," ","16.667831955922892","500","250","inst","","","","","",""
"","psychophysics","18","221953","0.0-18.0","63dd2985d0d2d04b0acd026f","64b4437f1f7fa68761fe4bcc","","","","","6765","key"," "," ","16.667839506172854","500","250","br","-17","1","-15","-12","-49","300"
"","psychophysics","19","229020","0.0-19.0","63dd2985d0d2d04b0acd026f","64b4437f1f7fa68761fe4bcc","","","","","7066","key"," "," ","16.667820330969228","500","250","br","-15","1","9","-1","50","300"
"","psychophysics","20","236620","0.0-20.0","63dd2985d0d2d04b0acd026f","64b4437f1f7fa68761fe4bcc","","","","","7598","key"," "," ","16.66782197802197","500","250","br","-19","1","25","28","-19","300"
"","psychophysics","21","241990","0.0-21.0","63dd2985d0d2d04b0acd026f","64b4437f1f7fa68761fe4bcc","","","","","5368","key"," "," ","16.66782554517135","500","250","br","-22","1","16","-4","22","300"
"","psychophysics","22","247457","0.0-22.0","63dd2985d0d2d04b0acd026f","64b4437f1f7fa68761fe4bcc","","","","","5464","key"," "," ","16.667816513761434","500","250","br","-25","1","-18","-26","9","300"
"","psychophysics","23","250677","0.0-23.0","63dd2985d0d2d04b0acd026f","64b4437f1f7fa68761fe4bcc","","","","","3219","key"," "," ","16.667807291666577","500","250","br","-23","1","-20","-30","-4","300"
"","psychophysics","24","256726","0.0-24.0","63dd2985d0d2d04b0acd026f","64b4437f1f7fa68761fe4bcc","","","","","6039","key"," "," ","16.6678038674033","500","250","br","-26","1","0","30","-23","300"
"","psychophysics","25","259383","0.0-25.0","63dd2985d0d2d04b0acd026f","64b4437f1f7fa68761fe4bcc","","","","","2654","key"," "," ","16.667886075949077","500","250","br","-18","1","16","-18","-6","300"
"","psychophysics","26","264764","0.0-26.0","63dd2985d0d2d04b0acd026f","64b4437f1f7fa68761fe4bcc","","","","","5379","key"," "," ","16.667804347826255","500","250","br","-24","1","-10","-2","25","300"
"","psychophysics","27","269271","0.0-27.0","63dd2985d0d2d04b0acd026f","64b4437f1f7fa68761fe4bcc","","","","","4506","key"," "," ","16.667825925926014","500","250","br","-17","1","-21","26","-48","300"
"","psychophysics","28","272078","0.0-28.0","63dd2985d0d2d04b0acd026f","64b4437f1f7fa68761fe4bcc","","","","","2795","key"," "," ","16.66780838323339","500","250","br","-18","1","-17","30","-15","300"
"","psychophysics","29","275419","0.0-29.0","63dd2985d0d2d04b0acd026f","64b4437f1f7fa68761fe4bcc","","","","","3339","key"," "," ","16.66787437185933","500","250","br","-19","1","17","22","-12","300"
"","psychophysics","30","285884","0.0-30.0","63dd2985d0d2d04b0acd026f","64b4437f1f7fa68761fe4bcc","","","","","10460","key"," "," ","16.667826156299768","500","250","br","-17","1","-29","-26","12","300"
"","psychophysics","31","289288","0.0-31.0","63dd2985d0d2d04b0acd026f","64b4437f1f7fa68761fe4bcc","","","","","3402","key"," "," ","16.667793103448446","500","250","br","-28","1","0","6","-37","300"
"","psychophysics","32","295729","0.0-32.0","63dd2985d0d2d04b0acd026f","64b4437f1f7fa68761fe4bcc","","","","","6437","key"," "," ","16.667821243523264","500","250","br","-21","1","-21","-15","7","300"
"","psychophysics","33","302240","0.0-33.0","63dd2985d0d2d04b0acd026f","64b4437f1f7fa68761fe4bcc","","","","","6509","key"," "," ","16.66779999999995","500","250","inst","","","","","",""
"","psychophysics","34","307407","0.0-34.0","63dd2985d0d2d04b0acd026f","64b4437f1f7fa68761fe4bcc","","","","","5163","key"," "," ","16.66778571428576","500","250","instPz0","50","1","","","50","50"
"","psychophysics","35","317124","0.0-35.0","63dd2985d0d2d04b0acd026f","64b4437f1f7fa68761fe4bcc","","","","","9713","key"," "," ","16.667811320754772","500","250","instPz1","48","1","","","25","50"
"","psychophysics","36","322230","0.0-36.0","63dd2985d0d2d04b0acd026f","64b4437f1f7fa68761fe4bcc","","","","","5103","key"," "," ","16.667836065573777","500","250","instPz2","30","1","","","15","25"
"","psychophysics","37","331018","0.0-37.0","63dd2985d0d2d04b0acd026f","64b4437f1f7fa68761fe4bcc","","","","","8784","key"," "," ","16.667813688212963","500","250","instPz3","53","1","","","25","50"
"","psychophysics","38","335454","0.0-38.0","63dd2985d0d2d04b0acd026f","64b4437f1f7fa68761fe4bcc","","","","","4433","key"," "," ","16.667815094339698","500","250","instPz4","37","1","","","15","30"
"","psychophysics","39","336788","0.0-39.0","63dd2985d0d2d04b0acd026f","64b4437f1f7fa68761fe4bcc","","","","","1332","key"," "," ","16.668025316455388","500","250","inst","","","","","",""
"","psychophysics","40","339912","0.0-40.0","63dd2985d0d2d04b0acd026f","64b4437f1f7fa68761fe4bcc","","","","","3119","key"," "," ","16.667786096256627","500","250","pz","44","1","","","30","47"
"","psychophysics","41","344896","0.0-41.0","63dd2985d0d2d04b0acd026f","64b4437f1f7fa68761fe4bcc","","","","","4981","key"," "," ","16.667791946308654","500","250","pz","59","1","","","23","56"
"","psychophysics","42","361991","0.0-42.0","63dd2985d0d2d04b0acd026f","64b4437f1f7fa68761fe4bcc","","","","","17093","key"," "," ","16.667825195312503","500","250","pz","63","1","","","34","60"
"","psychophysics","43","371304","0.0-43.0","63dd2985d0d2d04b0acd026f","64b4437f1f7fa68761fe4bcc","","","","","9308","key"," "," ","16.667802867383443","500","250","pz","36","1","","","59","33"
"","psychophysics","44","373915","0.0-44.0","63dd2985d0d2d04b0acd026f","64b4437f1f7fa68761fe4bcc","","","","","2607","key"," "," ","16.66785256410255","500","250","pz","55","1","","","55","50"
"","psychophysics","45","377771","0.0-45.0","63dd2985d0d2d04b0acd026f","64b4437f1f7fa68761fe4bcc","","","","","3854","key"," "," ","16.667756521739268","500","250","pz","55","1","","","60","45"
"","psychophysics","46","380242","0.0-46.0","63dd2985d0d2d04b0acd026f","64b4437f1f7fa68761fe4bcc","","","","","2467","key"," "," ","16.667877551020506","500","250","pz","41","1","","","35","38"
"","psychophysics","47","385154","0.0-47.0","63dd2985d0d2d04b0acd026f","64b4437f1f7fa68761fe4bcc","","","","","4906","key"," "," ","16.66785034013605","500","250","pz","25","1","","","33","22"
"","psychophysics","48","398498","0.0-48.0","63dd2985d0d2d04b0acd026f","64b4437f1f7fa68761fe4bcc","","","","","13342","key"," "," ","16.6678125","500","250","pz","44","1","","","52","39"
"","psychophysics","49","402915","0.0-49.0","63dd2985d0d2d04b0acd026f","64b4437f1f7fa68761fe4bcc","","","","","4415","key"," "," ","16.667814393939228","500","250","pz","46","1","","","47","41"
"","psychophysics","50","406573","0.0-50.0","63dd2985d0d2d04b0acd026f","64b4437f1f7fa68761fe4bcc","","","","","3655","key"," "," ","16.667766055046023","500","250","pz","59","1","","","46","59"
"","psychophysics","51","410089","0.0-51.0","63dd2985d0d2d04b0acd026f","64b4437f1f7fa68761fe4bcc","","","","","3514","key"," "," ","16.667752380952393","500","250","pz","57","1","","","40","48"
"","psychophysics","52","413678","0.0-52.0","63dd2985d0d2d04b0acd026f","64b4437f1f7fa68761fe4bcc","","","","","3586","key"," "," ","16.667822429906767","500","250","pz","51","1","","","28","50"
"","psychophysics","53","417268","0.0-53.0","63dd2985d0d2d04b0acd026f","64b4437f1f7fa68761fe4bcc","","","","","3585","key"," "," ","16.667790697674473","500","250","pz","34","1","","","34","32"
"","psychophysics","54","424257","0.0-54.0","63dd2985d0d2d04b0acd026f","64b4437f1f7fa68761fe4bcc","","","","","6987","key"," "," ","16.66784688995209","500","250","pz","61","1","","","51","58"
"","psychophysics","55","425839","0.0-55.0","63dd2985d0d2d04b0acd026f","64b4437f1f7fa68761fe4bcc","","","","","1579","key"," "," ","16.667787234042525","500","250","inst","","","","","",""
"","psychophysics","56","429117","0.0-56.0","63dd2985d0d2d04b0acd026f","64b4437f1f7fa68761fe4bcc","","","","","3276","key"," "," ","16.66784693877544","500","250","instZol0","0","","0","0","0",""
"","psychophysics","57","441600","0.0-57.0","63dd2985d0d2d04b0acd026f","64b4437f1f7fa68761fe4bcc","","","","","12451","key"," "," ","16.667809906291822","500","250","instZol1","0.19999999999999982","","0","0","-1.3",""
"","psychophysics","58","492688","0.0-58.0","63dd2985d0d2d04b0acd026f","64b4437f1f7fa68761fe4bcc","","","","","51078","key"," "," ","16.667814029363775","500","250","instZol2","1.400000000000001","1","0","0","2",""
"","psychophysics","59","494150","0.0-59.0","63dd2985d0d2d04b0acd026f","64b4437f1f7fa68761fe4bcc","","","","","1460","key"," "," ","16.667872093023657","500","250","inst","","","","","",""
"","psychophysics","60","503305","0.0-60.0","63dd2985d0d2d04b0acd026f","64b4437f1f7fa68761fe4bcc","","","","","9142","key"," "," ","16.667794171220304","500","250","zol","0.92","1","0","-7","-0.22",""
"","psychophysics","61","509825","0.0-61.0","63dd2985d0d2d04b0acd026f","64b4437f1f7fa68761fe4bcc","","","","","6517","key"," "," ","16.66783589743591","500","250","zol","1.28","1","17","1","0.32",""
"","psychophysics","62","517578","0.0-62.0","63dd2985d0d2d04b0acd026f","64b4437f1f7fa68761fe4bcc","","","","","7749","key"," "," ","16.66780387931029","500","250","zol","1.3500000000000003","1","14","12","-0.75",""
"","psychophysics","63","531753","0.0-63.0","63dd2985d0d2d04b0acd026f","64b4437f1f7fa68761fe4bcc","","","","","14172","key"," "," ","16.667823321554724","500","250","zol","1.3","1","27","4","0.4",""
"","psychophysics","64","539177","0.0-64.0","63dd2985d0d2d04b0acd026f","64b4437f1f7fa68761fe4bcc","","","","","7418","key"," "," ","16.667844943820207","500","250","zol","1.3200000000000003","1","12","9","-0.32",""
"","psychophysics","65","543108","0.0-65.0","63dd2985d0d2d04b0acd026f","64b4437f1f7fa68761fe4bcc","","","","","3928","key"," "," ","16.667791489361626","500","250","zol","1.26","1","-14","-13","0.04",""
"","psychophysics","66","546550","0.0-66.0","63dd2985d0d2d04b0acd026f","64b4437f1f7fa68761fe4bcc","","","","","3440","key"," "," ","16.667853658536178","500","250","zol","1.4300000000000004","1","18","-5","0.07",""
"","psychophysics","67","550052","0.0-67.0","63dd2985d0d2d04b0acd026f","64b4437f1f7fa68761fe4bcc","","","","","3498","key"," "," ","16.667813397129066","500","250","zol","1.7400000000000007","1","28","21","-0.64",""
"","psychophysics","68","553354","0.0-68.0","63dd2985d0d2d04b0acd026f","64b4437f1f7fa68761fe4bcc","","","","","3299","key"," "," ","16.66781725888294","500","250","zol","1.7000000000000004","1","-30","16","-0.5",""
"","psychophysics","69","556828","0.0-69.0","63dd2985d0d2d04b0acd026f","64b4437f1f7fa68761fe4bcc","","","","","3470","key"," "," ","16.667735576922915","500","250","zol","1.7600000000000005","1","11","-3","-0.26",""
"","psychophysics","70","559472","0.0-70.0","63dd2985d0d2d04b0acd026f","64b4437f1f7fa68761fe4bcc","","","","","2640","key"," "," ","16.66779617834421","500","250","zol","1.35","1","-19","17","-0.25",""
"","psychophysics","71","566693","0.0-71.0","63dd2985d0d2d04b0acd026f","64b4437f1f7fa68761fe4bcc","","","","","7215","key"," "," ","16.667826789838323","500","250","zol","1.0499999999999998","1","-3","-14","-0.15",""
"","psychophysics","72","576861","0.0-72.0","63dd2985d0d2d04b0acd026f","64b4437f1f7fa68761fe4bcc","","","","","10165","key"," "," ","16.667811165845528","500","250","zol","0.7499999999999999","1","-30","2","0.65",""
"","psychophysics","73","583814","0.0-73.0","63dd2985d0d2d04b0acd026f","64b4437f1f7fa68761fe4bcc","","","","","6950","key"," "," ","16.667810096153865","500","250","zol","0.81","1","8","1","-0.21",""
"","psychophysics","74","588505","0.0-74.0","63dd2985d0d2d04b0acd026f","64b4437f1f7fa68761fe4bcc","","","","","4688","key"," "," ","16.667792857142715","500","250","zol","0.87","1","29","11","0.43",""
"","psychophysics","75","590510","0.0-75.0","63dd2985d0d2d04b0acd026f","64b4437f1f7fa68761fe4bcc","","","","","2003","key"," "," ","16.667883333333883","500","250","inst","","","","","",""
"","psychophysics","76","605866","0.0-76.0","63dd2985d0d2d04b0acd026f","64b4437f1f7fa68761fe4bcc","","","","","15352","key"," "," ","16.667802173912946","500","250","instPog0","160","1","0","0","190","160"
"","psychophysics","77","624893","0.0-77.0","63dd2985d0d2d04b0acd026f","64b4437f1f7fa68761fe4bcc","","","","","19024","key"," "," ","16.667824561403567","500","250","instPog1","162","1","0","0","190","160"
"","psychophysics","78","635497","0.0-78.0","63dd2985d0d2d04b0acd026f","64b4437f1f7fa68761fe4bcc","","","","","10600","key"," "," ","16.667819182389767","500","250","instPog2","167","1","0","0","190","160"
"","psychophysics","79","639480","0.0-79.0","63dd2985d0d2d04b0acd026f","64b4437f1f7fa68761fe4bcc","","","","","3981","key"," "," ","16.667773109243914","500","250","inst","","","","","",""
"","psychophysics","80","649970","0.0-80.0","63dd2985d0d2d04b0acd026f","64b4437f1f7fa68761fe4bcc","","","","","10488","key"," "," ","16.66783121019097","500","250","pog","194","1","0","0","118","176"
"","psychophysics","81","655532","0.0-81.0","63dd2985d0d2d04b0acd026f","64b4437f1f7fa68761fe4bcc","","","","","5561","key"," "," ","16.667813813813762","500","250","pog","166","1","0","0","173","147"
"","psychophysics","82","663850","0.0-82.0","63dd2985d0d2d04b0acd026f","64b4437f1f7fa68761fe4bcc","","","","","8315","key"," "," ","16.667783132530086","500","250","pog","198","1","0","0","108","172"
"","psychophysics","83","681279","0.0-83.0","63dd2985d0d2d04b0acd026f","64b4437f1f7fa68761fe4bcc","","","","","17427","key"," "," ","16.66780938697315","500","250","pog","193","1","0","0","225","173"
"","psychophysics","84","694649","0.0-84.0","63dd2985d0d2d04b0acd026f","64b4437f1f7fa68761fe4bcc","","","","","13366","key"," "," ","16.66782646691636","500","250","pog","202","1","0","0","85","182"
"","psychophysics","85","702996","0.0-85.0","63dd2985d0d2d04b0acd026f","64b4437f1f7fa68761fe4bcc","","","","","8342","key"," "," ","16.667804000000004","500","250","pog","196","1","0","0","217","170"
"","psychophysics","86","712860","0.0-86.0","63dd2985d0d2d04b0acd026f","64b4437f1f7fa68761fe4bcc","","","","","9863","key"," "," ","16.667820642978054","500","250","pog","220","1","0","0","108","197"
"","psychophysics","87","722229","0.0-87.0","63dd2985d0d2d04b0acd026f","64b4437f1f7fa68761fe4bcc","","","","","9367","key"," "," ","16.66781996434937","500","250","pog","213","1","0","0","132","187"
"","psychophysics","88","734719","0.0-88.0","63dd2985d0d2d04b0acd026f","64b4437f1f7fa68761fe4bcc","","","","","12488","key"," "," ","16.667802403204128","500","250","pog","203","1","0","0","80","185"
"","psychophysics","89","738488","0.0-89.0","63dd2985d0d2d04b0acd026f","64b4437f1f7fa68761fe4bcc","","","","","3767","key"," "," ","16.667844444444505","500","250","pog","215","1","0","0","198","195"
"","psychophysics","90","743264","0.0-90.0","63dd2985d0d2d04b0acd026f","64b4437f1f7fa68761fe4bcc","","","","","4764","key"," "," ","16.667828070175457","500","250","pog","191","1","0","0","143","172"
"","psychophysics","91","755604","0.0-91.0","63dd2985d0d2d04b0acd026f","64b4437f1f7fa68761fe4bcc","","","","","12339","key"," "," ","16.66782002706356","500","250","pog","178","1","0","0","105","159"
"","psychophysics","92","764253","0.0-92.0","63dd2985d0d2d04b0acd026f","64b4437f1f7fa68761fe4bcc","","","","","8643","key"," "," ","16.66782625482627","500","250","pog","174","1","0","0","195","153"
"","psychophysics","93","771166","0.0-93.0","63dd2985d0d2d04b0acd026f","64b4437f1f7fa68761fe4bcc","","","","","6909","key"," "," ","16.667806763285185","500","250","pog","189","1","0","0","220","164"
"","psychophysics","94","784382","0.0-94.0","63dd2985d0d2d04b0acd026f","64b4437f1f7fa68761fe4bcc","","","","","13214","key"," "," ","16.66782702020201","500","250","pog","203","1","0","0","95","185"
"","psychophysics","95","788920","0.0-95.0","63dd2985d0d2d04b0acd026f","64b4437f1f7fa68761fe4bcc","","","","","4536","key"," "," ","16.66775645756436","500","250","inst","","","","","",""
"","psychophysics","96","792622","0.0-96.0","63dd2985d0d2d04b0acd026f","64b4437f1f7fa68761fe4bcc","","","","","3681","key"," "," ","16.667859728506563","500","250","instEB0","40","","0","0","40","40"
"","psychophysics","97","807926","0.0-97.0","63dd2985d0d2d04b0acd026f","64b4437f1f7fa68761fe4bcc","","","","","15298","key"," "," ","16.667811546840934","500","250","instEB1","71","2","0","0","30","70"
"","psychophysics","98","831341","0.0-98.0","63dd2985d0d2d04b0acd026f","64b4437f1f7fa68761fe4bcc","","","","","23406","key"," "," ","16.667811831789066","500","250","instEB2","40","2","0","0","60","40"
"","psychophysics","99","871156","0.0-99.0","63dd2985d0d2d04b0acd026f","64b4437f1f7fa68761fe4bcc","","","","","39805","key"," "," ","16.667814070351756","500","250","instEB3","66","2","0","0","45","65"
"","psychophysics","100","882128","0.0-100.0","63dd2985d0d2d04b0acd026f","64b4437f1f7fa68761fe4bcc","","","","","10967","key"," "," ","16.667803652967997","500","250","instEB4","41","2","0","0","40","40"
"","psychophysics","101","883590","0.0-101.0","63dd2985d0d2d04b0acd026f","64b4437f1f7fa68761fe4bcc","","","","","1458","key"," "," ","16.667862068966095","500","250","inst","","","","","",""
"","psychophysics","102","893034","0.0-102.0","63dd2985d0d2d04b0acd026f","64b4437f1f7fa68761fe4bcc","","","","","9442","key"," "," ","16.667826855123657","500","250","eb","29","2","0","0","28","26"
"","psychophysics","103","914646","0.0-103.0","63dd2985d0d2d04b0acd026f","64b4437f1f7fa68761fe4bcc","","","","","21609","key"," "," ","16.667820849420924","500","250","eb","31","2","0","0","46","29"
"","psychophysics","104","918129","0.0-104.0","63dd2985d0d2d04b0acd026f","64b4437f1f7fa68761fe4bcc","","","","","3475","key"," "," ","16.66773076923038","500","250","eb","32","2","0","0","30","31"
"","psychophysics","105","950733","0.0-105.0","63dd2985d0d2d04b0acd026f","64b4437f1f7fa68761fe4bcc","","","","","32598","key"," "," ","16.67635107471851","500","250","eb","42","2","0","0","27","47"
"","psychophysics","106","964817","0.0-106.0","63dd2985d0d2d04b0acd026f","64b4437f1f7fa68761fe4bcc","","","","","14076","key"," "," ","16.667811611374443","500","250","eb","29","2","0","0","44","26"
"","psychophysics","107","989090","0.0-107.0","63dd2985d0d2d04b0acd026f","64b4437f1f7fa68761fe4bcc","","","","","24267","key"," "," ","16.667820054945068","500","250","eb","27","2","0","0","51","25"
"","psychophysics","108","995630","0.0-108.0","63dd2985d0d2d04b0acd026f","64b4437f1f7fa68761fe4bcc","","","","","6537","key"," "," ","16.66785677749356","500","250","eb","25","2","0","0","29","24"
"","psychophysics","109","1007273","0.0-109.0","63dd2985d0d2d04b0acd026f","64b4437f1f7fa68761fe4bcc","","","","","11641","key"," "," ","16.667812320916948","500","250","eb","37","2","0","0","39","36"
"","psychophysics","110","1034431","0.0-110.0","63dd2985d0d2d04b0acd026f","64b4437f1f7fa68761fe4bcc","","","","","27155","key"," "," ","16.66780896805895","500","250","eb","50","2","0","0","41","52"
"","psychophysics","111","1048006","0.0-111.0","63dd2985d0d2d04b0acd026f","64b4437f1f7fa68761fe4bcc","","","","","13570","key"," "," ","16.667804428044196","500","250","eb","31","2","0","0","40","28"
"","psychophysics","112","1056150","0.0-112.0","63dd2985d0d2d04b0acd026f","64b4437f1f7fa68761fe4bcc","","","","","8138","key"," "," ","16.667825819672082","500","250","eb","38","2","0","0","54","39"
"","psychophysics","113","1062611","0.0-113.0","63dd2985d0d2d04b0acd026f","64b4437f1f7fa68761fe4bcc","","","","","6459","key"," "," ","16.66782428940532","500","250","eb","42","2","0","0","44","44"
"","psychophysics","114","1066586","0.0-114.0","63dd2985d0d2d04b0acd026f","64b4437f1f7fa68761fe4bcc","","","","","3971","key"," "," ","16.667780590717157","500","250","eb","42","2","0","0","44","41"
"","psychophysics","115","1070551","0.0-115.0","63dd2985d0d2d04b0acd026f","64b4437f1f7fa68761fe4bcc","","","","","3963","key"," "," ","16.66786497890289","500","250","eb","42","2","0","0","35","38"
"","psychophysics","116","1078146","0.0-116.0","63dd2985d0d2d04b0acd026f","64b4437f1f7fa68761fe4bcc","","","","","7593","key"," "," ","16.66780219780189","500","250","eb","46","2","0","0","53","46"
"","psychophysics","117","1081508","0.0-117.0","63dd2985d0d2d04b0acd026f","64b4437f1f7fa68761fe4bcc","","","","","3359","key"," "," ","16.66782499999972","500","250","inst","","","","","",""
"","psychophysics","118","1091031","0.0-118.0","63dd2985d0d2d04b0acd026f","64b4437f1f7fa68761fe4bcc","","","","","9515","key"," "," ","16.66779509632222","500","250","instEB4","45","1","0","0","40","40"
"","psychophysics","119","1092572","0.0-119.0","63dd2985d0d2d04b0acd026f","64b4437f1f7fa68761fe4bcc","","","","","1539","key"," "," ","16.667912087912395","500","250","inst","","","","","",""
"","psychophysics","120","1109461","0.0-120.0","63dd2985d0d2d04b0acd026f","64b4437f1f7fa68761fe4bcc","","","","","16886","key"," "," ","16.667811264822088","500","250","eb","54","1","0","0","48","54"
"","psychophysics","121","1119623","0.0-121.0","63dd2985d0d2d04b0acd026f","64b4437f1f7fa68761fe4bcc","","","","","10156","key"," "," ","16.667821018062362","500","250","eb","37","1","0","0","54","32"
"","psychophysics","122","1127333","0.0-122.0","63dd2985d0d2d04b0acd026f","64b4437f1f7fa68761fe4bcc","","","","","7708","key"," "," ","16.667783549783177","500","250","eb","31","1","0","0","35","29"
"","psychophysics","123","1132099","0.0-123.0","63dd2985d0d2d04b0acd026f","64b4437f1f7fa68761fe4bcc","","","","","4763","key"," "," ","16.667778947368557","500","250","eb","36","1","0","0","35","35"
"","psychophysics","124","1144071","0.0-124.0","63dd2985d0d2d04b0acd026f","64b4437f1f7fa68761fe4bcc","","","","","11969","key"," "," ","16.66782984658303","500","250","eb","48","1","0","0","54","45"
"","psychophysics","125","1151717","0.0-125.0","63dd2985d0d2d04b0acd026f","64b4437f1f7fa68761fe4bcc","","","","","7644","key"," "," ","16.66781222707425","500","250","eb","33","1","0","0","37","29"
"","psychophysics","126","1168457","0.0-126.0","63dd2985d0d2d04b0acd026f","64b4437f1f7fa68761fe4bcc","","","","","16737","key"," "," ","16.667805583250143","500","250","eb","37","1","0","0","31","33"
"","psychophysics","127","1175112","0.0-127.0","63dd2985d0d2d04b0acd026f","64b4437f1f7fa68761fe4bcc","","","","","6652","key"," "," ","16.667798994974838","500","250","eb","40","1","0","0","34","36"
"","psychophysics","128","1177944","0.0-128.0","63dd2985d0d2d04b0acd026f","64b4437f1f7fa68761fe4bcc","","","","","2830","key"," "," ","16.667810650888182","500","250","eb","38","1","0","0","44","34"
"","psychophysics","129","1181065","0.0-129.0","63dd2985d0d2d04b0acd026f","64b4437f1f7fa68761fe4bcc","","","","","3118","key"," "," ","16.667768817204703","500","250","eb","31","1","0","0","34","27"
"","psychophysics","130","1185793","0.0-130.0","63dd2985d0d2d04b0acd026f","64b4437f1f7fa68761fe4bcc","","","","","4722","key"," "," ","16.66782685512407","500","250","eb","49","1","0","0","53","46"
"","psychophysics","131","1191822","0.0-131.0","63dd2985d0d2d04b0acd026f","64b4437f1f7fa68761fe4bcc","","","","","6025","key"," "," ","16.667822714681527","500","250","eb","38","1","0","0","24","35"
"","psychophysics","132","1199380","0.0-132.0","63dd2985d0d2d04b0acd026f","64b4437f1f7fa68761fe4bcc","","","","","7555","key"," "," ","16.667820796460134","500","250","eb","43","1","0","0","28","40"
"","psychophysics","133","1216305","0.0-133.0","63dd2985d0d2d04b0acd026f","64b4437f1f7fa68761fe4bcc","","","","","16922","key"," "," ","16.667813793103452","500","250","eb","56","1","0","0","35","50"
"","psychophysics","134","1223876","0.0-134.0","63dd2985d0d2d04b0acd026f","64b4437f1f7fa68761fe4bcc","","","","","7568","key"," "," ","16.667845474613653","500","250","eb","44","1","0","0","48","42"
"","psychophysics","135","1226879","0.0-135.0","63dd2985d0d2d04b0acd026f","64b4437f1f7fa68761fe4bcc","","","","","3000","key"," "," ","16.6678100558669","500","250","inst","","","","","",""
"","psychophysics","136","1237725","0.0-136.0","63dd2985d0d2d04b0acd026f","64b4437f1f7fa68761fe4bcc","","","","","10843","key"," "," ","16.667804615384757","500","250","instBr","29","2","0","0","40","300"
"","psychophysics","137","1239369","0.0-137.0","63dd2985d0d2d04b0acd026f","64b4437f1f7fa68761fe4bcc","","","","","1643","key"," "," ","16.6677628865984","500","250","inst","","","","","",""
"","psychophysics","138","1251337","0.0-138.0","63dd2985d0d2d04b0acd026f","64b4437f1f7fa68761fe4bcc","","","","","11961","key"," "," ","16.667810320781122","500","250","br","27","2","-4","-9","29","300"
"","psychophysics","139","1254607","0.0-139.0","63dd2985d0d2d04b0acd026f","64b4437f1f7fa68761fe4bcc","","","","","3266","key"," "," ","16.66784693877574","500","250","br","30","2","-13","9","0","300"
"","psychophysics","140","1259090","0.0-140.0","63dd2985d0d2d04b0acd026f","64b4437f1f7fa68761fe4bcc","","","","","4481","key"," "," ","16.66779104477566","500","250","br","30","2","-25","22","-8","300"
"","psychophysics","141","1267331","0.0-141.0","63dd2985d0d2d04b0acd026f","64b4437f1f7fa68761fe4bcc","","","","","8239","key"," "," ","16.667803245436016","500","250","br","28","2","-13","21","-8","300"
"","psychophysics","142","1270603","0.0-142.0","63dd2985d0d2d04b0acd026f","64b4437f1f7fa68761fe4bcc","","","","","3270","key"," "," ","16.667841025641284","500","250","br","27","2","-3","18","-5","300"
"","psychophysics","143","1278513","0.0-143.0","63dd2985d0d2d04b0acd026f","64b4437f1f7fa68761fe4bcc","","","","","7905","key"," "," ","16.667835443037983","500","250","br","27","2","-5","6","42","300"
"","psychophysics","144","1282466","0.0-144.0","63dd2985d0d2d04b0acd026f","64b4437f1f7fa68761fe4bcc","","","","","3951","key"," "," ","16.66780508474656","500","250","br","26","2","12","0","28","300"
"","psychophysics","145","1288663","0.0-145.0","63dd2985d0d2d04b0acd026f","64b4437f1f7fa68761fe4bcc","","","","","6195","key"," "," ","16.667787061994794","500","250","br","29","2","3","-6","37","300"
"","psychophysics","146","1294591","0.0-146.0","63dd2985d0d2d04b0acd026f","64b4437f1f7fa68761fe4bcc","","","","","5923","key"," "," ","16.667827683616046","500","250","br","28","2","23","-14","38","300"
"","psychophysics","147","1299997","0.0-147.0","63dd2985d0d2d04b0acd026f","64b4437f1f7fa68761fe4bcc","","","","","5402","key"," "," ","16.667808641975654","500","250","br","25","2","23","23","-27","300"
"","psychophysics","148","1304813","0.0-148.0","63dd2985d0d2d04b0acd026f","64b4437f1f7fa68761fe4bcc","","","","","4815","key"," "," ","16.667815972222243","500","250","br","32","2","-2","-18","27","300"
"","psychophysics","149","1308822","0.0-149.0","63dd2985d0d2d04b0acd026f","64b4437f1f7fa68761fe4bcc","","","","","4007","key"," "," ","16.66784100418435","500","250","br","28","2","16","-25","15","300"
"","psychophysics","150","1313062","0.0-150.0","63dd2985d0d2d04b0acd026f","64b4437f1f7fa68761fe4bcc","","","","","4238","key"," "," ","16.667842519684974","500","250","br","35","2","-20","-9","40","300"
"","psychophysics","151","1318531","0.0-151.0","63dd2985d0d2d04b0acd026f","64b4437f1f7fa68761fe4bcc","","","","","5467","key"," "," ","16.66781345565749","500","250","br","26","2","-27","24","17","300"
"","psychophysics","152","1320380","0.0-152.0","63dd2985d0d2d04b0acd026f","64b4437f1f7fa68761fe4bcc","","","","","1847","key"," "," ","16.667900000000373","500","250","br","27","2","-29","30","-3","300"
"","psychophysics","153","1321935","0.0-153.0","63dd2985d0d2d04b0acd026f","64b4437f1f7fa68761fe4bcc","","","","","1553","key"," "," ","16.667804347826976","500","250","inst","","","","","",""
"","psychophysics","154","1332886","0.0-154.0","63dd2985d0d2d04b0acd026f","64b4437f1f7fa68761fe4bcc","","","","","10938","key"," "," ","16.693261068702483","500","250","instPz4","28","2","","","15","30"
"","psychophysics","155","1334063","0.0-155.0","63dd2985d0d2d04b0acd026f","64b4437f1f7fa68761fe4bcc","","","","","1176","key"," "," ","16.667814285713913","500","250","inst","","","","","",""
"","psychophysics","156","1339182","0.0-156.0","63dd2985d0d2d04b0acd026f","64b4437f1f7fa68761fe4bcc","","","","","5117","key"," "," ","16.667810457516644","500","250","pz","43","2","","","26","45"
"","psychophysics","157","1342266","0.0-157.0","63dd2985d0d2d04b0acd026f","64b4437f1f7fa68761fe4bcc","","","","","3082","key"," "," ","16.66782608695718","500","250","pz","38","2","","","22","40"
"","psychophysics","158","1348605","0.0-158.0","63dd2985d0d2d04b0acd026f","64b4437f1f7fa68761fe4bcc","","","","","6336","key"," "," ","16.667828496041803","500","250","pz","61","2","","","24","59"
"","psychophysics","159","1354626","0.0-159.0","63dd2985d0d2d04b0acd026f","64b4437f1f7fa68761fe4bcc","","","","","6018","key"," "," ","16.667808333333557","500","250","pz","26","2","","","47","27"
"","psychophysics","160","1362366","0.0-160.0","63dd2985d0d2d04b0acd026f","64b4437f1f7fa68761fe4bcc","","","","","7736","key"," "," ","16.667821120689542","500","250","pz","21","2","","","52","20"
"","psychophysics","161","1366020","0.0-161.0","63dd2985d0d2d04b0acd026f","64b4437f1f7fa68761fe4bcc","","","","","3651","key"," "," ","16.667816513761615","500","250","pz","24","2","","","30","28"
"","psychophysics","162","1369840","0.0-162.0","63dd2985d0d2d04b0acd026f","64b4437f1f7fa68761fe4bcc","","","","","3810","key"," "," ","16.66779824561468","500","250","pz","22","2","","","32","25"
"","psychophysics","163","1373967","0.0-163.0","63dd2985d0d2d04b0acd026f","64b4437f1f7fa68761fe4bcc","","","","","4124","key"," "," ","16.667813765181997","500","250","pz","54","2","","","48","59"
"","psychophysics","164","1377276","0.0-164.0","63dd2985d0d2d04b0acd026f","64b4437f1f7fa68761fe4bcc","","","","","3307","key"," "," ","16.6677563451786","500","250","pz","42","2","","","48","46"
"","psychophysics","165","1379411","0.0-165.0","63dd2985d0d2d04b0acd026f","64b4437f1f7fa68761fe4bcc","","","","","2133","key"," "," ","16.667850393701094","500","250","pz","41","2","","","40","45"
"","psychophysics","166","1384664","0.0-166.0","63dd2985d0d2d04b0acd026f","64b4437f1f7fa68761fe4bcc","","","","","5248","key"," "," ","16.667792993631053","500","250","pz","27","2","","","41","31"
"","psychophysics","167","1388727","0.0-167.0","63dd2985d0d2d04b0acd026f","64b4437f1f7fa68761fe4bcc","","","","","4058","key"," "," ","16.667740740740495","500","250","pz","38","2","","","55","40"
"","psychophysics","168","1394118","0.0-168.0","63dd2985d0d2d04b0acd026f","64b4437f1f7fa68761fe4bcc","","","","","5388","key"," "," ","16.667792569659216","500","250","pz","31","2","","","42","30"
"","psychophysics","169","1398626","0.0-169.0","63dd2985d0d2d04b0acd026f","64b4437f1f7fa68761fe4bcc","","","","","4506","key"," "," ","16.6678066914503","500","250","pz","29","2","","","47","33"
"","psychophysics","170","1403974","0.0-170.0","63dd2985d0d2d04b0acd026f","64b4437f1f7fa68761fe4bcc","","","","","5341","key"," "," ","16.667834374999803","500","250","pz","34","2","","","49","35"
"","psychophysics","171","1405163","0.0-171.0","63dd2985d0d2d04b0acd026f","64b4437f1f7fa68761fe4bcc","","","","","1187","key"," "," ","16.667914285713675","500","250","inst","","","","","",""
"","psychophysics","172","1414952","0.0-172.0","63dd2985d0d2d04b0acd026f","64b4437f1f7fa68761fe4bcc","","","","","9782","key"," "," ","16.667819420783662","500","250","instZol2","-2.2","2","0","0","2",""
"","psychophysics","173","1416468","0.0-173.0","63dd2985d0d2d04b0acd026f","64b4437f1f7fa68761fe4bcc","","","","","1514","key"," "," ","16.66796666666503","500","250","inst","","","","","",""
"","psychophysics","174","1443885","0.0-174.0","63dd2985d0d2d04b0acd026f","64b4437f1f7fa68761fe4bcc","","","","","27414","key"," "," ","16.66780584297008","500","250","zol","-1.5500000000000005","2","10","25","0.45",""
"","psychophysics","175","1457846","0.0-175.0","63dd2985d0d2d04b0acd026f","64b4437f1f7fa68761fe4bcc","","","","","13955","key"," "," ","16.667817204301063","500","250","zol","-0.7400000000000001","2","23","15","-0.06",""
"","psychophysics","176","1461856","0.0-176.0","63dd2985d0d2d04b0acd026f","64b4437f1f7fa68761fe4bcc","","","","","4007","key"," "," ","16.667866666666427","500","250","zol","-1.17","2","-22","0","0.17",""
"","psychophysics","177","1476914","0.0-177.0","63dd2985d0d2d04b0acd026f","64b4437f1f7fa68761fe4bcc","","","","","15055","key"," "," ","16.66780709534364","500","250","zol","-1.12","2","-28","21","-0.48",""
"","psychophysics","178","1496197","0.0-178.0","63dd2985d0d2d04b0acd026f","64b4437f1f7fa68761fe4bcc","","","","","19279","key"," "," ","16.66781487889269","500","250","zol","-1.24","2","12","13","-0.46",""
"","psychophysics","179","1506280","0.0-179.0","63dd2985d0d2d04b0acd026f","64b4437f1f7fa68761fe4bcc","","","","","10080","key"," "," ","16.667809602649132","500","250","zol","-1.4200000000000002","2","-2","-3","-0.68",""
"","psychophysics","180","1514639","0.0-180.0","63dd2985d0d2d04b0acd026f","64b4437f1f7fa68761fe4bcc","","","","","8355","key"," "," ","16.66781199999992","500","250","zol","-1.4300000000000002","2","9","1","0.43",""
"","psychophysics","181","1522047","0.0-181.0","63dd2985d0d2d04b0acd026f","64b4437f1f7fa68761fe4bcc","","","","","7401","key"," "," ","16.667819819820053","500","250","zol","-1.2999999999999998","2","12","1","0.3",""
"","psychophysics","182","1534154","0.0-182.0","63dd2985d0d2d04b0acd026f","64b4437f1f7fa68761fe4bcc","","","","","12104","key"," "," ","16.66780965517243","500","250","zol","-1.15","2","4","12","-0.65",""
"","psychophysics","183","1539533","0.0-183.0","63dd2985d0d2d04b0acd026f","64b4437f1f7fa68761fe4bcc","","","","","5373","key"," "," ","16.66780434782553","500","250","zol","-1.17","2","-2","11","-0.73",""
"","psychophysics","184","1544640","0.0-184.0","63dd2985d0d2d04b0acd026f","64b4437f1f7fa68761fe4bcc","","","","","5103","key"," "," ","16.667829508196228","500","250","zol","-1.6800000000000004","2","-11","-30","0.18",""
"","psychophysics","185","1556232","0.0-185.0","63dd2985d0d2d04b0acd026f","64b4437f1f7fa68761fe4bcc","","","","","11586","key"," "," ","16.667837410072107","500","250","zol","-0.3300000000000002","2","-15","4","0.53",""
"","psychophysics","186","1561259","0.0-186.0","63dd2985d0d2d04b0acd026f","64b4437f1f7fa68761fe4bcc","","","","","5009","key"," "," ","16.66781333333347","500","250","zol","-0.47","2","10","-22","0.07",""
"","psychophysics","187","1565086","0.0-187.0","63dd2985d0d2d04b0acd026f","64b4437f1f7fa68761fe4bcc","","","","","3820","key"," "," ","16.667781659388737","500","250","zol","-1.4700000000000002","2","-27","-27","0.47",""
"","psychophysics","188","1570807","0.0-188.0","63dd2985d0d2d04b0acd026f","64b4437f1f7fa68761fe4bcc","","","","","5718","key"," "," ","16.667830409356856","500","250","zol","-0.27","2","-28","-10","-0.63",""
"","psychophysics","189","1571931","0.0-189.0","63dd2985d0d2d04b0acd026f","64b4437f1f7fa68761fe4bcc","","","","","1118","key"," "," ","16.667955223880988","500","250","inst","","","","","",""
"","psychophysics","190","1583100","0.0-190.0","63dd2985d0d2d04b0acd026f","64b4437f1f7fa68761fe4bcc","","","","","11167","key"," "," ","16.667808669656154","500","250","instPog0","366.5","2","0","0","349.5","319.5"
"","psychophysics","191","1594686","0.0-191.0","63dd2985d0d2d04b0acd026f","64b4437f1f7fa68761fe4bcc","","","","","11585","key"," "," ","16.66781123919293","500","250","instPog1","413.5","2","0","0","349.5","319.5"
"","psychophysics","192","1599284","0.0-192.0","63dd2985d0d2d04b0acd026f","64b4437f1f7fa68761fe4bcc","","","","","4595","key"," "," ","16.66779999999922","500","250","instPog2","365.5","2","0","0","349.5","319.5"
"","psychophysics","193","1600670","0.0-193.0","63dd2985d0d2d04b0acd026f","64b4437f1f7fa68761fe4bcc","","","","","1384","key"," "," ","16.668000000000863","500","250","inst","","","","","",""
"","psychophysics","194","1605754","0.0-194.0","63dd2985d0d2d04b0acd026f","64b4437f1f7fa68761fe4bcc","","","","","5081","key"," "," ","16.66779605263161","500","250","pog","364.5","2","0","0","316.5","319.5"
"","psychophysics","195","1614058","0.0-195.0","63dd2985d0d2d04b0acd026f","64b4437f1f7fa68761fe4bcc","","","","","8302","key"," "," ","16.667820925553098","500","250","pog","347.5","2","0","0","366.5","289.5"
"","psychophysics","196","1624370","0.0-196.0","63dd2985d0d2d04b0acd026f","64b4437f1f7fa68761fe4bcc","","","","","10310","key"," "," ","16.667796116504626","500","250","pog","393.5","2","0","0","277.5","348.5"
"","psychophysics","197","1631889","0.0-197.0","63dd2985d0d2d04b0acd026f","64b4437f1f7fa68761fe4bcc","","","","","7517","key"," "," ","16.667806666666745","500","250","pog","347.5","2","0","0","322.5","297.5"
"","psychophysics","198","1640890","0.0-198.0","63dd2985d0d2d04b0acd026f","64b4437f1f7fa68761fe4bcc","","","","","8992","key"," "," ","16.667814471243133","500","250","pog","382.5","2","0","0","270.5","337.5"
"","psychophysics","199","1647764","0.0-199.0","63dd2985d0d2d04b0acd026f","64b4437f1f7fa68761fe4bcc","","","","","6872","key"," "," ","16.749283618581753","500","250","pog","394.5","2","0","0","359.5","331.5"
"","psychophysics","200","1659869","0.0-200.0","63dd2985d0d2d04b0acd026f","64b4437f1f7fa68761fe4bcc","","","","","12101","key"," "," ","16.667833333333103","500","250","pog","417.5","2","0","0","286.5","352.5"
"","psychophysics","201","1663265","0.0-201.0","63dd2985d0d2d04b0acd026f","64b4437f1f7fa68761fe4bcc","","","","","3394","key"," "," ","16.66784653465245","500","250","pog","396.5","2","0","0","383.5","326.5"
"","psychophysics","202","1678588","0.0-202.0","63dd2985d0d2d04b0acd026f","64b4437f1f7fa68761fe4bcc","","","","","15319","key"," "," ","16.667794341675712","500","250","pog","360.5","2","0","0","268.5","292.5"
"","psychophysics","203","1688913","0.0-203.0","63dd2985d0d2d04b0acd026f","64b4437f1f7fa68761fe4bcc","","","","","10323","key"," "," ","16.667823624595606","500","250","pog","376.5","2","0","0","311.5","320.5"
"","psychophysics","204","1693096","0.0-204.0","63dd2985d0d2d04b0acd026f","64b4437f1f7fa68761fe4bcc","","","","","4182","key"," "," ","16.667851999999954","500","250","pog","393.5","2","0","0","369.5","331.5"
"","psychophysics","205","1696489","0.0-205.0","63dd2985d0d2d04b0acd026f","64b4437f1f7fa68761fe4bcc","","","","","3391","key"," "," ","16.667778325123766","500","250","pog","374.5","2","0","0","358.5","314.5"
"","psychophysics","206","1709488","0.0-206.0","63dd2985d0d2d04b0acd026f","64b4437f1f7fa68761fe4bcc","","","","","12997","key"," "," ","16.66782156611041","500","250","pog","414.5","2","0","0","270.5","356.5"
"","psychophysics","207","1718280","0.0-207.0","63dd2985d0d2d04b0acd026f","64b4437f1f7fa68761fe4bcc","","","","","8790","key"," "," ","16.667813688212963","500","250","pog","399.5","2","0","0","358.5","318.5"
"","psychophysics","208","1725886","0.0-208.0","63dd2985d0d2d04b0acd026f","64b4437f1f7fa68761fe4bcc","","","","","7605","key"," "," ","16.667795604395753","500","250","pog","371.5","2","0","0","339.5","305.5"
