"success","trial_type","trial_index","time_elapsed","internal_node_id","pid","sid","timeout","failed_images","failed_audio","failed_video","rt","response_type","key_press","response","avg_frame_time","center_x","center_y","task","resp","start","version","jitterX","jitterY","parA"
"true","fullscreen","0","2853","0.0-0.0","571e332b1bdf1a00119149f2","64b441b4d8ecfb2d8a116aed","","","","","","","","","","","","","","","","","",""
"true","preload","1","2855","0.0-1.0","571e332b1bdf1a00119149f2","64b441b4d8ecfb2d8a116aed","false","[]","[]","[]","","","","","","","","","","","","","",""
"","psychophysics","2","7186","0.0-2.0","571e332b1bdf1a00119149f2","64b441b4d8ecfb2d8a116aed","","","","","4324","key"," "," ","33.332","499.9999891627921","249.99999458139604","inst","","","","","",""
"","psychophysics","3","17839","0.0-3.0","571e332b1bdf1a00119149f2","64b441b4d8ecfb2d8a116aed","","","","","10650","key"," "," ","33.33350156739812","499.9999891627921","249.99999458139604","sample1","","","","","",""
"","psychophysics","4","38087","0.0-4.0","571e332b1bdf1a00119149f2","64b441b4d8ecfb2d8a116aed","","","","","20246","key"," "," ","33.333099009900984","499.9999891627921","249.99999458139604","sample2","102","","","","",""
"","psychophysics","5","43663","0.0-5.0","571e332b1bdf1a00119149f2","64b441b4d8ecfb2d8a116aed","","","","","5571","key"," "," ","33.33399401197606","499.9999891627921","249.99999458139604","sample3","100","","","","",""
"","psychophysics","6","50413","0.0-6.0","571e332b1bdf1a00119149f2","64b441b4d8ecfb2d8a116aed","","","","","6747","key"," "," ","33.33199999999998","499.9999891627921","249.99999458139604","sample4","98","","","","",""
"","psychophysics","7","55984","0.0-7.0","571e332b1bdf1a00119149f2","64b441b4d8ecfb2d8a116aed","","","","","5568","key"," "," ","33.33200000000001","499.9999891627921","249.99999458139604","sample5","","","","","",""
"","psychophysics","8","64195","0.0-8.0","571e332b1bdf1a00119149f2","64b441b4d8ecfb2d8a116aed","","","","","8209","key"," "," ","33.334711382113824","499.9999891627921","249.99999458139604","sample7","500","","","","",""
"","psychophysics","9","69182","0.0-9.0","571e332b1bdf1a00119149f2","64b441b4d8ecfb2d8a116aed","","","","","4985","key"," "," ","33.331999999999994","499.9999891627921","249.99999458139604","inst","","","","","",""
"","psychophysics","10","75238","0.0-10.0","571e332b1bdf1a00119149f2","64b441b4d8ecfb2d8a116aed","","","","","6052","key"," "," ","33.33383977900546","499.9999891627921","249.99999458139604","inst","","","","","",""
"","psychophysics","11","80184","0.0-11.0","571e332b1bdf1a00119149f2","64b441b4d8ecfb2d8a116aed","","","","","4944","key"," "," ","33.33199999999993","499.9999891627921","249.99999458139604","inst","","","","","",""
"","psychophysics","12","81261","0.0-12.0","571e332b1bdf1a00119149f2","64b441b4d8ecfb2d8a116aed","","","","","1074","key"," "," ","33.33199999999988","499.9999891627921","249.99999458139604","inst","","","","","",""
"","psychophysics","13","82424","0.0-13.0","571e332b1bdf1a00119149f2","64b441b4d8ecfb2d8a116aed","","","","","1158","key"," "," ","33.340852941176685","499.9999891627921","249.99999458139604","inst","","","","","",""
"","psychophysics","14","88092","0.0-14.0","571e332b1bdf1a00119149f2","64b441b4d8ecfb2d8a116aed","","","","","5665","key"," "," ","33.33200000000004","499.9999891627921","249.99999458139604","instEB0","41","40","","0","0","40"
"","psychophysics","15","100487","0.0-15.0","571e332b1bdf1a00119149f2","64b441b4d8ecfb2d8a116aed","","","","","12393","key"," "," ","33.3329027027027","499.9999891627921","249.99999458139604","instEB1","68","30","2","0","0","70"
"","psychophysics","16","113230","0.0-16.0","571e332b1bdf1a00119149f2","64b441b4d8ecfb2d8a116aed","","","","","12739","key"," "," ","33.3337434554974","499.9999891627921","249.99999458139604","instEB2","40","60","2","0","0","40"
"","psychophysics","17","123543","0.0-17.0","571e332b1bdf1a00119149f2","64b441b4d8ecfb2d8a116aed","","","","","10312","key"," "," ","33.33308116883119","499.9999891627921","249.99999458139604","instEB3","65","45","2","0","0","65"
"","psychophysics","18","133241","0.0-18.0","571e332b1bdf1a00119149f2","64b441b4d8ecfb2d8a116aed","","","","","9694","key"," "," ","33.33200000000004","499.9999891627921","249.99999458139604","instEB4","42","40","2","0","0","40"
"","psychophysics","19","135423","0.0-19.0","571e332b1bdf1a00119149f2","64b441b4d8ecfb2d8a116aed","","","","","2180","key"," "," ","33.3319999999998","499.9999891627921","249.99999458139604","inst","","","","","",""
"","psychophysics","20","142140","0.0-20.0","571e332b1bdf1a00119149f2","64b441b4d8ecfb2d8a116aed","","","","","6715","key"," "," ","33.332000000000114","499.9999891627921","249.99999458139604","eb","31","41","2","0","0","27"
"","psychophysics","21","150923","0.0-21.0","571e332b1bdf1a00119149f2","64b441b4d8ecfb2d8a116aed","","","","","8780","key"," "," ","33.33453612167303","499.9999891627921","249.99999458139604","eb","45","29","2","0","0","44"
"","psychophysics","22","156829","0.0-22.0","571e332b1bdf1a00119149f2","64b441b4d8ecfb2d8a116aed","","","","","5904","key"," "," ","33.332","499.9999891627921","249.99999458139604","eb","36","40","2","0","0","31"
"","psychophysics","23","160852","0.0-23.0","571e332b1bdf1a00119149f2","64b441b4d8ecfb2d8a116aed","","","","","4021","key"," "," ","33.332000000000015","499.9999891627921","249.99999458139604","eb","31","34","2","0","0","27"
"","psychophysics","24","167987","0.0-24.0","571e332b1bdf1a00119149f2","64b441b4d8ecfb2d8a116aed","","","","","7131","key"," "," ","33.33512676056344","499.9999891627921","249.99999458139604","eb","53","33","2","0","0","48"
"","psychophysics","25","173213","0.0-25.0","571e332b1bdf1a00119149f2","64b441b4d8ecfb2d8a116aed","","","","","5224","key"," "," ","33.331999999999915","499.9999891627921","249.99999458139604","eb","44","32","2","0","0","40"
"","psychophysics","26","181596","0.0-26.0","571e332b1bdf1a00119149f2","64b441b4d8ecfb2d8a116aed","","","","","8381","key"," "," ","33.33200000000009","499.9999891627921","249.99999458139604","eb","40","51","2","0","0","36"
"","psychophysics","27","186406","0.0-27.0","571e332b1bdf1a00119149f2","64b441b4d8ecfb2d8a116aed","","","","","4804","key"," "," ","33.33665034965037","499.9999891627921","249.99999458139604","eb","57","36","2","0","0","54"
"","psychophysics","28","190217","0.0-28.0","571e332b1bdf1a00119149f2","64b441b4d8ecfb2d8a116aed","","","","","3804","key"," "," ","33.33200000000003","499.9999891627921","249.99999458139604","eb","35","27","2","0","0","36"
"","psychophysics","29","193666","0.0-29.0","571e332b1bdf1a00119149f2","64b441b4d8ecfb2d8a116aed","","","","","3445","key"," "," ","33.334922330097115","499.9999891627921","249.99999458139604","eb","30","42","2","0","0","28"
"","psychophysics","30","196110","0.0-30.0","571e332b1bdf1a00119149f2","64b441b4d8ecfb2d8a116aed","","","","","2437","key"," "," ","33.332000000000136","499.9999891627921","249.99999458139604","eb","35","41","2","0","0","31"
"","psychophysics","31","198254","0.0-31.0","571e332b1bdf1a00119149f2","64b441b4d8ecfb2d8a116aed","","","","","2142","key"," "," ","33.33199999999996","499.9999891627921","249.99999458139604","eb","55","52","2","0","0","48"
"","psychophysics","32","202324","0.0-32.0","571e332b1bdf1a00119149f2","64b441b4d8ecfb2d8a116aed","","","","","4065","key"," "," ","33.33199999999993","499.9999891627921","249.99999458139604","eb","43","31","2","0","0","36"
"","psychophysics","33","206066","0.0-33.0","571e332b1bdf1a00119149f2","64b441b4d8ecfb2d8a116aed","","","","","3739","key"," "," ","33.331999999999816","499.9999891627921","249.99999458139604","eb","42","52","2","0","0","34"
"","psychophysics","34","213648","0.0-34.0","571e332b1bdf1a00119149f2","64b441b4d8ecfb2d8a116aed","","","","","7577","key"," "," ","33.334946902654885","499.9999891627921","249.99999458139604","eb","30","54","2","0","0","28"
"","psychophysics","35","215065","0.0-35.0","571e332b1bdf1a00119149f2","64b441b4d8ecfb2d8a116aed","","","","","1414","key"," "," ","33.331999999999844","499.9999891627921","249.99999458139604","inst","","","","","",""
"","psychophysics","36","217657","0.0-36.0","571e332b1bdf1a00119149f2","64b441b4d8ecfb2d8a116aed","","","","","2584","key"," "," ","33.331999999999795","499.9999891627921","249.99999458139604","instPz0","50","50","2","","","50"
"","psychophysics","37","225117","0.0-37.0","571e332b1bdf1a00119149f2","64b441b4d8ecfb2d8a116aed","","","","","7450","key"," "," ","33.333493273542494","499.9999891627921","249.99999458139604","instPz1","48","25","2","","","50"
"","psychophysics","38","228715","0.0-38.0","571e332b1bdf1a00119149f2","64b441b4d8ecfb2d8a116aed","","","","","3595","key"," "," ","33.33199999999977","499.9999891627921","249.99999458139604","instPz2","22","15","2","","","25"
"","psychophysics","39","237557","0.0-39.0","571e332b1bdf1a00119149f2","64b441b4d8ecfb2d8a116aed","","","","","8838","key"," "," ","33.33326515151511","499.9999891627921","249.99999458139604","instPz3","38","25","2","","","50"
"","psychophysics","40","244716","0.0-40.0","571e332b1bdf1a00119149f2","64b441b4d8ecfb2d8a116aed","","","","","7156","key"," "," ","33.33200000000004","499.9999891627921","249.99999458139604","instPz4","22","15","2","","","30"
"","psychophysics","41","246108","0.0-41.0","571e332b1bdf1a00119149f2","64b441b4d8ecfb2d8a116aed","","","","","1389","key"," "," ","33.331999999999844","499.9999891627921","249.99999458139604","inst","","","","","",""
"","psychophysics","42","250461","0.0-42.0","571e332b1bdf1a00119149f2","64b441b4d8ecfb2d8a116aed","","","","","4350","key"," "," ","33.332000000000065","499.9999891627921","249.99999458139604","pz","36","33","2","","","49"
"","psychophysics","43","252809","0.0-43.0","571e332b1bdf1a00119149f2","64b441b4d8ecfb2d8a116aed","","","","","2345","key"," "," ","33.34151428571453","499.9999891627921","249.99999458139604","pz","33","40","2","","","45"
"","psychophysics","44","255335","0.0-44.0","571e332b1bdf1a00119149f2","64b441b4d8ecfb2d8a116aed","","","","","2520","key"," "," ","33.331999999999994","499.9999891627921","249.99999458139604","pz","41","38","2","","","53"
"","psychophysics","45","257072","0.0-45.0","571e332b1bdf1a00119149f2","64b441b4d8ecfb2d8a116aed","","","","","1732","key"," "," ","33.331999999999915","499.9999891627921","249.99999458139604","pz","49","49","2","","","56"
"","psychophysics","46","258403","0.0-46.0","571e332b1bdf1a00119149f2","64b441b4d8ecfb2d8a116aed","","","","","1329","key"," "," ","33.3320000000001","499.9999891627921","249.99999458139604","pz","49","49","2","","","55"
"","psychophysics","47","261086","0.0-47.0","571e332b1bdf1a00119149f2","64b441b4d8ecfb2d8a116aed","","","","","2678","key"," "," ","33.332000000000406","499.9999891627921","249.99999458139604","pz","32","37","2","","","39"
"","psychophysics","48","266325","0.0-48.0","571e332b1bdf1a00119149f2","64b441b4d8ecfb2d8a116aed","","","","","5236","key"," "," ","33.33414102564096","499.9999891627921","249.99999458139604","pz","28","41","2","","","40"
"","psychophysics","49","271784","0.0-49.0","571e332b1bdf1a00119149f2","64b441b4d8ecfb2d8a116aed","","","","","5455","key"," "," ","33.33199999999988","499.9999891627921","249.99999458139604","pz","35","58","2","","","41"
"","psychophysics","50","273921","0.0-50.0","571e332b1bdf1a00119149f2","64b441b4d8ecfb2d8a116aed","","","","","2130","key"," "," ","33.33728571428588","499.9999891627921","249.99999458139604","pz","22","20","2","","","31"
"","psychophysics","51","277197","0.0-51.0","571e332b1bdf1a00119149f2","64b441b4d8ecfb2d8a116aed","","","","","3271","key"," "," ","33.33200000000028","499.9999891627921","249.99999458139604","pz","28","21","2","","","46"
"","psychophysics","52","279136","0.0-52.0","571e332b1bdf1a00119149f2","64b441b4d8ecfb2d8a116aed","","","","","1934","key"," "," ","33.331999999999894","499.9999891627921","249.99999458139604","pz","37","40","2","","","60"
"","psychophysics","53","284821","0.0-53.0","571e332b1bdf1a00119149f2","64b441b4d8ecfb2d8a116aed","","","","","5678","key"," "," ","33.33397633136118","499.9999891627921","249.99999458139604","pz","14","26","2","","","24"
"","psychophysics","54","286547","0.0-54.0","571e332b1bdf1a00119149f2","64b441b4d8ecfb2d8a116aed","","","","","1722","key"," "," ","33.33199999999945","499.9999891627921","249.99999458139604","pz","36","34","2","","","52"
"","psychophysics","55","290460","0.0-55.0","571e332b1bdf1a00119149f2","64b441b4d8ecfb2d8a116aed","","","","","3911","key"," "," ","33.331999999999894","499.9999891627921","249.99999458139604","pz","30","46","2","","","43"
"","psychophysics","56","292996","0.0-56.0","571e332b1bdf1a00119149f2","64b441b4d8ecfb2d8a116aed","","","","","2532","key"," "," ","33.33645333333406","499.9999891627921","249.99999458139604","pz","20","27","2","","","28"
"","psychophysics","57","293921","0.0-57.0","571e332b1bdf1a00119149f2","64b441b4d8ecfb2d8a116aed","","","","","922","key"," "," ","33.33199999999919","499.9999891627921","249.99999458139604","inst","","","","","",""
"","psychophysics","58","296128","0.0-58.0","571e332b1bdf1a00119149f2","64b441b4d8ecfb2d8a116aed","","","","","2201","key"," "," ","33.33200000000025","499.9999891627921","249.99999458139604","instBr0","NaN","0","","0","0","300"
"","psychophysics","59","304574","0.0-59.0","571e332b1bdf1a00119149f2","64b441b4d8ecfb2d8a116aed","","","","","8443","key"," "," ","33.33331620553347","499.9999891627921","249.99999458139604","instBr1","NaN","-40","","0","0","300"
"","psychophysics","60","313300","0.0-60.0","571e332b1bdf1a00119149f2","64b441b4d8ecfb2d8a116aed","","","","","8724","key"," "," ","33.33315769230763","499.9999891627921","249.99999458139604","instBr","-21","40","1","0","0","300"
"","psychophysics","61","313982","0.0-61.0","571e332b1bdf1a00119149f2","64b441b4d8ecfb2d8a116aed","","","","","677","key"," "," ","33.3320000000007","499.9999891627921","249.99999458139604","inst","","","","","",""
"","psychophysics","62","320670","0.0-62.0","571e332b1bdf1a00119149f2","64b441b4d8ecfb2d8a116aed","","","","","6685","key"," "," ","33.33199999999985","499.9999891627921","249.99999458139604","br","-19","26","1","-25","-4","300"
"","psychophysics","63","325827","0.0-63.0","571e332b1bdf1a00119149f2","64b441b4d8ecfb2d8a116aed","","","","","5153","key"," "," ","33.33200000000017","499.9999891627921","249.99999458139604","br","-23","16","1","-3","14","300"
"","psychophysics","64","328290","0.0-64.0","571e332b1bdf1a00119149f2","64b441b4d8ecfb2d8a116aed","","","","","2460","key"," "," ","33.33199999999966","499.9999891627921","249.99999458139604","br","-25","-22","1","-1","1","300"
"","psychophysics","65","335194","0.0-65.0","571e332b1bdf1a00119149f2","64b441b4d8ecfb2d8a116aed","","","","","6896","key"," "," ","33.33523300970883","499.9999891627921","249.99999458139604","br","-27","31","1","-7","15","300"
"","psychophysics","66","341775","0.0-66.0","571e332b1bdf1a00119149f2","64b441b4d8ecfb2d8a116aed","","","","","6579","key"," "," ","33.3320000000002","499.9999891627921","249.99999458139604","br","-28","35","1","-26","-25","300"
"","psychophysics","67","349711","0.0-67.0","571e332b1bdf1a00119149f2","64b441b4d8ecfb2d8a116aed","","","","","7935","key"," "," ","33.333409282700345","499.9999891627921","249.99999458139604","br","-28","40","1","4","-27","300"
"","psychophysics","68","356353","0.0-68.0","571e332b1bdf1a00119149f2","64b441b4d8ecfb2d8a116aed","","","","","6640","key"," "," ","33.33199999999987","499.9999891627921","249.99999458139604","br","-20","40","1","18","-14","300"
"","psychophysics","69","360664","0.0-69.0","571e332b1bdf1a00119149f2","64b441b4d8ecfb2d8a116aed","","","","","4309","key"," "," ","33.33199999999988","499.9999891627921","249.99999458139604","br","-21","-40","1","-26","12","300"
"","psychophysics","70","363696","0.0-70.0","571e332b1bdf1a00119149f2","64b441b4d8ecfb2d8a116aed","","","","","3028","key"," "," ","33.3393999999997","499.9999891627921","249.99999458139604","br","-19","-4","1","15","29","300"
"","psychophysics","71","366919","0.0-71.0","571e332b1bdf1a00119149f2","64b441b4d8ecfb2d8a116aed","","","","","3220","key"," "," ","33.332000000000335","499.9999891627921","249.99999458139604","br","-20","-18","1","-23","15","300"
"","psychophysics","72","369311","0.0-72.0","571e332b1bdf1a00119149f2","64b441b4d8ecfb2d8a116aed","","","","","2389","key"," "," ","33.331999999999795","499.9999891627921","249.99999458139604","br","-24","-30","1","3","-16","300"
"","psychophysics","73","372414","0.0-73.0","571e332b1bdf1a00119149f2","64b441b4d8ecfb2d8a116aed","","","","","3097","key"," "," ","33.33199999999994","499.9999891627921","249.99999458139604","br","-27","-38","1","-19","-25","300"
"","psychophysics","74","375594","0.0-74.0","571e332b1bdf1a00119149f2","64b441b4d8ecfb2d8a116aed","","","","","3179","key"," "," ","33.33555319148891","499.9999891627921","249.99999458139604","br","-24","-26","1","26","-15","300"
"","psychophysics","75","381447","0.0-75.0","571e332b1bdf1a00119149f2","64b441b4d8ecfb2d8a116aed","","","","","5850","key"," "," ","33.3320000000002","499.9999891627921","249.99999458139604","br","-24","14","1","27","20","300"
"","psychophysics","76","385605","0.0-76.0","571e332b1bdf1a00119149f2","64b441b4d8ecfb2d8a116aed","","","","","4154","key"," "," ","33.33200000000004","499.9999891627921","249.99999458139604","br","-20","-42","1","-16","-6","300"
"","psychophysics","77","386435","0.0-77.0","571e332b1bdf1a00119149f2","64b441b4d8ecfb2d8a116aed","","","","","828","key"," "," ","33.33199999999994","499.9999891627921","249.99999458139604","inst","","","","","",""
"","psychophysics","78","388880","0.0-78.0","571e332b1bdf1a00119149f2","64b441b4d8ecfb2d8a116aed","","","","","2436","key"," "," ","33.33199999999966","499.9999891627921","249.99999458139604","instZol0","0","0","","0","0",""
"","psychophysics","79","406163","0.0-79.0","571e332b1bdf1a00119149f2","64b441b4d8ecfb2d8a116aed","","","","","17279","key"," "," ","33.33393230174089","499.9999891627921","249.99999458139604","instZol1","-0.09999999999999998","-1.3","","0","0",""
"","psychophysics","80","436739","0.0-80.0","571e332b1bdf1a00119149f2","64b441b4d8ecfb2d8a116aed","","","","","30571","key"," "," ","33.33272628135222","499.9999891627921","249.99999458139604","instZol2","-1.0999999999999992","2","2","0","0",""
"","psychophysics","81","437467","0.0-81.0","571e332b1bdf1a00119149f2","64b441b4d8ecfb2d8a116aed","","","","","726","key"," "," ","33.3320000000007","499.9999891627921","249.99999458139604","inst","","","","","",""
"","psychophysics","82","444035","0.0-82.0","571e332b1bdf1a00119149f2","64b441b4d8ecfb2d8a116aed","","","","","6562","key"," "," ","33.33523469387758","499.9999891627921","249.99999458139604","zol","-1.6000000000000003","-0.1","2","3","-6",""
"","psychophysics","83","450799","0.0-83.0","571e332b1bdf1a00119149f2","64b441b4d8ecfb2d8a116aed","","","","","6760","key"," "," ","33.332000000000065","499.9999891627921","249.99999458139604","zol","-0.7700000000000001","-0.43","2","14","-2",""
"","psychophysics","84","469226","0.0-84.0","571e332b1bdf1a00119149f2","64b441b4d8ecfb2d8a116aed","","","","","18421","key"," "," ","33.333206521739115","499.9999891627921","249.99999458139604","zol","0.19000000000000009","-0.59","2","-21","-24",""
"","psychophysics","85","470308","0.0-85.0","571e332b1bdf1a00119149f2","64b441b4d8ecfb2d8a116aed","","","","","1079","key"," "," ","33.332000000000335","499.9999891627921","249.99999458139604","zol","-0.27","0.27","2","26","5",""
"","psychophysics","86","473949","0.0-86.0","571e332b1bdf1a00119149f2","64b441b4d8ecfb2d8a116aed","","","","","3639","key"," "," ","33.33508333333345","499.9999891627921","249.99999458139604","zol","-0.9499999999999998","-0.75","2","-9","29",""
"","psychophysics","87","479395","0.0-87.0","571e332b1bdf1a00119149f2","64b441b4d8ecfb2d8a116aed","","","","","5442","key"," "," ","33.33199999999991","499.9999891627921","249.99999458139604","zol","-1.3800000000000001","-0.32","2","-2","-5",""
"","psychophysics","88","482534","0.0-88.0","571e332b1bdf1a00119149f2","64b441b4d8ecfb2d8a116aed","","","","","3134","key"," "," ","33.33199999999989","499.9999891627921","249.99999458139604","zol","-1.2100000000000002","0.01","2","-23","4",""
"","psychophysics","89","497851","0.0-89.0","571e332b1bdf1a00119149f2","64b441b4d8ecfb2d8a116aed","","","","","15312","key"," "," ","33.333453159041504","499.9999891627921","249.99999458139604","zol","0.6599999999999998","0.74","2","7","1",""
"","psychophysics","90","501679","0.0-90.0","571e332b1bdf1a00119149f2","64b441b4d8ecfb2d8a116aed","","","","","3825","key"," "," ","33.33199999999999","499.9999891627921","249.99999458139604","zol","-2.5800000000000014","0.68","2","25","21",""
"","psychophysics","91","505623","0.0-91.0","571e332b1bdf1a00119149f2","64b441b4d8ecfb2d8a116aed","","","","","3940","key"," "," ","33.33485470085483","499.9999891627921","249.99999458139604","zol","-1.4900000000000002","-0.61","2","-7","24",""
"","psychophysics","92","508196","0.0-92.0","571e332b1bdf1a00119149f2","64b441b4d8ecfb2d8a116aed","","","","","2570","key"," "," ","33.331999999999475","499.9999891627921","249.99999458139604","zol","-0.8799999999999999","-0.72","2","14","-24",""
"","psychophysics","93","510543","0.0-93.0","571e332b1bdf1a00119149f2","64b441b4d8ecfb2d8a116aed","","","","","2343","key"," "," ","33.3320000000007","499.9999891627921","249.99999458139604","zol","-0.8699999999999999","-0.13","2","-18","-27",""
"","psychophysics","94","514341","0.0-94.0","571e332b1bdf1a00119149f2","64b441b4d8ecfb2d8a116aed","","","","","3795","key"," "," ","33.33200000000003","499.9999891627921","249.99999458139604","zol","-1.7600000000000005","-0.54","2","-27","29",""
"","psychophysics","95","521850","0.0-95.0","571e332b1bdf1a00119149f2","64b441b4d8ecfb2d8a116aed","","","","","7506","key"," "," ","33.331999999999816","499.9999891627921","249.99999458139604","zol","-0.9799999999999999","-0.72","2","-27","-17",""
"","psychophysics","96","525142","0.0-96.0","571e332b1bdf1a00119149f2","64b441b4d8ecfb2d8a116aed","","","","","3289","key"," "," ","33.338795918367246","499.9999891627921","249.99999458139604","zol","-1.35","-0.05","2","-11","17",""
"","psychophysics","97","526125","0.0-97.0","571e332b1bdf1a00119149f2","64b441b4d8ecfb2d8a116aed","","","","","981","key"," "," ","33.331999999999034","499.9999891627921","249.99999458139604","inst","","","","","",""
"","psychophysics","98","539447","0.0-98.0","571e332b1bdf1a00119149f2","64b441b4d8ecfb2d8a116aed","","","","","13318","key"," "," ","33.3328370927316","499.9999891627921","249.99999458139604","instPog0","160","190","1","0","0","160"
"","psychophysics","99","548016","0.0-99.0","571e332b1bdf1a00119149f2","64b441b4d8ecfb2d8a116aed","","","","","8567","key"," "," ","33.33330078124982","499.9999891627921","249.99999458139604","instPog1","161","190","1","0","0","160"
"","psychophysics","100","553074","0.0-100.0","571e332b1bdf1a00119149f2","64b441b4d8ecfb2d8a116aed","","","","","5056","key"," "," ","33.33199999999989","499.9999891627921","249.99999458139604","instPog2","189","190","1","0","0","160"
"","psychophysics","101","553982","0.0-101.0","571e332b1bdf1a00119149f2","64b441b4d8ecfb2d8a116aed","","","","","907","key"," "," ","33.331999999999354","499.9999891627921","249.99999458139604","inst","","","","","",""
"","psychophysics","102","558794","0.0-102.0","571e332b1bdf1a00119149f2","64b441b4d8ecfb2d8a116aed","","","","","4810","key"," "," ","33.33200000000017","499.9999891627921","249.99999458139604","pog","156","135","1","0","0","130"
"","psychophysics","103","568291","0.0-103.0","571e332b1bdf1a00119149f2","64b441b4d8ecfb2d8a116aed","","","","","9489","key"," "," ","33.33423239436586","499.9999891627921","249.99999458139604","pog","171","240","1","0","0","136"
"","psychophysics","104","581233","0.0-104.0","571e332b1bdf1a00119149f2","64b441b4d8ecfb2d8a116aed","","","","","12939","key"," "," ","33.33200000000014","499.9999891627921","249.99999458139604","pog","213","101","1","0","0","188"
"","psychophysics","105","593243","0.0-105.0","571e332b1bdf1a00119149f2","64b441b4d8ecfb2d8a116aed","","","","","12005","key"," "," ","33.33384999999996","499.9999891627921","249.99999458139604","pog","152","192","1","0","0","132"
"","psychophysics","106","599879","0.0-106.0","571e332b1bdf1a00119149f2","64b441b4d8ecfb2d8a116aed","","","","","6635","key"," "," ","33.33199999999958","499.9999891627921","249.99999458139604","pog","169","158","1","0","0","148"
"","psychophysics","107","606653","0.0-107.0","571e332b1bdf1a00119149f2","64b441b4d8ecfb2d8a116aed","","","","","6771","key"," "," ","33.33529702970288","499.9999891627921","249.99999458139604","pog","188","151","1","0","0","164"
"","psychophysics","108","615272","0.0-108.0","571e332b1bdf1a00119149f2","64b441b4d8ecfb2d8a116aed","","","","","8615","key"," "," ","33.331999999999844","499.9999891627921","249.99999458139604","pog","215","158","1","0","0","193"
"","psychophysics","109","622006","0.0-109.0","571e332b1bdf1a00119149f2","64b441b4d8ecfb2d8a116aed","","","","","6733","key"," "," ","33.3319999999998","499.9999891627921","249.99999458139604","pog","164","118","1","0","0","141"
"","psychophysics","110","635452","0.0-110.0","571e332b1bdf1a00119149f2","64b441b4d8ecfb2d8a116aed","","","","","13444","key"," "," ","33.334487562189146","499.9999891627921","249.99999458139604","pog","201","93","1","0","0","181"
"","psychophysics","111","648722","0.0-111.0","571e332b1bdf1a00119149f2","64b441b4d8ecfb2d8a116aed","","","","","13267","key"," "," ","33.33200000000001","499.9999891627921","249.99999458139604","pog","219","116","1","0","0","188"
"","psychophysics","112","663226","0.0-112.0","571e332b1bdf1a00119149f2","64b441b4d8ecfb2d8a116aed","","","","","14501","key"," "," ","33.33353456221215","499.9999891627921","249.99999458139604","pog","221","94","1","0","0","195"
"","psychophysics","113","677217","0.0-113.0","571e332b1bdf1a00119149f2","64b441b4d8ecfb2d8a116aed","","","","","13987","key"," "," ","33.333591885441585","499.9999891627921","249.99999458139604","pog","214","98","1","0","0","195"
"","psychophysics","114","678735","0.0-114.0","571e332b1bdf1a00119149f2","64b441b4d8ecfb2d8a116aed","","","","","1516","key"," "," ","33.33200000000017","499.9999891627921","249.99999458139604","pog","164","164","1","0","0","154"
"","psychophysics","115","685167","0.0-115.0","571e332b1bdf1a00119149f2","64b441b4d8ecfb2d8a116aed","","","","","6425","key"," "," ","33.33199999999973","499.9999891627921","249.99999458139604","pog","146","97","1","0","0","132"
"","psychophysics","116","692241","0.0-116.0","571e332b1bdf1a00119149f2","64b441b4d8ecfb2d8a116aed","","","","","7071","key"," "," ","33.33199999999982","499.9999891627921","249.99999458139604","pog","179","212","1","0","0","157"
"","psychophysics","117","693008","0.0-117.0","571e332b1bdf1a00119149f2","64b441b4d8ecfb2d8a116aed","","","","","766","key"," "," ","33.33200000000017","499.9999891627921","249.99999458139604","inst","","","","","",""
"","psychophysics","118","711165","0.0-118.0","571e332b1bdf1a00119149f2","64b441b4d8ecfb2d8a116aed","","","","","18152","key"," "," ","33.33378084714552","499.9999891627921","249.99999458139604","instZol2","1.9000000000000012","2","1","0","0",""
"","psychophysics","119","711849","0.0-119.0","571e332b1bdf1a00119149f2","64b441b4d8ecfb2d8a116aed","","","","","682","key"," "," ","33.3320000000007","499.9999891627921","249.99999458139604","inst","","","","","",""
"","psychophysics","120","715954","0.0-120.0","571e332b1bdf1a00119149f2","64b441b4d8ecfb2d8a116aed","","","","","4102","key"," "," ","33.33472950819719","499.9999891627921","249.99999458139604","zol","1.6600000000000004","0.24","1","-16","-25",""
"","psychophysics","121","722740","0.0-121.0","571e332b1bdf1a00119149f2","64b441b4d8ecfb2d8a116aed","","","","","6782","key"," "," ","33.33200000000033","499.9999891627921","249.99999458139604","zol","1.3900000000000001","-0.09","1","-6","-8",""
"","psychophysics","122","728154","0.0-122.0","571e332b1bdf1a00119149f2","64b441b4d8ecfb2d8a116aed","","","","","5411","key"," "," ","33.33407453416127","499.9999891627921","249.99999458139604","zol","1.0599999999999998","0.14","1","-9","12",""
"","psychophysics","123","731249","0.0-123.0","571e332b1bdf1a00119149f2","64b441b4d8ecfb2d8a116aed","","","","","3092","key"," "," ","33.33199999999994","499.9999891627921","249.99999458139604","zol","1.8400000000000007","-0.64","1","2","-7",""
"","psychophysics","124","734948","0.0-124.0","571e332b1bdf1a00119149f2","64b441b4d8ecfb2d8a116aed","","","","","3695","key"," "," ","33.33199999999911","499.9999891627921","249.99999458139604","zol","1.4300000000000004","-0.03","1","18","27",""
"","psychophysics","125","739595","0.0-125.0","571e332b1bdf1a00119149f2","64b441b4d8ecfb2d8a116aed","","","","","4644","key"," "," ","33.33199999999994","499.9999891627921","249.99999458139604","zol","1.7200000000000006","0.18","1","-23","-22",""
"","psychophysics","126","746564","0.0-126.0","571e332b1bdf1a00119149f2","64b441b4d8ecfb2d8a116aed","","","","","6965","key"," "," ","33.33520192307669","499.9999891627921","249.99999458139604","zol","0.48","0.62","1","-1","18",""
"","psychophysics","127","751925","0.0-127.0","571e332b1bdf1a00119149f2","64b441b4d8ecfb2d8a116aed","","","","","5357","key"," "," ","33.33199999999997","499.9999891627921","249.99999458139604","zol","1.37","-0.57","1","0","29",""
"","psychophysics","128","755722","0.0-128.0","571e332b1bdf1a00119149f2","64b441b4d8ecfb2d8a116aed","","","","","3789","key"," "," ","33.33200000000054","499.9999891627921","249.99999458139604","zol","1.26","-0.26","1","-21","-2",""
"","psychophysics","129","758910","0.0-129.0","571e332b1bdf1a00119149f2","64b441b4d8ecfb2d8a116aed","","","","","3184","key"," "," ","33.33200000000039","499.9999891627921","249.99999458139604","zol","1.3500000000000003","-0.55","1","-26","11",""
"","psychophysics","130","762725","0.0-130.0","571e332b1bdf1a00119149f2","64b441b4d8ecfb2d8a116aed","","","","","3813","key"," "," ","33.33200000000054","499.9999891627921","249.99999458139604","zol","1.4200000000000004","-0.42","1","4","6",""
"","psychophysics","131","767913","0.0-131.0","571e332b1bdf1a00119149f2","64b441b4d8ecfb2d8a116aed","","","","","5185","key"," "," ","33.336290322580645","499.9999891627921","249.99999458139604","zol","1.11","0.29","1","9","-6",""
"","psychophysics","132","775488","0.0-132.0","571e332b1bdf1a00119149f2","64b441b4d8ecfb2d8a116aed","","","","","7573","key"," "," ","33.33200000000003","499.9999891627921","249.99999458139604","zol","1.18","-0.58","1","11","-26",""
"","psychophysics","133","781149","0.0-133.0","571e332b1bdf1a00119149f2","64b441b4d8ecfb2d8a116aed","","","","","5656","key"," "," ","33.33200000000004","499.9999891627921","249.99999458139604","zol","0.9700000000000001","-0.67","1","-21","-6",""
"","psychophysics","134","785552","0.0-134.0","571e332b1bdf1a00119149f2","64b441b4d8ecfb2d8a116aed","","","","","4400","key"," "," ","33.33708396946517","499.9999891627921","249.99999458139604","zol","0.94","0.06","1","-20","21",""
"","psychophysics","135","786392","0.0-135.0","571e332b1bdf1a00119149f2","64b441b4d8ecfb2d8a116aed","","","","","838","key"," "," ","33.33199999999973","499.9999891627921","249.99999458139604","inst","","","","","",""
"","psychophysics","136","790205","0.0-136.0","571e332b1bdf1a00119149f2","64b441b4d8ecfb2d8a116aed","","","","","3811","key"," "," ","33.33199999999951","499.9999891627921","249.99999458139604","instPog0","366.5","349.5","2","0","0","319.5"
"","psychophysics","137","798388","0.0-137.0","571e332b1bdf1a00119149f2","64b441b4d8ecfb2d8a116aed","","","","","8179","key"," "," ","33.331999999999866","499.9999891627921","249.99999458139604","instPog1","420.5","349.5","2","0","0","319.5"
"","psychophysics","138","803605","0.0-138.0","571e332b1bdf1a00119149f2","64b441b4d8ecfb2d8a116aed","","","","","5214","key"," "," ","33.33608387096845","499.9999891627921","249.99999458139604","instPog2","382.5","349.5","2","0","0","319.5"
"","psychophysics","139","804365","0.0-139.0","571e332b1bdf1a00119149f2","64b441b4d8ecfb2d8a116aed","","","","","753","key"," "," ","33.33200000000017","499.9999891627921","249.99999458139604","inst","","","","","",""
"","psychophysics","140","810353","0.0-140.0","571e332b1bdf1a00119149f2","64b441b4d8ecfb2d8a116aed","","","","","5986","key"," "," ","33.33199999999975","499.9999891627921","249.99999458139604","pog","365.5","330.5","2","0","0","279.5"
"","psychophysics","141","827407","0.0-141.0","571e332b1bdf1a00119149f2","64b441b4d8ecfb2d8a116aed","","","","","17052","key"," "," ","33.333305283757376","499.9999891627921","249.99999458139604","pog","416.5","278.5","2","0","0","342.5"
"","psychophysics","142","834968","0.0-142.0","571e332b1bdf1a00119149f2","64b441b4d8ecfb2d8a116aed","","","","","7559","key"," "," ","33.331999999999795","499.9999891627921","249.99999458139604","pog","409.5","347.5","2","0","0","339.5"
"","psychophysics","143","852958","0.0-143.0","571e332b1bdf1a00119149f2","64b441b4d8ecfb2d8a116aed","","","","","17988","key"," "," ","33.33323562152123","499.9999891627921","249.99999458139604","pog","437.5","257.5","2","0","0","357.5"
"","psychophysics","144","867694","0.0-144.0","571e332b1bdf1a00119149f2","64b441b4d8ecfb2d8a116aed","","","","","14733","key"," "," ","33.33350793650778","499.9999891627921","249.99999458139604","pog","404.5","293.5","2","0","0","327.5"
"","psychophysics","145","868806","0.0-145.0","571e332b1bdf1a00119149f2","64b441b4d8ecfb2d8a116aed","","","","","1110","key"," "," ","33.33200000000017","499.9999891627921","249.99999458139604","pog","394.5","394.5","2","0","0","313.5"
"","psychophysics","146","876776","0.0-146.0","571e332b1bdf1a00119149f2","64b441b4d8ecfb2d8a116aed","","","","","7967","key"," "," ","33.33200000000026","499.9999891627921","249.99999458139604","pog","425.5","363.5","2","0","0","356.5"
"","psychophysics","147","877855","0.0-147.0","571e332b1bdf1a00119149f2","64b441b4d8ecfb2d8a116aed","","","","","1078","key"," "," ","33.331999999996754","499.9999891627921","249.99999458139604","pog","372.5","372.5","2","0","0","317.5"
"","psychophysics","148","887042","0.0-148.0","571e332b1bdf1a00119149f2","64b441b4d8ecfb2d8a116aed","","","","","9185","key"," "," ","33.33442181818187","499.9999891627921","249.99999458139604","pog","411.5","328.5","2","0","0","351.5"
"","psychophysics","149","894412","0.0-149.0","571e332b1bdf1a00119149f2","64b441b4d8ecfb2d8a116aed","","","","","7368","key"," "," ","33.3335181818185","499.9999891627921","249.99999458139604","pog","353.5","303.5","2","0","0","281.5"
"","psychophysics","150","908332","0.0-150.0","571e332b1bdf1a00119149f2","64b441b4d8ecfb2d8a116aed","","","","","13919","key"," "," ","33.332802884615376","499.9999891627921","249.99999458139604","pog","380.5","250.5","2","0","0","314.5"
"","psychophysics","151","913902","0.0-151.0","571e332b1bdf1a00119149f2","64b441b4d8ecfb2d8a116aed","","","","","5567","key"," "," ","33.33400602409608","499.9999891627921","249.99999458139604","pog","414.5","366.5","2","0","0","351.5"
"","psychophysics","152","925918","0.0-152.0","571e332b1bdf1a00119149f2","64b441b4d8ecfb2d8a116aed","","","","","12014","key"," "," ","33.33200000000005","499.9999891627921","249.99999458139604","pog","389.5","265.5","2","0","0","319.5"
"","psychophysics","153","936087","0.0-153.0","571e332b1bdf1a00119149f2","64b441b4d8ecfb2d8a116aed","","","","","10165","key"," "," ","33.3340855263159","499.9999891627921","249.99999458139604","pog","391.5","294.5","2","0","0","317.5"
"","psychophysics","154","944810","0.0-154.0","571e332b1bdf1a00119149f2","64b441b4d8ecfb2d8a116aed","","","","","8720","key"," "," ","33.33200000000001","499.9999891627921","249.99999458139604","pog","410.5","349.5","2","0","0","338.5"
"","psychophysics","155","946215","0.0-155.0","571e332b1bdf1a00119149f2","64b441b4d8ecfb2d8a116aed","","","","","1403","key"," "," ","33.331999999999134","499.9999891627921","249.99999458139604","inst","","","","","",""
"","psychophysics","156","947632","0.0-156.0","571e332b1bdf1a00119149f2","64b441b4d8ecfb2d8a116aed","","","","","1415","key"," "," ","33.331999999999134","499.9999891627921","249.99999458139604","instPz4","15","15","1","","","30"
"","psychophysics","157","948656","0.0-157.0","571e332b1bdf1a00119149f2","64b441b4d8ecfb2d8a116aed","","","","","1022","key"," "," ","33.33199999999876","499.9999891627921","249.99999458139604","inst","","","","","",""
"","psychophysics","158","949059","0.0-158.0","571e332b1bdf1a00119149f2","64b441b4d8ecfb2d8a116aed","","","","","401","key"," "," ","33.33200000000017","499.9999891627921","249.99999458139604","pz","45","45","1","","","45"
"","psychophysics","159","949851","0.0-159.0","571e332b1bdf1a00119149f2","64b441b4d8ecfb2d8a116aed","","","","","787","key"," "," ","33.33200000000247","499.9999891627921","249.99999458139604","pz","55","55","1","","","49"
"","psychophysics","160","953969","0.0-160.0","571e332b1bdf1a00119149f2","64b441b4d8ecfb2d8a116aed","","","","","4116","key"," "," ","33.33745901639379","499.9999891627921","249.99999458139604","pz","37","28","1","","","20"
"","psychophysics","161","957722","0.0-161.0","571e332b1bdf1a00119149f2","64b441b4d8ecfb2d8a116aed","","","","","3751","key"," "," ","33.33200000000007","499.9999891627921","249.99999458139604","pz","49","32","1","","","35"
"","psychophysics","162","962616","0.0-162.0","571e332b1bdf1a00119149f2","64b441b4d8ecfb2d8a116aed","","","","","4891","key"," "," ","33.33199999999966","499.9999891627921","249.99999458139604","pz","83","40","1","","","56"
"","psychophysics","163","968522","0.0-163.0","571e332b1bdf1a00119149f2","64b441b4d8ecfb2d8a116aed","","","","","5903","key"," "," ","33.33200000000017","499.9999891627921","249.99999458139604","pz","58","39","1","","","48"
"","psychophysics","164","971967","0.0-164.0","571e332b1bdf1a00119149f2","64b441b4d8ecfb2d8a116aed","","","","","3441","key"," "," ","33.33200000000058","499.9999891627921","249.99999458139604","pz","45","28","1","","","33"
"","psychophysics","165","976413","0.0-165.0","571e332b1bdf1a00119149f2","64b441b4d8ecfb2d8a116aed","","","","","4443","key"," "," ","33.33700751879732","499.9999891627921","249.99999458139604","pz","55","23","1","","","47"
"","psychophysics","166","977334","0.0-166.0","571e332b1bdf1a00119149f2","64b441b4d8ecfb2d8a116aed","","","","","920","key"," "," ","33.331999999999354","499.9999891627921","249.99999458139604","pz","51","51","1","","","34"
"","psychophysics","167","979689","0.0-167.0","571e332b1bdf1a00119149f2","64b441b4d8ecfb2d8a116aed","","","","","2352","key"," "," ","33.331999999999866","499.9999891627921","249.99999458139604","pz","62","51","1","","","50"
"","psychophysics","168","982383","0.0-168.0","571e332b1bdf1a00119149f2","64b441b4d8ecfb2d8a116aed","","","","","2688","key"," "," ","33.33199999999924","499.9999891627921","249.99999458139604","pz","67","49","1","","","53"
"","psychophysics","169","986924","0.0-169.0","571e332b1bdf1a00119149f2","64b441b4d8ecfb2d8a116aed","","","","","4538","key"," "," ","33.33199999999962","499.9999891627921","249.99999458139604","pz","89","52","1","","","57"
"","psychophysics","170","990238","0.0-170.0","571e332b1bdf1a00119149f2","64b441b4d8ecfb2d8a116aed","","","","","3310","key"," "," ","33.33199999999963","499.9999891627921","249.99999458139604","pz","83","58","1","","","53"
"","psychophysics","171","993355","0.0-171.0","571e332b1bdf1a00119149f2","64b441b4d8ecfb2d8a116aed","","","","","3114","key"," "," ","33.33200000000051","499.9999891627921","249.99999458139604","pz","48","43","1","","","24"
"","psychophysics","172","996098","0.0-172.0","571e332b1bdf1a00119149f2","64b441b4d8ecfb2d8a116aed","","","","","2739","key"," "," ","33.3402469135795","499.9999891627921","249.99999458139604","pz","70","52","1","","","44"
"","psychophysics","173","996829","0.0-173.0","571e332b1bdf1a00119149f2","64b441b4d8ecfb2d8a116aed","","","","","725","key"," "," ","33.33199999999765","499.9999891627921","249.99999458139604","inst","","","","","",""
"","psychophysics","174","1005905","0.0-174.0","571e332b1bdf1a00119149f2","64b441b4d8ecfb2d8a116aed","","","","","9072","key"," "," ","33.331999999999816","499.9999891627921","249.99999458139604","instEB4","51","40","1","0","0","40"
"","psychophysics","175","1006462","0.0-175.0","571e332b1bdf1a00119149f2","64b441b4d8ecfb2d8a116aed","","","","","553","key"," "," ","33.33199999999488","499.9999891627921","249.99999458139604","inst","","","","","",""
"","psychophysics","176","1009817","0.0-176.0","571e332b1bdf1a00119149f2","64b441b4d8ecfb2d8a116aed","","","","","3352","key"," "," ","33.33199999999953","499.9999891627921","249.99999458139604","eb","39","27","1","0","0","26"
"","psychophysics","177","1012618","0.0-177.0","571e332b1bdf1a00119149f2","64b441b4d8ecfb2d8a116aed","","","","","2799","key"," "," ","33.33199999999979","499.9999891627921","249.99999458139604","eb","50","31","1","0","0","42"
"","psychophysics","178","1014408","0.0-178.0","571e332b1bdf1a00119149f2","64b441b4d8ecfb2d8a116aed","","","","","1789","key"," "," ","33.344547169812394","499.9999891627921","249.99999458139604","eb","59","50","1","0","0","48"
"","psychophysics","179","1016310","0.0-179.0","571e332b1bdf1a00119149f2","64b441b4d8ecfb2d8a116aed","","","","","1900","key"," "," ","33.331999999999034","499.9999891627921","249.99999458139604","eb","57","48","1","0","0","50"
"","psychophysics","180","1018144","0.0-180.0","571e332b1bdf1a00119149f2","64b441b4d8ecfb2d8a116aed","","","","","1833","key"," "," ","33.33199999999919","499.9999891627921","249.99999458139604","eb","52","42","1","0","0","51"
"","psychophysics","181","1022148","0.0-181.0","571e332b1bdf1a00119149f2","64b441b4d8ecfb2d8a116aed","","","","","4002","key"," "," ","33.33200000000026","499.9999891627921","249.99999458139604","eb","57","34","1","0","0","48"
"","psychophysics","182","1024537","0.0-182.0","571e332b1bdf1a00119149f2","64b441b4d8ecfb2d8a116aed","","","","","2388","key"," "," ","33.33675714285678","499.9999891627921","249.99999458139604","eb","23","30","1","0","0","24"
"","psychophysics","183","1025844","0.0-183.0","571e332b1bdf1a00119149f2","64b441b4d8ecfb2d8a116aed","","","","","1302","key"," "," ","33.331999999999354","499.9999891627921","249.99999458139604","eb","52","52","1","0","0","50"
"","psychophysics","184","1029763","0.0-184.0","571e332b1bdf1a00119149f2","64b441b4d8ecfb2d8a116aed","","","","","3918","key"," "," ","33.331999999999894","499.9999891627921","249.99999458139604","eb","50","34","1","0","0","44"
"","psychophysics","185","1031765","0.0-185.0","571e332b1bdf1a00119149f2","64b441b4d8ecfb2d8a116aed","","","","","1999","key"," "," ","33.33199999999981","499.9999891627921","249.99999458139604","eb","45","51","1","0","0","37"
"","psychophysics","186","1034252","0.0-186.0","571e332b1bdf1a00119149f2","64b441b4d8ecfb2d8a116aed","","","","","2485","key"," "," ","33.331999999999596","499.9999891627921","249.99999458139604","eb","38","24","1","0","0","34"
"","psychophysics","187","1036513","0.0-187.0","571e332b1bdf1a00119149f2","64b441b4d8ecfb2d8a116aed","","","","","2257","key"," "," ","33.33200000000096","499.9999891627921","249.99999458139604","eb","52","39","1","0","0","42"
"","psychophysics","188","1039132","0.0-188.0","571e332b1bdf1a00119149f2","64b441b4d8ecfb2d8a116aed","","","","","2618","key"," "," ","33.33200000000017","499.9999891627921","249.99999458139604","eb","47","34","1","0","0","39"
"","psychophysics","189","1041717","0.0-189.0","571e332b1bdf1a00119149f2","64b441b4d8ecfb2d8a116aed","","","","","2583","key"," "," ","33.33200000000017","499.9999891627921","249.99999458139604","eb","23","30","1","0","0","24"
"","psychophysics","190","1043572","0.0-190.0","571e332b1bdf1a00119149f2","64b441b4d8ecfb2d8a116aed","","","","","1854","key"," "," ","33.332000000001344","499.9999891627921","249.99999458139604","eb","55","46","1","0","0","47"
"","psychophysics","191","1044314","0.0-191.0","571e332b1bdf1a00119149f2","64b441b4d8ecfb2d8a116aed","","","","","739","key"," "," ","33.36081818181662","499.9999891627921","249.99999458139604","inst","","","","","",""
"","psychophysics","192","1048785","0.0-192.0","571e332b1bdf1a00119149f2","64b441b4d8ecfb2d8a116aed","","","","","4465","key"," "," ","33.331999999999695","499.9999891627921","249.99999458139604","instBr","37","40","2","0","0","300"
"","psychophysics","193","1049366","0.0-193.0","571e332b1bdf1a00119149f2","64b441b4d8ecfb2d8a116aed","","","","","580","key"," "," ","33.33200000000943","499.9999891627921","249.99999458139604","inst","","","","","",""
"","psychophysics","194","1052283","0.0-194.0","571e332b1bdf1a00119149f2","64b441b4d8ecfb2d8a116aed","","","","","2913","key"," "," ","33.332000000000896","499.9999891627921","249.99999458139604","br","40","25","2","26","-17","300"
"","psychophysics","195","1054290","0.0-195.0","571e332b1bdf1a00119149f2","64b441b4d8ecfb2d8a116aed","","","","","2006","key"," "," ","33.33199999999981","499.9999891627921","249.99999458139604","br","29","2","2","-20","-17","300"
"","psychophysics","196","1060339","0.0-196.0","571e332b1bdf1a00119149f2","64b441b4d8ecfb2d8a116aed","","","","","6047","key"," "," ","33.33200000000005","499.9999891627921","249.99999458139604","br","30","-49","2","11","8","300"
"","psychophysics","197","1066457","0.0-197.0","571e332b1bdf1a00119149f2","64b441b4d8ecfb2d8a116aed","","","","","6113","key"," "," ","33.335644808742906","499.9999891627921","249.99999458139604","br","34","-37","2","27","-27","300"
"","psychophysics","198","1071362","0.0-198.0","571e332b1bdf1a00119149f2","64b441b4d8ecfb2d8a116aed","","","","","4903","key"," "," ","33.33200000000046","499.9999891627921","249.99999458139604","br","34","-31","2","4","-25","300"
"","psychophysics","199","1073596","0.0-199.0","571e332b1bdf1a00119149f2","64b441b4d8ecfb2d8a116aed","","","","","2231","key"," "," ","33.33200000000017","499.9999891627921","249.99999458139604","br","37","18","2","-19","26","300"
"","psychophysics","200","1077016","0.0-200.0","571e332b1bdf1a00119149f2","64b441b4d8ecfb2d8a116aed","","","","","3418","key"," "," ","33.33200000000058","499.9999891627921","249.99999458139604","br","22","-30","2","-24","-27","300"
"","psychophysics","201","1078700","0.0-201.0","571e332b1bdf1a00119149f2","64b441b4d8ecfb2d8a116aed","","","","","1679","key"," "," ","33.33200000000319","499.9999891627921","249.99999458139604","br","30","-6","2","-2","14","300"
"","psychophysics","202","1082640","0.0-202.0","571e332b1bdf1a00119149f2","64b441b4d8ecfb2d8a116aed","","","","","3936","key"," "," ","33.33200000000035","499.9999891627921","249.99999458139604","br","27","23","2","27","-6","300"
"","psychophysics","203","1084378","0.0-203.0","571e332b1bdf1a00119149f2","64b441b4d8ecfb2d8a116aed","","","","","1734","key"," "," ","33.34480769230644","499.9999891627921","249.99999458139604","br","30","-6","2","-11","-25","300"
"","psychophysics","204","1086989","0.0-204.0","571e332b1bdf1a00119149f2","64b441b4d8ecfb2d8a116aed","","","","","2608","key"," "," ","33.331999999997144","499.9999891627921","249.99999458139604","br","27","-17","2","-14","10","300"
"","psychophysics","205","1089664","0.0-205.0","571e332b1bdf1a00119149f2","64b441b4d8ecfb2d8a116aed","","","","","2672","key"," "," ","33.33199999999856","499.9999891627921","249.99999458139604","br","20","-30","2","-18","8","300"
"","psychophysics","206","1092824","0.0-206.0","571e332b1bdf1a00119149f2","64b441b4d8ecfb2d8a116aed","","","","","3158","key"," "," ","33.33200000000107","499.9999891627921","249.99999458139604","br","37","28","2","29","-22","300"
"","psychophysics","207","1096015","0.0-207.0","571e332b1bdf1a00119149f2","64b441b4d8ecfb2d8a116aed","","","","","3189","key"," "," ","33.33551578947441","499.9999891627921","249.99999458139604","br","34","23","2","-13","-15","300"
"","psychophysics","208","1101857","0.0-208.0","571e332b1bdf1a00119149f2","64b441b4d8ecfb2d8a116aed","","","","","5841","key"," "," ","33.332000000000896","499.9999891627921","249.99999458139604","br","21","-47","2","27","2","300"
