"success","trial_type","trial_index","time_elapsed","internal_node_id","pid","sid","timeout","failed_images","failed_audio","failed_video","rt","response_type","key_press","response","avg_frame_time","center_x","center_y","task","resp","version","jitterX","jitterY","start","parA"
"true","fullscreen","0","5173","0.0-0.0","5f5128c3aa1c4e30e4506d2c","64b442049b351427205efffe","","","","","","","","","","","","","","","","","",""
"true","preload","1","5179","0.0-1.0","5f5128c3aa1c4e30e4506d2c","64b442049b351427205efffe","false","[]","[]","[]","","","","","","","","","","","","","",""
"","psychophysics","2","11061","0.0-2.0","5f5128c3aa1c4e30e4506d2c","64b442049b351427205efffe","","","","","5857","key"," "," ","16.714042613636366","500","250","inst","","","","","",""
"","psychophysics","3","15307","0.0-3.0","5f5128c3aa1c4e30e4506d2c","64b442049b351427205efffe","","","","","4239","key"," "," ","16.6670157480315","500","250","sample1","","","","","",""
"","psychophysics","4","33116","0.0-4.0","5f5128c3aa1c4e30e4506d2c","64b442049b351427205efffe","","","","","17796","key"," "," ","16.66673127340824","500","250","sample2","100","","","","",""
"","psychophysics","5","44429","0.0-5.0","5f5128c3aa1c4e30e4506d2c","64b442049b351427205efffe","","","","","11309","key"," "," ","16.666539143279167","500","250","sample3","100","","","","",""
"","psychophysics","6","55115","0.0-6.0","5f5128c3aa1c4e30e4506d2c","64b442049b351427205efffe","","","","","10678","key"," "," ","16.66675975039001","500","250","sample4","98","","","","",""
"","psychophysics","7","61822","0.0-7.0","5f5128c3aa1c4e30e4506d2c","64b442049b351427205efffe","","","","","6703","key"," "," ","16.70831249999999","500","250","sample5","","","","","",""
"","psychophysics","8","78906","0.0-8.0","5f5128c3aa1c4e30e4506d2c","64b442049b351427205efffe","","","","","17075","key"," "," ","16.6666533203125","500","250","sample7","502","","","","",""
"","psychophysics","9","85038","0.0-9.0","5f5128c3aa1c4e30e4506d2c","64b442049b351427205efffe","","","","","6122","key"," "," ","16.666858310626687","500","250","inst","","","","","",""
"","psychophysics","10","92138","0.0-10.0","5f5128c3aa1c4e30e4506d2c","64b442049b351427205efffe","","","","","7096","key"," "," ","16.66681647058823","500","250","inst","","","","","",""
"","psychophysics","11","97584","0.0-11.0","5f5128c3aa1c4e30e4506d2c","64b442049b351427205efffe","","","","","5442","key"," "," ","16.66659202453986","500","250","inst","","","","","",""
"","psychophysics","12","101130","0.0-12.0","5f5128c3aa1c4e30e4506d2c","64b442049b351427205efffe","","","","","3543","key"," "," ","16.66679245283019","500","250","inst","","","","","",""
"","psychophysics","13","104428","0.0-13.0","5f5128c3aa1c4e30e4506d2c","64b442049b351427205efffe","","","","","3295","key"," "," ","16.666387755102008","500","250","inst","","","","","",""
"","psychophysics","14","111696","0.0-14.0","5f5128c3aa1c4e30e4506d2c","64b442049b351427205efffe","","","","","7259","key"," "," ","16.666724137931055","500","250","instBr0","NaN","","0","0","0","300"
"","psychophysics","15","128874","0.0-15.0","5f5128c3aa1c4e30e4506d2c","64b442049b351427205efffe","","","","","17171","key"," "," ","16.666694174757275","500","250","instBr1","NaN","","0","0","-40","300"
"","psychophysics","16","144298","0.0-16.0","5f5128c3aa1c4e30e4506d2c","64b442049b351427205efffe","","","","","15416","key"," "," ","16.666730810810822","500","250","instBr","-14","1","0","0","40","300"
"","psychophysics","17","148798","0.0-17.0","5f5128c3aa1c4e30e4506d2c","64b442049b351427205efffe","","","","","4497","key"," "," ","16.666955390334653","500","250","inst","","","","","",""
"","psychophysics","18","156489","0.0-18.0","5f5128c3aa1c4e30e4506d2c","64b442049b351427205efffe","","","","","7687","key"," "," ","16.666463043478206","500","250","br","-22","1","26","13","13","300"
"","psychophysics","19","164874","0.0-19.0","5f5128c3aa1c4e30e4506d2c","64b442049b351427205efffe","","","","","8384","key"," "," ","16.666756972111553","500","250","br","-18","1","21","26","-44","300"
"","psychophysics","20","173580","0.0-20.0","5f5128c3aa1c4e30e4506d2c","64b442049b351427205efffe","","","","","8698","key"," "," ","16.66676583493284","500","250","br","-17","1","8","-20","-19","300"
"","psychophysics","21","180702","0.0-21.0","5f5128c3aa1c4e30e4506d2c","64b442049b351427205efffe","","","","","7117","key"," "," ","16.666807962529305","500","250","br","-20","1","-11","-2","-24","300"
"","psychophysics","22","192763","0.0-22.0","5f5128c3aa1c4e30e4506d2c","64b442049b351427205efffe","","","","","12057","key"," "," ","16.66674376731301","500","250","br","-11","1","13","7","-20","300"
"","psychophysics","23","208170","0.0-23.0","5f5128c3aa1c4e30e4506d2c","64b442049b351427205efffe","","","","","15402","key"," "," ","16.66664502164503","500","250","br","-20","1","14","-11","-23","300"
"","psychophysics","24","214747","0.0-24.0","5f5128c3aa1c4e30e4506d2c","64b442049b351427205efffe","","","","","6573","key"," "," ","16.666763959390906","500","250","br","-22","1","-28","20","9","300"
"","psychophysics","25","221706","0.0-25.0","5f5128c3aa1c4e30e4506d2c","64b442049b351427205efffe","","","","","6956","key"," "," ","16.66666346153852","500","250","br","-20","1","7","26","-35","300"
"","psychophysics","26","231196","0.0-26.0","5f5128c3aa1c4e30e4506d2c","64b442049b351427205efffe","","","","","9482","key"," "," ","16.66680633802814","500","250","br","-14","1","-18","28","44","300"
"","psychophysics","27","237851","0.0-27.0","5f5128c3aa1c4e30e4506d2c","64b442049b351427205efffe","","","","","6650","key"," "," ","16.66681704260651","500","250","br","-18","1","19","1","-16","300"
"","psychophysics","28","245067","0.0-28.0","5f5128c3aa1c4e30e4506d2c","64b442049b351427205efffe","","","","","7213","key"," "," ","16.66665277777779","500","250","br","-18","1","26","-24","2","300"
"","psychophysics","29","250796","0.0-29.0","5f5128c3aa1c4e30e4506d2c","64b442049b351427205efffe","","","","","5726","key"," "," ","16.66661695906435","500","250","br","-16","1","-21","27","-5","300"
"","psychophysics","30","260138","0.0-30.0","5f5128c3aa1c4e30e4506d2c","64b442049b351427205efffe","","","","","9337","key"," "," ","16.666789285714287","500","250","br","-21","1","20","14","-48","300"
"","psychophysics","31","267163","0.0-31.0","5f5128c3aa1c4e30e4506d2c","64b442049b351427205efffe","","","","","7021","key"," "," ","16.666459523809525","500","250","br","-21","1","-21","-24","8","300"
"","psychophysics","32","271771","0.0-32.0","5f5128c3aa1c4e30e4506d2c","64b442049b351427205efffe","","","","","4601","key"," "," ","16.6666739130434","500","250","br","-14","1","30","-25","-11","300"
"","psychophysics","33","278096","0.0-33.0","5f5128c3aa1c4e30e4506d2c","64b442049b351427205efffe","","","","","6322","key"," "," ","16.666693121693147","500","250","inst","","","","","",""
"","psychophysics","34","294474","0.0-34.0","5f5128c3aa1c4e30e4506d2c","64b442049b351427205efffe","","","","","16373","key"," "," ","16.66669755600813","500","250","instPog0","384.5","2","0","0","349.5","319.5"
"","psychophysics","35","304282","0.0-35.0","5f5128c3aa1c4e30e4506d2c","64b442049b351427205efffe","","","","","9801","key"," "," ","16.666775510204104","500","250","instPog1","349.5","2","0","0","349.5","319.5"
"","psychophysics","36","308730","0.0-36.0","5f5128c3aa1c4e30e4506d2c","64b442049b351427205efffe","","","","","4445","key"," "," ","16.666808270676633","500","250","instPog2","349.5","2","0","0","349.5","319.5"
"","psychophysics","37","311263","0.0-37.0","5f5128c3aa1c4e30e4506d2c","64b442049b351427205efffe","","","","","2530","key"," "," ","16.667193333333124","500","250","inst","","","","","",""
"","psychophysics","38","334670","0.0-38.0","5f5128c3aa1c4e30e4506d2c","64b442049b351427205efffe","","","","","23402","key"," "," ","16.666633903133924","500","250","pog","416.5","2","0","0","326.5","333.5"
"","psychophysics","39","361098","0.0-39.0","5f5128c3aa1c4e30e4506d2c","64b442049b351427205efffe","","","","","26425","key"," "," ","16.66663785488958","500","250","pog","431.5","2","0","0","324.5","342.5"
"","psychophysics","40","372795","0.0-40.0","5f5128c3aa1c4e30e4506d2c","64b442049b351427205efffe","","","","","11694","key"," "," ","16.66674714285714","500","250","pog","405.5","2","0","0","356.5","308.5"
"","psychophysics","41","390458","0.0-41.0","5f5128c3aa1c4e30e4506d2c","64b442049b351427205efffe","","","","","17658","key"," "," ","16.666714825306872","500","250","pog","425.5","2","0","0","329.5","326.5"
"","psychophysics","42","406666","0.0-42.0","5f5128c3aa1c4e30e4506d2c","64b442049b351427205efffe","","","","","16201","key"," "," ","16.666722222222226","500","250","pog","440.5","2","0","0","261.5","344.5"
"","psychophysics","43","416474","0.0-43.0","5f5128c3aa1c4e30e4506d2c","64b442049b351427205efffe","","","","","9805","key"," "," ","16.66660817717206","500","250","pog","412.5","2","0","0","375.5","315.5"
"","psychophysics","44","447371","0.0-44.0","5f5128c3aa1c4e30e4506d2c","64b442049b351427205efffe","","","","","30890","key"," "," ","16.666696708041","500","250","pog","455.5","2","0","0","322.5","351.5"
"","psychophysics","45","467946","0.0-45.0","5f5128c3aa1c4e30e4506d2c","64b442049b351427205efffe","","","","","20572","key"," "," ","16.666665044606667","500","250","pog","377.5","2","0","0","246.5","289.5"
"","psychophysics","46","489579","0.0-46.0","5f5128c3aa1c4e30e4506d2c","64b442049b351427205efffe","","","","","21628","key"," "," ","16.666642251349273","500","250","pog","444.5","2","0","0","381.5","354.5"
"","psychophysics","47","500202","0.0-47.0","5f5128c3aa1c4e30e4506d2c","64b442049b351427205efffe","","","","","10618","key"," "," ","16.666602825745667","500","250","pog","413.5","2","0","0","384.5","328.5"
"","psychophysics","48","524079","0.0-48.0","5f5128c3aa1c4e30e4506d2c","64b442049b351427205efffe","","","","","23874","key"," "," ","16.666649196366162","500","250","pog","436.5","2","0","0","328.5","339.5"
"","psychophysics","49","539402","0.0-49.0","5f5128c3aa1c4e30e4506d2c","64b442049b351427205efffe","","","","","15316","key"," "," ","16.66674537540799","500","250","pog","425.5","2","0","0","357.5","326.5"
"","psychophysics","50","557838","0.0-50.0","5f5128c3aa1c4e30e4506d2c","64b442049b351427205efffe","","","","","18432","key"," "," ","16.66671945701366","500","250","pog","460.5","2","0","0","252.5","358.5"
"","psychophysics","51","576346","0.0-51.0","5f5128c3aa1c4e30e4506d2c","64b442049b351427205efffe","","","","","18505","key"," "," ","16.66671956717763","500","250","pog","442.5","2","0","0","263.5","332.5"
"","psychophysics","52","610298","0.0-52.0","5f5128c3aa1c4e30e4506d2c","64b442049b351427205efffe","","","","","33947","key"," "," ","16.666656357388284","500","250","pog","409.5","2","0","0","396.5","306.5"
"","psychophysics","53","613626","0.0-53.0","5f5128c3aa1c4e30e4506d2c","64b442049b351427205efffe","","","","","3324","key"," "," ","16.666611111110825","500","250","inst","","","","","",""
"","psychophysics","54","618169","0.0-54.0","5f5128c3aa1c4e30e4506d2c","64b442049b351427205efffe","","","","","4535","key"," "," ","16.66691176470597","500","250","instEB0","40","","0","0","40","40"
"","psychophysics","55","623821","0.0-55.0","5f5128c3aa1c4e30e4506d2c","64b442049b351427205efffe","","","","","5649","key"," "," ","16.66647633136086","500","250","instEB1","30","1","0","0","30","70"
"","psychophysics","56","630585","0.0-56.0","5f5128c3aa1c4e30e4506d2c","64b442049b351427205efffe","","","","","6760","key"," "," ","16.666669135802586","500","250","instEB2","60","1","0","0","60","40"
"","psychophysics","57","634317","0.0-57.0","5f5128c3aa1c4e30e4506d2c","64b442049b351427205efffe","","","","","3727","key"," "," ","16.666582959640934","500","250","instEB3","45","1","0","0","45","65"
"","psychophysics","58","654281","0.0-58.0","5f5128c3aa1c4e30e4506d2c","64b442049b351427205efffe","","","","","19959","key"," "," ","16.66675772765251","500","250","instEB4","47","1","0","0","40","40"
"","psychophysics","59","657518","0.0-59.0","5f5128c3aa1c4e30e4506d2c","64b442049b351427205efffe","","","","","3234","key"," "," ","16.666119170984388","500","250","inst","","","","","",""
"","psychophysics","60","665353","0.0-60.0","5f5128c3aa1c4e30e4506d2c","64b442049b351427205efffe","","","","","7831","key"," "," ","16.666814498933974","500","250","eb","40","1","0","0","47","34"
"","psychophysics","61","675914","0.0-61.0","5f5128c3aa1c4e30e4506d2c","64b442049b351427205efffe","","","","","10556","key"," "," ","16.666601895734647","500","250","eb","54","1","0","0","33","49"
"","psychophysics","62","682585","0.0-62.0","5f5128c3aa1c4e30e4506d2c","64b442049b351427205efffe","","","","","6666","key"," "," ","16.66682205513793","500","250","eb","41","1","0","0","51","34"
"","psychophysics","63","691611","0.0-63.0","5f5128c3aa1c4e30e4506d2c","64b442049b351427205efffe","","","","","9023","key"," "," ","16.666698148148136","500","250","eb","54","1","0","0","30","47"
"","psychophysics","64","698174","0.0-64.0","5f5128c3aa1c4e30e4506d2c","64b442049b351427205efffe","","","","","6555","key"," "," ","16.666819338422236","500","250","eb","55","1","0","0","28","52"
"","psychophysics","65","703611","0.0-65.0","5f5128c3aa1c4e30e4506d2c","64b442049b351427205efffe","","","","","5428","key"," "," ","16.66683076923104","500","250","eb","45","1","0","0","38","38"
"","psychophysics","66","709053","0.0-66.0","5f5128c3aa1c4e30e4506d2c","64b442049b351427205efffe","","","","","5436","key"," "," ","16.666932515337553","500","250","eb","45","1","0","0","29","40"
"","psychophysics","67","714248","0.0-67.0","5f5128c3aa1c4e30e4506d2c","64b442049b351427205efffe","","","","","5191","key"," "," ","16.666601286173524","500","250","eb","29","1","0","0","25","27"
"","psychophysics","68","722778","0.0-68.0","5f5128c3aa1c4e30e4506d2c","64b442049b351427205efffe","","","","","8527","key"," "," ","16.666663405088137","500","250","eb","58","1","0","0","47","51"
"","psychophysics","69","730105","0.0-69.0","5f5128c3aa1c4e30e4506d2c","64b442049b351427205efffe","","","","","7325","key"," "," ","16.66688127853864","500","250","eb","40","1","0","0","52","32"
"","psychophysics","70","735273","0.0-70.0","5f5128c3aa1c4e30e4506d2c","64b442049b351427205efffe","","","","","5163","key"," "," ","16.666877022653917","500","250","eb","46","1","0","0","49","40"
"","psychophysics","71","744095","0.0-71.0","5f5128c3aa1c4e30e4506d2c","64b442049b351427205efffe","","","","","8814","key"," "," ","16.6667651515152","500","250","eb","45","1","0","0","26","40"
"","psychophysics","72","752249","0.0-72.0","5f5128c3aa1c4e30e4506d2c","64b442049b351427205efffe","","","","","8148","key"," "," ","16.666777096114526","500","250","eb","54","1","0","0","39","48"
"","psychophysics","73","759208","0.0-73.0","5f5128c3aa1c4e30e4506d2c","64b442049b351427205efffe","","","","","6955","key"," "," ","16.666894230769124","500","250","eb","37","1","0","0","34","30"
"","psychophysics","74","770617","0.0-74.0","5f5128c3aa1c4e30e4506d2c","64b442049b351427205efffe","","","","","11404","key"," "," ","16.666758771929775","500","250","eb","54","1","0","0","41","45"
"","psychophysics","75","772488","0.0-75.0","5f5128c3aa1c4e30e4506d2c","64b442049b351427205efffe","","","","","1867","key"," "," ","16.667072072071402","500","250","inst","","","","","",""
"","psychophysics","76","777742","0.0-76.0","5f5128c3aa1c4e30e4506d2c","64b442049b351427205efffe","","","","","5251","key"," "," ","16.666856687897845","500","250","instZol0","0","","0","0","0",""
"","psychophysics","77","785689","0.0-77.0","5f5128c3aa1c4e30e4506d2c","64b442049b351427205efffe","","","","","7940","key"," "," ","16.666773109243618","500","250","instZol1","1.3","","0","0","-1.3",""
"","psychophysics","78","815916","0.0-78.0","5f5128c3aa1c4e30e4506d2c","64b442049b351427205efffe","","","","","30216","key"," "," ","16.666706012134526","500","250","instZol2","-0.39999999999999936","2","0","0","2",""
"","psychophysics","79","821081","0.0-79.0","5f5128c3aa1c4e30e4506d2c","64b442049b351427205efffe","","","","","5161","key"," "," ","16.666686084142185","500","250","inst","","","","","",""
"","psychophysics","80","852221","0.0-80.0","5f5128c3aa1c4e30e4506d2c","64b442049b351427205efffe","","","","","31135","key"," "," ","16.666653990358885","500","250","zol","-0.4","2","-26","6","0.5",""
"","psychophysics","81","866329","0.0-81.0","5f5128c3aa1c4e30e4506d2c","64b442049b351427205efffe","","","","","14097","key"," "," ","16.666755029585726","500","250","zol","-1.27","2","-2","-12","-0.73",""
"","psychophysics","82","897097","0.0-82.0","5f5128c3aa1c4e30e4506d2c","64b442049b351427205efffe","","","","","30760","key"," "," ","16.666679306608852","500","250","zol","-0.24999999999999997","2","29","13","0.05",""
"","psychophysics","83","911320","0.0-83.0","5f5128c3aa1c4e30e4506d2c","64b442049b351427205efffe","","","","","14217","key"," "," ","16.666659624413086","500","250","zol","-0.04000000000000001","2","-7","18","0.04",""
"","psychophysics","84","921848","0.0-84.0","5f5128c3aa1c4e30e4506d2c","64b442049b351427205efffe","","","","","10517","key"," "," ","16.666740095087146","500","250","zol","-0.1","2","12","-5","0",""
"","psychophysics","85","934362","0.0-85.0","5f5128c3aa1c4e30e4506d2c","64b442049b351427205efffe","","","","","12507","key"," "," ","16.66653671562087","500","250","zol","-0.009999999999999981","2","19","29","-0.29",""
"","psychophysics","86","954505","0.0-86.0","5f5128c3aa1c4e30e4506d2c","64b442049b351427205efffe","","","","","20135","key"," "," ","16.666661423841003","500","250","zol","-0.54","2","-21","-25","-0.06",""
"","psychophysics","87","963021","0.0-87.0","5f5128c3aa1c4e30e4506d2c","64b442049b351427205efffe","","","","","8505","key"," "," ","16.666796078431357","500","250","zol","-0.5","2","-28","16","-0.7",""
"","psychophysics","88","971225","0.0-88.0","5f5128c3aa1c4e30e4506d2c","64b442049b351427205efffe","","","","","8194","key"," "," ","16.666786150712817","500","250","zol","-0.6699999999999999","2","-7","28","-0.53",""
"","psychophysics","89","982968","0.0-89.0","5f5128c3aa1c4e30e4506d2c","64b442049b351427205efffe","","","","","11734","key"," "," ","16.666728693181952","500","250","zol","-0.6100000000000001","2","-28","17","0.71",""
"","psychophysics","90","992056","0.0-90.0","5f5128c3aa1c4e30e4506d2c","64b442049b351427205efffe","","","","","9082","key"," "," ","16.666909926470588","500","250","zol","-0.2399999999999999","2","-5","-7","-0.46",""
"","psychophysics","91","1012441","0.0-91.0","5f5128c3aa1c4e30e4506d2c","64b442049b351427205efffe","","","","","20375","key"," "," ","16.666730769230764","500","250","zol","-0.39","2","12","-8","0.49",""
"","psychophysics","92","1037562","0.0-92.0","5f5128c3aa1c4e30e4506d2c","64b442049b351427205efffe","","","","","25112","key"," "," ","16.6666885790173","500","250","zol","0.06999999999999995","2","7","-5","-0.27",""
"","psychophysics","93","1070872","0.0-93.0","5f5128c3aa1c4e30e4506d2c","64b442049b351427205efffe","","","","","33301","key"," "," ","16.666683683683676","500","250","zol","-0.22000000000000017","2","9","13","0.12",""
"","psychophysics","94","1078525","0.0-94.0","5f5128c3aa1c4e30e4506d2c","64b442049b351427205efffe","","","","","7641","key"," "," ","16.66676855895172","500","250","zol","-0.53","2","-22","7","0.53",""
"","psychophysics","95","1080746","0.0-95.0","5f5128c3aa1c4e30e4506d2c","64b442049b351427205efffe","","","","","2214","key"," "," ","16.667204545454517","500","250","inst","","","","","",""
"","psychophysics","96","1084264","0.0-96.0","5f5128c3aa1c4e30e4506d2c","64b442049b351427205efffe","","","","","3510","key"," "," ","16.66679620853034","500","250","instPz0","50","1","","","50","50"
"","psychophysics","97","1091209","0.0-97.0","5f5128c3aa1c4e30e4506d2c","64b442049b351427205efffe","","","","","6940","key"," "," ","16.666638554216934","500","250","instPz1","46","1","","","25","50"
"","psychophysics","98","1096040","0.0-98.0","5f5128c3aa1c4e30e4506d2c","64b442049b351427205efffe","","","","","4824","key"," "," ","16.66695847750922","500","250","instPz2","28","1","","","15","25"
"","psychophysics","99","1110488","0.0-99.0","5f5128c3aa1c4e30e4506d2c","64b442049b351427205efffe","","","","","14436","key"," "," ","16.666592378752988","500","250","instPz3","57","1","","","25","50"
"","psychophysics","100","1116425","0.0-100.0","5f5128c3aa1c4e30e4506d2c","64b442049b351427205efffe","","","","","5928","key"," "," ","16.66666760563352","500","250","instPz4","42","1","","","15","30"
"","psychophysics","101","1118681","0.0-101.0","5f5128c3aa1c4e30e4506d2c","64b442049b351427205efffe","","","","","2248","key"," "," ","16.667940740740892","500","250","inst","","","","","",""
"","psychophysics","102","1126488","0.0-102.0","5f5128c3aa1c4e30e4506d2c","64b442049b351427205efffe","","","","","7803","key"," "," ","16.666663811563033","500","250","pz","67","1","","","39","43"
"","psychophysics","103","1139432","0.0-103.0","5f5128c3aa1c4e30e4506d2c","64b442049b351427205efffe","","","","","12940","key"," "," ","16.66664304123704","500","250","pz","82","1","","","39","55"
"","psychophysics","104","1145384","0.0-104.0","5f5128c3aa1c4e30e4506d2c","64b442049b351427205efffe","","","","","5949","key"," "," ","16.666657303370343","500","250","pz","62","1","","","22","45"
"","psychophysics","105","1153976","0.0-105.0","5f5128c3aa1c4e30e4506d2c","64b442049b351427205efffe","","","","","8587","key"," "," ","16.666583657587683","500","250","pz","75","1","","","37","54"
"","psychophysics","106","1159608","0.0-106.0","5f5128c3aa1c4e30e4506d2c","64b442049b351427205efffe","","","","","5628","key"," "," ","16.666931750741302","500","250","pz","65","1","","","28","49"
"","psychophysics","107","1167768","0.0-107.0","5f5128c3aa1c4e30e4506d2c","64b442049b351427205efffe","","","","","8154","key"," "," ","16.6668200408997","500","250","pz","81","1","","","35","58"
"","psychophysics","108","1172936","0.0-108.0","5f5128c3aa1c4e30e4506d2c","64b442049b351427205efffe","","","","","5164","key"," "," ","16.66703236245921","500","250","pz","75","1","","","43","54"
"","psychophysics","109","1177672","0.0-109.0","5f5128c3aa1c4e30e4506d2c","64b442049b351427205efffe","","","","","4732","key"," "," ","16.666840989399347","500","250","pz","42","1","","","25","26"
"","psychophysics","110","1188729","0.0-110.0","5f5128c3aa1c4e30e4506d2c","64b442049b351427205efffe","","","","","11047","key"," "," ","16.666787009063356","500","250","pz","88","1","","","56","59"
"","psychophysics","111","1196730","0.0-111.0","5f5128c3aa1c4e30e4506d2c","64b442049b351427205efffe","","","","","7995","key"," "," ","16.666654166667044","500","250","pz","54","1","","","21","45"
"","psychophysics","112","1203246","0.0-112.0","5f5128c3aa1c4e30e4506d2c","64b442049b351427205efffe","","","","","6513","key"," "," ","16.666507692307903","500","250","pz","67","1","","","37","47"
"","psychophysics","113","1208216","0.0-113.0","5f5128c3aa1c4e30e4506d2c","64b442049b351427205efffe","","","","","4966","key"," "," ","16.666639730640018","500","250","pz","46","1","","","24","29"
"","psychophysics","114","1214936","0.0-114.0","5f5128c3aa1c4e30e4506d2c","64b442049b351427205efffe","","","","","6716","key"," "," ","16.666875621890625","500","250","pz","82","1","","","55","53"
"","psychophysics","115","1221832","0.0-115.0","5f5128c3aa1c4e30e4506d2c","64b442049b351427205efffe","","","","","6891","key"," "," ","16.666593220338594","500","250","pz","56","1","","","46","47"
"","psychophysics","116","1226968","0.0-116.0","5f5128c3aa1c4e30e4506d2c","64b442049b351427205efffe","","","","","5132","key"," "," ","16.666456026058487","500","250","pz","47","1","","","26","36"
"","psychophysics","117","1228504","0.0-117.0","5f5128c3aa1c4e30e4506d2c","64b442049b351427205efffe","","","","","1533","key"," "," ","16.666967032968508","500","250","inst","","","","","",""
"","psychophysics","118","1243320","0.0-118.0","5f5128c3aa1c4e30e4506d2c","64b442049b351427205efffe","","","","","14812","key"," "," ","16.666679054053986","500","250","instBr","24","2","0","0","40","300"
"","psychophysics","119","1244440","0.0-119.0","5f5128c3aa1c4e30e4506d2c","64b442049b351427205efffe","","","","","1117","key"," "," ","16.66669696969841","500","250","inst","","","","","",""
"","psychophysics","120","1252023","0.0-120.0","5f5128c3aa1c4e30e4506d2c","64b442049b351427205efffe","","","","","7577","key"," "," ","16.66654185021998","500","250","br","26","2","-11","-3","-45","300"
"","psychophysics","121","1259085","0.0-121.0","5f5128c3aa1c4e30e4506d2c","64b442049b351427205efffe","","","","","7060","key"," "," ","16.666990543735473","500","250","br","28","2","11","-26","-25","300"
"","psychophysics","122","1265288","0.0-122.0","5f5128c3aa1c4e30e4506d2c","64b442049b351427205efffe","","","","","6200","key"," "," ","16.66650673854441","500","250","br","29","2","15","17","-38","300"
"","psychophysics","123","1269229","0.0-123.0","5f5128c3aa1c4e30e4506d2c","64b442049b351427205efffe","","","","","3938","key"," "," ","16.66666101694987","500","250","br","37","2","-28","-19","10","300"
"","psychophysics","124","1274056","0.0-124.0","5f5128c3aa1c4e30e4506d2c","64b442049b351427205efffe","","","","","4823","key"," "," ","16.666583333333417","500","250","br","25","2","30","3","15","300"
"","psychophysics","125","1283578","0.0-125.0","5f5128c3aa1c4e30e4506d2c","64b442049b351427205efffe","","","","","9515","key"," "," ","16.666843859649166","500","250","br","27","2","-2","9","-35","300"
"","psychophysics","126","1288840","0.0-126.0","5f5128c3aa1c4e30e4506d2c","64b442049b351427205efffe","","","","","5258","key"," "," ","16.66684444444476","500","250","br","32","2","17","-27","26","300"
"","psychophysics","127","1293992","0.0-127.0","5f5128c3aa1c4e30e4506d2c","64b442049b351427205efffe","","","","","5143","key"," "," ","16.666944805194788","500","250","br","33","2","-13","22","45","300"
"","psychophysics","128","1305704","0.0-128.0","5f5128c3aa1c4e30e4506d2c","64b442049b351427205efffe","","","","","11706","key"," "," ","16.666730769230664","500","250","br","24","2","-25","-5","-45","300"
"","psychophysics","129","1319129","0.0-129.0","5f5128c3aa1c4e30e4506d2c","64b442049b351427205efffe","","","","","13421","key"," "," ","16.666687810945266","500","250","br","28","2","21","4","-34","300"
"","psychophysics","130","1328040","0.0-130.0","5f5128c3aa1c4e30e4506d2c","64b442049b351427205efffe","","","","","8907","key"," "," ","16.666623595505534","500","250","br","37","2","-18","7","-47","300"
"","psychophysics","131","1333194","0.0-131.0","5f5128c3aa1c4e30e4506d2c","64b442049b351427205efffe","","","","","5147","key"," "," ","16.666964285714435","500","250","br","28","2","17","-3","44","300"
"","psychophysics","132","1339593","0.0-132.0","5f5128c3aa1c4e30e4506d2c","64b442049b351427205efffe","","","","","6393","key"," "," ","16.666584856397236","500","250","br","25","2","15","9","9","300"
"","psychophysics","133","1345672","0.0-133.0","5f5128c3aa1c4e30e4506d2c","64b442049b351427205efffe","","","","","6073","key"," "," ","16.666854395604677","500","250","br","33","2","-29","18","38","300"
"","psychophysics","134","1350473","0.0-134.0","5f5128c3aa1c4e30e4506d2c","64b442049b351427205efffe","","","","","4798","key"," "," ","16.66669686411131","500","250","br","31","2","-4","15","-32","300"
"","psychophysics","135","1354095","0.0-135.0","5f5128c3aa1c4e30e4506d2c","64b442049b351427205efffe","","","","","3620","key"," "," ","16.66711111111174","500","250","inst","","","","","",""
"","psychophysics","136","1369016","0.0-136.0","5f5128c3aa1c4e30e4506d2c","64b442049b351427205efffe","","","","","14913","key"," "," ","16.666777653631353","500","250","instZol2","0.3000000000000008","1","0","0","2",""
"","psychophysics","137","1370664","0.0-137.0","5f5128c3aa1c4e30e4506d2c","64b442049b351427205efffe","","","","","1645","key"," "," ","16.666193877551134","500","250","inst","","","","","",""
"","psychophysics","138","1403548","0.0-138.0","5f5128c3aa1c4e30e4506d2c","64b442049b351427205efffe","","","","","32879","key"," "," ","16.666629310344884","500","250","zol","0.8299999999999998","1","-9","-23","0.07",""
"","psychophysics","139","1428007","0.0-139.0","5f5128c3aa1c4e30e4506d2c","64b442049b351427205efffe","","","","","24453","key"," "," ","16.66665279672584","500","250","zol","0.23000000000000007","1","0","16","-0.03",""
"","psychophysics","140","1448777","0.0-140.0","5f5128c3aa1c4e30e4506d2c","64b442049b351427205efffe","","","","","20759","key"," "," ","16.666714859437796","500","250","zol","0.6200000000000001","1","-1","-19","-0.52",""
"","psychophysics","141","1464536","0.0-141.0","5f5128c3aa1c4e30e4506d2c","64b442049b351427205efffe","","","","","15750","key"," "," ","16.66674391534401","500","250","zol","0.6799999999999999","1","-14","-18","-0.38",""
"","psychophysics","142","1482168","0.0-142.0","5f5128c3aa1c4e30e4506d2c","64b442049b351427205efffe","","","","","17621","key"," "," ","16.66669725638602","500","250","zol","0.41000000000000014","1","-16","28","0.69",""
"","psychophysics","143","1505640","0.0-143.0","5f5128c3aa1c4e30e4506d2c","64b442049b351427205efffe","","","","","23466","key"," "," ","16.666663823738315","500","250","zol","0.3200000000000002","1","-27","3","-0.12",""
"","psychophysics","144","1526584","0.0-144.0","5f5128c3aa1c4e30e4506d2c","64b442049b351427205efffe","","","","","20935","key"," "," ","16.666705414012725","500","250","zol","0.23999999999999996","1","-4","26","0.56",""
"","psychophysics","145","1528824","0.0-145.0","5f5128c3aa1c4e30e4506d2c","64b442049b351427205efffe","","","","","2234","key"," "," ","16.66674436090332","500","250","zol","-0.37","1","-29","4","0.37",""
"","psychophysics","146","1542829","0.0-146.0","5f5128c3aa1c4e30e4506d2c","64b442049b351427205efffe","","","","","13995","key"," "," ","16.66672109654345","500","250","zol","0.23000000000000018","1","23","20","0.07",""
"","psychophysics","147","1563320","0.0-147.0","5f5128c3aa1c4e30e4506d2c","64b442049b351427205efffe","","","","","20483","key"," "," ","16.666721724979528","500","250","zol","0.39","1","18","17","-0.39",""
"","psychophysics","148","1584092","0.0-148.0","5f5128c3aa1c4e30e4506d2c","64b442049b351427205efffe","","","","","20762","key"," "," ","16.66671244979922","500","250","zol","0.69","1","-8","-15","-0.29",""
"","psychophysics","149","1609080","0.0-149.0","5f5128c3aa1c4e30e4506d2c","64b442049b351427205efffe","","","","","24979","key"," "," ","16.666723815877248","500","250","zol","0.6799999999999999","1","12","5","0.12",""
"","psychophysics","150","1626823","0.0-150.0","5f5128c3aa1c4e30e4506d2c","64b442049b351427205efffe","","","","","17738","key"," "," ","16.66667262464718","500","250","zol","0.3400000000000001","1","-29","-21","0.26",""
"","psychophysics","151","1656983","0.0-151.0","5f5128c3aa1c4e30e4506d2c","64b442049b351427205efffe","","","","","30151","key"," "," ","16.666708126036458","500","250","zol","0.5799999999999997","1","14","20","0.02",""
"","psychophysics","152","1673879","0.0-152.0","5f5128c3aa1c4e30e4506d2c","64b442049b351427205efffe","","","","","16890","key"," "," ","16.666640671273473","500","250","zol","0.16","1","29","-19","0.24",""
"","psychophysics","153","1682091","0.0-153.0","5f5128c3aa1c4e30e4506d2c","64b442049b351427205efffe","","","","","8209","key"," "," ","16.66670061099768","500","250","inst","","","","","",""
"","psychophysics","154","1704328","0.0-154.0","5f5128c3aa1c4e30e4506d2c","64b442049b351427205efffe","","","","","22228","key"," "," ","16.666690172543206","500","250","instPz4","13","2","","","15","30"
"","psychophysics","155","1705655","0.0-155.0","5f5128c3aa1c4e30e4506d2c","64b442049b351427205efffe","","","","","1322","key"," "," ","16.66606329113858","500","250","inst","","","","","",""
"","psychophysics","156","1717223","0.0-156.0","5f5128c3aa1c4e30e4506d2c","64b442049b351427205efffe","","","","","11561","key"," "," ","16.666800865801026","500","250","pz","43","2","","","54","58"
"","psychophysics","157","1721975","0.0-157.0","5f5128c3aa1c4e30e4506d2c","64b442049b351427205efffe","","","","","4745","key"," "," ","16.66668661971803","500","250","pz","33","2","","","25","46"
"","psychophysics","158","1726519","0.0-158.0","5f5128c3aa1c4e30e4506d2c","64b442049b351427205efffe","","","","","4537","key"," "," ","16.666992647058898","500","250","pz","30","2","","","21","41"
"","psychophysics","159","1731144","0.0-159.0","5f5128c3aa1c4e30e4506d2c","64b442049b351427205efffe","","","","","4621","key"," "," ","16.66663768115973","500","250","pz","35","2","","","27","57"
"","psychophysics","160","1740696","0.0-160.0","5f5128c3aa1c4e30e4506d2c","64b442049b351427205efffe","","","","","9546","key"," "," ","16.666738219895638","500","250","pz","15","2","","","48","20"
"","psychophysics","161","1745751","0.0-161.0","5f5128c3aa1c4e30e4506d2c","64b442049b351427205efffe","","","","","5051","key"," "," ","16.66667218543034","500","250","pz","22","2","","","54","29"
"","psychophysics","162","1750855","0.0-162.0","5f5128c3aa1c4e30e4506d2c","64b442049b351427205efffe","","","","","5100","key"," "," ","16.6668393442621","500","250","pz","34","2","","","37","49"
"","psychophysics","163","1755847","0.0-163.0","5f5128c3aa1c4e30e4506d2c","64b442049b351427205efffe","","","","","4985","key"," "," ","16.666959866221035","500","250","pz","32","2","","","29","44"
"","psychophysics","164","1761961","0.0-164.0","5f5128c3aa1c4e30e4506d2c","64b442049b351427205efffe","","","","","6110","key"," "," ","16.6668465753424","500","250","pz","18","2","","","30","23"
"","psychophysics","165","1767063","0.0-165.0","5f5128c3aa1c4e30e4506d2c","64b442049b351427205efffe","","","","","5097","key"," "," ","16.666823529411605","500","250","pz","29","2","","","34","43"
"","psychophysics","166","1778967","0.0-166.0","5f5128c3aa1c4e30e4506d2c","64b442049b351427205efffe","","","","","11900","key"," "," ","16.666647966339177","500","250","pz","27","2","","","49","40"
"","psychophysics","167","1784968","0.0-167.0","5f5128c3aa1c4e30e4506d2c","64b442049b351427205efffe","","","","","5997","key"," "," ","16.666727019498556","500","250","pz","42","2","","","52","59"
"","psychophysics","168","1792745","0.0-168.0","5f5128c3aa1c4e30e4506d2c","64b442049b351427205efffe","","","","","7773","key"," "," ","16.666772043011","500","250","pz","22","2","","","45","28"
"","psychophysics","169","1799671","0.0-169.0","5f5128c3aa1c4e30e4506d2c","64b442049b351427205efffe","","","","","6920","key"," "," ","16.66683132530089","500","250","pz","14","2","","","52","20"
"","psychophysics","170","1805579","0.0-170.0","5f5128c3aa1c4e30e4506d2c","64b442049b351427205efffe","","","","","5904","key"," "," ","16.66650564971743","500","250","pz","32","2","","","33","52"
"","psychophysics","171","1807831","0.0-171.0","5f5128c3aa1c4e30e4506d2c","64b442049b351427205efffe","","","","","2248","key"," "," ","16.66572388059654","500","250","inst","","","","","",""
"","psychophysics","172","1817128","0.0-172.0","5f5128c3aa1c4e30e4506d2c","64b442049b351427205efffe","","","","","9290","key"," "," ","16.666829136690616","500","250","instEB4","47","2","0","0","40","40"
"","psychophysics","173","1818055","0.0-173.0","5f5128c3aa1c4e30e4506d2c","64b442049b351427205efffe","","","","","922","key"," "," ","16.667363636360758","500","250","inst","","","","","",""
"","psychophysics","174","1823767","0.0-174.0","5f5128c3aa1c4e30e4506d2c","64b442049b351427205efffe","","","","","5704","key"," "," ","16.66690935672476","500","250","eb","52","2","0","0","41","49"
"","psychophysics","175","1832376","0.0-175.0","5f5128c3aa1c4e30e4506d2c","64b442049b351427205efffe","","","","","8604","key"," "," ","16.666700970873833","500","250","eb","35","2","0","0","32","31"
"","psychophysics","176","1839591","0.0-176.0","5f5128c3aa1c4e30e4506d2c","64b442049b351427205efffe","","","","","7208","key"," "," ","16.666796296295985","500","250","eb","43","2","0","0","28","41"
"","psychophysics","177","1848777","0.0-177.0","5f5128c3aa1c4e30e4506d2c","64b442049b351427205efffe","","","","","9178","key"," "," ","16.666674545454285","500","250","eb","49","2","0","0","31","43"
"","psychophysics","178","1855383","0.0-178.0","5f5128c3aa1c4e30e4506d2c","64b442049b351427205efffe","","","","","6602","key"," "," ","16.66672222222251","500","250","eb","57","2","0","0","53","50"
"","psychophysics","179","1868869","0.0-179.0","5f5128c3aa1c4e30e4506d2c","64b442049b351427205efffe","","","","","13482","key"," "," ","16.66642945544566","500","250","eb","59","2","0","0","31","53"
"","psychophysics","180","1878855","0.0-180.0","5f5128c3aa1c4e30e4506d2c","64b442049b351427205efffe","","","","","9984","key"," "," ","16.666946488294368","500","250","eb","46","2","0","0","38","41"
"","psychophysics","181","1886231","0.0-181.0","5f5128c3aa1c4e30e4506d2c","64b442049b351427205efffe","","","","","7368","key"," "," ","16.666791855203773","500","250","eb","55","2","0","0","25","52"
"","psychophysics","182","1896502","0.0-182.0","5f5128c3aa1c4e30e4506d2c","64b442049b351427205efffe","","","","","10267","key"," "," ","16.666606504065022","500","250","eb","27","2","0","0","44","25"
"","psychophysics","183","1903164","0.0-183.0","5f5128c3aa1c4e30e4506d2c","64b442049b351427205efffe","","","","","6657","key"," "," ","16.66643107769413","500","250","eb","36","2","0","0","29","33"
"","psychophysics","184","1919735","0.0-184.0","5f5128c3aa1c4e30e4506d2c","64b442049b351427205efffe","","","","","16567","key"," "," ","16.666732124874063","500","250","eb","56","2","0","0","53","51"
"","psychophysics","185","1926487","0.0-185.0","5f5128c3aa1c4e30e4506d2c","64b442049b351427205efffe","","","","","6747","key"," "," ","16.666428217822272","500","250","eb","37","2","0","0","29","35"
"","psychophysics","186","1930712","0.0-186.0","5f5128c3aa1c4e30e4506d2c","64b442049b351427205efffe","","","","","4216","key"," "," ","16.66689682539667","500","250","eb","51","2","0","0","45","46"
"","psychophysics","187","1933767","0.0-187.0","5f5128c3aa1c4e30e4506d2c","64b442049b351427205efffe","","","","","3048","key"," "," ","16.666726775955958","500","250","eb","55","2","0","0","52","46"
"","psychophysics","188","1937191","0.0-188.0","5f5128c3aa1c4e30e4506d2c","64b442049b351427205efffe","","","","","3419","key"," "," ","16.666916666666555","500","250","eb","57","2","0","0","54","51"
"","psychophysics","189","1941782","0.0-189.0","5f5128c3aa1c4e30e4506d2c","64b442049b351427205efffe","","","","","4584","key"," "," ","16.66697090909139","500","250","inst","","","","","",""
"","psychophysics","190","1953191","0.0-190.0","5f5128c3aa1c4e30e4506d2c","64b442049b351427205efffe","","","","","11405","key"," "," ","16.666698389458244","500","250","instPog0","160","1","0","0","190","160"
"","psychophysics","191","1963960","0.0-191.0","5f5128c3aa1c4e30e4506d2c","64b442049b351427205efffe","","","","","10762","key"," "," ","16.666789147286682","500","250","instPog1","168","1","0","0","190","160"
"","psychophysics","192","1974615","0.0-192.0","5f5128c3aa1c4e30e4506d2c","64b442049b351427205efffe","","","","","10649","key"," "," ","16.666677621283227","500","250","instPog2","178","1","0","0","190","160"
"","psychophysics","193","1976796","0.0-193.0","5f5128c3aa1c4e30e4506d2c","64b442049b351427205efffe","","","","","2178","key"," "," ","16.665853846153745","500","250","inst","","","","","",""
"","psychophysics","194","2001575","0.0-194.0","5f5128c3aa1c4e30e4506d2c","64b442049b351427205efffe","","","","","24775","key"," "," ","16.66665387205397","500","250","pog","193","1","0","0","131","187"
"","psychophysics","195","2008986","0.0-195.0","5f5128c3aa1c4e30e4506d2c","64b442049b351427205efffe","","","","","7406","key"," "," ","16.666878378377945","500","250","pog","200","1","0","0","212","185"
"","psychophysics","196","2020134","0.0-196.0","5f5128c3aa1c4e30e4506d2c","64b442049b351427205efffe","","","","","11145","key"," "," ","16.666761976047727","500","250","pog","171","1","0","0","192","153"
"","psychophysics","197","2031755","0.0-197.0","5f5128c3aa1c4e30e4506d2c","64b442049b351427205efffe","","","","","11617","key"," "," ","16.66658333333339","500","250","pog","180","1","0","0","153","159"
"","psychophysics","198","2036741","0.0-198.0","5f5128c3aa1c4e30e4506d2c","64b442049b351427205efffe","","","","","4984","key"," "," ","16.666422818791304","500","250","pog","181","1","0","0","159","165"
"","psychophysics","199","2042380","0.0-199.0","5f5128c3aa1c4e30e4506d2c","64b442049b351427205efffe","","","","","5635","key"," "," ","16.66697633136119","500","250","pog","171","1","0","0","184","158"
"","psychophysics","200","2054679","0.0-200.0","5f5128c3aa1c4e30e4506d2c","64b442049b351427205efffe","","","","","12296","key"," "," ","16.666606512889924","500","250","pog","172","1","0","0","89","166"
"","psychophysics","201","2064744","0.0-201.0","5f5128c3aa1c4e30e4506d2c","64b442049b351427205efffe","","","","","10062","key"," "," ","16.666712624584772","500","250","pog","181","1","0","0","97","185"
"","psychophysics","202","2074650","0.0-202.0","5f5128c3aa1c4e30e4506d2c","64b442049b351427205efffe","","","","","9901","key"," "," ","16.66679292929285","500","250","pog","171","1","0","0","92","163"
"","psychophysics","203","2081513","0.0-203.0","5f5128c3aa1c4e30e4506d2c","64b442049b351427205efffe","","","","","6859","key"," "," ","16.66672992700747","500","250","pog","161","1","0","0","128","150"
"","psychophysics","204","2093367","0.0-204.0","5f5128c3aa1c4e30e4506d2c","64b442049b351427205efffe","","","","","11851","key"," "," ","16.666652112676186","500","250","pog","188","1","0","0","222","178"
"","psychophysics","205","2106182","0.0-205.0","5f5128c3aa1c4e30e4506d2c","64b442049b351427205efffe","","","","","12813","key"," "," ","16.666739583333463","500","250","pog","146","1","0","0","190","131"
"","psychophysics","206","2119046","0.0-206.0","5f5128c3aa1c4e30e4506d2c","64b442049b351427205efffe","","","","","12862","key"," "," ","16.666652399481272","500","250","pog","205","1","0","0","216","199"
"","psychophysics","207","2133878","0.0-207.0","5f5128c3aa1c4e30e4506d2c","64b442049b351427205efffe","","","","","14829","key"," "," ","16.666654668166434","500","250","pog","166","1","0","0","102","163"
"","psychophysics","208","2141910","0.0-208.0","5f5128c3aa1c4e30e4506d2c","64b442049b351427205efffe","","","","","8028","key"," "," ","16.666487499999736","500","250","pog","162","1","0","0","213","150"
