"success","trial_type","trial_index","time_elapsed","internal_node_id","pid","sid","timeout","failed_images","failed_audio","failed_video","rt","response_type","key_press","response","avg_frame_time","center_x","center_y","task","resp","version","jitterX","jitterY","start","parA"
"true","fullscreen","0","2951","0.0-0.0","5f95c66b95185d4515eeec8d","64b4439ef2d556b565220e1e","","","","","","","","","","","","","","","","","",""
"true","preload","1","2953","0.0-1.0","5f95c66b95185d4515eeec8d","64b4439ef2d556b565220e1e","false","[]","[]","[]","","","","","","","","","","","","","",""
"","psychophysics","2","6913","0.0-2.0","5f95c66b95185d4515eeec8d","64b4439ef2d556b565220e1e","","","","","3948","key"," "," ","16.644810924369747","500","250","inst","","","","","",""
"","psychophysics","3","8675","0.0-3.0","5f95c66b95185d4515eeec8d","64b4439ef2d556b565220e1e","","","","","1759","key"," "," ","16.64768571428571","500","250","sample1","","","","","",""
"","psychophysics","4","10187","0.0-4.0","5f95c66b95185d4515eeec8d","64b4439ef2d556b565220e1e","","","","","1510","key"," "," ","16.65142222222221","500","250","sample2","130","","","","",""
"","psychophysics","5","18131","0.0-5.0","5f95c66b95185d4515eeec8d","64b4439ef2d556b565220e1e","","","","","7942","key"," "," ","16.651048319327735","500","250","sample3","114","","","","",""
"","psychophysics","6","24298","0.0-6.0","5f95c66b95185d4515eeec8d","64b4439ef2d556b565220e1e","","","","","6165","key"," "," ","16.69819293478261","500","250","sample4","100","","","","",""
"","psychophysics","7","26757","0.0-7.0","5f95c66b95185d4515eeec8d","64b4439ef2d556b565220e1e","","","","","2441","key"," "," ","16.651088435374145","500","250","sample5","","","","","",""
"","psychophysics","8","35309","0.0-8.0","5f95c66b95185d4515eeec8d","64b4439ef2d556b565220e1e","","","","","8544","key"," "," ","16.650365234374995","500","250","sample7","504","","","","",""
"","psychophysics","9","36750","0.0-9.0","5f95c66b95185d4515eeec8d","64b4439ef2d556b565220e1e","","","","","1420","key"," "," ","16.654813953488354","500","250","inst","","","","","",""
"","psychophysics","10","37628","0.0-10.0","5f95c66b95185d4515eeec8d","64b4439ef2d556b565220e1e","","","","","871","key"," "," ","16.650607843137337","500","250","inst","","","","","",""
"","psychophysics","11","38298","0.0-11.0","5f95c66b95185d4515eeec8d","64b4439ef2d556b565220e1e","","","","","657","key"," "," ","16.664424999999937","500","250","inst","","","","","",""
"","psychophysics","12","38976","0.0-12.0","5f95c66b95185d4515eeec8d","64b4439ef2d556b565220e1e","","","","","671","key"," "," ","16.652384615384783","500","250","inst","","","","","",""
"","psychophysics","13","39535","0.0-13.0","5f95c66b95185d4515eeec8d","64b4439ef2d556b565220e1e","","","","","549","key"," "," ","16.66472727272732","500","250","inst","","","","","",""
"","psychophysics","14","42440","0.0-14.0","5f95c66b95185d4515eeec8d","64b4439ef2d556b565220e1e","","","","","2890","key"," "," ","16.654150289017327","500","250","instBr0","NaN","","0","0","0","300"
"","psychophysics","15","46086","0.0-15.0","5f95c66b95185d4515eeec8d","64b4439ef2d556b565220e1e","","","","","3633","key"," "," ","16.650155963302737","500","250","instBr1","NaN","","0","0","-40","300"
"","psychophysics","16","50555","0.0-16.0","5f95c66b95185d4515eeec8d","64b4439ef2d556b565220e1e","","","","","4464","key"," "," ","16.65106716417912","500","250","instBr","38","2","0","0","40","300"
"","psychophysics","17","51736","0.0-17.0","5f95c66b95185d4515eeec8d","64b4439ef2d556b565220e1e","","","","","1174","key"," "," ","16.655371428571378","500","250","inst","","","","","",""
"","psychophysics","18","55007","0.0-18.0","5f95c66b95185d4515eeec8d","64b4439ef2d556b565220e1e","","","","","3266","key"," "," ","16.650133333333322","500","250","br","41","2","-8","23","-40","300"
"","psychophysics","19","57897","0.0-19.0","5f95c66b95185d4515eeec8d","64b4439ef2d556b565220e1e","","","","","2852","key"," "," ","16.74838953488371","500","250","br","37","2","-7","28","-36","300"
"","psychophysics","20","60812","0.0-20.0","5f95c66b95185d4515eeec8d","64b4439ef2d556b565220e1e","","","","","2909","key"," "," ","16.654017241379304","500","250","br","30","2","-30","-4","0","300"
"","psychophysics","21","63925","0.0-21.0","5f95c66b95185d4515eeec8d","64b4439ef2d556b565220e1e","","","","","3107","key"," "," ","16.651569892473095","500","250","br","32","2","-30","-13","-3","300"
"","psychophysics","22","67066","0.0-22.0","5f95c66b95185d4515eeec8d","64b4439ef2d556b565220e1e","","","","","3133","key"," "," ","16.654160427807494","500","250","br","32","2","-28","0","31","300"
"","psychophysics","23","70776","0.0-23.0","5f95c66b95185d4515eeec8d","64b4439ef2d556b565220e1e","","","","","3700","key"," "," ","16.64998198198199","500","250","br","32","2","2","-16","-8","300"
"","psychophysics","24","72666","0.0-24.0","5f95c66b95185d4515eeec8d","64b4439ef2d556b565220e1e","","","","","1878","key"," "," ","16.650840707964587","500","250","br","39","2","-16","-30","18","300"
"","psychophysics","25","76891","0.0-25.0","5f95c66b95185d4515eeec8d","64b4439ef2d556b565220e1e","","","","","4187","key"," "," ","16.653218253968273","500","250","br","29","2","-25","-13","-30","300"
"","psychophysics","26","79121","0.0-26.0","5f95c66b95185d4515eeec8d","64b4439ef2d556b565220e1e","","","","","2221","key"," "," ","16.6504060150376","500","250","br","34","2","-22","12","29","300"
"","psychophysics","27","81394","0.0-27.0","5f95c66b95185d4515eeec8d","64b4439ef2d556b565220e1e","","","","","2263","key"," "," ","16.651227941176437","500","250","br","35","2","-10","-24","3","300"
"","psychophysics","28","82524","0.0-28.0","5f95c66b95185d4515eeec8d","64b4439ef2d556b565220e1e","","","","","1117","key"," "," ","16.660014925373208","500","250","br","33","2","-22","-26","3","300"
"","psychophysics","29","85953","0.0-29.0","5f95c66b95185d4515eeec8d","64b4439ef2d556b565220e1e","","","","","3423","key"," "," ","16.651824390243885","500","250","br","40","2","10","-22","17","300"
"","psychophysics","30","89304","0.0-30.0","5f95c66b95185d4515eeec8d","64b4439ef2d556b565220e1e","","","","","3345","key"," "," ","16.649565000000003","500","250","br","34","2","-15","-15","-24","300"
"","psychophysics","31","92243","0.0-31.0","5f95c66b95185d4515eeec8d","64b4439ef2d556b565220e1e","","","","","2935","key"," "," ","16.65091999999996","500","250","br","39","2","20","30","-21","300"
"","psychophysics","32","94513","0.0-32.0","5f95c66b95185d4515eeec8d","64b4439ef2d556b565220e1e","","","","","2265","key"," "," ","16.653919117647092","500","250","br","29","2","-9","12","38","300"
"","psychophysics","33","95314","0.0-33.0","5f95c66b95185d4515eeec8d","64b4439ef2d556b565220e1e","","","","","795","key"," "," ","16.646425531914847","500","250","inst","","","","","",""
"","psychophysics","34","97981","0.0-34.0","5f95c66b95185d4515eeec8d","64b4439ef2d556b565220e1e","","","","","2664","key"," "," ","16.652710691823824","500","250","instPog0","190","1","0","0","190","160"
"","psychophysics","35","106423","0.0-35.0","5f95c66b95185d4515eeec8d","64b4439ef2d556b565220e1e","","","","","8431","key"," "," ","16.650652173913063","500","250","instPog1","176","1","0","0","190","160"
"","psychophysics","36","109288","0.0-36.0","5f95c66b95185d4515eeec8d","64b4439ef2d556b565220e1e","","","","","2862","key"," "," ","16.652543859649075","500","250","instPog2","197","1","0","0","190","160"
"","psychophysics","37","109937","0.0-37.0","5f95c66b95185d4515eeec8d","64b4439ef2d556b565220e1e","","","","","637","key"," "," ","16.664842105263425","500","250","inst","","","","","",""
"","psychophysics","38","115664","0.0-38.0","5f95c66b95185d4515eeec8d","64b4439ef2d556b565220e1e","","","","","5720","key"," "," ","16.65106122448979","500","250","pog","216","1","0","0","225","175"
"","psychophysics","39","123708","0.0-39.0","5f95c66b95185d4515eeec8d","64b4439ef2d556b565220e1e","","","","","8037","key"," "," ","16.89622736842105","500","250","pog","222","1","0","0","101","189"
"","psychophysics","40","192484","0.0-40.0","5f95c66b95185d4515eeec8d","64b4439ef2d556b565220e1e","","","","","68768","key"," "," ","16.687420771657365","500","250","pog","203","1","0","0","103","175"
"","psychophysics","41","196031","0.0-41.0","5f95c66b95185d4515eeec8d","64b4439ef2d556b565220e1e","","","","","3542","key"," "," ","16.650500000000083","500","250","pog","194","1","0","0","206","163"
"","psychophysics","42","203343","0.0-42.0","5f95c66b95185d4515eeec8d","64b4439ef2d556b565220e1e","","","","","7307","key"," "," ","16.651388127853924","500","250","pog","205","1","0","0","83","177"
"","psychophysics","43","207580","0.0-43.0","5f95c66b95185d4515eeec8d","64b4439ef2d556b565220e1e","","","","","4233","key"," "," ","16.647940711462464","500","250","pog","152","1","0","0","131","128"
"","psychophysics","44","210688","0.0-44.0","5f95c66b95185d4515eeec8d","64b4439ef2d556b565220e1e","","","","","3106","key"," "," ","16.652763440860316","500","250","pog","153","1","0","0","175","120"
"","psychophysics","45","215437","0.0-45.0","5f95c66b95185d4515eeec8d","64b4439ef2d556b565220e1e","","","","","4747","key"," "," ","16.65240492957745","500","250","pog","161","1","0","0","173","133"
"","psychophysics","46","218610","0.0-46.0","5f95c66b95185d4515eeec8d","64b4439ef2d556b565220e1e","","","","","3162","key"," "," ","16.65304210526305","500","250","pog","201","1","0","0","238","168"
"","psychophysics","47","222490","0.0-47.0","5f95c66b95185d4515eeec8d","64b4439ef2d556b565220e1e","","","","","3875","key"," "," ","16.65118103448273","500","250","pog","163","1","0","0","125","129"
"","psychophysics","48","232159","0.0-48.0","5f95c66b95185d4515eeec8d","64b4439ef2d556b565220e1e","","","","","9665","key"," "," ","16.64979965457685","500","250","pog","244","1","0","0","115","200"
"","psychophysics","49","237528","0.0-49.0","5f95c66b95185d4515eeec8d","64b4439ef2d556b565220e1e","","","","","5364","key"," "," ","16.652251552795104","500","250","pog","197","1","0","0","150","162"
"","psychophysics","50","241087","0.0-50.0","5f95c66b95185d4515eeec8d","64b4439ef2d556b565220e1e","","","","","3555","key"," "," ","16.72629716981135","500","250","pog","164","1","0","0","220","120"
"","psychophysics","51","244138","0.0-51.0","5f95c66b95185d4515eeec8d","64b4439ef2d556b565220e1e","","","","","3050","key"," "," ","16.65181318681321","500","250","pog","178","1","0","0","132","140"
"","psychophysics","52","247187","0.0-52.0","5f95c66b95185d4515eeec8d","64b4439ef2d556b565220e1e","","","","","3045","key"," "," ","16.65071823204419","500","250","pog","170","1","0","0","119","129"
"","psychophysics","53","247795","0.0-53.0","5f95c66b95185d4515eeec8d","64b4439ef2d556b565220e1e","","","","","596","key"," "," ","16.663527777777443","500","250","inst","","","","","",""
"","psychophysics","54","249534","0.0-54.0","5f95c66b95185d4515eeec8d","64b4439ef2d556b565220e1e","","","","","1718","key"," "," ","16.65080769230749","500","250","instPz0","49","2","","","50","50"
"","psychophysics","55","250879","0.0-55.0","5f95c66b95185d4515eeec8d","64b4439ef2d556b565220e1e","","","","","1326","key"," "," ","16.65466666666646","500","250","instPz1","25","2","","","25","50"
"","psychophysics","56","251579","0.0-56.0","5f95c66b95185d4515eeec8d","64b4439ef2d556b565220e1e","","","","","687","key"," "," ","16.66439024390221","500","250","instPz2","15","2","","","15","25"
"","psychophysics","57","259570","0.0-57.0","5f95c66b95185d4515eeec8d","64b4439ef2d556b565220e1e","","","","","7971","key"," "," ","16.686409185803775","500","250","instPz3","33","2","","","25","50"
"","psychophysics","58","266393","0.0-58.0","5f95c66b95185d4515eeec8d","64b4439ef2d556b565220e1e","","","","","6820","key"," "," ","16.651759803921653","500","250","instPz4","18","2","","","15","30"
"","psychophysics","59","267141","0.0-59.0","5f95c66b95185d4515eeec8d","64b4439ef2d556b565220e1e","","","","","737","key"," "," ","16.657681818181036","500","250","inst","","","","","",""
"","psychophysics","60","270544","0.0-60.0","5f95c66b95185d4515eeec8d","64b4439ef2d556b565220e1e","","","","","3386","key"," "," ","16.65318226600995","500","250","pz","26","2","","","31","41"
"","psychophysics","61","273599","0.0-61.0","5f95c66b95185d4515eeec8d","64b4439ef2d556b565220e1e","","","","","3019","key"," "," ","16.74187362637367","500","250","pz","26","2","","","52","44"
"","psychophysics","62","276014","0.0-62.0","5f95c66b95185d4515eeec8d","64b4439ef2d556b565220e1e","","","","","2403","key"," "," ","16.651562500000082","500","250","pz","28","2","","","51","37"
"","psychophysics","63","277886","0.0-63.0","5f95c66b95185d4515eeec8d","64b4439ef2d556b565220e1e","","","","","1865","key"," "," ","16.648999999999692","500","250","pz","27","2","","","30","57"
"","psychophysics","64","280114","0.0-64.0","5f95c66b95185d4515eeec8d","64b4439ef2d556b565220e1e","","","","","2226","key"," "," ","16.651348484848505","500","250","pz","25","2","","","45","48"
"","psychophysics","65","282569","0.0-65.0","5f95c66b95185d4515eeec8d","64b4439ef2d556b565220e1e","","","","","2443","key"," "," ","16.65394557823093","500","250","pz","27","2","","","46","34"
"","psychophysics","66","286400","0.0-66.0","5f95c66b95185d4515eeec8d","64b4439ef2d556b565220e1e","","","","","3825","key"," "," ","16.653484716157145","500","250","pz","30","2","","","50","46"
"","psychophysics","67","289555","0.0-67.0","5f95c66b95185d4515eeec8d","64b4439ef2d556b565220e1e","","","","","3149","key"," "," ","16.651132978723407","500","250","pz","35","2","","","58","57"
"","psychophysics","68","292576","0.0-68.0","5f95c66b95185d4515eeec8d","64b4439ef2d556b565220e1e","","","","","3008","key"," "," ","16.653718232044383","500","250","pz","30","2","","","29","49"
"","psychophysics","69","295149","0.0-69.0","5f95c66b95185d4515eeec8d","64b4439ef2d556b565220e1e","","","","","2568","key"," "," ","16.65079738562082","500","250","pz","28","2","","","50","39"
"","psychophysics","70","297291","0.0-70.0","5f95c66b95185d4515eeec8d","64b4439ef2d556b565220e1e","","","","","2135","key"," "," ","16.655671874999825","500","250","pz","33","2","","","49","54"
"","psychophysics","71","301502","0.0-71.0","5f95c66b95185d4515eeec8d","64b4439ef2d556b565220e1e","","","","","4199","key"," "," ","16.652535714285765","500","250","pz","24","2","","","55","27"
"","psychophysics","72","303518","0.0-72.0","5f95c66b95185d4515eeec8d","64b4439ef2d556b565220e1e","","","","","2002","key"," "," ","16.651266666666682","500","250","pz","17","2","","","38","20"
"","psychophysics","73","306343","0.0-73.0","5f95c66b95185d4515eeec8d","64b4439ef2d556b565220e1e","","","","","2824","key"," "," ","16.655426035503258","500","250","pz","22","2","","","58","42"
"","psychophysics","74","308533","0.0-74.0","5f95c66b95185d4515eeec8d","64b4439ef2d556b565220e1e","","","","","2185","key"," "," ","16.64568461538427","500","250","pz","26","2","","","46","40"
"","psychophysics","75","309184","0.0-75.0","5f95c66b95185d4515eeec8d","64b4439ef2d556b565220e1e","","","","","650","key"," "," ","16.65197368421114","500","250","inst","","","","","",""
"","psychophysics","76","310536","0.0-76.0","5f95c66b95185d4515eeec8d","64b4439ef2d556b565220e1e","","","","","1348","key"," "," ","16.65144444444435","500","250","instEB0","40","","0","0","40","40"
"","psychophysics","77","312287","0.0-77.0","5f95c66b95185d4515eeec8d","64b4439ef2d556b565220e1e","","","","","1750","key"," "," ","16.651009615384773","500","250","instEB1","30","2","0","0","30","70"
"","psychophysics","78","314378","0.0-78.0","5f95c66b95185d4515eeec8d","64b4439ef2d556b565220e1e","","","","","2089","key"," "," ","16.65103225806454","500","250","instEB2","60","2","0","0","60","40"
"","psychophysics","79","324654","0.0-79.0","5f95c66b95185d4515eeec8d","64b4439ef2d556b565220e1e","","","","","10272","key"," "," ","16.651040518638638","500","250","instEB3","71","2","0","0","45","65"
"","psychophysics","80","328410","0.0-80.0","5f95c66b95185d4515eeec8d","64b4439ef2d556b565220e1e","","","","","3754","key"," "," ","16.651084821428544","500","250","instEB4","47","2","0","0","40","40"
"","psychophysics","81","329124","0.0-81.0","5f95c66b95185d4515eeec8d","64b4439ef2d556b565220e1e","","","","","713","key"," "," ","16.651142857142812","500","250","inst","","","","","",""
"","psychophysics","82","332415","0.0-82.0","5f95c66b95185d4515eeec8d","64b4439ef2d556b565220e1e","","","","","3289","key"," "," ","16.650746192893326","500","250","eb","48","2","0","0","24","40"
"","psychophysics","83","334441","0.0-83.0","5f95c66b95185d4515eeec8d","64b4439ef2d556b565220e1e","","","","","2024","key"," "," ","16.651308333333386","500","250","eb","32","2","0","0","45","29"
"","psychophysics","84","335740","0.0-84.0","5f95c66b95185d4515eeec8d","64b4439ef2d556b565220e1e","","","","","1295","key"," "," ","16.651012987013324","500","250","eb","48","2","0","0","48","39"
"","psychophysics","85","337472","0.0-85.0","5f95c66b95185d4515eeec8d","64b4439ef2d556b565220e1e","","","","","1727","key"," "," ","16.65087378640813","500","250","eb","39","2","0","0","42","33"
"","psychophysics","86","339298","0.0-86.0","5f95c66b95185d4515eeec8d","64b4439ef2d556b565220e1e","","","","","1822","key"," "," ","16.656568807339372","500","250","eb","27","2","0","0","38","28"
"","psychophysics","87","341610","0.0-87.0","5f95c66b95185d4515eeec8d","64b4439ef2d556b565220e1e","","","","","2308","key"," "," ","16.650115942029093","500","250","eb","46","2","0","0","27","44"
"","psychophysics","88","344689","0.0-88.0","5f95c66b95185d4515eeec8d","64b4439ef2d556b565220e1e","","","","","3074","key"," "," ","16.651951086956693","500","250","eb","43","2","0","0","34","34"
"","psychophysics","89","346483","0.0-89.0","5f95c66b95185d4515eeec8d","64b4439ef2d556b565220e1e","","","","","1792","key"," "," ","16.65093457943947","500","250","eb","29","2","0","0","41","27"
"","psychophysics","90","348414","0.0-90.0","5f95c66b95185d4515eeec8d","64b4439ef2d556b565220e1e","","","","","1929","key"," "," ","16.650201754386153","500","250","eb","55","2","0","0","38","47"
"","psychophysics","91","351770","0.0-91.0","5f95c66b95185d4515eeec8d","64b4439ef2d556b565220e1e","","","","","3351","key"," "," ","16.90651010101011","500","250","eb","37","2","0","0","52","27"
"","psychophysics","92","354564","0.0-92.0","5f95c66b95185d4515eeec8d","64b4439ef2d556b565220e1e","","","","","2789","key"," "," ","16.75254216867482","500","250","eb","58","2","0","0","30","49"
"","psychophysics","93","357746","0.0-93.0","5f95c66b95185d4515eeec8d","64b4439ef2d556b565220e1e","","","","","3169","key"," "," ","17.100691891891717","500","250","eb","57","2","0","0","34","42"
"","psychophysics","94","362482","0.0-94.0","5f95c66b95185d4515eeec8d","64b4439ef2d556b565220e1e","","","","","4735","key"," "," ","16.70978723404267","500","250","eb","66","2","0","0","35","49"
"","psychophysics","95","366009","0.0-95.0","5f95c66b95185d4515eeec8d","64b4439ef2d556b565220e1e","","","","","3524","key"," "," ","16.649426540284267","500","250","eb","33","2","0","0","45","30"
"","psychophysics","96","367942","0.0-96.0","5f95c66b95185d4515eeec8d","64b4439ef2d556b565220e1e","","","","","1930","key"," "," ","16.65157391304383","500","250","eb","62","2","0","0","53","51"
"","psychophysics","97","368688","0.0-97.0","5f95c66b95185d4515eeec8d","64b4439ef2d556b565220e1e","","","","","744","key"," "," ","16.6579069767437","500","250","inst","","","","","",""
"","psychophysics","98","369843","0.0-98.0","5f95c66b95185d4515eeec8d","64b4439ef2d556b565220e1e","","","","","1143","key"," "," ","16.65098550724645","500","250","instZol0","0","","0","0","0",""
"","psychophysics","99","374405","0.0-99.0","5f95c66b95185d4515eeec8d","64b4439ef2d556b565220e1e","","","","","4559","key"," "," ","16.65143223443229","500","250","instZol1","1.3","","0","0","-1.3",""
"","psychophysics","100","375202","0.0-100.0","5f95c66b95185d4515eeec8d","64b4439ef2d556b565220e1e","","","","","776","key"," "," ","16.663489361702307","500","250","instZol2","-2","1","0","0","2",""
"","psychophysics","101","376013","0.0-101.0","5f95c66b95185d4515eeec8d","64b4439ef2d556b565220e1e","","","","","806","key"," "," ","16.65131250000074","500","250","inst","","","","","",""
"","psychophysics","102","392289","0.0-102.0","5f95c66b95185d4515eeec8d","64b4439ef2d556b565220e1e","","","","","16274","key"," "," ","16.651097336065593","500","250","zol","1.3200000000000005","1","-22","19","-0.62",""
"","psychophysics","103","396153","0.0-103.0","5f95c66b95185d4515eeec8d","64b4439ef2d556b565220e1e","","","","","3838","key"," "," ","16.943867841409826","500","250","zol","2.160000000000001","1","4","-23","-0.46",""
"","psychophysics","104","398438","0.0-104.0","5f95c66b95185d4515eeec8d","64b4439ef2d556b565220e1e","","","","","2282","key"," "," ","16.774762962962914","500","250","zol","2.280000000000001","1","-16","-1","-0.68",""
"","psychophysics","105","400579","0.0-105.0","5f95c66b95185d4515eeec8d","64b4439ef2d556b565220e1e","","","","","2122","key"," "," ","16.65108593749983","500","250","zol","2.350000000000001","1","-12","-2","0.05",""
"","psychophysics","106","402761","0.0-106.0","5f95c66b95185d4515eeec8d","64b4439ef2d556b565220e1e","","","","","2169","key"," "," ","16.655084615384784","500","250","zol","2.240000000000001","1","30","-28","0.36",""
"","psychophysics","107","406555","0.0-107.0","5f95c66b95185d4515eeec8d","64b4439ef2d556b565220e1e","","","","","3788","key"," "," ","16.649682819383273","500","250","zol","1.2400000000000002","1","-24","24","0.06",""
"","psychophysics","108","408408","0.0-108.0","5f95c66b95185d4515eeec8d","64b4439ef2d556b565220e1e","","","","","1843","key"," "," ","16.808752293577804","500","250","zol","1.8000000000000005","1","-19","-2","-0.2",""
"","psychophysics","109","410444","0.0-109.0","5f95c66b95185d4515eeec8d","64b4439ef2d556b565220e1e","","","","","2017","key"," "," ","16.65495867768595","500","250","zol","1.8000000000000005","1","30","-25","0.6",""
"","psychophysics","110","412338","0.0-110.0","5f95c66b95185d4515eeec8d","64b4439ef2d556b565220e1e","","","","","1879","key"," "," ","16.65621238938055","500","250","zol","1.8800000000000006","1","4","-25","-0.48",""
"","psychophysics","111","415643","0.0-111.0","5f95c66b95185d4515eeec8d","64b4439ef2d556b565220e1e","","","","","3293","key"," "," ","16.82322959183675","500","250","zol","1.36","1","30","-8","0.14",""
"","psychophysics","112","417805","0.0-112.0","5f95c66b95185d4515eeec8d","64b4439ef2d556b565220e1e","","","","","2154","key"," "," ","16.65033593750013","500","250","zol","1.23","1","25","27","0.67",""
"","psychophysics","113","419574","0.0-113.0","5f95c66b95185d4515eeec8d","64b4439ef2d556b565220e1e","","","","","1750","key"," "," ","16.656962264150728","500","250","zol","1.9600000000000006","1","28","14","-0.16",""
"","psychophysics","114","421568","0.0-114.0","5f95c66b95185d4515eeec8d","64b4439ef2d556b565220e1e","","","","","1975","key"," "," ","16.65540677966092","500","250","zol","2.1600000000000006","1","5","26","0.04",""
"","psychophysics","115","423373","0.0-115.0","5f95c66b95185d4515eeec8d","64b4439ef2d556b565220e1e","","","","","1783","key"," "," ","16.65177777777771","500","250","zol","2.590000000000001","1","18","-13","-0.39",""
"","psychophysics","116","425407","0.0-116.0","5f95c66b95185d4515eeec8d","64b4439ef2d556b565220e1e","","","","","2016","key"," "," ","16.653785123967005","500","250","zol","2.8100000000000014","1","19","21","-0.31",""
"","psychophysics","117","426273","0.0-117.0","5f95c66b95185d4515eeec8d","64b4439ef2d556b565220e1e","","","","","861","key"," "," ","16.657745098038895","500","250","inst","","","","","",""
"","psychophysics","118","427957","0.0-118.0","5f95c66b95185d4515eeec8d","64b4439ef2d556b565220e1e","","","","","1640","key"," "," ","16.819757575757748","500","250","instBr","40","1","0","0","40","300"
"","psychophysics","119","428553","0.0-119.0","5f95c66b95185d4515eeec8d","64b4439ef2d556b565220e1e","","","","","581","key"," "," ","16.67165714285802","500","250","inst","","","","","",""
"","psychophysics","120","431346","0.0-120.0","5f95c66b95185d4515eeec8d","64b4439ef2d556b565220e1e","","","","","2789","key"," "," ","16.64937724550896","500","250","br","-20","1","17","-24","28","300"
"","psychophysics","121","434392","0.0-121.0","5f95c66b95185d4515eeec8d","64b4439ef2d556b565220e1e","","","","","3044","key"," "," ","16.65465384615383","500","250","br","-11","1","10","-6","44","300"
"","psychophysics","122","436417","0.0-122.0","5f95c66b95185d4515eeec8d","64b4439ef2d556b565220e1e","","","","","2020","key"," "," ","16.655158333333382","500","250","br","-23","1","30","13","7","300"
"","psychophysics","123","438355","0.0-123.0","5f95c66b95185d4515eeec8d","64b4439ef2d556b565220e1e","","","","","1927","key"," "," ","16.655991379310606","500","250","br","-31","1","-7","-6","-3","300"
"","psychophysics","124","440651","0.0-124.0","5f95c66b95185d4515eeec8d","64b4439ef2d556b565220e1e","","","","","2258","key"," "," ","16.903820895522124","500","250","br","-37","1","-27","4","3","300"
"","psychophysics","125","442816","0.0-125.0","5f95c66b95185d4515eeec8d","64b4439ef2d556b565220e1e","","","","","2156","key"," "," ","16.655434108526958","500","250","br","-8","1","29","9","-39","300"
"","psychophysics","126","445484","0.0-126.0","5f95c66b95185d4515eeec8d","64b4439ef2d556b565220e1e","","","","","2661","key"," "," ","16.65306249999994","500","250","br","-17","1","3","21","27","300"
"","psychophysics","127","448104","0.0-127.0","5f95c66b95185d4515eeec8d","64b4439ef2d556b565220e1e","","","","","2615","key"," "," ","16.651217948718113","500","250","br","-10","1","-18","12","42","300"
"","psychophysics","128","450445","0.0-128.0","5f95c66b95185d4515eeec8d","64b4439ef2d556b565220e1e","","","","","2330","key"," "," ","16.649942857142637","500","250","br","-23","1","-27","1","19","300"
"","psychophysics","129","452538","0.0-129.0","5f95c66b95185d4515eeec8d","64b4439ef2d556b565220e1e","","","","","2091","key"," "," ","16.65415199999977","500","250","br","-4","1","2","17","-33","300"
"","psychophysics","130","454721","0.0-130.0","5f95c66b95185d4515eeec8d","64b4439ef2d556b565220e1e","","","","","2181","key"," "," ","16.651480620155244","500","250","br","-32","1","-11","-20","10","300"
"","psychophysics","131","458151","0.0-131.0","5f95c66b95185d4515eeec8d","64b4439ef2d556b565220e1e","","","","","3421","key"," "," ","16.64782439024392","500","250","br","-9","1","-11","-4","50","300"
"","psychophysics","132","460413","0.0-132.0","5f95c66b95185d4515eeec8d","64b4439ef2d556b565220e1e","","","","","2253","key"," "," ","16.655170370370616","500","250","br","-18","1","-21","22","17","300"
"","psychophysics","133","462500","0.0-133.0","5f95c66b95185d4515eeec8d","64b4439ef2d556b565220e1e","","","","","2077","key"," "," ","16.653792000000365","500","250","br","-14","1","24","15","23","300"
"","psychophysics","134","463765","0.0-134.0","5f95c66b95185d4515eeec8d","64b4439ef2d556b565220e1e","","","","","1261","key"," "," ","16.651599999999938","500","250","br","-17","1","-7","25","-17","300"
"","psychophysics","135","464415","0.0-135.0","5f95c66b95185d4515eeec8d","64b4439ef2d556b565220e1e","","","","","645","key"," "," ","16.652789473683743","500","250","inst","","","","","",""
"","psychophysics","136","466462","0.0-136.0","5f95c66b95185d4515eeec8d","64b4439ef2d556b565220e1e","","","","","2042","key"," "," ","16.6473934426231","500","250","instPog0","383.5","2","0","0","349.5","319.5"
"","psychophysics","137","467259","0.0-137.0","5f95c66b95185d4515eeec8d","64b4439ef2d556b565220e1e","","","","","793","key"," "," ","16.65295652173834","500","250","instPog1","349.5","2","0","0","349.5","319.5"
"","psychophysics","138","467992","0.0-138.0","5f95c66b95185d4515eeec8d","64b4439ef2d556b565220e1e","","","","","722","key"," "," ","16.6375813953481","500","250","instPog2","349.5","2","0","0","349.5","319.5"
"","psychophysics","139","468563","0.0-139.0","5f95c66b95185d4515eeec8d","64b4439ef2d556b565220e1e","","","","","562","key"," "," ","16.656617647059164","500","250","inst","","","","","",""
"","psychophysics","140","472273","0.0-140.0","5f95c66b95185d4515eeec8d","64b4439ef2d556b565220e1e","","","","","3706","key"," "," ","16.653540540540586","500","250","pog","361.5","2","0","0","394.5","283.5"
"","psychophysics","141","475083","0.0-141.0","5f95c66b95185d4515eeec8d","64b4439ef2d556b565220e1e","","","","","2803","key"," "," ","16.651203592814657","500","250","pog","349.5","2","0","0","328.5","285.5"
"","psychophysics","142","480418","0.0-142.0","5f95c66b95185d4515eeec8d","64b4439ef2d556b565220e1e","","","","","5324","key"," "," ","16.65154999999995","500","250","pog","374.5","2","0","0","271.5","329.5"
"","psychophysics","143","482883","0.0-143.0","5f95c66b95185d4515eeec8d","64b4439ef2d556b565220e1e","","","","","2461","key"," "," ","16.65480952380941","500","250","pog","343.5","2","0","0","329.5","294.5"
"","psychophysics","144","490254","0.0-144.0","5f95c66b95185d4515eeec8d","64b4439ef2d556b565220e1e","","","","","7364","key"," "," ","16.65270975056683","500","250","pog","387.5","2","0","0","259.5","337.5"
"","psychophysics","145","498874","0.0-145.0","5f95c66b95185d4515eeec8d","64b4439ef2d556b565220e1e","","","","","8611","key"," "," ","16.651156673114205","500","250","pog","408.5","2","0","0","246.5","352.5"
"","psychophysics","146","504025","0.0-146.0","5f95c66b95185d4515eeec8d","64b4439ef2d556b565220e1e","","","","","5134","key"," "," ","16.65210389610389","500","250","pog","367.5","2","0","0","286.5","309.5"
"","psychophysics","147","507176","0.0-147.0","5f95c66b95185d4515eeec8d","64b4439ef2d556b565220e1e","","","","","3142","key"," "," ","16.654142857142713","500","250","pog","382.5","2","0","0","359.5","319.5"
"","psychophysics","148","514099","0.0-148.0","5f95c66b95185d4515eeec8d","64b4439ef2d556b565220e1e","","","","","6919","key"," "," ","16.651079710144977","500","250","pog","402.5","2","0","0","327.5","348.5"
"","psychophysics","149","516683","0.0-149.0","5f95c66b95185d4515eeec8d","64b4439ef2d556b565220e1e","","","","","2573","key"," "," ","16.653012903225832","500","250","pog","378.5","2","0","0","356.5","329.5"
"","psychophysics","150","521275","0.0-150.0","5f95c66b95185d4515eeec8d","64b4439ef2d556b565220e1e","","","","","4586","key"," "," ","17.087602996254734","500","250","pog","380.5","2","0","0","363.5","332.5"
"","psychophysics","151","525541","0.0-151.0","5f95c66b95185d4515eeec8d","64b4439ef2d556b565220e1e","","","","","4256","key"," "," ","16.716376470588376","500","250","pog","405.5","2","0","0","380.5","355.5"
"","psychophysics","152","527461","0.0-152.0","5f95c66b95185d4515eeec8d","64b4439ef2d556b565220e1e","","","","","1916","key"," "," ","16.650833333332884","500","250","pog","369.5","2","0","0","363.5","286.5"
"","psychophysics","153","533775","0.0-153.0","5f95c66b95185d4515eeec8d","64b4439ef2d556b565220e1e","","","","","6308","key"," "," ","16.650613756613836","500","250","pog","383.5","2","0","0","354.5","324.5"
"","psychophysics","154","541759","0.0-154.0","5f95c66b95185d4515eeec8d","64b4439ef2d556b565220e1e","","","","","7983","key"," "," ","16.652359081419586","500","250","pog","433.5","2","0","0","382.5","351.5"
"","psychophysics","155","542412","0.0-155.0","5f95c66b95185d4515eeec8d","64b4439ef2d556b565220e1e","","","","","649","key"," "," ","16.65673684210541","500","250","inst","","","","","",""
"","psychophysics","156","543322","0.0-156.0","5f95c66b95185d4515eeec8d","64b4439ef2d556b565220e1e","","","","","859","key"," "," ","16.981903846154008","500","250","instPz4","15","1","","","15","30"
"","psychophysics","157","544238","0.0-157.0","5f95c66b95185d4515eeec8d","64b4439ef2d556b565220e1e","","","","","906","key"," "," ","16.65783333333416","500","250","inst","","","","","",""
"","psychophysics","158","552798","0.0-158.0","5f95c66b95185d4515eeec8d","64b4439ef2d556b565220e1e","","","","","8548","key"," "," ","16.652233463034836","500","250","pz","74","1","","","43","48"
"","psychophysics","159","555195","0.0-159.0","5f95c66b95185d4515eeec8d","64b4439ef2d556b565220e1e","","","","","2392","key"," "," ","16.647048951049296","500","250","pz","75","1","","","38","48"
"","psychophysics","160","557159","0.0-160.0","5f95c66b95185d4515eeec8d","64b4439ef2d556b565220e1e","","","","","1956","key"," "," ","16.653310344828462","500","250","pz","75","1","","","52","48"
"","psychophysics","161","559341","0.0-161.0","5f95c66b95185d4515eeec8d","64b4439ef2d556b565220e1e","","","","","2173","key"," "," ","16.650661538461616","500","250","pz","31","1","","","45","22"
"","psychophysics","162","561076","0.0-162.0","5f95c66b95185d4515eeec8d","64b4439ef2d556b565220e1e","","","","","1729","key"," "," ","16.651211538461773","500","250","pz","46","1","","","32","33"
"","psychophysics","163","564783","0.0-163.0","5f95c66b95185d4515eeec8d","64b4439ef2d556b565220e1e","","","","","3701","key"," "," ","16.650466063348535","500","250","pz","55","1","","","42","36"
"","psychophysics","164","567026","0.0-164.0","5f95c66b95185d4515eeec8d","64b4439ef2d556b565220e1e","","","","","2233","key"," "," ","16.65271641790985","500","250","pz","41","1","","","28","24"
"","psychophysics","165","570488","0.0-165.0","5f95c66b95185d4515eeec8d","64b4439ef2d556b565220e1e","","","","","3448","key"," "," ","16.650458937198156","500","250","pz","84","1","","","40","57"
"","psychophysics","166","573380","0.0-166.0","5f95c66b95185d4515eeec8d","64b4439ef2d556b565220e1e","","","","","2889","key"," "," ","16.653774566474006","500","250","pz","76","1","","","30","42"
"","psychophysics","167","575957","0.0-167.0","5f95c66b95185d4515eeec8d","64b4439ef2d556b565220e1e","","","","","2570","key"," "," ","16.651339869281227","500","250","pz","38","1","","","60","25"
"","psychophysics","168","578060","0.0-168.0","5f95c66b95185d4515eeec8d","64b4439ef2d556b565220e1e","","","","","2094","key"," "," ","16.653698412698716","500","250","pz","50","1","","","26","30"
"","psychophysics","169","580295","0.0-169.0","5f95c66b95185d4515eeec8d","64b4439ef2d556b565220e1e","","","","","2229","key"," "," ","16.650917293232535","500","250","pz","40","1","","","56","24"
"","psychophysics","170","589216","0.0-170.0","5f95c66b95185d4515eeec8d","64b4439ef2d556b565220e1e","","","","","8907","key"," "," ","16.65106542056087","500","250","pz","100","1","","","30","57"
"","psychophysics","171","594749","0.0-171.0","5f95c66b95185d4515eeec8d","64b4439ef2d556b565220e1e","","","","","5527","key"," "," ","16.651135951661495","500","250","pz","96","1","","","23","51"
"","psychophysics","172","597725","0.0-172.0","5f95c66b95185d4515eeec8d","64b4439ef2d556b565220e1e","","","","","2967","key"," "," ","16.653893258427193","500","250","pz","78","1","","","35","53"
"","psychophysics","173","598322","0.0-173.0","5f95c66b95185d4515eeec8d","64b4439ef2d556b565220e1e","","","","","583","key"," "," ","16.666771428569753","500","250","inst","","","","","",""
"","psychophysics","174","600107","0.0-174.0","5f95c66b95185d4515eeec8d","64b4439ef2d556b565220e1e","","","","","1769","key"," "," ","16.655575471697375","500","250","instEB4","41","1","0","0","40","40"
"","psychophysics","175","600640","0.0-175.0","5f95c66b95185d4515eeec8d","64b4439ef2d556b565220e1e","","","","","532","key"," "," ","16.67261290322283","500","250","inst","","","","","",""
"","psychophysics","176","605610","0.0-176.0","5f95c66b95185d4515eeec8d","64b4439ef2d556b565220e1e","","","","","4957","key"," "," ","16.652526845637514","500","250","eb","39","1","0","0","26","34"
"","psychophysics","177","607574","0.0-177.0","5f95c66b95185d4515eeec8d","64b4439ef2d556b565220e1e","","","","","1960","key"," "," ","16.650367521367464","500","250","eb","54","1","0","0","41","42"
"","psychophysics","178","609942","0.0-178.0","5f95c66b95185d4515eeec8d","64b4439ef2d556b565220e1e","","","","","2364","key"," "," ","16.652787234043004","500","250","eb","61","1","0","0","35","45"
"","psychophysics","179","612072","0.0-179.0","5f95c66b95185d4515eeec8d","64b4439ef2d556b565220e1e","","","","","2124","key"," "," ","16.649952755905467","500","250","eb","55","1","0","0","31","45"
"","psychophysics","180","614000","0.0-180.0","5f95c66b95185d4515eeec8d","64b4439ef2d556b565220e1e","","","","","1926","key"," "," ","16.650417391303925","500","250","eb","33","1","0","0","27","25"
"","psychophysics","181","616012","0.0-181.0","5f95c66b95185d4515eeec8d","64b4439ef2d556b565220e1e","","","","","2008","key"," "," ","16.64601680672309","500","250","eb","42","1","0","0","37","30"
"","psychophysics","182","617805","0.0-182.0","5f95c66b95185d4515eeec8d","64b4439ef2d556b565220e1e","","","","","1786","key"," "," ","16.65652336448618","500","250","eb","51","1","0","0","36","35"
"","psychophysics","183","621525","0.0-183.0","5f95c66b95185d4515eeec8d","64b4439ef2d556b565220e1e","","","","","3716","key"," "," ","16.65030941704023","500","250","eb","48","1","0","0","47","41"
"","psychophysics","184","624749","0.0-184.0","5f95c66b95185d4515eeec8d","64b4439ef2d556b565220e1e","","","","","3222","key"," "," ","16.65279166666672","500","250","eb","44","1","0","0","25","47"
"","psychophysics","185","626403","0.0-185.0","5f95c66b95185d4515eeec8d","64b4439ef2d556b565220e1e","","","","","1652","key"," "," ","16.65075757575687","500","250","eb","60","1","0","0","49","54"
"","psychophysics","186","627893","0.0-186.0","5f95c66b95185d4515eeec8d","64b4439ef2d556b565220e1e","","","","","1488","key"," "," ","16.65773863636423","500","250","eb","33","1","0","0","34","28"
"","psychophysics","187","630095","0.0-187.0","5f95c66b95185d4515eeec8d","64b4439ef2d556b565220e1e","","","","","2199","key"," "," ","16.652007633588234","500","250","eb","55","1","0","0","27","48"
"","psychophysics","188","632297","0.0-188.0","5f95c66b95185d4515eeec8d","64b4439ef2d556b565220e1e","","","","","2193","key"," "," ","16.65512213740455","500","250","eb","39","1","0","0","32","26"
"","psychophysics","189","634172","0.0-189.0","5f95c66b95185d4515eeec8d","64b4439ef2d556b565220e1e","","","","","1868","key"," "," ","16.654321428572334","500","250","eb","39","1","0","0","28","28"
"","psychophysics","190","636614","0.0-190.0","5f95c66b95185d4515eeec8d","64b4439ef2d556b565220e1e","","","","","2438","key"," "," ","16.65493835616388","500","250","eb","48","1","0","0","30","33"
"","psychophysics","191","637357","0.0-191.0","5f95c66b95185d4515eeec8d","64b4439ef2d556b565220e1e","","","","","740","key"," "," ","16.65406976744186","500","250","inst","","","","","",""
"","psychophysics","192","639074","0.0-192.0","5f95c66b95185d4515eeec8d","64b4439ef2d556b565220e1e","","","","","1698","key"," "," ","16.656019607843035","500","250","instZol2","-2","2","0","0","2",""
"","psychophysics","193","639477","0.0-193.0","5f95c66b95185d4515eeec8d","64b4439ef2d556b565220e1e","","","","","391","key"," "," ","16.667391304346815","500","250","inst","","","","","",""
"","psychophysics","194","649476","0.0-194.0","5f95c66b95185d4515eeec8d","64b4439ef2d556b565220e1e","","","","","9985","key"," "," ","16.87690540540545","500","250","zol","-2.020000000000001","2","8","12","0.52",""
"","psychophysics","195","652115","0.0-195.0","5f95c66b95185d4515eeec8d","64b4439ef2d556b565220e1e","","","","","2622","key"," "," ","16.65274050632931","500","250","zol","-1.9700000000000006","2","14","27","-0.13",""
"","psychophysics","196","654619","0.0-196.0","5f95c66b95185d4515eeec8d","64b4439ef2d556b565220e1e","","","","","2482","key"," "," ","16.653791946308974","500","250","zol","-1.7700000000000005","2","9","17","-0.63",""
"","psychophysics","197","659900","0.0-197.0","5f95c66b95185d4515eeec8d","64b4439ef2d556b565220e1e","","","","","5258","key"," "," ","16.811699680511293","500","250","zol","-2.600000000000001","2","30","30","0",""
"","psychophysics","198","664448","0.0-198.0","5f95c66b95185d4515eeec8d","64b4439ef2d556b565220e1e","","","","","4530","key"," "," ","16.77642222222208","500","250","zol","-1.6800000000000004","2","-23","22","-0.62",""
"","psychophysics","199","667076","0.0-199.0","5f95c66b95185d4515eeec8d","64b4439ef2d556b565220e1e","","","","","2613","key"," "," ","16.652904458599057","500","250","zol","-1.8100000000000007","2","-18","6","-0.19",""
"","psychophysics","200","669937","0.0-200.0","5f95c66b95185d4515eeec8d","64b4439ef2d556b565220e1e","","","","","2850","key"," "," ","16.85270238095282","500","250","zol","-2.0500000000000007","2","14","-28","0.05",""
"","psychophysics","201","672850","0.0-201.0","5f95c66b95185d4515eeec8d","64b4439ef2d556b565220e1e","","","","","2899","key"," "," ","16.651873563218263","500","250","zol","-2.560000000000001","2","16","21","0.36",""
"","psychophysics","202","677035","0.0-202.0","5f95c66b95185d4515eeec8d","64b4439ef2d556b565220e1e","","","","","4168","key"," "," ","17.937536480686678","500","250","zol","-1.6900000000000004","2","21","-28","-0.61",""
"","psychophysics","203","682452","0.0-203.0","5f95c66b95185d4515eeec8d","64b4439ef2d556b565220e1e","","","","","5399","key"," "," ","16.96686792452805","500","250","zol","-2.1100000000000008","2","-17","-17","-0.69",""
"","psychophysics","204","684976","0.0-204.0","5f95c66b95185d4515eeec8d","64b4439ef2d556b565220e1e","","","","","2508","key"," "," ","16.875979865771473","500","250","zol","-1.9300000000000006","2","-28","-21","-0.67",""
"","psychophysics","205","687271","0.0-205.0","5f95c66b95185d4515eeec8d","64b4439ef2d556b565220e1e","","","","","2286","key"," "," ","16.899111111111146","500","250","zol","-2.320000000000001","2","-6","12","0.02",""
"","psychophysics","206","689955","0.0-206.0","5f95c66b95185d4515eeec8d","64b4439ef2d556b565220e1e","","","","","2678","key"," "," ","17.08058974358928","500","250","zol","-2.680000000000001","2","2","-14","0.48",""
"","psychophysics","207","693286","0.0-207.0","5f95c66b95185d4515eeec8d","64b4439ef2d556b565220e1e","","","","","3322","key"," "," ","16.82086802030462","500","250","zol","-2.8300000000000014","2","-21","24","0.23",""
"","psychophysics","208","699809","0.0-208.0","5f95c66b95185d4515eeec8d","64b4439ef2d556b565220e1e","","","","","6515","key"," "," ","16.69384536082489","500","250","zol","-1.8700000000000006","2","-22","-21","0.37",""
