"success","trial_type","trial_index","time_elapsed","internal_node_id","pid","sid","timeout","failed_images","failed_audio","failed_video","rt","response_type","key_press","response","avg_frame_time","center_x","center_y","task","resp","version","start","jitterX","jitterY","parA"
"true","fullscreen","0","4331","0.0-0.0","ETHAN","TEST","","","","","","","","","","","","","","","","","",""
"true","preload","1","4332","0.0-1.0","ETHAN","TEST","false","[]","[]","[]","","","","","","","","","","","","","",""
"","psychophysics","2","7962","0.0-2.0","ETHAN","TEST","","","","","3627","key"," "," ","7.032156976744186","500","250","inst","","","","","",""
"","psychophysics","3","11910","0.0-3.0","ETHAN","TEST","","","","","3947","key"," "," ","7.285358595194085","500","250","sample1","","","","","",""
"","psychophysics","4","31215","0.0-4.0","ETHAN","TEST","","","","","19304","key"," "," ","7.337171102661598","500","250","sample2","-558","","","","",""
"","psychophysics","5","36511","0.0-5.0","ETHAN","TEST","","","","","5295","key"," "," ","7.316640387275238","500","250","sample3","40","","","","",""
"","psychophysics","6","46010","0.0-6.0","ETHAN","TEST","","","","","9498","key"," "," ","7.424492175273863","500","250","sample4","100","","","","",""
"","psychophysics","7","48938","0.0-7.0","ETHAN","TEST","","","","","2927","key"," "," ","7.334553884711782","500","250","sample5","","","","","",""
"","psychophysics","8","58851","0.0-8.0","ETHAN","TEST","","","","","9912","key"," "," ","7.348353857566765","500","250","sample7","500","","","","",""
"","psychophysics","9","62773","0.0-9.0","ETHAN","TEST","","","","","3921","key"," "," ","7.370192090395481","500","250","inst","","","","","",""
"","psychophysics","10","67227","0.0-10.0","ETHAN","TEST","","","","","4453","key"," "," ","7.366278606965165","500","250","inst","","","","","",""
"","psychophysics","11","69719","0.0-11.0","ETHAN","TEST","","","","","2491","key"," "," ","7.342082840236675","500","250","inst","","","","","",""
"","psychophysics","12","70803","0.0-12.0","ETHAN","TEST","","","","","1083","key"," "," ","7.280040540540515","500","250","inst","","","","","",""
"","psychophysics","13","72465","0.0-13.0","ETHAN","TEST","","","","","1661","key"," "," ","7.4522477477477045","500","250","inst","","","","","",""
"","psychophysics","14","82873","0.0-14.0","ETHAN","TEST","","","","","10407","key"," "," ","7.3440127118644085","500","250","instPog0","366.5","2","349.5","0","0","319.5"
"","psychophysics","15","97313","0.0-15.0","ETHAN","TEST","","","","","14439","key"," "," ","7.313993414387033","500","250","instPog1","424.5","2","349.5","0","0","319.5"
"","psychophysics","16","114409","0.0-16.0","ETHAN","TEST","","","","","17095","key"," "," ","7.280044737963357","500","250","instPog2","403.5","2","349.5","0","0","319.5"
"","psychophysics","17","116017","0.0-17.0","ETHAN","TEST","","","","","1607","key"," "," ","7.367709677419311","500","250","inst","","","","","",""
"","psychophysics","18","121174","0.0-18.0","ETHAN","TEST","","","","","5156","key"," "," ","7.400725574712642","500","250","pog","375.5","2","308.5","0","0","303.5"
"","psychophysics","19","125905","0.0-19.0","ETHAN","TEST","","","","","4730","key"," "," ","7.205560975609753","500","250","pog","370.5","2","347.5","0","0","301.5"
"","psychophysics","20","132796","0.0-20.0","ETHAN","TEST","","","","","6890","key"," "," ","7.3838712446351895","500","250","pog","360.5","2","301.5","0","0","280.5"
"","psychophysics","21","142489","0.0-21.0","ETHAN","TEST","","","","","9692","key"," "," ","7.318804380664659","500","250","pog","417.5","2","281.5","0","0","322.5"
"","psychophysics","22","150481","0.0-22.0","ETHAN","TEST","","","","","7990","key"," "," ","7.3211752293577765","500","250","pog","439.5","2","300.5","0","0","358.5"
"","psychophysics","23","172505","0.0-23.0","ETHAN","TEST","","","","","22023","key"," "," ","7.365107023411375","500","250","pog","400.5","2","311.5","0","0","316.5"
"","psychophysics","24","180589","0.0-24.0","ETHAN","TEST","","","","","8083","key"," "," ","7.296651309846415","500","250","pog","368.5","2","309.5","0","0","288.5"
"","psychophysics","25","186048","0.0-25.0","ETHAN","TEST","","","","","5458","key"," "," ","7.3447614555256","500","250","pog","360.5","2","261.5","0","0","284.5"
"","psychophysics","26","191203","0.0-26.0","ETHAN","TEST","","","","","5155","key"," "," ","7.390111908177899","500","250","pog","395.5","2","344.5","0","0","320.5"
"","psychophysics","27","196421","0.0-27.0","ETHAN","TEST","","","","","5217","key"," "," ","7.333098591549295","500","250","pog","395.5","2","314.5","0","0","331.5"
"","psychophysics","28","203363","0.0-28.0","ETHAN","TEST","","","","","6941","key"," "," ","7.32563780359027","500","250","pog","394.5","2","260.5","0","0","332.5"
"","psychophysics","29","207341","0.0-29.0","ETHAN","TEST","","","","","3977","key"," "," ","7.309718232044192","500","250","pog","383.5","2","313.5","0","0","313.5"
"","psychophysics","30","209834","0.0-30.0","ETHAN","TEST","","","","","2492","key"," "," ","7.2765087719298","500","250","pog","390.5","2","355.5","0","0","319.5"
"","psychophysics","31","214947","0.0-31.0","ETHAN","TEST","","","","","5112","key"," "," ","7.320272596843589","500","250","pog","418.5","2","320.5","0","0","356.5"
"","psychophysics","32","222700","0.0-32.0","ETHAN","TEST","","","","","7752","key"," "," ","7.3815999999999935","500","250","pog","377.5","2","242.5","0","0","314.5"
"","psychophysics","33","239493","0.0-33.0","ETHAN","TEST","","","","","16792","key"," "," ","7.366287093942055","500","250","inst","","","","","",""
"","psychophysics","34","240761","0.0-34.0","ETHAN","TEST","","","","","1268","key"," "," ","7.398409356725129","500","250","instEB0","40","","40","0","0","40"
"","psychophysics","35","241904","0.0-35.0","ETHAN","TEST","","","","","1142","key"," "," ","7.171253164556899","500","250","instEB1","30","1","30","0","0","70"
"","psychophysics","36","244350","0.0-36.0","ETHAN","TEST","","","","","2445","key"," "," ","7.371241691842882","500","250","instEB2","64","1","60","0","0","40"
"","psychophysics","37","257340","0.0-37.0","ETHAN","TEST","","","","","12989","key"," "," ","7.3031535433070935","500","250","instEB3","70","1","45","0","0","65"
"","psychophysics","38","261867","0.0-38.0","ETHAN","TEST","","","","","4526","key"," "," ","7.335590243902449","500","250","instEB4","44","1","40","0","0","40"
"","psychophysics","39","265599","0.0-39.0","ETHAN","TEST","","","","","3731","key"," "," ","7.348907297830333","500","250","inst","","","","","",""
"","psychophysics","40","269344","0.0-40.0","ETHAN","TEST","","","","","3744","key"," "," ","7.319362745098039","500","250","eb","43","1","25","0","0","39"
"","psychophysics","41","272328","0.0-41.0","ETHAN","TEST","","","","","2983","key"," "," ","7.274220048899798","500","250","eb","60","1","34","0","0","53"
"","psychophysics","42","274029","0.0-42.0","ETHAN","TEST","","","","","1700","key"," "," ","7.2795708154504535","500","250","eb","33","1","27","0","0","29"
"","psychophysics","43","276815","0.0-43.0","ETHAN","TEST","","","","","2785","key"," "," ","7.3753580901855464","500","250","eb","51","1","36","0","0","50"
"","psychophysics","44","280115","0.0-44.0","ETHAN","TEST","","","","","3300","key"," "," ","7.2581832229580465","500","250","eb","42","1","45","0","0","31"
"","psychophysics","45","285121","0.0-45.0","ETHAN","TEST","","","","","5005","key"," "," ","7.338602639296139","500","250","eb","36","1","47","0","0","29"
"","psychophysics","46","287795","0.0-46.0","ETHAN","TEST","","","","","2673","key"," "," ","7.395383333333302","500","250","eb","43","1","32","0","0","39"
"","psychophysics","47","290813","0.0-47.0","ETHAN","TEST","","","","","3017","key"," "," ","7.3233430656933605","500","250","eb","58","1","34","0","0","47"
"","psychophysics","48","292620","0.0-48.0","ETHAN","TEST","","","","","1805","key"," "," ","7.2597338709677","500","250","eb","38","1","43","0","0","27"
"","psychophysics","49","294919","0.0-49.0","ETHAN","TEST","","","","","2298","key"," "," ","7.328632587859312","500","250","eb","76","1","38","0","0","52"
"","psychophysics","50","296324","0.0-50.0","ETHAN","TEST","","","","","1404","key"," "," ","7.277114583333362","500","250","eb","66","1","46","0","0","49"
"","psychophysics","51","297394","0.0-51.0","ETHAN","TEST","","","","","1069","key"," "," ","7.3859097222221965","500","250","eb","47","1","47","0","0","36"
"","psychophysics","52","299164","0.0-52.0","ETHAN","TEST","","","","","1769","key"," "," ","7.356795833333308","500","250","eb","44","1","48","0","0","34"
"","psychophysics","53","300176","0.0-53.0","ETHAN","TEST","","","","","1011","key"," "," ","7.699930769230615","500","250","eb","37","1","40","0","0","28"
"","psychophysics","54","304074","0.0-54.0","ETHAN","TEST","","","","","3897","key"," "," ","7.471629558541234","500","250","eb","36","1","54","0","0","31"
"","psychophysics","55","304620","0.0-55.0","ETHAN","TEST","","","","","545","key"," "," ","7.136573333333557","500","250","inst","","","","","",""
"","psychophysics","56","305648","0.0-56.0","ETHAN","TEST","","","","","1027","key"," "," ","7.351374100719531","500","250","instZol0","0","","0","0","0",""
"","psychophysics","57","306313","0.0-57.0","ETHAN","TEST","","","","","664","key"," "," ","7.26023333333368","500","250","instZol1","1.3","","-1.3","0","0",""
"","psychophysics","58","306871","0.0-58.0","ETHAN","TEST","","","","","557","key"," "," ","7.322053333333073","500","250","instZol2","-2","2","2","0","0",""
"","psychophysics","59","307489","0.0-59.0","ETHAN","TEST","","","","","617","key"," "," ","7.282345238095288","500","250","inst","","","","","",""
"","psychophysics","60","315996","0.0-60.0","ETHAN","TEST","","","","","8506","key"," "," ","7.399373693379816","500","250","zol","-1.2700000000000002","2","0.07","16","18",""
"","psychophysics","61","322641","0.0-61.0","ETHAN","TEST","","","","","6644","key"," "," ","7.450597081930436","500","250","zol","-0.3500000000000002","2","-0.45","17","-23",""
"","psychophysics","62","327636","0.0-62.0","ETHAN","TEST","","","","","4994","key"," "," ","7.394167407407356","500","250","zol","-0.4899999999999999","2","-0.41","-2","12",""
"","psychophysics","63","339699","0.0-63.0","ETHAN","TEST","","","","","12062","key"," "," ","7.390271612507662","500","250","zol","-0.57","2","0.47","-8","-17",""
"","psychophysics","64","344534","0.0-64.0","ETHAN","TEST","","","","","4834","key"," "," ","7.342742770167384","500","250","zol","0.06000000000000005","2","0.44","6","27",""
"","psychophysics","65","349529","0.0-65.0","ETHAN","TEST","","","","","4993","key"," "," ","7.4160698365527695","500","250","zol","0.27","2","0.33","-5","26",""
"","psychophysics","66","354451","0.0-66.0","ETHAN","TEST","","","","","4922","key"," "," ","7.401450301204855","500","250","zol","0.18000000000000013","2","-0.68","-15","2",""
"","psychophysics","67","364208","0.0-67.0","ETHAN","TEST","","","","","9756","key"," "," ","7.4391060259344055","500","250","zol","-0.22000000000000017","2","0.22","-5","7",""
"","psychophysics","68","369118","0.0-68.0","ETHAN","TEST","","","","","4909","key"," "," ","7.42524848484847","500","250","zol","-0.10000000000000003","2","-0.2","14","-8",""
"","psychophysics","69","371670","0.0-69.0","ETHAN","TEST","","","","","2551","key"," "," ","7.440516129032131","500","250","zol","-0.07999999999999996","2","0.28","16","10",""
"","psychophysics","70","374502","0.0-70.0","ETHAN","TEST","","","","","2831","key"," "," ","7.406217277487033","500","250","zol","-0.08999999999999997","2","-0.11","-18","-4",""
"","psychophysics","71","380555","0.0-71.0","ETHAN","TEST","","","","","6052","key"," "," ","7.402790441176501","500","250","zol","-0.06","2","-0.04","5","12",""
"","psychophysics","72","385215","0.0-72.0","ETHAN","TEST","","","","","4659","key"," "," ","7.3692468354430405","500","250","zol","-0.03","2","-0.47","10","-25",""
"","psychophysics","73","389910","0.0-73.0","ETHAN","TEST","","","","","4694","key"," "," ","7.401515007898962","500","250","zol","0.39","2","0.31","3","12",""
"","psychophysics","74","393340","0.0-74.0","ETHAN","TEST","","","","","3428","key"," "," ","7.466189542483596","500","250","zol","-0.13","2","0.03","26","-14",""
"","psychophysics","75","393982","0.0-75.0","ETHAN","TEST","","","","","642","key"," "," ","7.44192941176486","500","250","inst","","","","","",""
"","psychophysics","76","395209","0.0-76.0","ETHAN","TEST","","","","","1226","key"," "," ","7.3700180722892155","500","250","instBr0","NaN","","0","0","0","300"
"","psychophysics","77","396404","0.0-77.0","ETHAN","TEST","","","","","1193","key"," "," ","7.43219496855335","500","250","instBr1","NaN","","-40","0","0","300"
"","psychophysics","78","399512","0.0-78.0","ETHAN","TEST","","","","","3107","key"," "," ","7.435889423076822","500","250","instBr","40","1","40","0","0","300"
"","psychophysics","79","400112","0.0-79.0","ETHAN","TEST","","","","","600","key"," "," ","7.664064102563619","500","250","inst","","","","","",""
"","psychophysics","80","406262","0.0-80.0","ETHAN","TEST","","","","","6149","key"," "," ","7.467139902676401","500","250","br","-6","1","4","-19","29","300"
"","psychophysics","81","410599","0.0-81.0","ETHAN","TEST","","","","","4337","key"," "," ","7.389446337308316","500","250","br","-12","1","7","1","-19","300"
"","psychophysics","82","412770","0.0-82.0","ETHAN","TEST","","","","","2170","key"," "," ","7.510314685314726","500","250","br","-6","1","-40","-17","-10","300"
"","psychophysics","83","415179","0.0-83.0","ETHAN","TEST","","","","","2408","key"," "," ","7.289325227963598","500","250","br","-10","1","-27","-27","5","300"
"","psychophysics","84","417346","0.0-84.0","ETHAN","TEST","","","","","2166","key"," "," ","7.3034324324324045","500","250","br","-3","1","32","-5","5","300"
"","psychophysics","85","418480","0.0-85.0","ETHAN","TEST","","","","","1133","key"," "," ","7.265438709677302","500","250","br","2","1","13","28","-7","300"
"","psychophysics","86","419678","0.0-86.0","ETHAN","TEST","","","","","1197","key"," "," ","7.2904146341461455","500","250","br","-12","1","2","-2","11","300"
"","psychophysics","87","423214","0.0-87.0","ETHAN","TEST","","","","","3535","key"," "," ","7.38855345911955","500","250","br","-9","1","-49","-14","30","300"
"","psychophysics","88","425139","0.0-88.0","ETHAN","TEST","","","","","1924","key"," "," ","7.378992307692309","500","250","br","-13","1","-27","-2","-5","300"
"","psychophysics","89","428861","0.0-89.0","ETHAN","TEST","","","","","3721","key"," "," ","7.364217821782164","500","250","br","-19","1","-39","3","28","300"
"","psychophysics","90","433992","0.0-90.0","ETHAN","TEST","","","","","5130","key"," "," ","7.350208034433245","500","250","br","-14","1","40","6","-19","300"
"","psychophysics","91","437152","0.0-91.0","ETHAN","TEST","","","","","3159","key"," "," ","7.461938388625649","500","250","br","-20","1","3","-13","-21","300"
"","psychophysics","92","438202","0.0-92.0","ETHAN","TEST","","","","","1049","key"," "," ","7.44785000000016","500","250","br","-27","1","-37","-20","-19","300"
"","psychophysics","93","439946","0.0-93.0","ETHAN","TEST","","","","","1743","key"," "," ","7.394974468085182","500","250","br","-8","1","7","-30","-15","300"
"","psychophysics","94","440940","0.0-94.0","ETHAN","TEST","","","","","993","key"," "," ","7.539476923076794","500","250","br","-1","1","8","27","-3","300"
"","psychophysics","95","441491","0.0-95.0","ETHAN","TEST","","","","","550","key"," "," ","7.5305833333331975","500","250","inst","","","","","",""
"","psychophysics","96","442317","0.0-96.0","ETHAN","TEST","","","","","825","key"," "," ","7.461596330275349","500","250","instPz0","50","2","50","","","50"
"","psychophysics","97","442944","0.0-97.0","ETHAN","TEST","","","","","626","key"," "," ","7.5369999999999555","500","250","instPz1","25","2","25","","","50"
"","psychophysics","98","443503","0.0-98.0","ETHAN","TEST","","","","","558","key"," "," ","7.420891891891999","500","250","instPz2","15","2","15","","","25"
"","psychophysics","99","445132","0.0-99.0","ETHAN","TEST","","","","","1627","key"," "," ","7.568453271027924","500","250","instPz3","25","2","25","","","50"
"","psychophysics","100","445612","0.0-100.0","ETHAN","TEST","","","","","478","key"," "," ","7.385578125000393","500","250","instPz4","15","2","15","","","30"
"","psychophysics","101","446382","0.0-101.0","ETHAN","TEST","","","","","769","key"," "," ","7.423601941747514","500","250","inst","","","","","",""
"","psychophysics","102","455921","0.0-102.0","ETHAN","TEST","","","","","9538","key"," "," ","7.3478928296067885","500","250","pz","-36","2","26","","","34"
"","psychophysics","103","473182","0.0-103.0","ETHAN","TEST","","","","","17260","key"," "," ","7.35096337308349","500","250","pz","32","2","45","","","37"
"","psychophysics","104","475303","0.0-104.0","ETHAN","TEST","","","","","2120","key"," "," ","7.493595744680913","500","250","pz","30","2","51","","","31"
"","psychophysics","105","476265","0.0-105.0","ETHAN","TEST","","","","","961","key"," "," ","7.440054687499924","500","250","pz","37","2","44","","","51"
"","psychophysics","106","477840","0.0-106.0","ETHAN","TEST","","","","","1574","key"," "," ","7.341028037383091","500","250","pz","43","2","56","","","40"
"","psychophysics","107","478410","0.0-107.0","ETHAN","TEST","","","","","569","key"," "," ","7.40850000000041","500","250","pz","41","2","42","","","45"
"","psychophysics","108","479956","0.0-108.0","ETHAN","TEST","","","","","1545","key"," "," ","7.38570192307676","500","250","pz","56","2","38","","","57"
"","psychophysics","109","481247","0.0-109.0","ETHAN","TEST","","","","","1290","key"," "," ","7.476662790697531","500","250","pz","30","2","47","","","27"
"","psychophysics","110","483082","0.0-110.0","ETHAN","TEST","","","","","1834","key"," "," ","7.46196326530605","500","250","pz","27","2","23","","","27"
"","psychophysics","111","484880","0.0-111.0","ETHAN","TEST","","","","","1797","key"," "," ","7.443662499999967","500","250","pz","28","2","48","","","32"
"","psychophysics","112","485896","0.0-112.0","ETHAN","TEST","","","","","1015","key"," "," ","7.301330935251865","500","250","pz","28","2","29","","","25"
"","psychophysics","113","487196","0.0-113.0","ETHAN","TEST","","","","","1299","key"," "," ","7.605511764705743","500","250","pz","43","2","44","","","50"
"","psychophysics","114","489190","0.0-114.0","ETHAN","TEST","","","","","1993","key"," "," ","7.473943609022623","500","250","pz","46","2","57","","","51"
"","psychophysics","115","491295","0.0-115.0","ETHAN","TEST","","","","","2104","key"," "," ","7.239913494809761","500","250","pz","27","2","49","","","26"
"","psychophysics","116","494625","0.0-116.0","ETHAN","TEST","","","","","3329","key"," "," ","7.351143805309615","500","250","pz","24","2","59","","","24"
"","psychophysics","117","495248","0.0-117.0","ETHAN","TEST","","","","","622","key"," "," ","7.196588235294364","500","250","inst","","","","","",""
"","psychophysics","118","497064","0.0-118.0","ETHAN","TEST","","","","","1815","key"," "," ","7.40713114754085","500","250","instBr","70","2","40","0","0","300"
"","psychophysics","119","497526","0.0-119.0","ETHAN","TEST","","","","","461","key"," "," ","7.646466666666674","500","250","inst","","","","","",""
"","psychophysics","120","501802","0.0-120.0","ETHAN","TEST","","","","","4275","key"," "," ","7.371481865285055","500","250","br","29","2","43","28","-23","300"
"","psychophysics","121","503749","0.0-121.0","ETHAN","TEST","","","","","1946","key"," "," ","7.26370037453182","500","250","br","26","2","-35","15","-18","300"
"","psychophysics","122","505569","0.0-122.0","ETHAN","TEST","","","","","1819","key"," "," ","7.375182926829439","500","250","br","24","2","-41","29","-6","300"
"","psychophysics","123","506640","0.0-123.0","ETHAN","TEST","","","","","1070","key"," "," ","7.385729166666554","500","250","br","23","2","-19","-13","-29","300"
"","psychophysics","124","509442","0.0-124.0","ETHAN","TEST","","","","","2801","key"," "," ","7.315217277486912","500","250","br","24","2","49","14","-16","300"
"","psychophysics","125","510908","0.0-125.0","ETHAN","TEST","","","","","1465","key"," "," ","7.372565656565858","500","250","br","33","2","25","20","-18","300"
"","psychophysics","126","513325","0.0-126.0","ETHAN","TEST","","","","","2417","key"," "," ","7.490965838509363","500","250","br","23","2","-2","-24","-10","300"
"","psychophysics","127","515434","0.0-127.0","ETHAN","TEST","","","","","2108","key"," "," ","7.314588850174053","500","250","br","32","2","-31","-5","22","300"
"","psychophysics","128","517859","0.0-128.0","ETHAN","TEST","","","","","2424","key"," "," ","7.242673652694654","500","250","br","21","2","44","-19","-14","300"
"","psychophysics","129","520195","0.0-129.0","ETHAN","TEST","","","","","2336","key"," "," ","7.345984227129417","500","250","br","21","2","38","-20","2","300"
"","psychophysics","130","522519","0.0-130.0","ETHAN","TEST","","","","","2323","key"," "," ","7.443032154340822","500","250","br","28","2","-43","23","23","300"
"","psychophysics","131","524882","0.0-131.0","ETHAN","TEST","","","","","2362","key"," "," ","7.341074766355097","500","250","br","27","2","-45","-21","0","300"
"","psychophysics","132","526770","0.0-132.0","ETHAN","TEST","","","","","1887","key"," "," ","7.3015736434107845","500","250","br","23","2","-34","-21","16","300"
"","psychophysics","133","527998","0.0-133.0","ETHAN","TEST","","","","","1227","key"," "," ","7.372515151514954","500","250","br","23","2","-20","19","-24","300"
"","psychophysics","134","529191","0.0-134.0","ETHAN","TEST","","","","","1192","key"," "," ","7.429174999999669","500","250","br","30","2","-13","-9","-3","300"
"","psychophysics","135","529699","0.0-135.0","ETHAN","TEST","","","","","507","key"," "," ","7.58381818181828","500","250","inst","","","","","",""
"","psychophysics","136","530338","0.0-136.0","ETHAN","TEST","","","","","638","key"," "," ","7.530464285714386","500","250","instPog0","190","1","190","0","0","160"
"","psychophysics","137","530905","0.0-137.0","ETHAN","TEST","","","","","566","key"," "," ","7.22170129870125","500","250","instPog1","190","1","190","0","0","160"
"","psychophysics","138","533267","0.0-138.0","ETHAN","TEST","","","","","2361","key"," "," ","7.411798107255638","500","250","instPog2","175","1","190","0","0","160"
"","psychophysics","139","533726","0.0-139.0","ETHAN","TEST","","","","","458","key"," "," ","7.175467741934793","500","250","inst","","","","","",""
"","psychophysics","140","536738","0.0-140.0","ETHAN","TEST","","","","","3012","key"," "," ","7.524797499999986","500","250","pog","175","1","240","0","0","146"
"","psychophysics","141","538427","0.0-141.0","ETHAN","TEST","","","","","1688","key"," "," ","7.315506550218548","500","250","pog","194","1","208","0","0","166"
"","psychophysics","142","542390","0.0-142.0","ETHAN","TEST","","","","","3962","key"," "," ","7.463773156899831","500","250","pog","175","1","93","0","0","161"
"","psychophysics","143","544303","0.0-143.0","ETHAN","TEST","","","","","1911","key"," "," ","7.46925882352927","500","250","pog","154","1","148","0","0","140"
"","psychophysics","144","546877","0.0-144.0","ETHAN","TEST","","","","","2573","key"," "," ","7.37197694524496","500","250","pog","169","1","215","0","0","151"
"","psychophysics","145","549994","0.0-145.0","ETHAN","TEST","","","","","3116","key"," "," ","7.415816229117116","500","250","pog","163","1","237","0","0","136"
"","psychophysics","146","553458","0.0-146.0","ETHAN","TEST","","","","","3463","key"," "," ","7.412670235545923","500","250","pog","184","1","156","0","0","149"
"","psychophysics","147","557374","0.0-147.0","ETHAN","TEST","","","","","3916","key"," "," ","7.38491493383742","500","250","pog","163","1","91","0","0","139"
"","psychophysics","148","561492","0.0-148.0","ETHAN","TEST","","","","","4117","key"," "," ","7.4550108695653705","500","250","pog","149","1","96","0","0","120"
"","psychophysics","149","564620","0.0-149.0","ETHAN","TEST","","","","","3127","key"," "," ","7.396033175355287","500","250","pog","166","1","207","0","0","134"
"","psychophysics","150","570961","0.0-150.0","ETHAN","TEST","","","","","6341","key"," "," ","7.363539534883687","500","250","pog","201","1","93","0","0","173"
"","psychophysics","151","574841","0.0-151.0","ETHAN","TEST","","","","","3879","key"," "," ","7.347003795066495","500","250","pog","218","1","152","0","0","188"
"","psychophysics","152","576515","0.0-152.0","ETHAN","TEST","","","","","1672","key"," "," ","7.349378854625588","500","250","pog","147","1","145","0","0","126"
"","psychophysics","153","580337","0.0-153.0","ETHAN","TEST","","","","","3821","key"," "," ","7.324880998080682","500","250","pog","193","1","208","0","0","162"
"","psychophysics","154","597211","0.0-154.0","ETHAN","TEST","","","","","16873","key"," "," ","7.386702146298736","500","250","pog","219","1","230","0","0","194"
"","psychophysics","155","597753","0.0-155.0","ETHAN","TEST","","","","","541","key"," "," ","7.233027027026322","500","250","inst","","","","","",""
"","psychophysics","156","601351","0.0-156.0","ETHAN","TEST","","","","","3597","key"," "," ","7.425247933884192","500","250","instEB4","40","2","40","0","0","40"
"","psychophysics","157","601574","0.0-157.0","ETHAN","TEST","","","","","222","key"," "," ","7.182933333333737","500","250","inst","","","","","",""
"","psychophysics","158","604144","0.0-158.0","ETHAN","TEST","","","","","2569","key"," "," ","7.287974358974436","500","250","eb","67","2","51","0","0","45"
"","psychophysics","159","605134","0.0-159.0","ETHAN","TEST","","","","","989","key"," "," ","7.421691729323028","500","250","eb","45","2","35","0","0","38"
"","psychophysics","160","606345","0.0-160.0","ETHAN","TEST","","","","","1210","key"," "," ","7.423253086419995","500","250","eb","41","2","42","0","0","32"
"","psychophysics","161","607835","0.0-161.0","ETHAN","TEST","","","","","1489","key"," "," ","7.366323383084836","500","250","eb","48","2","53","0","0","29"
"","psychophysics","162","609862","0.0-162.0","ETHAN","TEST","","","","","2026","key"," "," ","7.302487364620902","500","250","eb","64","2","35","0","0","49"
"","psychophysics","163","611114","0.0-163.0","ETHAN","TEST","","","","","1251","key"," "," ","7.40640476190449","500","250","eb","47","2","52","0","0","35"
"","psychophysics","164","612029","0.0-164.0","ETHAN","TEST","","","","","914","key"," "," ","7.464057377049104","500","250","eb","58","2","51","0","0","40"
"","psychophysics","165","613583","0.0-165.0","ETHAN","TEST","","","","","1553","key"," "," ","7.5277268292683335","500","250","eb","61","2","52","0","0","48"
"","psychophysics","166","615277","0.0-166.0","ETHAN","TEST","","","","","1693","key"," "," ","7.474154867256571","500","250","eb","40","2","28","0","0","38"
"","psychophysics","167","617960","0.0-167.0","ETHAN","TEST","","","","","2682","key"," "," ","7.517547752808915","500","250","eb","38","2","54","0","0","27"
"","psychophysics","168","619044","0.0-168.0","ETHAN","TEST","","","","","1083","key"," "," ","7.430696551724145","500","250","eb","48","2","47","0","0","40"
"","psychophysics","169","620300","0.0-169.0","ETHAN","TEST","","","","","1255","key"," "," ","7.4036568047343785","500","250","eb","40","2","40","0","0","30"
"","psychophysics","170","621350","0.0-170.0","ETHAN","TEST","","","","","1049","key"," "," ","7.555724637680754","500","250","eb","26","2","25","0","0","25"
"","psychophysics","171","622957","0.0-171.0","ETHAN","TEST","","","","","1606","key"," "," ","7.401833333333208","500","250","eb","43","2","51","0","0","29"
"","psychophysics","172","625602","0.0-172.0","ETHAN","TEST","","","","","2644","key"," "," ","7.463305949008556","500","250","eb","51","2","26","0","0","37"
"","psychophysics","173","626109","0.0-173.0","ETHAN","TEST","","","","","506","key"," "," ","7.253420289855558","500","250","inst","","","","","",""
"","psychophysics","174","629290","0.0-174.0","ETHAN","TEST","","","","","3180","key"," "," ","7.319663594469905","500","250","instPz4","15","1","15","","","30"
"","psychophysics","175","629916","0.0-175.0","ETHAN","TEST","","","","","625","key"," "," ","7.277976470587173","500","250","inst","","","","","",""
"","psychophysics","176","636862","0.0-176.0","ETHAN","TEST","","","","","6945","key"," "," ","7.364536093418302","500","250","pz","55","1","24","","","52"
"","psychophysics","177","637785","0.0-177.0","ETHAN","TEST","","","","","922","key"," "," ","7.399701612902948","500","250","pz","53","1","53","","","56"
"","psychophysics","178","640535","0.0-178.0","ETHAN","TEST","","","","","2749","key"," "," ","7.321933333333272","500","250","pz","33","1","60","","","21"
"","psychophysics","179","642362","0.0-179.0","ETHAN","TEST","","","","","1826","key"," "," ","7.286289156626828","500","250","pz","59","1","36","","","53"
"","psychophysics","180","644012","0.0-180.0","ETHAN","TEST","","","","","1649","key"," "," ","7.389635135135445","500","250","pz","31","1","49","","","24"
"","psychophysics","181","645555","0.0-181.0","ETHAN","TEST","","","","","1542","key"," "," ","7.3153904761908395","500","250","pz","27","1","22","","","28"
"","psychophysics","182","646974","0.0-182.0","ETHAN","TEST","","","","","1418","key"," "," ","7.390336842105209","500","250","pz","39","1","30","","","44"
"","psychophysics","183","649166","0.0-183.0","ETHAN","TEST","","","","","2191","key"," "," ","7.398989830508244","500","250","pz","51","1","57","","","34"
"","psychophysics","184","652388","0.0-184.0","ETHAN","TEST","","","","","3222","key"," "," ","7.381747706422108","500","250","pz","48","1","24","","","47"
"","psychophysics","185","653542","0.0-185.0","ETHAN","TEST","","","","","1153","key"," "," ","7.496535947712997","500","250","pz","53","1","52","","","49"
"","psychophysics","186","655265","0.0-186.0","ETHAN","TEST","","","","","1722","key"," "," ","7.465078260869537","500","250","pz","47","1","35","","","57"
"","psychophysics","187","657203","0.0-187.0","ETHAN","TEST","","","","","1937","key"," "," ","7.377402298850493","500","250","pz","48","1","59","","","48"
"","psychophysics","188","658919","0.0-188.0","ETHAN","TEST","","","","","1715","key"," "," ","7.467310043668484","500","250","pz","46","1","23","","","51"
"","psychophysics","189","660342","0.0-189.0","ETHAN","TEST","","","","","1422","key"," "," ","7.463436842105645","500","250","pz","37","1","23","","","37"
"","psychophysics","190","661180","0.0-190.0","ETHAN","TEST","","","","","837","key"," "," ","7.3818141592922","500","250","pz","42","1","39","","","45"
"","psychophysics","191","661696","0.0-191.0","ETHAN","TEST","","","","","515","key"," "," ","7.4623970588230915","500","250","inst","","","","","",""
"","psychophysics","192","671350","0.0-192.0","ETHAN","TEST","","","","","9652","key"," "," ","7.348362528560477","500","250","instZol2","-2","1","2","0","0",""
"","psychophysics","193","671976","0.0-193.0","ETHAN","TEST","","","","","626","key"," "," ","7.278364705883296","500","250","inst","","","","","",""
"","psychophysics","194","679591","0.0-194.0","ETHAN","TEST","","","","","7614","key"," "," ","7.368910852713193","500","250","zol","1.11","1","-0.31","24","-14",""
"","psychophysics","195","681846","0.0-195.0","ETHAN","TEST","","","","","2253","key"," "," ","7.38567105263179","500","250","zol","0.7","1","0.1","-18","6",""
"","psychophysics","196","683821","0.0-196.0","ETHAN","TEST","","","","","1974","key"," "," ","7.367846441947443","500","250","zol","0.72","1","0.18","22","16",""
"","psychophysics","197","688233","0.0-197.0","ETHAN","TEST","","","","","4411","key"," "," ","7.432711148648711","500","250","zol","0.23000000000000007","1","-0.33","-26","-18",""
"","psychophysics","198","692430","0.0-198.0","ETHAN","TEST","","","","","4196","key"," "," ","7.458411032028431","500","250","zol","0.19999999999999998","1","0.4","13","-12",""
"","psychophysics","199","694905","0.0-199.0","ETHAN","TEST","","","","","2474","key"," "," ","7.455320241691874","500","250","zol","0.5399999999999999","1","-0.24","9","-14",""
"","psychophysics","200","698590","0.0-200.0","ETHAN","TEST","","","","","3684","key"," "," ","7.428745454545321","500","250","zol","0.29000000000000004","1","0.71","-9","-29",""
"","psychophysics","201","699814","0.0-201.0","ETHAN","TEST","","","","","1223","key"," "," ","7.462809815950709","500","250","zol","0.75","1","-0.75","14","-16",""
"","psychophysics","202","704101","0.0-202.0","ETHAN","TEST","","","","","4285","key"," "," ","7.382743103448342","500","250","zol","0.44000000000000017","1","-0.34","7","8",""
"","psychophysics","203","716441","0.0-203.0","ETHAN","TEST","","","","","12338","key"," "," ","7.3977484993997455","500","250","zol","0.29000000000000004","1","-0.69","4","-22",""
"","psychophysics","204","717760","0.0-204.0","ETHAN","TEST","","","","","1319","key"," "," ","7.339592178770362","500","250","zol","0.7499999999999999","1","0.55","-6","-23",""
"","psychophysics","205","720681","0.0-205.0","ETHAN","TEST","","","","","2920","key"," "," ","7.468156410256425","500","250","zol","0.3500000000000002","1","-0.65","-17","10",""
"","psychophysics","206","727072","0.0-206.0","ETHAN","TEST","","","","","6389","key"," "," ","7.351246260069053","500","250","zol","0.23000000000000018","1","0.47","-15","19",""
"","psychophysics","207","728912","0.0-207.0","ETHAN","TEST","","","","","1839","key"," "," ","7.403414634146303","500","250","zol","0.61","1","0.19","-20","-12",""
"","psychophysics","208","731736","0.0-208.0","ETHAN","TEST","","","","","2823","key"," "," ","7.426913157894619","500","250","zol","0.45999999999999996","1","0.74","24","22",""
