"rt","stimulus","response","trial_type","trial_index","time_elapsed","internal_node_id","pid","sid","response_type","key_press","avg_frame_time","center_x","center_y","phase","guide","targ","resp"
"17291.799999952316","Set You Browser to Full Screen Please.<br><br>","0","html-button-response","0","17297","0.0-0.0","10","14","","","","","","","","",""
"1354.3999999761581",""," ","psychophysics","1","18669","0.0-1.0","10","14","key"," ","16.674","500","250","","","",""
"2932.899999976158",""," ","psychophysics","2","21604","0.0-2.0","10","14","key"," ","16.68774857142857","500","250","","","",""
"1416.8999999761581",""," ","psychophysics","3","23024","0.0-3.0","10","14","key"," ","16.673999999999978","500","250","","","",""
"3513.399999976158",""," ","psychophysics","4","26539","0.0-4.0","10","14","key"," ","16.674000000000003","500","250","","","",""
"3639",""," ","psychophysics","5","30181","0.0-5.0","10","14","key"," ","16.674000000000007","500","250","","","",""
"3131.1999999284744",""," ","psychophysics","6","33316","0.0-6.0","10","14","key"," ","16.676139037433167","500","250","","","",""
"2726.5",""," ","psychophysics","7","36044","0.0-7.0","10","14","key"," ","16.674000000000007","500","250","","","",""
"2990.399999976158",""," ","psychophysics","8","39037","0.0-8.0","10","14","key"," ","16.67400000000001","500","250","","","",""
"12561.200000047684",""," ","psychophysics","9","51602","0.0-9.0","10","14","key"," ","16.6748406374502","500","250","1","0","40","48"
"8001.800000071526",""," ","psychophysics","10","59607","0.0-10.0","10","14","key"," ","16.67400000000001","500","250","1","5","53","50"
"5849.699999928474",""," ","psychophysics","11","65459","0.0-11.0","10","14","key"," ","16.674977142857138","500","250","1","0","28","41"
"6944.600000023842",""," ","psychophysics","12","72406","0.0-12.0","10","14","key"," ","16.67503614457831","500","250","1","5","58","57"
"10501.5",""," ","psychophysics","13","82911","0.0-13.0","10","14","key"," ","16.674405405405405","500","250","1","0","48","65"
"5425",""," ","psychophysics","14","88338","0.0-14.0","10","14","key"," ","16.67400000000001","500","250","1","5","42","39"
"5965.799999952316",""," ","psychophysics","15","94307","0.0-15.0","10","14","key"," ","16.675134453781517","500","250","1","0","43","51"
"7050.600000023842",""," ","psychophysics","16","101361","0.0-16.0","10","14","key"," ","16.674","500","250","1","5","51","48"
"7684.399999976158",""," ","psychophysics","17","109048","0.0-17.0","10","14","key"," ","16.67482826086957","500","250","1","0","53","66"
"7752.899999976158",""," ","psychophysics","18","116803","0.0-18.0","10","14","key"," ","16.67471982758619","500","250","1","5","56","55"
"5220.600000023842",""," ","psychophysics","19","122027","0.0-19.0","10","14","key"," ","16.675128205128203","500","250","1","0","37","54"
"4488.200000047684",""," ","psychophysics","20","126518","0.0-20.0","10","14","key"," ","16.673999999999992","500","250","1","5","36","38"
"8254",""," ","psychophysics","21","134779","0.0-21.0","10","14","key"," ","16.674468686868675","500","250","1","0","51","67"
"9283.799999952316",""," ","psychophysics","22","144065","0.0-22.0","10","14","key"," ","16.674814748201467","500","250","1","5","35","38"
"6945.399999976158",""," ","psychophysics","23","151014","0.0-23.0","10","14","key"," ","16.67399999999998","500","250","1","0","52","71"
"4670.399999976158",""," ","psychophysics","24","155690","0.0-24.0","10","14","key"," ","16.67489285714286","500","250","1","5","31","33"
"7659.900000095367",""," ","psychophysics","25","163353","0.0-25.0","10","14","key"," ","16.674960698689983","500","250","1","0","38","51"
"6674.799999952316",""," ","psychophysics","26","170034","0.0-26.0","10","14","key"," ","16.673999999999943","500","250","1","5","41","44"
"34037.10000002384",""," ","psychophysics","27","204074","0.0-27.0","10","14","key"," ","16.674624509803934","500","250","1","0","46","59"
"7369.899999976158",""," ","psychophysics","28","211450","0.0-28.0","10","14","key"," ","16.67399999999999","500","250","1","5","41","46"
"2161.899999976158",""," ","psychophysics","29","213615","0.0-29.0","10","14","key"," ","16.677395348837138","500","250","","","",""
"4871.799999952316",""," ","psychophysics","30","218491","0.0-30.0","10","14","key"," ","16.673999999999968","500","250","","","",""
"1230.3999999761581",""," ","psychophysics","31","219723","0.0-31.0","10","14","key"," ","16.674000000000266","500","250","","","",""
"6284.399999976158",""," ","psychophysics","32","226010","0.0-32.0","10","14","key"," ","16.67499999999997","500","250","2","0","33","45"
"1915.7999999523163",""," ","psychophysics","33","227928","0.0-33.0","10","14","key"," ","16.67400000000009","500","250","","","",""
"7293.799999952316",""," ","psychophysics","34","235224","0.0-34.0","10","14","key"," ","16.674740825688087","500","250","2","0","27","33"
"1692.7000000476837",""," ","psychophysics","35","236921","0.0-35.0","10","14","key"," ","16.673999999999932","500","250","","","",""
"6798.299999952316",""," ","psychophysics","36","243722","0.0-36.0","10","14","key"," ","16.674842751842736","500","250","2","0","40","50"
"1647.6999999284744",""," ","psychophysics","37","245371","0.0-37.0","10","14","key"," ","16.67399999999996","500","250","","","",""
"8223.200000047684",""," ","psychophysics","38","253597","0.0-38.0","10","14","key"," ","16.674611788617916","500","250","2","0","56","69"
"4283.699999928474",""," ","psychophysics","39","257884","0.0-39.0","10","14","key"," ","16.673999999999978","500","250","","","",""
"2723",""," ","psychophysics","40","260610","0.0-40.0","10","14","key"," ","16.67399999999996","500","250","2","0","22","27"
"1649.3999999761581",""," ","psychophysics","41","262262","0.0-41.0","10","14","key"," ","16.67789795918346","500","250","","","",""
"2402.5",""," ","psychophysics","42","264667","0.0-42.0","10","14","key"," ","16.673999999999882","500","250","2","0","24","26"
"1513.8999999761581",""," ","psychophysics","43","266184","0.0-43.0","10","14","key"," ","16.674000000000362","500","250","","","",""
"3364.5999999046326",""," ","psychophysics","44","269551","0.0-44.0","10","14","key"," ","16.67399999999994","500","250","2","0","50","36"
"1661.2999999523163",""," ","psychophysics","45","271214","0.0-45.0","10","14","key"," ","16.674000000000245","500","250","","","",""
"1945.5",""," ","psychophysics","46","273162","0.0-46.0","10","14","key"," ","16.677043103448373","500","250","2","0","54","10"
"1237.1000000238419",""," ","psychophysics","47","274409","0.0-47.0","10","14","key"," ","16.673999999999864","500","250","","","",""
"4656.399999976158",""," ","psychophysics","48","279068","0.0-48.0","10","14","key"," ","16.673999999999904","500","250","2","0","52","51"
"1882",""," ","psychophysics","49","280958","0.0-49.0","10","14","key"," ","16.67400000000011","500","250","","","",""
"3796",""," ","psychophysics","50","284756","0.0-50.0","10","14","key"," ","16.675480176211337","500","250","2","0","42","40"
"1446.7000000476837",""," ","psychophysics","51","286205","0.0-51.0","10","14","key"," ","16.674000000000422","500","250","","","",""
"5035.899999976158",""," ","psychophysics","52","291243","0.0-52.0","10","14","key"," ","16.674000000000035","500","250","2","0","37","36"
"1584.7000000476837",""," ","psychophysics","53","292830","0.0-53.0","10","14","key"," ","16.677617021276557","500","250","","","",""
"3595.6999999284744",""," ","psychophysics","54","296428","0.0-54.0","10","14","key"," ","16.673999999999882","500","250","2","0","39","37"
"1478.2999999523163",""," ","psychophysics","55","297908","0.0-55.0","10","14","key"," ","16.67400000000039","500","250","","","",""
"4913.700000047684",""," ","psychophysics","56","302831","0.0-56.0","10","14","key"," ","16.675200680271978","500","250","2","0","44","49"
"1064.7000000476837",""," ","psychophysics","57","303898","0.0-57.0","10","14","key"," ","16.673999999999992","500","250","","","",""
"2190.600000023842",""," ","psychophysics","58","306090","0.0-58.0","10","14","key"," ","16.673999999999964","500","250","2","0","21","22"
"1349.6000000238419",""," ","psychophysics","59","307451","0.0-59.0","10","14","key"," ","16.674000000000508","500","250","","","",""
"3147",""," ","psychophysics","60","310601","0.0-60.0","10","14","key"," ","16.673999999999996","500","250","2","0","30","33"
"1105.8999999761581",""," ","psychophysics","61","311709","0.0-61.0","10","14","key"," ","16.673999999999964","500","250","","","",""
"2439.1999999284744",""," ","psychophysics","62","314161","0.0-62.0","10","14","key"," ","16.676363013698705","500","250","","","",""
"1407",""," ","psychophysics","63","315570","0.0-63.0","10","14","key"," ","16.67399999999976","500","250","","","",""
"17457.899999976158",""," ","psychophysics","64","333031","0.0-64.0","10","14","key"," ","16.67464913957937","500","250","3","5","28","21"
"3691.100000023842",""," ","psychophysics","65","336724","0.0-65.0","10","14","key"," ","16.67399999999986","500","250","3","0","35","32"
"4190.799999952316",""," ","psychophysics","66","340918","0.0-66.0","10","14","key"," ","16.673999999999996","500","250","3","5","54","42"
"2900.5",""," ","psychophysics","67","343820","0.0-67.0","10","14","key"," ","16.67600578034695","500","250","3","0","27","30"
"3182.600000023842",""," ","psychophysics","68","347005","0.0-68.0","10","14","key"," ","16.67399999999999","500","250","3","5","26","30"
"5094.800000071526",""," ","psychophysics","69","352107","0.0-69.0","10","14","key"," ","16.674000000000024","500","250","3","0","55","57"
"2163.5",""," ","psychophysics","70","354273","0.0-70.0","10","14","key"," ","16.676697674418563","500","250","3","5","22","20"
"4535.5",""," ","psychophysics","71","358811","0.0-71.0","10","14","key"," ","16.67399999999993","500","250","3","0","54","50"
"2307.8000000715256",""," ","psychophysics","72","361121","0.0-72.0","10","14","key"," ","16.674000000000344","500","250","3","5","27","23"
"4405",""," ","psychophysics","73","365531","0.0-73.0","10","14","key"," ","16.67526893939375","500","250","3","0","41","48"
"2532.5",""," ","psychophysics","74","368066","0.0-74.0","10","14","key"," ","16.674000000000227","500","250","3","5","28","28"
"2980.100000023842",""," ","psychophysics","75","371048","0.0-75.0","10","14","key"," ","16.67400000000005","500","250","3","0","49","35"
"3753.7000000476837",""," ","psychophysics","76","374804","0.0-76.0","10","14","key"," ","16.675383928571268","500","250","3","5","58","42"
"8507.400000095367",""," ","psychophysics","77","383314","0.0-77.0","10","14","key"," ","16.674746561886042","500","250","3","0","27","39"
"3384.600000023842",""," ","psychophysics","78","386701","0.0-78.0","10","14","key"," ","16.67400000000022","500","250","3","5","48","35"
"3590","Set You Browser to Full Screen Please.<br><br>","0","html-button-response","0","3593","0.0-0.0","11","18","","","","","","","","",""
"1303",""," ","psychophysics","1","4913","0.0-1.0","11","18","key"," ","16.753246753246753","500","250","","","",""
"3635",""," ","psychophysics","2","8551","0.0-2.0","11","18","key"," ","16.637614678899084","500","250","","","",""
"4305",""," ","psychophysics","3","12858","0.0-3.0","11","18","key"," ","16.635658914728683","500","250","","","",""
"4211.999999999998",""," ","psychophysics","4","17074","0.0-4.0","11","18","key"," ","16.666666666666668","500","250","","","",""
"2764",""," ","psychophysics","5","19840","0.0-5.0","11","18","key"," ","16.654545454545456","500","250","","","",""
"4285",""," ","psychophysics","6","24127","0.0-6.0","11","18","key"," ","16.6640625","500","250","","","",""
"2019",""," ","psychophysics","7","26149","0.0-7.0","11","18","key"," ","16.669421487603305","500","250","","","",""
"2285",""," ","psychophysics","8","28435","0.0-8.0","11","18","key"," ","16.669117647058822","500","250","","","",""
"11935.000000000007",""," ","psychophysics","9","40373","0.0-9.0","11","18","key"," ","16.665734265734265","500","250","1","0","52","56"
"9391",""," ","psychophysics","10","49768","0.0-10.0","11","18","key"," ","16.66607460035524","500","250","1","5","32","38"
"11796",""," ","psychophysics","11","61566","0.0-11.0","11","18","key"," ","16.664780763790663","500","250","1","0","32","51"
"339048556",""," ","psychophysics","12","339238462","0.0-12.0","11","18","key"," ","7339.666190414339","500","250","1","5","25","18"
"10026",""," ","psychophysics","13","339248518","0.0-13.0","11","18","key"," ","16.64451827242525","500","250","1","0","60","67"
"5149.000000059605",""," ","psychophysics","14","339253674","0.0-14.0","11","18","key"," ","16.66883116883117","500","250","1","5","22","24"
"4978",""," ","psychophysics","15","339258663","0.0-15.0","11","18","key"," ","16.63545150501672","500","250","1","0","26","30"
"3345",""," ","psychophysics","16","339262012","0.0-16.0","11","18","key"," ","16.665","500","250","1","5","23","24"
"4766",""," ","psychophysics","17","339266781","0.0-17.0","11","18","key"," ","16.666666666666668","500","250","1","0","53","51"
"3242",""," ","psychophysics","18","339270028","0.0-18.0","11","18","key"," ","16.649484536082475","500","250","1","5","22","29"
"4482",""," ","psychophysics","19","339274514","0.0-19.0","11","18","key"," ","16.66417910447761","500","250","1","0","25","33"
"6355",""," ","psychophysics","20","339280872","0.0-20.0","11","18","key"," ","16.66578947368421","500","250","1","5","56","62"
"8665",""," ","psychophysics","21","339289544","0.0-21.0","11","18","key"," ","16.657692307692308","500","250","1","0","60","80"
"3000.9999999403954",""," ","psychophysics","22","339292549","0.0-22.0","11","18","key"," ","16.675977653631286","500","250","1","5","21","26"
"4255",""," ","psychophysics","23","339296808","0.0-23.0","11","18","key"," ","16.673228346456693","500","250","1","0","31","40"
"4607",""," ","psychophysics","24","339301423","0.0-24.0","11","18","key"," ","16.655797101449274","500","250","1","5","35","40"
"5851",""," ","psychophysics","25","339307282","0.0-25.0","11","18","key"," ","16.666666666666668","500","250","1","0","35","36"
"6106",""," ","psychophysics","26","339313394","0.0-26.0","11","18","key"," ","16.66393442622951","500","250","1","5","50","57"
"7608",""," ","psychophysics","27","339321004","0.0-27.0","11","18","key"," ","16.73951434878587","500","250","1","0","55","70"
"3199",""," ","psychophysics","28","339324207","0.0-28.0","11","18","key"," ","16.664921465968586","500","250","1","5","22","24"
"78",""," ","psychophysics","29","339324292","0.0-29.0","11","18","key"," ","15.2","500","250","","","",""
"6810",""," ","psychophysics","30","339331105","0.0-30.0","11","18","key"," ","16.665847665847664","500","250","","","",""
"1397",""," ","psychophysics","31","339332505","0.0-31.0","11","18","key"," ","16.662650602409638","500","250","","","",""
"4657",""," ","psychophysics","32","339337165","0.0-32.0","11","18","key"," ","16.663082437275985","500","250","2","0","30","39"
"5582",""," ","psychophysics","33","339342756","0.0-33.0","11","18","key"," ","16.661676646706585","500","250","","","",""
"6327",""," ","psychophysics","34","339349087","0.0-34.0","11","18","key"," ","16.65699208443272","500","250","2","0","52","62"
"2105",""," ","psychophysics","35","339351194","0.0-35.0","11","18","key"," ","16.666666666666668","500","250","","","",""
"3796",""," ","psychophysics","36","339354995","0.0-36.0","11","18","key"," ","16.665198237885463","500","250","2","0","37","38"
"1920.0000000596046",""," ","psychophysics","37","339356921","0.0-37.0","11","18","key"," ","16.666666666666668","500","250","","","",""
"5813",""," ","psychophysics","38","339362743","0.0-38.0","11","18","key"," ","16.66189111747851","500","250","2","0","59","66"
"1863",""," ","psychophysics","39","339364608","0.0-39.0","11","18","key"," ","16.666666666666668","500","250","","","",""
"3144",""," ","psychophysics","40","339367754","0.0-40.0","11","18","key"," ","16.668449197860962","500","250","2","0","24","28"
"1951",""," ","psychophysics","41","339369710","0.0-41.0","11","18","key"," ","16.775862068965516","500","250","","","",""
"5426",""," ","psychophysics","42","339375143","0.0-42.0","11","18","key"," ","16.664615384615384","500","250","2","0","52","60"
"2053",""," ","psychophysics","43","339377200","0.0-43.0","11","18","key"," ","16.66393442622951","500","250","","","",""
"3347",""," ","psychophysics","44","339380551","0.0-44.0","11","18","key"," ","16.665","500","250","2","0","28","29"
"1351.9999999403954",""," ","psychophysics","45","339381910","0.0-45.0","11","18","key"," ","16.62962962962963","500","250","","","",""
"6058",""," ","psychophysics","46","339387970","0.0-46.0","11","18","key"," ","16.662983425414364","500","250","2","0","45","49"
"1160",""," ","psychophysics","47","339389136","0.0-47.0","11","18","key"," ","16.666666666666668","500","250","","","",""
"4536",""," ","psychophysics","48","339393675","0.0-48.0","11","18","key"," ","16.66176470588235","500","250","2","0","38","42"
"1112.9999999403954",""," ","psychophysics","49","339394794","0.0-49.0","11","18","key"," ","16.696969696969695","500","250","","","",""
"4515",""," ","psychophysics","50","339399312","0.0-50.0","11","18","key"," ","16.666666666666668","500","250","2","0","49","53"
"1461",""," ","psychophysics","51","339400777","0.0-51.0","11","18","key"," ","16.67816091954023","500","250","","","",""
"15525",""," ","psychophysics","52","339416304","0.0-52.0","11","18","key"," ","16.666666666666668","500","250","2","0","57","59"
"1074",""," ","psychophysics","53","339417385","0.0-53.0","11","18","key"," ","16.578125","500","250","","","",""
"3588",""," ","psychophysics","54","339420984","0.0-54.0","11","18","key"," ","16.665116279069768","500","250","2","0","35","38"
"886",""," ","psychophysics","55","339421873","0.0-55.0","11","18","key"," ","16.641509433962263","500","250","","","",""
"6580",""," ","psychophysics","56","339428456","0.0-56.0","11","18","key"," ","16.66497461928934","500","250","2","0","49","48"
"1773.0000000596046",""," ","psychophysics","57","339430235","0.0-57.0","11","18","key"," ","16.666666666666668","500","250","","","",""
"3057",""," ","psychophysics","58","339433300","0.0-58.0","11","18","key"," ","16.666666666666668","500","250","2","0","29","26"
"1320",""," ","psychophysics","59","339434623","0.0-59.0","11","18","key"," ","16.670886075949365","500","250","","","",""
"5240",""," ","psychophysics","60","339439867","0.0-60.0","11","18","key"," ","16.664536741214057","500","250","2","0","20","25"
"1137",""," ","psychophysics","61","339441011","0.0-61.0","11","18","key"," ","16.61764705882353","500","250","","","",""
"1794",""," ","psychophysics","62","339442809","0.0-62.0","11","18","key"," ","16.66355140186916","500","250","","","",""
"2846.0000000596046",""," ","psychophysics","63","339445658","0.0-63.0","11","18","key"," ","16.66470588235294","500","250","","","",""
"7979",""," ","psychophysics","64","339453640","0.0-64.0","11","18","key"," ","16.669456066945607","500","250","3","5","57","66"
"16262.999999940395",""," ","psychophysics","65","339469910","0.0-65.0","11","18","key"," ","16.666666666666668","500","250","3","0","29","34"
"5117.000000059605",""," ","psychophysics","66","339475034","0.0-66.0","11","18","key"," ","16.887417218543046","500","250","3","5","37","41"
"7065",""," ","psychophysics","67","339482108","0.0-67.0","11","18","key"," ","16.66509433962264","500","250","3","0","47","50"
"7969",""," ","psychophysics","68","339490080","0.0-68.0","11","18","key"," ","16.666666666666668","500","250","3","5","37","40"
"3240",""," ","psychophysics","69","339493324","0.0-69.0","11","18","key"," ","16.65979381443299","500","250","3","0","25","35"
"3243",""," ","psychophysics","70","339496570","0.0-70.0","11","18","key"," ","16.65979381443299","500","250","3","5","22","25"
"4556",""," ","psychophysics","71","339501132","0.0-71.0","11","18","key"," ","16.66176470588235","500","250","3","0","42","51"
"6735.000000059605",""," ","psychophysics","72","339507870","0.0-72.0","11","18","key"," ","16.665841584158414","500","250","3","5","53","59"
"7175",""," ","psychophysics","73","339515050","0.0-73.0","11","18","key"," ","16.664335664335663","500","250","3","0","58","77"
"5836",""," ","psychophysics","74","339520897","0.0-74.0","11","18","key"," ","16.662857142857142","500","250","3","5","53","58"
"7839",""," ","psychophysics","75","339528742","0.0-75.0","11","18","key"," ","16.661702127659574","500","250","3","0","52","64"
"3878",""," ","psychophysics","76","339532628","0.0-76.0","11","18","key"," ","16.66810344827586","500","250","3","5","48","48"
"3647",""," ","psychophysics","77","339536279","0.0-77.0","11","18","key"," ","16.665137614678898","500","250","3","0","23","28"
"7498.999999940395",""," ","psychophysics","78","339543781","0.0-78.0","11","18","key"," ","16.665924276169264","500","250","3","5","60","58"
"2845.2999999523163","Set You Browser to Full Screen Please.<br><br>","0","html-button-response","0","2848","0.0-0.0","12","19","","","","","","","","",""
"2460",""," ","psychophysics","1","5347","0.0-1.0","12","19","key"," ","16.77176510067114","500","250","","","",""
"5711.5",""," ","psychophysics","2","11064","0.0-2.0","12","19","key"," ","16.665999999999997","500","250","","","",""
"3732",""," ","psychophysics","3","14799","0.0-3.0","12","19","key"," ","16.65237668161435","500","250","","","",""
"6102.600000023842",""," ","psychophysics","4","20904","0.0-4.0","12","19","key"," ","16.666","500","250","","","",""
"3525.899999976158",""," ","psychophysics","5","24432","0.0-5.0","12","19","key"," ","16.66757345971564","500","250","","","",""
"3531.600000023842",""," ","psychophysics","6","27966","0.0-6.0","12","19","key"," ","16.666000000000007","500","250","","","",""
"3164.7999999523163",""," ","psychophysics","7","31134","0.0-7.0","12","19","key"," ","16.666","500","250","","","",""
"3431.399999976158",""," ","psychophysics","8","34568","0.0-8.0","12","19","key"," ","16.998995024875633","500","250","","","",""
"6379.5",""," ","psychophysics","9","40950","0.0-9.0","12","19","key"," ","16.66600000000001","500","250","1","0","25","29"
"6222.699999928474",""," ","psychophysics","10","47175","0.0-10.0","12","19","key"," ","16.71161185983828","500","250","1","5","41","39"
"4671.099999904633",""," ","psychophysics","11","51848","0.0-11.0","12","19","key"," ","16.725734767025102","500","250","1","0","27","30"
"4546",""," ","psychophysics","12","56396","0.0-12.0","12","19","key"," ","16.666893382352928","500","250","1","5","41","40"
"8082.700000047684",""," ","psychophysics","13","64481","0.0-13.0","12","19","key"," ","16.666611570247934","500","250","1","0","58","59"
"4982.299999952316",""," ","psychophysics","14","69465","0.0-14.0","12","19","key"," ","16.666000000000025","500","250","1","5","48","51"
"6787",""," ","psychophysics","15","76254","0.0-15.0","12","19","key"," ","16.666662561576338","500","250","1","0","52","62"
"3261.100000023842",""," ","psychophysics","16","79518","0.0-16.0","12","19","key"," ","16.66600000000005","500","250","1","5","21","22"
"5577.600000023842",""," ","psychophysics","17","85097","0.0-17.0","12","19","key"," ","16.66675748502994","500","250","1","0","40","46"
"3105.5",""," ","psychophysics","18","88205","0.0-18.0","12","19","key"," ","16.666000000000036","500","250","1","5","30","29"
"3989.3000000715256",""," ","psychophysics","19","92200","0.0-19.0","12","19","key"," ","16.665999999999997","500","250","1","0","24","28"
"4269.600000023842",""," ","psychophysics","20","96471","0.0-20.0","12","19","key"," ","16.732480314960643","500","250","1","5","35","40"
"4801.700000047684",""," ","psychophysics","21","101278","0.0-21.0","12","19","key"," ","16.666000000000015","500","250","1","0","60","53"
"6034.700000047684",""," ","psychophysics","22","107314","0.0-22.0","12","19","key"," ","16.666886426592797","500","250","1","5","59","64"
"5361.600000023842",""," ","psychophysics","23","112678","0.0-23.0","12","19","key"," ","16.666828660436124","500","250","1","0","56","62"
"4966.299999952316",""," ","psychophysics","24","117646","0.0-24.0","12","19","key"," ","16.666000000000036","500","250","1","5","49","51"
"6279.899999976158",""," ","psychophysics","25","123928","0.0-25.0","12","19","key"," ","16.666744680851053","500","250","1","0","57","62"
"4277.900000095367",""," ","psychophysics","26","128208","0.0-26.0","12","19","key"," ","16.665999999999997","500","250","1","5","38","41"
"6679.900000095367",""," ","psychophysics","27","134891","0.0-27.0","12","19","key"," ","17.226317829457383","500","250","1","0","55","68"
"3235.600000023842",""," ","psychophysics","28","138129","0.0-28.0","12","19","key"," ","16.666000000000004","500","250","1","5","32","35"
"2321.2000000476837",""," ","psychophysics","29","140454","0.0-29.0","12","19","key"," ","16.66599999999997","500","250","","","",""
"2252.2000000476837",""," ","psychophysics","30","142710","0.0-30.0","12","19","key"," ","16.668459259259247","500","250","","","",""
"893.2000000476837",""," ","psychophysics","31","143605","0.0-31.0","12","19","key"," ","16.66600000000024","500","250","","","",""
"3849.2999999523163",""," ","psychophysics","32","147466","0.0-32.0","12","19","key"," ","16.665999999999958","500","250","2","0","30","29"
"2908.1999999284744",""," ","psychophysics","33","150379","0.0-33.0","12","19","key"," ","16.665999999999947","500","250","","","",""
"3732.100000023842",""," ","psychophysics","34","154113","0.0-34.0","12","19","key"," ","16.66718385650214","500","250","2","0","21","28"
"2748.7999999523163",""," ","psychophysics","35","156864","0.0-35.0","12","19","key"," ","16.6660000000001","500","250","","","",""
"3810",""," ","psychophysics","36","160676","0.0-36.0","12","19","key"," ","16.665999999999993","500","250","2","0","23","23"
"3183.2999999523163",""," ","psychophysics","37","163862","0.0-37.0","12","19","key"," ","16.667421052631568","500","250","","","",""
"4878.399999976158",""," ","psychophysics","38","168742","0.0-38.0","12","19","key"," ","16.66600000000003","500","250","2","0","26","27"
"2745.4000000953674",""," ","psychophysics","39","171489","0.0-39.0","12","19","key"," ","16.66599999999994","500","250","","","",""
"7466.100000023842",""," ","psychophysics","40","178958","0.0-40.0","12","19","key"," ","16.70374049216999","500","250","2","0","53","70"
"1090.3999999761581",""," ","psychophysics","41","180052","0.0-41.0","12","19","key"," ","16.666000000000167","500","250","","","",""
"4189.899999976158",""," ","psychophysics","42","184244","0.0-42.0","12","19","key"," ","16.66730677290839","500","250","2","0","39","38"
"2783",""," ","psychophysics","43","187029","0.0-43.0","12","19","key"," ","16.665999999999894","500","250","","","",""
"628.5999999046326",""," ","psychophysics","44","187660","0.0-44.0","12","19","key"," ","16.666000000000587","500","250","2","0","34","10"
"3056.399999976158",""," ","psychophysics","45","190727","0.0-45.0","12","19","key"," ","16.665999999999983","500","250","","","",""
"4513.5",""," ","psychophysics","46","195243","0.0-46.0","12","19","key"," ","16.666988888888888","500","250","2","0","43","47"
"1766.6999999284744",""," ","psychophysics","47","197012","0.0-47.0","12","19","key"," ","16.665999999999933","500","250","","","",""
"6422",""," ","psychophysics","48","203446","0.0-48.0","12","19","key"," ","16.666685714285713","500","250","2","0","43","52"
"1252.1000000238419",""," ","psychophysics","49","204700","0.0-49.0","12","19","key"," ","16.666000000000192","500","250","","","",""
"4342.100000023842",""," ","psychophysics","50","209046","0.0-50.0","12","19","key"," ","16.666000000000015","500","250","2","0","35","42"
"617.7000000476837",""," ","psychophysics","51","209665","0.0-51.0","12","19","key"," ","16.665999999999865","500","250","","","",""
"8323.299999952316",""," ","psychophysics","52","217991","0.0-52.0","12","19","key"," ","16.66652905811623","500","250","2","0","42","52"
"1631",""," ","psychophysics","53","219624","0.0-53.0","12","19","key"," ","16.66600000000014","500","250","","","",""
"6432.5",""," ","psychophysics","54","226059","0.0-54.0","12","19","key"," ","16.66669610389614","500","250","2","0","54","63"
"3335.2999999523163",""," ","psychophysics","55","229396","0.0-55.0","12","19","key"," ","16.665999999999926","500","250","","","",""
"3812.2000000476837",""," ","psychophysics","56","233211","0.0-56.0","12","19","key"," ","16.667157894736814","500","250","2","0","22","21"
"716.3999999761581",""," ","psychophysics","57","233930","0.0-57.0","12","19","key"," ","16.665999999999517","500","250","","","",""
"6117.200000047684",""," ","psychophysics","58","240049","0.0-58.0","12","19","key"," ","16.666000000000064","500","250","2","0","46","50"
"712.9000000953674",""," ","psychophysics","59","240764","0.0-59.0","12","19","key"," ","16.665999999999517","500","250","","","",""
"5445.900000095367",""," ","psychophysics","60","246212","0.0-60.0","12","19","key"," ","16.666815950920284","500","250","2","0","21","24"
"668.1000000238419",""," ","psychophysics","61","246882","0.0-61.0","12","19","key"," ","16.666000000000423","500","250","","","",""
"1889.8000000715256",""," ","psychophysics","62","248778","0.0-62.0","12","19","key"," ","16.666000000000015","500","250","","","",""
"1261.3999999761581",""," ","psychophysics","63","250041","0.0-63.0","12","19","key"," ","16.665999999999766","500","250","","","",""
"6248.800000071526",""," ","psychophysics","64","256292","0.0-64.0","12","19","key"," ","16.66670855614978","500","250","3","5","39","39"
"2856.7999999523163",""," ","psychophysics","65","259151","0.0-65.0","12","19","key"," ","16.666000000000007","500","250","3","0","20","19"
"8302.700000047684",""," ","psychophysics","66","267458","0.0-66.0","12","19","key"," ","16.666542168674745","500","250","3","5","57","59"
"9617.899999976158",""," ","psychophysics","67","277077","0.0-67.0","12","19","key"," ","16.666454861111156","500","250","3","0","50","57"
"5744.600000023842",""," ","psychophysics","68","282825","0.0-68.0","12","19","key"," ","16.665999999999976","500","250","3","5","21","19"
"4695.700000047684",""," ","psychophysics","69","287522","0.0-69.0","12","19","key"," ","16.666939501779268","500","250","3","0","41","49"
"4733.300000071526",""," ","psychophysics","70","292259","0.0-70.0","12","19","key"," ","16.66600000000001","500","250","3","5","31","31"
"4256.5",""," ","psychophysics","71","296517","0.0-71.0","12","19","key"," ","16.666803149606366","500","250","3","0","33","36"
"4197.799999952316",""," ","psychophysics","72","300720","0.0-72.0","12","19","key"," ","16.66599999999998","500","250","3","5","28","30"
"5834.900000095367",""," ","psychophysics","73","306556","0.0-73.0","12","19","key"," ","16.66675931232098","500","250","3","0","56","63"
"6186.100000023842",""," ","psychophysics","74","312744","0.0-74.0","12","19","key"," ","16.802234332425183","500","250","3","5","57","62"
"3698.7999999523163",""," ","psychophysics","75","316445","0.0-75.0","12","19","key"," ","16.667488687782868","500","250","3","0","34","34"
"4422.399999976158",""," ","psychophysics","76","320870","0.0-76.0","12","19","key"," ","16.792737642585514","500","250","3","5","41","45"
"4300.799999952316",""," ","psychophysics","77","325173","0.0-77.0","12","19","key"," ","16.66701167315183","500","250","3","0","35","40"
"2815.5",""," ","psychophysics","78","327991","0.0-78.0","12","19","key"," ","16.66600000000021","500","250","3","5","25","30"
"2942","Set You Browser to Full Screen Please.<br><br>","0","html-button-response","0","2946","0.0-0.0","13","20","","","","","","","","",""
"3645",""," ","psychophysics","1","6600","0.0-1.0","13","20","key"," ","16.579908675799086","500","250","","","",""
"11778",""," ","psychophysics","2","18390","0.0-2.0","13","20","key"," ","16.650636492220652","500","250","","","",""
"4914.999999999996",""," ","psychophysics","3","23309","0.0-3.0","13","20","key"," ","16.594594594594593","500","250","","","",""
"15359.000000000007",""," ","psychophysics","4","38672","0.0-4.0","13","20","key"," ","16.66015200868621","500","250","","","",""
"11058",""," ","psychophysics","5","49735","0.0-5.0","13","20","key"," ","16.6355421686747","500","250","","","",""
"5142",""," ","psychophysics","6","54881","0.0-6.0","13","20","key"," ","16.614886731391586","500","250","","","",""
"8022",""," ","psychophysics","7","62919","0.0-7.0","13","20","key"," ","16.645228215767634","500","250","","","",""
"5899.000000000015",""," ","psychophysics","8","68833","0.0-8.0","13","20","key"," ","16.628169014084506","500","250","","","",""
"21326.999999999985",""," ","psychophysics","9","90178","0.0-9.0","13","20","key"," ","16.656518345042937","500","250","1","0","39","45"
"26765.000000000015",""," ","psychophysics","10","116954","0.0-10.0","13","20","key"," ","16.66189290161893","500","250","1","5","42","45"
"3656",""," ","psychophysics","11","120633","0.0-11.0","13","20","key"," ","16.58371040723982","500","250","1","0","59","20"
"18837",""," ","psychophysics","12","139485","0.0-12.0","13","20","key"," ","16.655172413793103","500","250","1","5","49","52"
"12959",""," ","psychophysics","13","152466","0.0-13.0","13","20","key"," ","16.645699614890887","500","250","1","0","30","35"
"8397",""," ","psychophysics","14","160878","0.0-14.0","13","20","key"," ","16.63960396039604","500","250","1","5","32","35"
"12550",""," ","psychophysics","15","173432","0.0-15.0","13","20","key"," ","16.653386454183266","500","250","1","0","27","33"
"27496",""," ","psychophysics","16","200942","0.0-16.0","13","20","key"," ","16.65899454875833","500","250","1","5","56","58"
"17845",""," ","psychophysics","17","218801","0.0-17.0","13","20","key"," ","16.66013071895425","500","250","1","0","51","55"
"45876",""," ","psychophysics","18","264698","0.0-18.0","13","20","key"," ","16.660493827160494","500","250","1","5","45","48"
"9246",""," ","psychophysics","19","273959","0.0-19.0","13","20","key"," ","16.64388489208633","500","250","1","0","43","51"
"5812",""," ","psychophysics","20","279786","0.0-20.0","13","20","key"," ","16.64756446991404","500","250","1","5","27","28"
"9269",""," ","psychophysics","21","289069","0.0-21.0","13","20","key"," ","16.63375224416517","500","250","1","0","26","33"
"6123",""," ","psychophysics","22","295206","0.0-22.0","13","20","key"," ","16.62059620596206","500","250","1","5","25","27"
"18128",""," ","psychophysics","23","313337","0.0-23.0","13","20","key"," ","16.661453541858325","500","250","1","0","57","67"
"8486.999999999942",""," ","psychophysics","24","321829","0.0-24.0","13","20","key"," ","16.62549019607843","500","250","1","5","35","36"
"6770",""," ","psychophysics","25","328607","0.0-25.0","13","20","key"," ","16.64127764127764","500","250","1","0","36","44"
"12584",""," ","psychophysics","26","341201","0.0-26.0","13","20","key"," ","16.659602649006622","500","250","1","5","52","55"
"31044.99999999994",""," ","psychophysics","27","372262","0.0-27.0","13","20","key"," ","16.657188841201716","500","250","1","0","33","40"
"11018",""," ","psychophysics","28","383301","0.0-28.0","13","20","key"," ","16.649546827794563","500","250","1","5","26","29"
"3585.000000000058",""," ","psychophysics","29","386918","0.0-29.0","13","20","key"," ","16.580645161290324","500","250","","","",""
"6112",""," ","psychophysics","30","393052","0.0-30.0","13","20","key"," ","16.61413043478261","500","250","","","",""
"1896.9999999999418",""," ","psychophysics","31","394965","0.0-31.0","13","20","key"," ","16.51304347826087","500","250","","","",""
"21457.00000000006",""," ","psychophysics","32","416426","0.0-32.0","13","20","key"," ","16.65527950310559","500","250","2","0","56","67"
"3664.999999999942",""," ","psychophysics","33","420096","0.0-33.0","13","20","key"," ","16.618181818181817","500","250","","","",""
"10765",""," ","psychophysics","34","430882","0.0-34.0","13","20","key"," ","16.64760432766615","500","250","2","0","36","41"
"1927.0000000000582",""," ","psychophysics","35","432830","0.0-35.0","13","20","key"," ","16.53846153846154","500","250","","","",""
"8821",""," ","psychophysics","36","441671","0.0-36.0","13","20","key"," ","16.64030131826742","500","250","2","0","43","45"
"1420.9999999999418",""," ","psychophysics","37","443114","0.0-37.0","13","20","key"," ","16.593023255813954","500","250","","","",""
"11383",""," ","psychophysics","38","454518","0.0-38.0","13","20","key"," ","16.646198830409357","500","250","2","0","34","40"
"1573",""," ","psychophysics","39","456115","0.0-39.0","13","20","key"," ","16.46875","500","250","","","",""
"13797",""," ","psychophysics","40","469935","0.0-40.0","13","20","key"," ","16.64776839565742","500","250","2","0","56","58"
"1806",""," ","psychophysics","41","471769","0.0-41.0","13","20","key"," ","16.5","500","250","","","",""
"8574",""," ","psychophysics","42","480362","0.0-42.0","13","20","key"," ","16.62984496124031","500","250","2","0","28","32"
"2041",""," ","psychophysics","43","482423","0.0-43.0","13","20","key"," ","16.56451612903226","500","250","","","",""
"10107",""," ","psychophysics","44","492549","0.0-44.0","13","20","key"," ","16.654036243822077","500","250","2","0","40","42"
"1988",""," ","psychophysics","45","494557","0.0-45.0","13","20","key"," ","16.52892561983471","500","250","","","",""
"10328",""," ","psychophysics","46","504889","0.0-46.0","13","20","key"," ","16.653225806451612","500","250","2","0","60","59"
"3183",""," ","psychophysics","47","508097","0.0-47.0","13","20","key"," ","16.630208333333332","500","250","","","",""
"15042.999999999942",""," ","psychophysics","48","523143","0.0-48.0","13","20","key"," ","16.650055370985605","500","250","2","0","46","47"
"3803.999999999942",""," ","psychophysics","49","526977","0.0-49.0","13","20","key"," ","16.61304347826087","500","250","","","",""
"8582.999999999884",""," ","psychophysics","50","535563","0.0-50.0","13","20","key"," ","16.640776699029125","500","250","2","0","48","49"
"1772",""," ","psychophysics","51","537363","0.0-51.0","13","20","key"," ","16.537037037037038","500","250","","","",""
"9980",""," ","psychophysics","52","547346","0.0-52.0","13","20","key"," ","16.642737896494157","500","250","2","0","36","41"
"2350",""," ","psychophysics","53","549716","0.0-53.0","13","20","key"," ","16.56338028169014","500","250","","","",""
"8477",""," ","psychophysics","54","558213","0.0-54.0","13","20","key"," ","16.63137254901961","500","250","2","0","21","23"
"3936",""," ","psychophysics","55","562173","0.0-55.0","13","20","key"," ","16.605042016806724","500","250","","","",""
"10898",""," ","psychophysics","56","573075","0.0-56.0","13","20","key"," ","16.654434250764528","500","250","2","0","60","58"
"2413",""," ","psychophysics","57","575493","0.0-57.0","13","20","key"," ","16.593103448275862","500","250","","","",""
"7126",""," ","psychophysics","58","582639","0.0-58.0","13","20","key"," ","16.643356643356643","500","250","2","0","20","23"
"2373",""," ","psychophysics","59","585032","0.0-59.0","13","20","key"," ","16.594405594405593","500","250","","","",""
"13848",""," ","psychophysics","60","598896","0.0-60.0","13","20","key"," ","16.646634615384617","500","250","2","0","42","42"
"1605",""," ","psychophysics","61","600522","0.0-61.0","13","20","key"," ","16.510204081632654","500","250","","","",""
"2785.0000000001164",""," ","psychophysics","62","603332","0.0-62.0","13","20","key"," ","16.61904761904762","500","250","","","",""
"750",""," ","psychophysics","63","604096","0.0-63.0","13","20","key"," ","16.304347826086957","500","250","","","",""
"9918",""," ","psychophysics","64","614032","0.0-64.0","13","20","key"," ","16.642617449664428","500","250","3","5","42","44"
"27590.999999999884",""," ","psychophysics","65","641643","0.0-65.0","13","20","key"," ","16.655401327700663","500","250","3","0","56","60"
"7600",""," ","psychophysics","66","649264","0.0-66.0","13","20","key"," ","16.641137855579867","500","250","3","5","27","30"
"20800",""," ","psychophysics","67","670095","0.0-67.0","13","20","key"," ","16.652","500","250","3","0","59","61"
"10694",""," ","psychophysics","68","680812","0.0-68.0","13","20","key"," ","16.642301710730948","500","250","3","5","26","30"
"54416.00000000012",""," ","psychophysics","69","735231","0.0-69.0","13","20","key"," ","16.662480857580398","500","250","3","0","32","36"
"47192",""," ","psychophysics","70","782427","0.0-70.0","13","20","key"," ","16.683875530410184","500","250","3","5","21","22"
"11782",""," ","psychophysics","71","794230","0.0-71.0","13","20","key"," ","16.6454802259887","500","250","3","0","39","43"
"24659",""," ","psychophysics","72","818893","0.0-72.0","13","20","key"," ","16.654054054054054","500","250","3","5","36","35"
"9588.999999999884",""," ","psychophysics","73","828498","0.0-73.0","13","20","key"," ","16.640625","500","250","3","0","39","45"
"14993.999999999884",""," ","psychophysics","74","843504","0.0-74.0","13","20","key"," ","16.647058823529413","500","250","3","5","60","57"
"14350",""," ","psychophysics","75","857872","0.0-75.0","13","20","key"," ","16.65661252900232","500","250","3","0","31","34"
"11318.000000000116",""," ","psychophysics","76","869207","0.0-76.0","13","20","key"," ","16.651470588235295","500","250","3","5","42","42"
"9398",""," ","psychophysics","77","878618","0.0-77.0","13","20","key"," ","16.646017699115045","500","250","3","0","31","35"
"23573.000000000116",""," ","psychophysics","78","902202","0.0-78.0","13","20","key"," ","16.662190812720848","500","250","3","5","46","46"
"5153","Set You Browser to Full Screen Please.<br><br>","0","html-button-response","0","5155","0.0-0.0","2","11","","","","","","","","",""
"3485",""," ","psychophysics","1","8661","0.0-1.0","2","11","key"," ","16.67390476190476","500","250","","","",""
"3481",""," ","psychophysics","2","12151","0.0-2.0","2","11","key"," ","16.680865384615387","500","250","","","",""
"1848",""," ","psychophysics","3","14005","0.0-3.0","2","11","key"," ","16.681818181818183","500","250","","","",""
"6485",""," ","psychophysics","4","20502","0.0-4.0","2","11","key"," ","16.68123393316196","500","250","","","",""
"1691",""," ","psychophysics","5","22200","0.0-5.0","2","11","key"," ","16.6816","500","250","","","",""
"2795",""," ","psychophysics","6","25006","0.0-6.0","2","11","key"," ","16.68119047619047","500","250","","","",""
"3989",""," ","psychophysics","7","29002","0.0-7.0","2","11","key"," ","16.681092436974783","500","250","","","",""
"3679",""," ","psychophysics","8","32691","0.0-8.0","2","11","key"," ","16.680909090909104","500","250","","","",""
"65504",""," ","psychophysics","9","98209","0.0-9.0","2","11","key"," ","16.681171377641967","500","250","1","0","60","131"
"3656",""," ","psychophysics","10","101882","0.0-10.0","2","11","key"," ","16.681095890410976","500","250","1","5","21","29"
"7949",""," ","psychophysics","11","109843","0.0-11.0","2","11","key"," ","16.681176470588216","500","250","1","0","59","134"
"3746",""," ","psychophysics","12","113601","0.0-12.0","2","11","key"," ","16.6811555555556","500","250","1","5","58","74"
"8370",""," ","psychophysics","13","121978","0.0-13.0","2","11","key"," ","16.71456","500","250","1","0","46","107"
"4654",""," ","psychophysics","14","126640","0.0-14.0","2","11","key"," ","16.681079136690634","500","250","1","5","42","60"
"11191",""," ","psychophysics","15","137842","0.0-15.0","2","11","key"," ","16.756137724550886","500","250","1","0","56","116"
"3163",""," ","psychophysics","16","141012","0.0-16.0","2","11","key"," ","16.681164021163973","500","250","1","5","27","39"
"6078",""," ","psychophysics","17","147097","0.0-17.0","2","11","key"," ","16.68115384615385","500","250","1","0","56","124"
"6298",""," ","psychophysics","18","153402","0.0-18.0","2","11","key"," ","16.68116710875336","500","250","1","5","55","79"
"5457",""," ","psychophysics","19","158864","0.0-19.0","2","11","key"," ","16.681042944785332","500","250","1","0","34","73"
"2559",""," ","psychophysics","20","161433","0.0-20.0","2","11","key"," ","16.681045751634063","500","250","1","5","23","38"
"4951",""," ","psychophysics","21","166386","0.0-21.0","2","11","key"," ","16.681283783783698","500","250","1","0","36","95"
"5346",""," ","psychophysics","22","171735","0.0-22.0","2","11","key"," ","16.681374999999935","500","250","1","5","49","73"
"8317",""," ","psychophysics","23","180059","0.0-23.0","2","11","key"," ","16.68116465863454","500","250","1","0","29","63"
"3941",""," ","psychophysics","24","184007","0.0-24.0","2","11","key"," ","16.68102127659578","500","250","1","5","42","53"
"6934",""," ","psychophysics","25","190950","0.0-25.0","2","11","key"," ","16.681153846153812","500","250","1","0","37","110"
"4609",""," ","psychophysics","26","195566","0.0-26.0","2","11","key"," ","16.68130909090904","500","250","1","5","52","70"
"6672",""," ","psychophysics","27","202247","0.0-27.0","2","11","key"," ","16.681200000000025","500","250","1","0","54","114"
"4187",""," ","psychophysics","28","206442","0.0-28.0","2","11","key"," ","16.68103999999992","500","250","1","5","45","66"
"3695",""," ","psychophysics","29","210147","0.0-29.0","2","11","key"," ","16.681266968325783","500","250","","","",""
"4716",""," ","psychophysics","30","214872","0.0-30.0","2","11","key"," ","16.68120141342756","500","250","","","",""
"1688",""," ","psychophysics","31","216566","0.0-31.0","2","11","key"," ","16.682200000000012","500","250","","","",""
"6054",""," ","psychophysics","32","222630","0.0-32.0","2","11","key"," ","16.681432506887095","500","250","2","0","36","80"
"2171",""," ","psychophysics","33","224807","0.0-33.0","2","11","key"," ","16.68093023255811","500","250","","","",""
"5072",""," ","psychophysics","34","229888","0.0-34.0","2","11","key"," ","16.681118421052624","500","250","2","0","53","69"
"2713",""," ","psychophysics","35","232607","0.0-35.0","2","11","key"," ","16.68111111111109","500","250","","","",""
"3773",""," ","psychophysics","36","236391","0.0-36.0","2","11","key"," ","16.681061946902584","500","250","2","0","60","76"
"2878",""," ","psychophysics","37","239275","0.0-37.0","2","11","key"," ","16.681046511627986","500","250","","","",""
"3198",""," ","psychophysics","38","242479","0.0-38.0","2","11","key"," ","16.68094240837695","500","250","2","0","59","61"
"1328",""," ","psychophysics","39","243817","0.0-39.0","2","11","key"," ","16.681265822784898","500","250","","","",""
"2810",""," ","psychophysics","40","246635","0.0-40.0","2","11","key"," ","16.681309523809475","500","250","2","0","22","30"
"1036",""," ","psychophysics","41","247678","0.0-41.0","2","11","key"," ","16.68098360655751","500","250","","","",""
"3986",""," ","psychophysics","42","251674","0.0-42.0","2","11","key"," ","16.681004184100335","500","250","2","0","52","48"
"1255",""," ","psychophysics","43","252936","0.0-43.0","2","11","key"," ","16.681066666666496","500","250","","","",""
"2207",""," ","psychophysics","44","255151","0.0-44.0","2","11","key"," ","16.681374045801597","500","250","2","0","40","44"
"1050",""," ","psychophysics","45","256211","0.0-45.0","2","11","key"," ","16.680634920634994","500","250","","","",""
"4247",""," ","psychophysics","46","260464","0.0-46.0","2","11","key"," ","16.681102362204726","500","250","2","0","51","46"
"925",""," ","psychophysics","47","261396","0.0-47.0","2","11","key"," ","16.68145454545421","500","250","","","",""
"4226",""," ","psychophysics","48","265629","0.0-48.0","2","11","key"," ","16.681349206349022","500","250","2","0","43","51"
"844",""," ","psychophysics","49","266484","0.0-49.0","2","11","key"," ","16.681176470588053","500","250","","","",""
"3070",""," ","psychophysics","50","269563","0.0-50.0","2","11","key"," ","16.681092896174622","500","250","2","0","42","43"
"818",""," ","psychophysics","51","270390","0.0-51.0","2","11","key"," ","16.68163265306051","500","250","","","",""
"4271",""," ","psychophysics","52","274669","0.0-52.0","2","11","key"," ","16.681019607843265","500","250","2","0","38","40"
"884",""," ","psychophysics","53","275563","0.0-53.0","2","11","key"," ","16.681509433962177","500","250","","","",""
"4098",""," ","psychophysics","54","279672","0.0-54.0","2","11","key"," ","16.6809795918366","500","250","2","0","28","33"
"956",""," ","psychophysics","55","280637","0.0-55.0","2","11","key"," ","16.68140350877238","500","250","","","",""
"3013",""," ","psychophysics","56","283659","0.0-56.0","2","11","key"," ","16.68100000000009","500","250","2","0","27","34"
"858",""," ","psychophysics","57","284526","0.0-57.0","2","11","key"," ","16.680392156862972","500","250","","","",""
"2148",""," ","psychophysics","58","286682","0.0-58.0","2","11","key"," ","16.68139534883694","500","250","2","0","32","30"
"866",""," ","psychophysics","59","287553","0.0-59.0","2","11","key"," ","16.680784313726083","500","250","","","",""
"3308",""," ","psychophysics","60","290868","0.0-60.0","2","11","key"," ","16.680913705583826","500","250","2","0","56","47"
"1190",""," ","psychophysics","61","292068","0.0-61.0","2","11","key"," ","16.676056338028168","500","250","","","",""
"3783",""," ","psychophysics","62","295862","0.0-62.0","2","11","key"," ","16.68114537444932","500","250","","","",""
"3103",""," ","psychophysics","63","298971","0.0-63.0","2","11","key"," ","16.68118918918929","500","250","","","",""
"2617",""," ","psychophysics","64","301599","0.0-64.0","2","11","key"," ","16.681019108280523","500","250","3","5","44","35"
"4777",""," ","psychophysics","65","306387","0.0-65.0","2","11","key"," ","16.681188811188836","500","250","3","0","57","66"
"2302",""," ","psychophysics","66","308696","0.0-66.0","2","11","key"," ","16.681167883211728","500","250","3","5","47","34"
"2602",""," ","psychophysics","67","311309","0.0-67.0","2","11","key"," ","16.680897435897258","500","250","3","0","42","44"
"1573",""," ","psychophysics","68","312890","0.0-68.0","2","11","key"," ","16.680851063829788","500","250","3","5","21","20"
"3316",""," ","psychophysics","69","316213","0.0-69.0","2","11","key"," ","16.68101010101023","500","250","3","0","54","68"
"2303",""," ","psychophysics","70","318524","0.0-70.0","2","11","key"," ","16.680729927006944","500","250","3","5","41","36"
"2652",""," ","psychophysics","71","321187","0.0-71.0","2","11","key"," ","16.681257861635263","500","250","3","0","41","47"
"2172",""," ","psychophysics","72","323370","0.0-72.0","2","11","key"," ","16.680923076922774","500","250","3","5","56","46"
"3203",""," ","psychophysics","73","326580","0.0-73.0","2","11","key"," ","16.68104712041863","500","250","3","0","59","56"
"2081",""," ","psychophysics","74","328670","0.0-74.0","2","11","key"," ","16.68112000000011","500","250","3","5","21","21"
"4206",""," ","psychophysics","75","332883","0.0-75.0","2","11","key"," ","16.681035856573715","500","250","3","0","27","36"
"2348",""," ","psychophysics","76","335240","0.0-76.0","2","11","key"," ","16.680851063829788","500","250","3","5","41","29"
"3740",""," ","psychophysics","77","338988","0.0-77.0","2","11","key"," ","16.681076233183877","500","250","3","0","50","42"
"8023",""," ","psychophysics","78","347021","0.0-78.0","2","11","key"," ","16.680956340956296","500","250","3","5","53","32"
"2302.399999976158","Set You Browser to Full Screen Please.<br><br>","0","html-button-response","0","2308","0.0-0.0","4","12","","","","","","","","",""
"6858.400000095367",""," ","psychophysics","1","9213","0.0-1.0","4","12","key"," ","16.74690291262136","500","250","","","",""
"2357.5",""," ","psychophysics","2","11576","0.0-2.0","4","12","key"," ","16.665999999999993","500","250","","","",""
"2313.2000000476837",""," ","psychophysics","3","13897","0.0-3.0","4","12","key"," ","16.665999999999997","500","250","","","",""
"8841.5",""," ","psychophysics","4","22745","0.0-4.0","4","12","key"," ","16.666","500","250","","","",""
"5145.600000023842",""," ","psychophysics","5","27896","0.0-5.0","4","12","key"," ","16.666","500","250","","","",""
"5962.600000023842",""," ","psychophysics","6","33864","0.0-6.0","4","12","key"," ","16.665999999999997","500","250","","","",""
"5547.399999976158",""," ","psychophysics","7","39416","0.0-7.0","4","12","key"," ","16.666000000000004","500","250","","","",""
"4684.5",""," ","psychophysics","8","44107","0.0-8.0","4","12","key"," ","16.665999999999976","500","250","","","",""
"20646.900000095367",""," ","psychophysics","9","64761","0.0-9.0","4","12","key"," ","16.666","500","250","1","0","27","29"
"8601.699999928474",""," ","psychophysics","10","73369","0.0-10.0","4","12","key"," ","16.66600000000001","500","250","1","5","60","62"
"8500.900000095367",""," ","psychophysics","11","81881","0.0-11.0","4","12","key"," ","16.666000000000007","500","250","1","0","28","33"
"4357.600000023842",""," ","psychophysics","12","86249","0.0-12.0","4","12","key"," ","16.666000000000004","500","250","1","5","20","22"
"11157.800000071526",""," ","psychophysics","13","97416","0.0-13.0","4","12","key"," ","16.666000000000004","500","250","1","0","48","50"
"8138.5",""," ","psychophysics","14","105561","0.0-14.0","4","12","key"," ","16.666000000000004","500","250","1","5","25","27"
"15099.799999952316",""," ","psychophysics","15","120665","0.0-15.0","4","12","key"," ","16.665999999999997","500","250","1","0","54","56"
"10311.600000023842",""," ","psychophysics","16","130986","0.0-16.0","4","12","key"," ","16.666000000000025","500","250","1","5","54","57"
"26503.5",""," ","psychophysics","17","157496","0.0-17.0","4","12","key"," ","16.666000000000004","500","250","1","0","49","55"
"6104.100000023842",""," ","psychophysics","18","163609","0.0-18.0","4","12","key"," ","16.665999999999983","500","250","1","5","21","26"
"6057.900000095367",""," ","psychophysics","19","169673","0.0-19.0","4","12","key"," ","16.666000000000004","500","250","1","0","28","35"
"13562.799999952316",""," ","psychophysics","20","183241","0.0-20.0","4","12","key"," ","16.686524630541854","500","250","1","5","53","61"
"8585.5",""," ","psychophysics","21","191833","0.0-21.0","4","12","key"," ","16.665999999999983","500","250","1","0","46","58"
"16025.5",""," ","psychophysics","22","207865","0.0-22.0","4","12","key"," ","16.666000000000015","500","250","1","5","38","41"
"4617.5",""," ","psychophysics","23","212490","0.0-23.0","4","12","key"," ","16.66599999999997","500","250","1","0","22","29"
"9194.799999952316",""," ","psychophysics","24","221690","0.0-24.0","4","12","key"," ","16.665999999999976","500","250","1","5","48","49"
"15992.099999904633",""," ","psychophysics","25","237690","0.0-25.0","4","12","key"," ","16.66599999999999","500","250","1","0","59","69"
"13739",""," ","psychophysics","26","251434","0.0-26.0","4","12","key"," ","16.666000000000018","500","250","1","5","38","44"
"8105.299999952316",""," ","psychophysics","27","259546","0.0-27.0","4","12","key"," ","16.665999999999958","500","250","1","0","47","53"
"9417.299999952316",""," ","psychophysics","28","268969","0.0-28.0","4","12","key"," ","16.666000000000064","500","250","1","5","51","54"
"31915.799999952316",""," ","psychophysics","29","300891","0.0-29.0","4","12","key"," ","16.6747119707266","500","250","","","",""
"6039.100000023842",""," ","psychophysics","30","306937","0.0-30.0","4","12","key"," ","16.66600000000001","500","250","","","",""
"1642.7000000476837",""," ","psychophysics","31","308586","0.0-31.0","4","12","key"," ","16.66600000000041","500","250","","","",""
"8746.100000023842",""," ","psychophysics","32","317338","0.0-32.0","4","12","key"," ","16.665999999999993","500","250","2","0","44","58"
"2916.7000000476837",""," ","psychophysics","33","320265","0.0-33.0","4","12","key"," ","16.665999999999933","500","250","","","",""
"8843",""," ","psychophysics","34","329114","0.0-34.0","4","12","key"," ","16.665999999999965","500","250","2","0","53","52"
"4621.5",""," ","psychophysics","35","333739","0.0-35.0","4","12","key"," ","16.66600000000018","500","250","","","",""
"4181.799999952316",""," ","psychophysics","36","337929","0.0-36.0","4","12","key"," ","16.732664000000106","500","250","2","0","36","41"
"3038.2999999523163",""," ","psychophysics","37","340970","0.0-37.0","4","12","key"," ","16.66600000000017","500","250","","","",""
"8933.199999928474",""," ","psychophysics","38","349914","0.0-38.0","4","12","key"," ","16.666000000000047","500","250","2","0","43","48"
"2044.2000000476837",""," ","psychophysics","39","351962","0.0-39.0","4","12","key"," ","16.666000000000302","500","250","","","",""
"6954",""," ","psychophysics","40","358922","0.0-40.0","4","12","key"," ","16.666000000000096","500","250","2","0","51","56"
"3897.3000000715256",""," ","psychophysics","41","362827","0.0-41.0","4","12","key"," ","16.665999999999926","500","250","","","",""
"11244.5",""," ","psychophysics","42","374077","0.0-42.0","4","12","key"," ","16.66600000000003","500","250","2","0","52","60"
"42664.89999997616",""," ","psychophysics","43","416746","0.0-43.0","4","12","key"," ","16.665999999999997","500","250","","","",""
"6188.5",""," ","psychophysics","44","422939","0.0-44.0","4","12","key"," ","16.711165311653073","500","250","2","0","27","30"
"2022",""," ","psychophysics","45","424970","0.0-45.0","4","12","key"," ","16.804883333332935","500","250","","","",""
"4998.300000071526",""," ","psychophysics","46","429979","0.0-46.0","4","12","key"," ","16.66599999999996","500","250","2","0","33","37"
"1769.7999999523163",""," ","psychophysics","47","431754","0.0-47.0","4","12","key"," ","16.665999999999933","500","250","","","",""
"8711.099999904633",""," ","psychophysics","48","440476","0.0-48.0","4","12","key"," ","16.666000000000054","500","250","2","0","28","31"
"1913.1999999284744",""," ","psychophysics","49","442395","0.0-49.0","4","12","key"," ","16.665999999999993","500","250","","","",""
"6603.800000071526",""," ","psychophysics","50","449004","0.0-50.0","4","12","key"," ","16.666000000000018","500","250","2","0","57","60"
"1285.7999999523163",""," ","psychophysics","51","450299","0.0-51.0","4","12","key"," ","16.666000000000086","500","250","","","",""
"4507.100000023842",""," ","psychophysics","52","454811","0.0-52.0","4","12","key"," ","16.666000000000025","500","250","2","0","59","60"
"5786.899999976158",""," ","psychophysics","53","460603","0.0-53.0","4","12","key"," ","16.66599999999996","500","250","","","",""
"6151.599999904633",""," ","psychophysics","54","466764","0.0-54.0","4","12","key"," ","16.666000000000043","500","250","2","0","34","37"
"907.1000000238419",""," ","psychophysics","55","467676","0.0-55.0","4","12","key"," ","16.666000000000672","500","250","","","",""
"3467.100000023842",""," ","psychophysics","56","471148","0.0-56.0","4","12","key"," ","16.66600000000011","500","250","2","0","24","29"
"923.2000000476837",""," ","psychophysics","57","472076","0.0-57.0","4","12","key"," ","16.666000000000086","500","250","","","",""
"6121.100000023842",""," ","psychophysics","58","478203","0.0-58.0","4","12","key"," ","16.665999999999983","500","250","2","0","35","37"
"1016.5",""," ","psychophysics","59","479228","0.0-59.0","4","12","key"," ","16.943766666667457","500","250","","","",""
"15850.700000047684",""," ","psychophysics","60","495083","0.0-60.0","4","12","key"," ","16.66600000000001","500","250","2","0","60","60"
"1499",""," ","psychophysics","61","496589","0.0-61.0","4","12","key"," ","16.666000000000025","500","250","","","",""
"21241.799999952316",""," ","psychophysics","62","517836","0.0-62.0","4","12","key"," ","16.679091908876668","500","250","","","",""
"232907.80000007153",""," ","psychophysics","63","750750","0.0-63.0","4","12","key"," ","16.669578698733087","500","250","","","",""
"8460.399999976158",""," ","psychophysics","64","759215","0.0-64.0","4","12","key"," ","16.66599999999979","500","250","3","5","55","55"
"6935.800000071526",""," ","psychophysics","65","766156","0.0-65.0","4","12","key"," ","16.666000000000032","500","250","3","0","55","58"
"9386",""," ","psychophysics","66","775548","0.0-66.0","4","12","key"," ","16.665999999999972","500","250","3","5","49","48"
"6108.800000071526",""," ","psychophysics","67","781663","0.0-67.0","4","12","key"," ","16.666000000000142","500","250","3","0","51","51"
"8026.5",""," ","psychophysics","68","789694","0.0-68.0","4","12","key"," ","16.66600000000004","500","250","3","5","42","41"
"8872.699999928474",""," ","psychophysics","69","798573","0.0-69.0","4","12","key"," ","16.666000000000125","500","250","3","0","57","57"
"7064.400000095367",""," ","psychophysics","70","805646","0.0-70.0","4","12","key"," ","16.66599999999991","500","250","3","5","27","28"
"8106.299999952316",""," ","psychophysics","71","813758","0.0-71.0","4","12","key"," ","16.66599999999978","500","250","3","0","58","57"
"8262.200000047684",""," ","psychophysics","72","822030","0.0-72.0","4","12","key"," ","16.66600000000002","500","250","3","5","38","38"
"5372.200000047684",""," ","psychophysics","73","827407","0.0-73.0","4","12","key"," ","16.87629652996834","500","250","3","0","31","30"
"8070.600000023842",""," ","psychophysics","74","835485","0.0-74.0","4","12","key"," ","16.666000000000086","500","250","3","5","59","62"
"5870.899999976158",""," ","psychophysics","75","841361","0.0-75.0","4","12","key"," ","16.666000000000086","500","250","3","0","59","58"
"7877.100000023842",""," ","psychophysics","76","849246","0.0-76.0","4","12","key"," ","16.666000000000153","500","250","3","5","35","36"
"4906.599999904633",""," ","psychophysics","77","854158","0.0-77.0","4","12","key"," ","16.66600000000001","500","250","3","0","20","24"
"9945.600000023842",""," ","psychophysics","78","864110","0.0-78.0","4","12","key"," ","16.66599999999998","500","250","3","5","56","58"
"6635","Set You Browser to Full Screen Please.<br><br>","0","html-button-response","0","6636","0.0-0.0","5","16","","","","","","","","",""
"3094",""," ","psychophysics","1","9734","0.0-1.0","5","16","key"," ","16.668478260869566","500","250","","","",""
"5552.999999999998",""," ","psychophysics","2","15291","0.0-2.0","5","16","key"," ","16.654654654654653","500","250","","","",""
"2845",""," ","psychophysics","3","18139","0.0-3.0","5","16","key"," ","16.66470588235294","500","250","","","",""
"9182",""," ","psychophysics","4","27322","0.0-4.0","5","16","key"," ","16.665454545454544","500","250","","","",""
"97",""," ","psychophysics","5","27422","0.0-5.0","5","16","key"," ","16.6","500","250","","","",""
"4715",""," ","psychophysics","6","32138","0.0-6.0","5","16","key"," ","16.666666666666668","500","250","","","",""
"3418.9999999999964",""," ","psychophysics","7","35562","0.0-7.0","5","16","key"," ","16.666666666666668","500","250","","","",""
"7793",""," ","psychophysics","8","43357","0.0-8.0","5","16","key"," ","16.66595289079229","500","250","","","",""
"25514.000000000015",""," ","psychophysics","9","68872","0.0-9.0","5","16","key"," ","16.666666666666668","500","250","1","0","36","35"
"23379",""," ","psychophysics","10","92254","0.0-10.0","5","16","key"," ","16.666191155492154","500","250","1","5","49","46"
"8712.999999999985",""," ","psychophysics","11","100971","0.0-11.0","5","16","key"," ","16.668582375478927","500","250","1","0","23","29"
"7233",""," ","psychophysics","12","108207","0.0-12.0","5","16","key"," ","16.66743648960739","500","250","1","5","29","33"
"5500",""," ","psychophysics","13","113709","0.0-13.0","5","16","key"," ","16.66565349544073","500","250","1","0","22","28"
"17478",""," ","psychophysics","14","131189","0.0-14.0","5","16","key"," ","16.666984732824428","500","250","1","5","46","43"
"30566",""," ","psychophysics","15","161757","0.0-15.0","5","16","key"," ","16.666121112929623","500","250","1","0","42","47"
"7875",""," ","psychophysics","16","169636","0.0-16.0","5","16","key"," ","16.66737288135593","500","250","1","5","21","23"
"6871",""," ","psychophysics","17","176509","0.0-17.0","5","16","key"," ","16.669099756690997","500","250","1","0","44","50"
"7818.000000000029",""," ","psychophysics","18","184329","0.0-18.0","5","16","key"," ","16.666666666666668","500","250","1","5","40","40"
"7625",""," ","psychophysics","19","191957","0.0-19.0","5","16","key"," ","16.667396061269148","500","250","1","0","34","46"
"18433",""," ","psychophysics","20","210391","0.0-20.0","5","16","key"," ","16.666968325791856","500","250","1","5","55","51"
"14645",""," ","psychophysics","21","225038","0.0-21.0","5","16","key"," ","16.667425968109338","500","250","1","0","49","60"
"21963",""," ","psychophysics","22","247004","0.0-22.0","5","16","key"," ","16.665907365223994","500","250","1","5","54","53"
"7649",""," ","psychophysics","23","254654","0.0-23.0","5","16","key"," ","16.663755458515283","500","250","1","0","24","31"
"15404",""," ","psychophysics","24","270060","0.0-24.0","5","16","key"," ","16.666305525460455","500","250","1","5","57","54"
"9720",""," ","psychophysics","25","279785","0.0-25.0","5","16","key"," ","16.665523156089193","500","250","1","0","29","38"
"18881",""," ","psychophysics","26","298668","0.0-26.0","5","16","key"," ","16.66696113074205","500","250","1","5","59","57"
"13839",""," ","psychophysics","27","312511","0.0-27.0","5","16","key"," ","16.665862484921593","500","250","1","0","33","46"
"9844",""," ","psychophysics","28","322359","0.0-28.0","5","16","key"," ","16.66271186440678","500","250","1","5","36","38"
"2879",""," ","psychophysics","29","325239","0.0-29.0","5","16","key"," ","16.674418604651162","500","250","","","",""
"3105",""," ","psychophysics","30","328346","0.0-30.0","5","16","key"," ","16.67027027027027","500","250","","","",""
"1417",""," ","psychophysics","31","329775","0.0-31.0","5","16","key"," ","16.658823529411766","500","250","","","",""
"48890",""," ","psychophysics","32","378666","0.0-32.0","5","16","key"," ","16.666212069553357","500","250","2","0","59","61"
"4492.999999999942",""," ","psychophysics","33","383161","0.0-33.0","5","16","key"," ","16.66417910447761","500","250","","","",""
"10024",""," ","psychophysics","34","393200","0.0-34.0","5","16","key"," ","16.664451827242527","500","250","2","0","34","37"
"4166.999999999942",""," ","psychophysics","35","397371","0.0-35.0","5","16","key"," ","16.666666666666668","500","250","","","",""
"10213",""," ","psychophysics","36","407587","0.0-36.0","5","16","key"," ","16.666666666666668","500","250","2","0","35","37"
"2279",""," ","psychophysics","37","409868","0.0-37.0","5","16","key"," ","16.669117647058822","500","250","","","",""
"10813",""," ","psychophysics","38","420683","0.0-38.0","5","16","key"," ","16.666666666666668","500","250","2","0","53","54"
"3267.000000000058",""," ","psychophysics","39","423953","0.0-39.0","5","16","key"," ","16.661538461538463","500","250","","","",""
"8336",""," ","psychophysics","40","432290","0.0-40.0","5","16","key"," ","16.665330661322646","500","250","2","0","49","53"
"4849",""," ","psychophysics","41","437142","0.0-41.0","5","16","key"," ","16.66551724137931","500","250","","","",""
"3864",""," ","psychophysics","42","441008","0.0-42.0","5","16","key"," ","16.666666666666668","500","250","2","0","24","26"
"3544.000000000058",""," ","psychophysics","43","444554","0.0-43.0","5","16","key"," ","16.669811320754718","500","250","","","",""
"5509.000000000058",""," ","psychophysics","44","450065","0.0-44.0","5","16","key"," ","16.666666666666668","500","250","2","0","35","35"
"2224.000000000058",""," ","psychophysics","45","452291","0.0-45.0","5","16","key"," ","16.786259541984734","500","250","","","",""
"3372",""," ","psychophysics","46","455665","0.0-46.0","5","16","key"," ","16.663366336633665","500","250","2","0","20","24"
"4515",""," ","psychophysics","47","460184","0.0-47.0","5","16","key"," ","16.66296296296296","500","250","","","",""
"6522",""," ","psychophysics","48","466708","0.0-48.0","5","16","key"," ","16.664102564102564","500","250","2","0","34","36"
"1704",""," ","psychophysics","49","468414","0.0-49.0","5","16","key"," ","16.666666666666668","500","250","","","",""
"4207.000000000058",""," ","psychophysics","50","472625","0.0-50.0","5","16","key"," ","16.669322709163346","500","250","2","0","27","31"
"2090",""," ","psychophysics","51","474717","0.0-51.0","5","16","key"," ","16.656","500","250","","","",""
"7840",""," ","psychophysics","52","482564","0.0-52.0","5","16","key"," ","16.66595744680851","500","250","2","0","51","50"
"1836",""," ","psychophysics","53","484403","0.0-53.0","5","16","key"," ","16.6697247706422","500","250","","","",""
"4842",""," ","psychophysics","54","489248","0.0-54.0","5","16","key"," ","16.66551724137931","500","250","2","0","22","28"
"1946.9999999999418",""," ","psychophysics","55","491197","0.0-55.0","5","16","key"," ","16.655172413793103","500","250","","","",""
"8232",""," ","psychophysics","56","499431","0.0-56.0","5","16","key"," ","16.66531440162272","500","250","2","0","36","37"
"1140",""," ","psychophysics","57","500574","0.0-57.0","5","16","key"," ","16.671641791044777","500","250","","","",""
"4239.000000000058",""," ","psychophysics","58","504831","0.0-58.0","5","16","key"," ","16.67058823529412","500","250","2","0","22","24"
"1331",""," ","psychophysics","59","506164","0.0-59.0","5","16","key"," ","16.670886075949365","500","250","","","",""
"4468",""," ","psychophysics","60","510635","0.0-60.0","5","16","key"," ","16.670411985018728","500","250","2","0","30","29"
"1376",""," ","psychophysics","61","512013","0.0-61.0","5","16","key"," ","16.658536585365855","500","250","","","",""
"3481.999999999942",""," ","psychophysics","62","515497","0.0-62.0","5","16","key"," ","16.658653846153847","500","250","","","",""
"739",""," ","psychophysics","63","516238","0.0-63.0","5","16","key"," ","16.674418604651162","500","250","","","",""
"5779",""," ","psychophysics","64","522018","0.0-64.0","5","16","key"," ","16.667630057803468","500","250","3","5","40","35"
"7917",""," ","psychophysics","65","529939","0.0-65.0","5","16","key"," ","16.666666666666668","500","250","3","0","48","52"
"3578",""," ","psychophysics","66","533520","0.0-66.0","5","16","key"," ","16.66822429906542","500","250","3","5","27","25"
"5625",""," ","psychophysics","67","539147","0.0-67.0","5","16","key"," ","16.664688427299705","500","250","3","0","60","59"
"9197",""," ","psychophysics","68","548347","0.0-68.0","5","16","key"," ","16.669691470054445","500","250","3","5","59","48"
"2007",""," ","psychophysics","69","550356","0.0-69.0","5","16","key"," ","16.672268907563026","500","250","3","0","23","20"
"8188",""," ","psychophysics","70","558546","0.0-70.0","5","16","key"," ","16.665987780040734","500","250","3","5","53","44"
"4732",""," ","psychophysics","71","563280","0.0-71.0","5","16","key"," ","16.72695035460993","500","250","3","0","34","34"
"5981",""," ","psychophysics","72","569263","0.0-72.0","5","16","key"," ","16.664804469273744","500","250","3","5","53","44"
"5282",""," ","psychophysics","73","574547","0.0-73.0","5","16","key"," ","16.670886075949365","500","250","3","0","38","42"
"6733",""," ","psychophysics","74","581284","0.0-74.0","5","16","key"," ","16.667493796526056","500","250","3","5","49","42"
"4844",""," ","psychophysics","75","586130","0.0-75.0","5","16","key"," ","16.66551724137931","500","250","3","0","40","45"
"6127.000000000116",""," ","psychophysics","76","592258","0.0-76.0","5","16","key"," ","16.666666666666668","500","250","3","5","46","40"
"6309",""," ","psychophysics","77","598570","0.0-77.0","5","16","key"," ","16.658730158730158","500","250","3","0","34","41"
"2724",""," ","psychophysics","78","601296","0.0-78.0","5","16","key"," ","16.662576687116566","500","250","3","5","35","27"
"8608.5","Set You Browser to Full Screen Please.<br><br>","0","html-button-response","0","8610","0.0-0.0","6","17","","","","","","","","",""
"1711.5",""," ","psychophysics","1","10332","0.0-1.0","6","17","key"," ","16.66699999999999","500","250","","","",""
"2119.899999976158",""," ","psychophysics","2","12456","0.0-2.0","6","17","key"," ","16.666999999999994","500","250","","","",""
"2046.199999988079",""," ","psychophysics","3","14508","0.0-3.0","6","17","key"," ","16.666999999999998","500","250","","","",""
"3926.2000000476837",""," ","psychophysics","4","18439","0.0-4.0","6","17","key"," ","16.668451063829785","500","250","","","",""
"1284.199999988079",""," ","psychophysics","5","19727","0.0-5.0","6","17","key"," ","16.66699999999996","500","250","","","",""
"461.19999998807907",""," ","psychophysics","6","20191","0.0-6.0","6","17","key"," ","16.667000000000023","500","250","","","",""
"2093",""," ","psychophysics","7","22298","0.0-7.0","6","17","key"," ","16.66699999999998","500","250","","","",""
"538.0999999642372",""," ","psychophysics","8","22838","0.0-8.0","6","17","key"," ","16.66699999999999","500","250","","","",""
"7705.699999988079",""," ","psychophysics","9","30547","0.0-9.0","6","17","key"," ","16.66746753246753","500","250","1","0","36","40"
"5373.300000011921",""," ","psychophysics","10","35923","0.0-10.0","6","17","key"," ","16.66806230529594","500","250","1","5","31","35"
"7443.100000023842",""," ","psychophysics","11","43371","0.0-11.0","6","17","key"," ","16.66700000000001","500","250","1","0","35","49"
"9873",""," ","psychophysics","12","53246","0.0-12.0","6","17","key"," ","16.667576013513518","500","250","1","5","54","55"
"5075",""," ","psychophysics","13","58324","0.0-13.0","6","17","key"," ","16.667712871287137","500","250","1","0","32","45"
"4036.5",""," ","psychophysics","14","62365","0.0-14.0","6","17","key"," ","16.66700000000002","500","250","1","5","28","31"
"3982.099999964237",""," ","psychophysics","15","66350","0.0-15.0","6","17","key"," ","16.66843277310924","500","250","1","0","20","28"
"7535.099999964237",""," ","psychophysics","16","73897","0.0-16.0","6","17","key"," ","16.666999999999994","500","250","1","5","52","53"
"5171.300000011921",""," ","psychophysics","17","79071","0.0-17.0","6","17","key"," ","16.66810355987056","500","250","1","0","30","38"
"20328.799999952316",""," ","psychophysics","18","99402","0.0-18.0","6","17","key"," ","16.667456931911396","500","250","1","5","55","45"
"8575.5",""," ","psychophysics","19","107980","0.0-19.0","6","17","key"," ","16.66766342412452","500","250","1","0","60","72"
"7490.299999952316",""," ","psychophysics","20","115472","0.0-20.0","6","17","key"," ","16.66699999999998","500","250","1","5","25","28"
"8239.699999988079",""," ","psychophysics","21","123714","0.0-21.0","6","17","key"," ","16.667690283400823","500","250","1","0","57","67"
"6850.399999976158",""," ","psychophysics","22","130567","0.0-22.0","6","17","key"," ","16.66752682926826","500","250","1","5","53","53"
"7343.600000023842",""," ","psychophysics","23","137913","0.0-23.0","6","17","key"," ","16.667774999999992","500","250","1","0","39","59"
"5121.600000023842",""," ","psychophysics","24","143037","0.0-24.0","6","17","key"," ","16.667000000000044","500","250","1","5","49","53"
"6440.699999988079",""," ","psychophysics","25","149481","0.0-25.0","6","17","key"," ","16.667883419689158","500","250","1","0","39","49"
"5877.199999988079",""," ","psychophysics","26","155361","0.0-26.0","6","17","key"," ","16.66700000000004","500","250","1","5","44","43"
"5044.300000011921",""," ","psychophysics","27","160409","0.0-27.0","6","17","key"," ","16.667717607973447","500","250","1","0","30","39"
"3466.399999976158",""," ","psychophysics","28","163880","0.0-28.0","6","17","key"," ","16.667000000000023","500","250","1","5","22","27"
"1271.199999988079",""," ","psychophysics","29","165163","0.0-29.0","6","17","key"," ","16.66699999999975","500","250","","","",""
"630.8000000119209",""," ","psychophysics","30","165796","0.0-30.0","6","17","key"," ","16.6670000000001","500","250","","","",""
"483.4000000357628",""," ","psychophysics","31","166282","0.0-31.0","6","17","key"," ","16.679178571428306","500","250","","","",""
"3494.100000023842",""," ","psychophysics","32","169790","0.0-32.0","6","17","key"," ","16.66699999999996","500","250","2","0","23","31"
"870.6000000238419",""," ","psychophysics","33","170666","0.0-33.0","6","17","key"," ","16.6669999999996","500","250","","","",""
"4737.299999952316",""," ","psychophysics","34","175406","0.0-34.0","6","17","key"," ","16.666999999999994","500","250","2","0","36","36"
"819.5",""," ","psychophysics","35","176229","0.0-35.0","6","17","key"," ","16.67395918367357","500","250","","","",""
"7314.599999964237",""," ","psychophysics","36","183546","0.0-36.0","6","17","key"," ","16.666999999999952","500","250","2","0","58","64"
"1000.0999999642372",""," ","psychophysics","37","184549","0.0-37.0","6","17","key"," ","16.667000000000048","500","250","","","",""
"4791.600000023842",""," ","psychophysics","38","189343","0.0-38.0","6","17","key"," ","16.667755244755256","500","250","2","0","33","42"
"652.1999999880791",""," ","psychophysics","39","190000","0.0-39.0","6","17","key"," ","16.666999999999415","500","250","","","",""
"3708.300000011921",""," ","psychophysics","40","193711","0.0-40.0","6","17","key"," ","16.66699999999997","500","250","2","0","44","42"
"745",""," ","psychophysics","41","194459","0.0-41.0","6","17","key"," ","16.667000000000264","500","250","","","",""
"5044",""," ","psychophysics","42","199506","0.0-42.0","6","17","key"," ","16.66812913907283","500","250","2","0","55","48"
"957.1999999880791",""," ","psychophysics","43","200472","0.0-43.0","6","17","key"," ","16.667000000000005","500","250","","","",""
"4558.099999964237",""," ","psychophysics","44","205033","0.0-44.0","6","17","key"," ","16.66699999999995","500","250","2","0","28","35"
"681.6000000238419",""," ","psychophysics","45","205716","0.0-45.0","6","17","key"," ","16.666999999999824","500","250","","","",""
"2686.400000035763",""," ","psychophysics","46","208412","0.0-46.0","6","17","key"," ","16.669118012422377","500","250","2","0","32","28"
"800.6999999880791",""," ","psychophysics","47","209215","0.0-47.0","6","17","key"," ","16.66699999999973","500","250","","","",""
"2138",""," ","psychophysics","48","211356","0.0-48.0","6","17","key"," ","16.666999999999792","500","250","2","0","20","26"
"766.0999999642372",""," ","psychophysics","49","212125","0.0-49.0","6","17","key"," ","16.666999999999664","500","250","","","",""
"4528.699999988079",""," ","psychophysics","50","216664","0.0-50.0","6","17","key"," ","16.667794117647002","500","250","2","0","26","25"
"717.5",""," ","psychophysics","51","217384","0.0-51.0","6","17","key"," ","16.666999999999895","500","250","","","",""
"5091.099999964237",""," ","psychophysics","52","222478","0.0-52.0","6","17","key"," ","16.667000000000087","500","250","2","0","35","38"
"801.5",""," ","psychophysics","53","223282","0.0-53.0","6","17","key"," ","16.66699999999973","500","250","","","",""
"4646.099999964237",""," ","psychophysics","54","227931","0.0-54.0","6","17","key"," ","16.66822661870501","500","250","2","0","31","32"
"650.6000000238419",""," ","psychophysics","55","228584","0.0-55.0","6","17","key"," ","16.66699999999975","500","250","","","",""
"4763.599999964237",""," ","psychophysics","56","233349","0.0-56.0","6","17","key"," ","16.667000000000005","500","250","2","0","37","38"
"940.6999999880791",""," ","psychophysics","57","234294","0.0-57.0","6","17","key"," ","16.66699999999972","500","250","","","",""
"4812.199999988079",""," ","psychophysics","58","239108","0.0-58.0","6","17","key"," ","16.66818815331007","500","250","2","0","58","50"
"887.7999999523163",""," ","psychophysics","59","239998","0.0-59.0","6","17","key"," ","16.66699999999991","500","250","","","",""
"6118.400000035763",""," ","psychophysics","60","246127","0.0-60.0","6","17","key"," ","16.66700000000005","500","250","2","0","33","44"
"896.3000000119209",""," ","psychophysics","61","247026","0.0-61.0","6","17","key"," ","16.671153846153736","500","250","","","",""
"2181.699999988079",""," ","psychophysics","62","249213","0.0-62.0","6","17","key"," ","16.666999999999838","500","250","","","",""
"1185.9000000357628",""," ","psychophysics","63","250402","0.0-63.0","6","17","key"," ","16.667000000000034","500","250","","","",""
"13981.699999988079",""," ","psychophysics","64","264386","0.0-64.0","6","17","key"," ","16.667406921241028","500","250","3","5","59","66"
"6098.600000023842",""," ","psychophysics","65","270488","0.0-65.0","6","17","key"," ","16.667934246575427","500","250","3","0","49","53"
"3911.7999999523163",""," ","psychophysics","66","274402","0.0-66.0","6","17","key"," ","16.66700000000016","500","250","3","5","32","37"
"7754.5",""," ","psychophysics","67","282159","0.0-67.0","6","17","key"," ","16.66746551724144","500","250","3","0","49","51"
"8836.300000011921",""," ","psychophysics","68","290999","0.0-68.0","6","17","key"," ","16.66764339622635","500","250","3","5","32","35"
"5765.800000011921",""," ","psychophysics","69","296767","0.0-69.0","6","17","key"," ","16.667988405797118","500","250","3","0","52","59"
"6695",""," ","psychophysics","70","303465","0.0-70.0","6","17","key"," ","16.66700000000001","500","250","3","5","44","44"
"5664",""," ","psychophysics","71","309132","0.0-71.0","6","17","key"," ","16.667637168141674","500","250","3","0","34","42"
"4662.800000011921",""," ","psychophysics","72","313797","0.0-72.0","6","17","key"," ","16.666999999999977","500","250","3","5","52","46"
"5182",""," ","psychophysics","73","318981","0.0-73.0","6","17","key"," ","16.66810000000011","500","250","3","0","39","45"
"3771.599999964237",""," ","psychophysics","74","322755","0.0-74.0","6","17","key"," ","16.666999999999792","500","250","3","5","47","46"
"4559.5",""," ","psychophysics","75","327317","0.0-75.0","6","17","key"," ","16.668249084249194","500","250","3","0","40","44"
"2350.600000023842",""," ","psychophysics","76","329670","0.0-76.0","6","17","key"," ","16.667000000000034","500","250","3","5","22","25"
"5838.099999964237",""," ","psychophysics","77","335519","0.0-77.0","6","17","key"," ","16.667000000000034","500","250","3","0","55","58"
"2617.300000011921",""," ","psychophysics","78","338139","0.0-78.0","6","17","key"," ","16.669185897436154","500","250","3","5","25","31"
"30435.20000001788","Set You Browser to Full Screen Please.<br><br>","0","html-button-response","0","30436","0.0-0.0","7","15","","","","","","","","",""
"5626.300000011921",""," ","psychophysics","1","36079","0.0-1.0","7","15","key"," ","16.66465088757396","500","250","","","",""
"13694",""," ","psychophysics","2","49783","0.0-2.0","7","15","key"," ","16.664995133819957","500","250","","","",""
"32422",""," ","psychophysics","3","82212","0.0-3.0","7","15","key"," ","16.690764675592174","500","250","","","",""
"7784.5",""," ","psychophysics","4","90000","0.0-4.0","7","15","key"," ","16.665025751072964","500","250","","","",""
"2163.800000011921",""," ","psychophysics","5","92165","0.0-5.0","7","15","key"," ","16.664736434108445","500","250","","","",""
"1863.1000000238419",""," ","psychophysics","6","94035","0.0-6.0","7","15","key"," ","16.665090090090064","500","250","","","",""
"4242.699999988079",""," ","psychophysics","7","98279","0.0-7.0","7","15","key"," ","16.665011811023625","500","250","","","",""
"2352.800000011921",""," ","psychophysics","8","100638","0.0-8.0","7","15","key"," ","16.665128571428586","500","250","","","",""
"32877.5",""," ","psychophysics","9","133526","0.0-9.0","7","15","key"," ","16.66506538266599","500","250","1","0","48","62"
"7962",""," ","psychophysics","10","141490","0.0-10.0","7","15","key"," ","16.66493291404614","500","250","1","5","39","38"
"10852.600000023842",""," ","psychophysics","11","152345","0.0-11.0","7","15","key"," ","16.665001538461567","500","250","1","0","42","49"
"11554.199999988079",""," ","psychophysics","12","163905","0.0-12.0","7","15","key"," ","16.665174603174624","500","250","1","5","50","46"
"6172.799999982119",""," ","psychophysics","13","170080","0.0-13.0","7","15","key"," ","16.664959349593563","500","250","1","0","53","65"
"2977.9000000059605",""," ","psychophysics","14","173061","0.0-14.0","7","15","key"," ","16.664977528089775","500","250","1","5","22","23"
"4322.300000011921",""," ","psychophysics","15","177394","0.0-15.0","7","15","key"," ","16.665428571428535","500","250","1","0","60","58"
"2706.4000000059605",""," ","psychophysics","16","180102","0.0-16.0","7","15","key"," ","16.664067901234734","500","250","1","5","27","24"
"5327.699999988079",""," ","psychophysics","17","185437","0.0-17.0","7","15","key"," ","16.665347962382487","500","250","1","0","59","68"
"8142.4000000059605",""," ","psychophysics","18","193581","0.0-18.0","7","15","key"," ","16.66501437371662","500","250","1","5","42","36"
"5527.4000000059605",""," ","psychophysics","19","199116","0.0-19.0","7","15","key"," ","16.665289156626475","500","250","1","0","52","57"
"6497.100000023842",""," ","psychophysics","20","205616","0.0-20.0","7","15","key"," ","16.66497943444729","500","250","1","5","52","47"
"4230.199999988079",""," ","psychophysics","21","209849","0.0-21.0","7","15","key"," ","16.66500395256911","500","250","1","0","57","73"
"2677.9000000059605",""," ","psychophysics","22","212532","0.0-22.0","7","15","key"," ","16.66499375000003","500","250","1","5","38","33"
"3377.7000000178814",""," ","psychophysics","23","215913","0.0-23.0","7","15","key"," ","16.665547263681564","500","250","1","0","22","27"
"2935.899999976158",""," ","psychophysics","24","218855","0.0-24.0","7","15","key"," ","16.665795454545414","500","250","1","5","27","24"
"2754.7999999821186",""," ","psychophysics","25","221614","0.0-25.0","7","15","key"," ","16.66498787878787","500","250","1","0","31","36"
"4522.700000017881",""," ","psychophysics","26","226142","0.0-26.0","7","15","key"," ","16.665011111111166","500","250","1","5","46","42"
"2482.699999988079",""," ","psychophysics","27","228630","0.0-27.0","7","15","key"," ","16.66597315436229","500","250","1","0","31","37"
"2667",""," ","psychophysics","28","231303","0.0-28.0","7","15","key"," ","16.664949685534676","500","250","1","5","31","29"
"19275.79999998212",""," ","psychophysics","29","250581","0.0-29.0","7","15","key"," ","16.665006055363325","500","250","","","",""
"3179.7999999821186",""," ","psychophysics","30","253766","0.0-30.0","7","15","key"," ","16.665073684210533","500","250","","","",""
"788.3999999761581",""," ","psychophysics","31","254557","0.0-31.0","7","15","key"," ","16.665065217391795","500","250","","","",""
"9152.300000011921",""," ","psychophysics","32","263718","0.0-32.0","7","15","key"," ","16.665222222222212","500","250","2","0","56","64"
"1262.199999988079",""," ","psychophysics","33","264982","0.0-33.0","7","15","key"," ","16.66490666666689","500","250","","","",""
"6780.5999999940395",""," ","psychophysics","34","271767","0.0-34.0","7","15","key"," ","16.665064039408875","500","250","2","0","55","60"
"1120.800000011921",""," ","psychophysics","35","272891","0.0-35.0","7","15","key"," ","16.665000000000212","500","250","","","",""
"3844.899999976158",""," ","psychophysics","36","276742","0.0-36.0","7","15","key"," ","16.66543290043276","500","250","2","0","53","57"
"974.6000000238419",""," ","psychophysics","37","277719","0.0-37.0","7","15","key"," ","16.666403508771683","500","250","","","",""
"4115.300000011921",""," ","psychophysics","38","281842","0.0-38.0","7","15","key"," ","16.665582995951553","500","250","2","0","52","54"
"1129.199999988079",""," ","psychophysics","39","282975","0.0-39.0","7","15","key"," ","16.665089552238612","500","250","","","",""
"2747.699999988079",""," ","psychophysics","40","285727","0.0-40.0","7","15","key"," ","16.664926829268353","500","250","2","0","36","38"
"1102.199999988079",""," ","psychophysics","41","286832","0.0-41.0","7","15","key"," ","16.665323076923737","500","250","","","",""
"2191.5",""," ","psychophysics","42","289031","0.0-42.0","7","15","key"," ","16.665442748091234","500","250","2","0","28","26"
"1094.4000000059605",""," ","psychophysics","43","290128","0.0-43.0","7","15","key"," ","16.664799999999993","500","250","","","",""
"2493.0999999940395",""," ","psychophysics","44","292625","0.0-44.0","7","15","key"," ","16.66490604026843","500","250","2","0","20","22"
"822.2999999821186",""," ","psychophysics","45","293450","0.0-45.0","7","15","key"," ","16.663083333332906","500","250","","","",""
"6582.4000000059605",""," ","psychophysics","46","300042","0.0-46.0","7","15","key"," ","16.66525063291133","500","250","2","0","57","61"
"979.2999999821186",""," ","psychophysics","47","301023","0.0-47.0","7","15","key"," ","16.66500000000012","500","250","","","",""
"2878.0999999940395",""," ","psychophysics","48","303907","0.0-48.0","7","15","key"," ","16.665116279069565","500","250","2","0","46","47"
"863.5",""," ","psychophysics","49","304773","0.0-49.0","7","15","key"," ","16.665333333332775","500","250","","","",""
"3834",""," ","psychophysics","50","308612","0.0-50.0","7","15","key"," ","16.664960698689757","500","250","2","0","21","23"
"851.4000000059605",""," ","psychophysics","51","309466","0.0-51.0","7","15","key"," ","16.66530000000028","500","250","","","",""
"4253.9000000059605",""," ","psychophysics","52","313722","0.0-52.0","7","15","key"," ","16.66508627450984","500","250","2","0","57","60"
"811.1999999880791",""," ","psychophysics","53","314540","0.0-53.0","7","15","key"," ","16.665062500000204","500","250","","","",""
"5482.5999999940395",""," ","psychophysics","54","320024","0.0-54.0","7","15","key"," ","16.664966463414626","500","250","2","0","39","39"
"1377.5",""," ","psychophysics","55","321404","0.0-55.0","7","15","key"," ","16.665121951219255","500","250","","","",""
"4070.300000011921",""," ","psychophysics","56","325480","0.0-56.0","7","15","key"," ","16.665024691357885","500","250","2","0","60","63"
"882.2999999821186",""," ","psychophysics","57","326365","0.0-57.0","7","15","key"," ","16.665134615384606","500","250","","","",""
"3283.300000011921",""," ","psychophysics","58","329657","0.0-58.0","7","15","key"," ","16.66553299492408","500","250","2","0","50","55"
"827.5",""," ","psychophysics","59","330487","0.0-59.0","7","15","key"," ","16.664612244898976","500","250","","","",""
"2940.399999976158",""," ","psychophysics","60","333432","0.0-60.0","7","15","key"," ","16.664914285714207","500","250","2","0","22","29"
"749.8999999761581",""," ","psychophysics","61","334187","0.0-61.0","7","15","key"," ","16.66804444444521","500","250","","","",""
"9105.700000017881",""," ","psychophysics","62","343298","0.0-62.0","7","15","key"," ","16.664977981651376","500","250","","","",""
"3198.5",""," ","psychophysics","63","346502","0.0-63.0","7","15","key"," ","16.665807291666777","500","250","","","",""
"8362.699999988079",""," ","psychophysics","64","354871","0.0-64.0","7","15","key"," ","16.66498203592818","500","250","3","5","49","39"
"4254.799999982119",""," ","psychophysics","65","359128","0.0-65.0","7","15","key"," ","16.665007874015792","500","250","3","0","49","52"
"4149",""," ","psychophysics","66","363286","0.0-66.0","7","15","key"," ","16.665546184739036","500","250","3","5","44","38"
"5222.799999982119",""," ","psychophysics","67","368511","0.0-67.0","7","15","key"," ","16.66499038461543","500","250","3","0","28","30"
"2303.0999999940395",""," ","psychophysics","68","370823","0.0-68.0","7","15","key"," ","16.66599999999997","500","250","3","5","21","17"
"2534.9000000059605",""," ","psychophysics","69","373360","0.0-69.0","7","15","key"," ","16.665039735099544","500","250","3","0","26","26"
"2931.9000000059605",""," ","psychophysics","70","376294","0.0-70.0","7","15","key"," ","16.665125714285697","500","250","3","5","35","22"
"7296.5999999940395",""," ","psychophysics","71","383600","0.0-71.0","7","15","key"," ","16.66533561643839","500","250","3","0","30","34"
"1291.800000011921",""," ","psychophysics","72","384894","0.0-72.0","7","15","key"," ","16.665052631578874","500","250","3","5","23","17"
"2823.800000011921",""," ","psychophysics","73","387727","0.0-73.0","7","15","key"," ","16.66570414201158","500","250","3","0","21","21"
"2019.800000011921",""," ","psychophysics","74","389752","0.0-74.0","7","15","key"," ","16.666148760330515","500","250","3","5","31","17"
"4600.899999976158",""," ","psychophysics","75","394357","0.0-75.0","7","15","key"," ","16.664978181818203","500","250","3","0","49","56"
"2977.0999999940395",""," ","psychophysics","76","397337","0.0-76.0","7","15","key"," ","16.665691011235722","500","250","3","5","29","22"
"8265.299999982119",""," ","psychophysics","77","405607","0.0-77.0","7","15","key"," ","16.66504040404042","500","250","3","0","57","57"
"2510.5",""," ","psychophysics","78","408120","0.0-78.0","7","15","key"," ","16.664940000000254","500","250","3","5","33","25"
"6749.799999952316","Set You Browser to Full Screen Please.<br><br>","0","html-button-response","0","6753","0.0-0.0","9","13","","","","","","","","",""
"2696.5999999046326",""," ","psychophysics","1","9467","0.0-1.0","9","13","key"," ","16.674","500","250","","","",""
"5911.700000047684",""," ","psychophysics","2","15383","0.0-2.0","9","13","key"," ","16.721757746478875","500","250","","","",""
"6971.200000047684",""," ","psychophysics","3","22363","0.0-3.0","9","13","key"," ","16.674","500","250","","","",""
"7732.899999856949",""," ","psychophysics","4","30099","0.0-4.0","9","13","key"," ","16.674892008639315","500","250","","","",""
"4163.299999952316",""," ","psychophysics","5","34266","0.0-5.0","9","13","key"," ","16.6753172690763","500","250","","","",""
"4918.200000047684",""," ","psychophysics","6","39188","0.0-6.0","9","13","key"," ","16.67400000000001","500","250","","","",""
"7437",""," ","psychophysics","7","46627","0.0-7.0","9","13","key"," ","16.75004288939052","500","250","","","",""
"5412.599999904633",""," ","psychophysics","8","52042","0.0-8.0","9","13","key"," ","16.67400000000001","500","250","","","",""
"10889.199999809265",""," ","psychophysics","9","62934","0.0-9.0","9","13","key"," ","16.67453374233128","500","250","1","0","23","27"
"11284.700000047684",""," ","psychophysics","10","74223","0.0-10.0","9","13","key"," ","16.84950971599401","500","250","1","5","49","51"
"7766.599999904633",""," ","psychophysics","11","81992","0.0-11.0","9","13","key"," ","16.674000000000007","500","250","1","0","33","37"
"9538.699999809265",""," ","psychophysics","12","91533","0.0-12.0","9","13","key"," ","16.674618213660263","500","250","1","5","50","48"
"9139",""," ","psychophysics","13","100679","0.0-13.0","9","13","key"," ","16.674598540145972","500","250","1","0","26","34"
"7874.700000047684",""," ","psychophysics","14","108557","0.0-14.0","9","13","key"," ","16.81757815845826","500","250","1","5","51","51"
"5863.900000095367",""," ","psychophysics","15","114442","0.0-15.0","9","13","key"," ","16.674957386363612","500","250","1","0","22","28"
"9914.600000143051",""," ","psychophysics","16","124359","0.0-16.0","9","13","key"," ","16.674572390572383","500","250","1","5","53","52"
"6069.200000047684",""," ","psychophysics","17","130430","0.0-17.0","9","13","key"," ","16.673999999999992","500","250","1","0","32","38"
"8414.400000095367",""," ","psychophysics","18","138847","0.0-18.0","9","13","key"," ","16.674694444444448","500","250","1","5","59","58"
"9245.099999904633",""," ","psychophysics","19","148096","0.0-19.0","9","13","key"," ","16.674608303249112","500","250","1","0","60","69"
"10921.399999856949",""," ","psychophysics","20","159022","0.0-20.0","9","13","key"," ","16.67454281345563","500","250","1","5","55","57"
"9451.5",""," ","psychophysics","21","168477","0.0-21.0","9","13","key"," ","16.67457773851593","500","250","1","0","35","50"
"4504.199999809265",""," ","psychophysics","22","172984","0.0-22.0","9","13","key"," ","16.673999999999936","500","250","1","5","33","41"
"5045.799999952316",""," ","psychophysics","23","178032","0.0-23.0","9","13","key"," ","16.67512582781459","500","250","1","0","38","43"
"4581.400000095367",""," ","psychophysics","24","182617","0.0-24.0","9","13","key"," ","16.674000000000024","500","250","1","5","23","27"
"4905.099999904633",""," ","psychophysics","25","187524","0.0-25.0","9","13","key"," ","16.675187713310535","500","250","1","0","44","51"
"7831.5",""," ","psychophysics","26","195358","0.0-26.0","9","13","key"," ","16.67475692963755","500","250","1","5","21","24"
"6814",""," ","psychophysics","27","202175","0.0-27.0","9","13","key"," ","16.673999999999996","500","250","1","0","30","40"
"7739.200000047684",""," ","psychophysics","28","209916","0.0-28.0","9","13","key"," ","16.674758099352054","500","250","1","5","37","39"
"4746.699999809265",""," ","psychophysics","29","214666","0.0-29.0","9","13","key"," ","16.675228873239487","500","250","","","",""
"25965",""," ","psychophysics","30","240633","0.0-30.0","9","13","key"," ","16.68515369774919","500","250","","","",""
"3173.2000000476837",""," ","psychophysics","31","243815","0.0-31.0","9","13","key"," ","16.675852631579005","500","250","","","",""
"7598.099999904633",""," ","psychophysics","32","251416","0.0-32.0","9","13","key"," ","16.673999999999964","500","250","2","0","51","61"
"2661.7999999523163",""," ","psychophysics","33","254081","0.0-33.0","9","13","key"," ","16.676113207547218","500","250","","","",""
"8987.200000047684",""," ","psychophysics","34","263071","0.0-34.0","9","13","key"," ","16.67399999999999","500","250","2","0","54","59"
"2663.5",""," ","psychophysics","35","265737","0.0-35.0","9","13","key"," ","16.67583647798732","500","250","","","",""
"12481.400000095367",""," ","psychophysics","36","278220","0.0-36.0","9","13","key"," ","16.674537433155006","500","250","2","0","58","63"
"1212.7000000476837",""," ","psychophysics","37","279439","0.0-37.0","9","13","key"," ","16.674000000000685","500","250","","","",""
"6990.200000047684",""," ","psychophysics","38","286433","0.0-38.0","9","13","key"," ","16.674825358851653","500","250","2","0","34","42"
"3230.5",""," ","psychophysics","39","289665","0.0-39.0","9","13","key"," ","16.673999999999975","500","250","","","",""
"7589.899999856949",""," ","psychophysics","40","297274","0.0-40.0","9","13","key"," ","16.6747340659341","500","250","2","0","29","30"
"1169.4000000953674",""," ","psychophysics","41","298450","0.0-41.0","9","13","key"," ","16.6739999999999","500","250","","","",""
"9532.600000143051",""," ","psychophysics","42","307986","0.0-42.0","9","13","key"," ","16.674633975481637","500","250","2","0","49","46"
"1267.1999998092651",""," ","psychophysics","43","309257","0.0-43.0","9","13","key"," ","16.673999999999843","500","250","","","",""
"12630.200000047684",""," ","psychophysics","44","321889","0.0-44.0","9","13","key"," ","16.6743645970938","500","250","2","0","41","48"
"1050.2000000476837",""," ","psychophysics","45","322943","0.0-45.0","9","13","key"," ","16.674000000000007","500","250","","","",""
"9778.600000143051",""," ","psychophysics","46","332724","0.0-46.0","9","13","key"," ","16.674590443686004","500","250","2","0","56","57"
"2224.199999809265",""," ","psychophysics","47","334955","0.0-47.0","9","13","key"," ","16.677037878787925","500","250","","","",""
"10045.200000047684",""," ","psychophysics","48","345003","0.0-48.0","9","13","key"," ","16.702319467554048","500","250","2","0","59","53"
"1448.2999999523163",""," ","psychophysics","49","346454","0.0-49.0","9","13","key"," ","16.673999999999747","500","250","","","",""
"7235.700000047684",""," ","psychophysics","50","353692","0.0-50.0","9","13","key"," ","16.67400000000001","500","250","2","0","31","31"
