"success","trial_type","trial_index","time_elapsed","internal_node_id","pid","sid","timeout","failed_images","failed_audio","failed_video","rt","stimulus","response","response_type","key_press","avg_frame_time","center_x","center_y","task","resp","version","block","jitterX","jitterY","start","parA"
"true","fullscreen","0","2544","0.0-0.0","5ecbd383243b3438410dae19","64dd6d662f5957ed17de0794","","","","","","","","","","","","","","","","","","","",""
"true","preload","1","2614","0.0-1.0","5ecbd383243b3438410dae19","64dd6d662f5957ed17de0794","false","[]","[]","[]","","","","","","","","","","","","","","","",""
"","html-button-response","2","3854","0.0-2.0","5ecbd383243b3438410dae19","64dd6d662f5957ed17de0794","","","","","1239","Please Make Sure Your Audio Is On.","0","","","","","","","","","","","","",""
"","psychophysics","3","21113","0.0-3.0","5ecbd383243b3438410dae19","64dd6d662f5957ed17de0794","","","","","17257",""," ","key"," ","8.341399710004833","640","250","","","","","","","",""
"","psychophysics","4","26028","0.0-4.0","5ecbd383243b3438410dae19","64dd6d662f5957ed17de0794","","","","","4913",""," ","key"," ","8.333272108843538","500","250","inst","","","","","","",""
"","psychophysics","5","37695","0.0-5.0","5ecbd383243b3438410dae19","64dd6d662f5957ed17de0794","","","","","11664",""," ","key"," ","8.333317857142855","500","250","sample0","","","","","","",""
"","psychophysics","6","40327","0.0-6.0","5ecbd383243b3438410dae19","64dd6d662f5957ed17de0794","","","","","2631",""," ","key"," ","8.333197452229287","500","250","sample1","","","","","","",""
"","psychophysics","7","48795","0.0-7.0","5ecbd383243b3438410dae19","64dd6d662f5957ed17de0794","","","","","8465",""," ","key"," ","8.333276574803147","500","250","sample2","104","","","","","",""
"","psychophysics","8","55438","0.0-8.0","5ecbd383243b3438410dae19","64dd6d662f5957ed17de0794","","","","","6643",""," ","key"," ","8.333280150753774","500","250","sample3","76","","","","","",""
"","psychophysics","9","64362","0.0-9.0","5ecbd383243b3438410dae19","64dd6d662f5957ed17de0794","","","","","8922",""," ","key"," ","8.333325233644862","500","250","sample4","102","","","","","",""
"","psychophysics","10","73091","0.0-10.0","5ecbd383243b3438410dae19","64dd6d662f5957ed17de0794","","","","","8729",""," ","key"," ","8.33326864244742","500","250","sample5","","","","","","",""
"","psychophysics","11","87934","0.0-11.0","5ecbd383243b3438410dae19","64dd6d662f5957ed17de0794","","","","","14842",""," ","key"," ","8.33329157303371","500","250","sample6","504","","","","","",""
"","psychophysics","12","93233","0.0-12.0","5ecbd383243b3438410dae19","64dd6d662f5957ed17de0794","","","","","5298",""," ","key"," ","8.333303937007853","500","250","inst","","","","","","",""
"","psychophysics","13","97889","0.0-13.0","5ecbd383243b3438410dae19","64dd6d662f5957ed17de0794","","","","","4654",""," ","key"," ","8.333327956989253","500","250","inst","","","","","","",""
"","psychophysics","14","101987","0.0-14.0","5ecbd383243b3438410dae19","64dd6d662f5957ed17de0794","","","","","4098",""," ","key"," ","8.33324439918535","500","250","inst","","","","","","",""
"","psychophysics","15","103699","0.0-15.0","5ecbd383243b3438410dae19","64dd6d662f5957ed17de0794","","","","","1711",""," ","key"," ","8.333225490196092","500","250","inst","","","","","","",""
"","psychophysics","16","104893","0.0-16.0","5ecbd383243b3438410dae19","64dd6d662f5957ed17de0794","","","","","1193",""," ","key"," ","8.333211267605575","500","250","inst","","","","","","",""
"","psychophysics","17","109925","0.0-17.0","5ecbd383243b3438410dae19","64dd6d662f5957ed17de0794","","","","","5030",""," ","key"," ","8.333250414593694","500","250","instBr0","-1","","","0","0","0","300"
"","psychophysics","18","120577","0.0-18.0","5ecbd383243b3438410dae19","64dd6d662f5957ed17de0794","","","","","10651",""," ","key"," ","8.333329678935002","500","250","instBr1","1","","","0","0","-40","300"
"","psychophysics","19","133019","0.0-19.0","5ecbd383243b3438410dae19","64dd6d662f5957ed17de0794","","","","","12442",""," ","key"," ","8.333290020093761","500","250","instBr3","-16","1","","0","0","40","300"
"","psychophysics","20","135031","0.0-20.0","5ecbd383243b3438410dae19","64dd6d662f5957ed17de0794","","","","","2011",""," ","key"," ","8.333204166666716","500","250","inst","","","","","","",""
"","psychophysics","21","138192","0.0-21.0","5ecbd383243b3438410dae19","64dd6d662f5957ed17de0794","","","","","3159",""," ","key"," ","8.333248677248736","500","250","br","-19","1","0","19","20","-10","285"
"","psychophysics","22","142610","0.0-22.0","5ecbd383243b3438410dae19","64dd6d662f5957ed17de0794","","","","","4417",""," ","key"," ","8.333306238185234","500","250","br","-11","1","0","29","0","4","283"
"","psychophysics","23","145721","0.0-23.0","5ecbd383243b3438410dae19","64dd6d662f5957ed17de0794","","","","","3111",""," ","key"," ","8.33326541554957","500","250","br","-20","1","0","6","14","-3","289"
"","psychophysics","24","149028","0.0-24.0","5ecbd383243b3438410dae19","64dd6d662f5957ed17de0794","","","","","3305",""," ","key"," ","8.333272727272714","500","250","br","-18","1","0","-5","-13","3","273"
"","psychophysics","25","151425","0.0-25.0","5ecbd383243b3438410dae19","64dd6d662f5957ed17de0794","","","","","2397",""," ","key"," ","8.333230769230783","500","250","br","-12","1","0","-30","-3","-12","231"
"","psychophysics","26","159427","0.0-26.0","5ecbd383243b3438410dae19","64dd6d662f5957ed17de0794","","","","","null","","null","key","null","8.333289885297184","500","250","br","-19","1","0","17","-2","14","232"
"","psychophysics","27","161925","0.0-27.0","5ecbd383243b3438410dae19","64dd6d662f5957ed17de0794","","","","","2498",""," ","key"," ","8.33328093645489","500","250","br","-15","1","0","-18","-28","1","237"
"","psychophysics","28","165233","0.0-28.0","5ecbd383243b3438410dae19","64dd6d662f5957ed17de0794","","","","","3304",""," ","key"," ","8.333290404040422","500","250","br","-20","1","0","-21","9","17","202"
"","psychophysics","29","168868","0.0-29.0","5ecbd383243b3438410dae19","64dd6d662f5957ed17de0794","","","","","3634",""," ","key"," ","8.333346330275246","500","250","br","-16","1","0","16","9","-23","236"
"","psychophysics","30","171138","0.0-30.0","5ecbd383243b3438410dae19","64dd6d662f5957ed17de0794","","","","","2268",""," ","key"," ","8.333380073800702","500","250","br","-12","1","0","11","-18","1","287"
"","psychophysics","31","172639","0.0-31.0","5ecbd383243b3438410dae19","64dd6d662f5957ed17de0794","","","","","1500",""," ","key"," ","8.333083798882699","500","250","br","-14","1","0","-9","7","-12","233"
"","psychophysics","32","175529","0.0-32.0","5ecbd383243b3438410dae19","64dd6d662f5957ed17de0794","","","","","2889",""," ","key"," ","8.333283236994195","500","250","br","-15","1","0","13","18","-30","214"
"","psychophysics","33","178578","0.0-33.0","5ecbd383243b3438410dae19","64dd6d662f5957ed17de0794","","","","","3048",""," ","key"," ","8.333273972602711","500","250","br","-24","1","0","6","28","-29","246"
"","psychophysics","34","180809","0.0-34.0","5ecbd383243b3438410dae19","64dd6d662f5957ed17de0794","","","","","2230",""," ","key"," ","8.33316165413539","500","250","br","-7","1","0","7","4","-12","207"
"","psychophysics","35","183691","0.0-35.0","5ecbd383243b3438410dae19","64dd6d662f5957ed17de0794","","","","","2880",""," ","key"," ","8.333234782608654","500","250","br","-13","1","0","-1","0","-24","281"
"","psychophysics","36","185336","0.0-36.0","5ecbd383243b3438410dae19","64dd6d662f5957ed17de0794","","","","","1644",""," ","key"," ","8.333461928933913","500","250","inst","","","","","","",""
"","psychophysics","37","187475","0.0-37.0","5ecbd383243b3438410dae19","64dd6d662f5957ed17de0794","","","","","2138",""," ","key"," ","8.333282352941152","500","250","instPzPre","50","0","","","","50","50"
"","psychophysics","38","189859","0.0-38.0","5ecbd383243b3438410dae19","64dd6d662f5957ed17de0794","","","","","2383",""," ","key"," ","8.333298245614104","500","250","instPz0","49","2","","","","50","50"
"","psychophysics","39","192574","0.0-39.0","5ecbd383243b3438410dae19","64dd6d662f5957ed17de0794","","","","","2714",""," ","key"," ","8.333289230769196","500","250","instPz1","26","2","","","","25","50"
"","psychophysics","40","196262","0.0-40.0","5ecbd383243b3438410dae19","64dd6d662f5957ed17de0794","","","","","3687",""," ","key"," ","8.33331221719462","500","250","instPz2","37","2","","","","20","35"
"","psychophysics","41","199759","0.0-41.0","5ecbd383243b3438410dae19","64dd6d662f5957ed17de0794","","","","","3496",""," ","key"," ","8.373387019230764","500","250","instPz3","31","2","","","","30","100"
"","psychophysics","42","202567","0.0-42.0","5ecbd383243b3438410dae19","64dd6d662f5957ed17de0794","","","","","2807",""," ","key"," ","8.333270833333396","500","250","instPz4","31","2","","","","30","100"
"","psychophysics","43","204489","0.0-43.0","5ecbd383243b3438410dae19","64dd6d662f5957ed17de0794","","","","","1921",""," ","key"," ","8.333278260869607","500","250","inst","","","","","","",""
"","psychophysics","44","208326","0.0-44.0","5ecbd383243b3438410dae19","64dd6d662f5957ed17de0794","","","","","3836",""," ","key"," ","8.333270152505426","500","250","pz","36","2","0","","","28","34"
"","psychophysics","45","212645","0.0-45.0","5ecbd383243b3438410dae19","64dd6d662f5957ed17de0794","","","","","4318",""," ","key"," ","8.333252895752896","500","250","pz","43","2","0","","","27","47"
"","psychophysics","46","217643","0.0-46.0","5ecbd383243b3438410dae19","64dd6d662f5957ed17de0794","","","","","4997",""," ","key"," ","8.333230769230765","500","250","pz","42","2","0","","","21","42"
"","psychophysics","47","222815","0.0-47.0","5ecbd383243b3438410dae19","64dd6d662f5957ed17de0794","","","","","5171",""," ","key"," ","8.333306451612893","500","250","pz","19","2","0","","","32","21"
"","psychophysics","48","227642","0.0-48.0","5ecbd383243b3438410dae19","64dd6d662f5957ed17de0794","","","","","4823",""," ","key"," ","8.333280276816607","500","250","pz","27","2","0","","","53","28"
"","psychophysics","49","230770","0.0-49.0","5ecbd383243b3438410dae19","64dd6d662f5957ed17de0794","","","","","3127",""," ","key"," ","8.333272000000036","500","250","pz","28","2","0","","","36","28"
"","psychophysics","50","233217","0.0-50.0","5ecbd383243b3438410dae19","64dd6d662f5957ed17de0794","","","","","2446",""," ","key"," ","8.333246575342432","500","250","pz","35","2","0","","","37","36"
"","psychophysics","51","238303","0.0-51.0","5ecbd383243b3438410dae19","64dd6d662f5957ed17de0794","","","","","5082",""," ","key"," ","8.333262295081934","500","250","pz","54","2","0","","","24","60"
"","psychophysics","52","241245","0.0-52.0","5ecbd383243b3438410dae19","64dd6d662f5957ed17de0794","","","","","2941",""," ","key"," ","8.333326704545387","500","250","pz","32","2","0","","","46","35"
"","psychophysics","53","245442","0.0-53.0","5ecbd383243b3438410dae19","64dd6d662f5957ed17de0794","","","","","4196",""," ","key"," ","8.333239043824745","500","250","pz","43","2","0","","","50","50"
"","psychophysics","54","247957","0.0-54.0","5ecbd383243b3438410dae19","64dd6d662f5957ed17de0794","","","","","2514",""," ","key"," ","8.333342192690967","500","250","pz","36","2","0","","","43","34"
"","psychophysics","55","251638","0.0-55.0","5ecbd383243b3438410dae19","64dd6d662f5957ed17de0794","","","","","3680",""," ","key"," ","8.33330385487527","500","250","pz","47","2","0","","","36","54"
"","psychophysics","56","253560","0.0-56.0","5ecbd383243b3438410dae19","64dd6d662f5957ed17de0794","","","","","1921",""," ","key"," ","8.33317826086954","500","250","pz","54","2","0","","","52","58"
"","psychophysics","57","256596","0.0-57.0","5ecbd383243b3438410dae19","64dd6d662f5957ed17de0794","","","","","3035",""," ","key"," ","8.333289256198338","500","250","pz","54","2","0","","","60","55"
"","psychophysics","58","262455","0.0-58.0","5ecbd383243b3438410dae19","64dd6d662f5957ed17de0794","","","","","5858",""," ","key"," ","8.333311965811987","500","250","pz","27","2","0","","","59","31"
"","psychophysics","59","269551","0.0-59.0","5ecbd383243b3438410dae19","64dd6d662f5957ed17de0794","","","","","7095",""," ","key"," ","8.33328","500","250","inst","","","","","","",""
"","psychophysics","60","278182","0.0-60.0","5ecbd383243b3438410dae19","64dd6d662f5957ed17de0794","","","","","8630",""," ","key"," ","8.333348792270534","500","250","instPog0","160","1","","0","0","190","160"
"","psychophysics","61","285566","0.0-61.0","5ecbd383243b3438410dae19","64dd6d662f5957ed17de0794","","","","","7384",""," ","key"," ","8.333301694915264","500","250","instPog1","164","1","","0","0","190","160"
"","psychophysics","62","291557","0.0-62.0","5ecbd383243b3438410dae19","64dd6d662f5957ed17de0794","","","","","5990",""," ","key"," ","8.333313370473562","500","250","instPog2","162","1","","0","0","160","160"
"","psychophysics","63","294061","0.0-63.0","5ecbd383243b3438410dae19","64dd6d662f5957ed17de0794","","","","","2503",""," ","key"," ","8.333286666666584","500","250","inst","","","","","","",""
"","psychophysics","64","297212","0.0-64.0","5ecbd383243b3438410dae19","64dd6d662f5957ed17de0794","","","","","3150",""," ","key"," ","8.333275862069016","500","250","pog","163","1","0","0","0","157","148"
"","psychophysics","65","303119","0.0-65.0","5ecbd383243b3438410dae19","64dd6d662f5957ed17de0794","","","","","5907",""," ","key"," ","8.333303672316372","500","250","pog","214","1","0","0","0","202","199"
"","psychophysics","66","311120","0.0-66.0","5ecbd383243b3438410dae19","64dd6d662f5957ed17de0794","","","","","null","","null","key","null","8.333305526590213","500","250","pog","151","1","0","0","0","123","140"
"","psychophysics","67","311712","0.0-67.0","5ecbd383243b3438410dae19","64dd6d662f5957ed17de0794","","","","","591",""," ","key"," ","8.333485714285468","500","250","pog","146","1","0","0","0","144","139"
"","psychophysics","68","313179","0.0-68.0","5ecbd383243b3438410dae19","64dd6d662f5957ed17de0794","","","","","1466",""," ","key"," ","8.333262857142836","500","250","pog","181","1","0","0","0","181","158"
"","psychophysics","69","317148","0.0-69.0","5ecbd383243b3438410dae19","64dd6d662f5957ed17de0794","","","","","3969",""," ","key"," ","8.333221052631638","500","250","pog","151","1","0","0","0","179","121"
"","psychophysics","70","320020","0.0-70.0","5ecbd383243b3438410dae19","64dd6d662f5957ed17de0794","","","","","2871",""," ","key"," ","8.333311046511584","500","250","pog","187","1","0","0","0","199","166"
"","psychophysics","71","322371","0.0-71.0","5ecbd383243b3438410dae19","64dd6d662f5957ed17de0794","","","","","2350",""," ","key"," ","8.333298932384158","500","250","pog","148","1","0","0","0","156","125"
"","psychophysics","72","325849","0.0-72.0","5ecbd383243b3438410dae19","64dd6d662f5957ed17de0794","","","","","3478",""," ","key"," ","8.333168269230764","500","250","pog","215","1","0","0","0","179","196"
"","psychophysics","73","329638","0.0-73.0","5ecbd383243b3438410dae19","64dd6d662f5957ed17de0794","","","","","3788",""," ","key"," ","8.333303964757725","500","250","pog","162","1","0","0","0","100","136"
"","psychophysics","74","333894","0.0-74.0","5ecbd383243b3438410dae19","64dd6d662f5957ed17de0794","","","","","4255",""," ","key"," ","8.333284313725445","500","250","pog","222","1","0","0","0","188","198"
"","psychophysics","75","336711","0.0-75.0","5ecbd383243b3438410dae19","64dd6d662f5957ed17de0794","","","","","2816",""," ","key"," ","8.333329376854756","500","250","pog","195","1","0","0","0","161","181"
"","psychophysics","76","339908","0.0-76.0","5ecbd383243b3438410dae19","64dd6d662f5957ed17de0794","","","","","3196",""," ","key"," ","8.333308900523619","500","250","pog","173","1","0","0","0","135","166"
"","psychophysics","77","342559","0.0-77.0","5ecbd383243b3438410dae19","64dd6d662f5957ed17de0794","","","","","2650",""," ","key"," ","8.333226415094387","500","250","pog","191","1","0","0","0","147","182"
"","psychophysics","78","344833","0.0-78.0","5ecbd383243b3438410dae19","64dd6d662f5957ed17de0794","","","","","2273",""," ","key"," ","8.333372693726874","500","250","pog","179","1","0","0","0","137","166"
"","psychophysics","79","345799","0.0-79.0","5ecbd383243b3438410dae19","64dd6d662f5957ed17de0794","","","","","966",""," ","key"," ","8.333086956521678","500","250","inst","","","","","","",""
"","psychophysics","80","348399","0.0-80.0","5ecbd383243b3438410dae19","64dd6d662f5957ed17de0794","","","","","2599",""," ","key"," ","8.333263665594915","500","250","instZol0","0","","","0","0","0",""
"","psychophysics","81","364512","0.0-81.0","5ecbd383243b3438410dae19","64dd6d662f5957ed17de0794","","","","","16112",""," ","key"," ","8.333307811691693","500","250","instZol1","-1.942890293094024e-16","","","0","0","-1.3",""
"","psychophysics","82","371555","0.0-82.0","5ecbd383243b3438410dae19","64dd6d662f5957ed17de0794","","","","","7042",""," ","key"," ","8.333277251184791","500","250","instZol2","-1.2999999999999994","2","","0","0","2",""
"","psychophysics","83","375071","0.0-83.0","5ecbd383243b3438410dae19","64dd6d662f5957ed17de0794","","","","","3515",""," ","key"," ","8.333261282660366","500","250","inst","","","","","","",""
"","psychophysics","84","382483","0.0-84.0","5ecbd383243b3438410dae19","64dd6d662f5957ed17de0794","","","","","7410",""," ","key"," ","8.333278153153154","500","250","zol","-0.7799999999999999","2","0","18","-28","-0.22",""
"","psychophysics","85","387448","0.0-85.0","5ecbd383243b3438410dae19","64dd6d662f5957ed17de0794","","","","","4963",""," ","key"," ","8.33330924369741","500","250","zol","-0.5500000000000002","2","0","30","-11","0.55",""
"","psychophysics","86","394764","0.0-86.0","5ecbd383243b3438410dae19","64dd6d662f5957ed17de0794","","","","","7315",""," ","key"," ","8.333313568985167","500","250","zol","-1.04","2","0","26","-12","-0.26",""
"","psychophysics","87","400581","0.0-87.0","5ecbd383243b3438410dae19","64dd6d662f5957ed17de0794","","","","","5816",""," ","key"," ","8.333305595408914","500","250","zol","-0.7500000000000001","2","0","-21","30","0.65",""
"","psychophysics","88","404409","0.0-88.0","5ecbd383243b3438410dae19","64dd6d662f5957ed17de0794","","","","","3825",""," ","key"," ","8.333198257080534","500","250","zol","-0.69","2","0","-22","1","0.09",""
"","psychophysics","89","407846","0.0-89.0","5ecbd383243b3438410dae19","64dd6d662f5957ed17de0794","","","","","3435",""," ","key"," ","8.333304136253071","500","250","zol","-0.6699999999999999","2","0","11","-12","-0.03",""
"","psychophysics","90","410582","0.0-90.0","5ecbd383243b3438410dae19","64dd6d662f5957ed17de0794","","","","","2734",""," ","key"," ","8.33323853211004","500","250","zol","-0.74","2","0","18","-26","-0.46",""
"","psychophysics","91","412923","0.0-91.0","5ecbd383243b3438410dae19","64dd6d662f5957ed17de0794","","","","","2339",""," ","key"," ","8.333257142857057","500","250","zol","-0.9599999999999999","2","0","1","8","0.36",""
"","psychophysics","92","416802","0.0-92.0","5ecbd383243b3438410dae19","64dd6d662f5957ed17de0794","","","","","3878",""," ","key"," ","8.333283870967646","500","250","zol","-0.4800000000000001","2","0","-12","19","-0.42",""
"","psychophysics","93","422282","0.0-93.0","5ecbd383243b3438410dae19","64dd6d662f5957ed17de0794","","","","","5479",""," ","key"," ","8.333269817073171","500","250","zol","-1.25","2","0","-29","1","-0.05",""
"","psychophysics","94","426028","0.0-94.0","5ecbd383243b3438410dae19","64dd6d662f5957ed17de0794","","","","","3745",""," ","key"," ","8.333340757238402","500","250","zol","-0.9799999999999999","2","0","8","18","0.08",""
"","psychophysics","95","431007","0.0-95.0","5ecbd383243b3438410dae19","64dd6d662f5957ed17de0794","","","","","4977",""," ","key"," ","8.333246644295286","500","250","zol","-0.8399999999999999","2","0","-5","-18","-0.56",""
"","psychophysics","96","434840","0.0-96.0","5ecbd383243b3438410dae19","64dd6d662f5957ed17de0794","","","","","3832",""," ","key"," ","8.333352941176514","500","250","zol","-0.8799999999999999","2","0","-29","6","-0.02",""
"","psychophysics","97","442417","0.0-97.0","5ecbd383243b3438410dae19","64dd6d662f5957ed17de0794","","","","","7575",""," ","key"," ","8.3332786343612","500","250","zol","-0.7100000000000001","2","0","21","-8","0.01",""
"","psychophysics","98","446139","0.0-98.0","5ecbd383243b3438410dae19","64dd6d662f5957ed17de0794","","","","","3721",""," ","key"," ","8.333242152466344","500","250","zol","-1.2200000000000002","2","0","-4","5","0.22",""
"","psychophysics","99","447278","0.0-99.0","5ecbd383243b3438410dae19","64dd6d662f5957ed17de0794","","","","","1138",""," ","key"," ","8.3332279411766","500","250","inst","","","","","","",""
"","psychophysics","100","450753","0.0-100.0","5ecbd383243b3438410dae19","64dd6d662f5957ed17de0794","","","","","3474",""," ","key"," ","8.333293269230825","500","250","instEB0","74","1","","0","0","75","75"
"","psychophysics","101","453863","0.0-101.0","5ecbd383243b3438410dae19","64dd6d662f5957ed17de0794","","","","","3109",""," ","key"," ","8.333177419354945","500","250","instEB1","72","1","","0","0","80","70"
"","psychophysics","102","455559","0.0-102.0","5ecbd383243b3438410dae19","64dd6d662f5957ed17de0794","","","","","1694",""," ","key"," ","8.333376237623495","500","250","instEB2","80","1","","0","0","80","65"
"","psychophysics","103","463994","0.0-103.0","5ecbd383243b3438410dae19","64dd6d662f5957ed17de0794","","","","","8434",""," ","key"," ","8.33328359683794","500","250","instEB3","80","1","","0","0","65","80"
"","psychophysics","104","467915","0.0-104.0","5ecbd383243b3438410dae19","64dd6d662f5957ed17de0794","","","","","3920",""," ","key"," ","8.33329850746277","500","250","instEB4","61","1","","0","0","70","65"
"","psychophysics","105","469212","0.0-105.0","5ecbd383243b3438410dae19","64dd6d662f5957ed17de0794","","","","","1296",""," ","key"," ","8.333290322580856","500","250","inst","","","","","","",""
"","psychophysics","106","474804","0.0-106.0","5ecbd383243b3438410dae19","64dd6d662f5957ed17de0794","","","","","5591",""," ","key"," ","8.333322388059702","500","250","eb","60","1","0","0","0","88","62"
"","psychophysics","107","479228","0.0-107.0","5ecbd383243b3438410dae19","64dd6d662f5957ed17de0794","","","","","4423",""," ","key"," ","8.33323773584902","500","250","eb","90","1","0","0","0","81","87"
"","psychophysics","108","482414","0.0-108.0","5ecbd383243b3438410dae19","64dd6d662f5957ed17de0794","","","","","3185",""," ","key"," ","8.333191601049858","500","250","eb","77","1","0","0","0","83","78"
"","psychophysics","109","483622","0.0-109.0","5ecbd383243b3438410dae19","64dd6d662f5957ed17de0794","","","","","1207",""," ","key"," ","8.33319444444472","500","250","eb","78","1","0","0","0","79","73"
"","psychophysics","110","488151","0.0-110.0","5ecbd383243b3438410dae19","64dd6d662f5957ed17de0794","","","","","4527",""," ","key"," ","8.333259668508326","500","250","eb","90","1","0","0","0","82","85"
"","psychophysics","111","492233","0.0-111.0","5ecbd383243b3438410dae19","64dd6d662f5957ed17de0794","","","","","4081",""," ","key"," ","8.333225409836068","500","250","eb","61","1","0","0","0","90","65"
"","psychophysics","112","493698","0.0-112.0","5ecbd383243b3438410dae19","64dd6d662f5957ed17de0794","","","","","1463",""," ","key"," ","8.333165714285736","500","250","eb","86","1","0","0","0","87","83"
"","psychophysics","113","495713","0.0-113.0","5ecbd383243b3438410dae19","64dd6d662f5957ed17de0794","","","","","2014",""," ","key"," ","8.333215767634826","500","250","eb","83","1","0","0","0","84","81"
"","psychophysics","114","499013","0.0-114.0","5ecbd383243b3438410dae19","64dd6d662f5957ed17de0794","","","","","3299",""," ","key"," ","8.333237974683584","500","250","eb","72","1","0","0","0","64","74"
"","psychophysics","115","500495","0.0-115.0","5ecbd383243b3438410dae19","64dd6d662f5957ed17de0794","","","","","1481",""," ","key"," ","8.3329943502825","500","250","eb","75","1","0","0","0","83","77"
"","psychophysics","116","504103","0.0-116.0","5ecbd383243b3438410dae19","64dd6d662f5957ed17de0794","","","","","3607",""," ","key"," ","8.333182870370365","500","250","eb","68","1","0","0","0","83","71"
"","psychophysics","117","506495","0.0-117.0","5ecbd383243b3438410dae19","64dd6d662f5957ed17de0794","","","","","2391",""," ","key"," ","8.333265734265577","500","250","eb","65","1","0","0","0","67","70"
"","psychophysics","118","508869","0.0-118.0","5ecbd383243b3438410dae19","64dd6d662f5957ed17de0794","","","","","2373",""," ","key"," ","8.333190140845034","500","250","eb","67","1","0","0","0","89","69"
"","psychophysics","119","511240","0.0-119.0","5ecbd383243b3438410dae19","64dd6d662f5957ed17de0794","","","","","2370",""," ","key"," ","8.333229681978812","500","250","eb","60","1","0","0","0","67","62"
"","psychophysics","120","514057","0.0-120.0","5ecbd383243b3438410dae19","64dd6d662f5957ed17de0794","","","","","2816",""," ","key"," ","8.333287833827978","500","250","eb","87","1","0","0","0","73","82"
"","psychophysics","121","514991","0.0-121.0","5ecbd383243b3438410dae19","64dd6d662f5957ed17de0794","","","","","933",""," ","key"," ","8.333234234234247","500","250","inst","","","","","","",""
"","psychophysics","122","520705","0.0-122.0","5ecbd383243b3438410dae19","64dd6d662f5957ed17de0794","","","","","5713",""," ","key"," ","8.333343065693382","500","250","instEB1","83","2","","0","0","70","80"
"","psychophysics","123","525377","0.0-123.0","5ecbd383243b3438410dae19","64dd6d662f5957ed17de0794","","","","","4671",""," ","key"," ","8.333196428571474","500","250","instEB2","85","2","","0","0","65","80"
"","psychophysics","124","531854","0.0-124.0","5ecbd383243b3438410dae19","64dd6d662f5957ed17de0794","","","","","6476",""," ","key"," ","8.333292525773208","500","250","instEB3","66","2","","0","0","80","65"
"","psychophysics","125","535118","0.0-125.0","5ecbd383243b3438410dae19","64dd6d662f5957ed17de0794","","","","","3264",""," ","key"," ","8.33321483375962","500","250","instEB4","74","2","","0","0","65","70"
"","psychophysics","126","536286","0.0-126.0","5ecbd383243b3438410dae19","64dd6d662f5957ed17de0794","","","","","1166",""," ","key"," ","8.33341007194274","500","250","inst","","","","","","",""
"","psychophysics","127","541194","0.0-127.0","5ecbd383243b3438410dae19","64dd6d662f5957ed17de0794","","","","","4906",""," ","key"," ","8.333326530612318","500","250","eb","71","2","1","0","0","87","68"
"","psychophysics","128","545577","0.0-128.0","5ecbd383243b3438410dae19","64dd6d662f5957ed17de0794","","","","","4381",""," ","key"," ","8.333293333333208","500","250","eb","91","2","1","0","0","65","83"
"","psychophysics","129","547009","0.0-129.0","5ecbd383243b3438410dae19","64dd6d662f5957ed17de0794","","","","","1431",""," ","key"," ","8.333362573099443","500","250","eb","60","2","1","0","0","60","60"
"","psychophysics","130","549327","0.0-130.0","5ecbd383243b3438410dae19","64dd6d662f5957ed17de0794","","","","","2317",""," ","key"," ","8.333241877256176","500","250","eb","77","2","1","0","0","87","76"
"","psychophysics","131","550558","0.0-131.0","5ecbd383243b3438410dae19","64dd6d662f5957ed17de0794","","","","","1229",""," ","key"," ","8.333253424656927","500","250","eb","73","2","1","0","0","74","75"
"","psychophysics","132","553869","0.0-132.0","5ecbd383243b3438410dae19","64dd6d662f5957ed17de0794","","","","","3310",""," ","key"," ","8.333299748110996","500","250","eb","74","2","1","0","0","86","65"
"","psychophysics","133","556518","0.0-133.0","5ecbd383243b3438410dae19","64dd6d662f5957ed17de0794","","","","","2648",""," ","key"," ","8.33321135646696","500","250","eb","61","2","1","0","0","60","61"
"","psychophysics","134","560855","0.0-134.0","5ecbd383243b3438410dae19","64dd6d662f5957ed17de0794","","","","","4335",""," ","key"," ","8.33329094412332","500","250","eb","65","2","1","0","0","90","61"
"","psychophysics","135","563957","0.0-135.0","5ecbd383243b3438410dae19","64dd6d662f5957ed17de0794","","","","","3101",""," ","key"," ","8.333272237196688","500","250","eb","79","2","1","0","0","90","81"
"","psychophysics","136","569226","0.0-136.0","5ecbd383243b3438410dae19","64dd6d662f5957ed17de0794","","","","","5268",""," ","key"," ","8.333314873417766","500","250","eb","89","2","1","0","0","86","86"
"","psychophysics","137","572429","0.0-137.0","5ecbd383243b3438410dae19","64dd6d662f5957ed17de0794","","","","","3201",""," ","key"," ","8.333334203655394","500","250","eb","91","2","1","0","0","74","87"
"","psychophysics","138","574793","0.0-138.0","5ecbd383243b3438410dae19","64dd6d662f5957ed17de0794","","","","","2363",""," ","key"," ","8.333318021201508","500","250","eb","81","2","1","0","0","79","81"
"","psychophysics","139","576160","0.0-139.0","5ecbd383243b3438410dae19","64dd6d662f5957ed17de0794","","","","","1365",""," ","key"," ","8.333171779141287","500","250","eb","75","2","1","0","0","75","70"
"","psychophysics","140","578198","0.0-140.0","5ecbd383243b3438410dae19","64dd6d662f5957ed17de0794","","","","","2037",""," ","key"," ","8.333333333333334","500","250","eb","77","2","1","0","0","74","78"
"","psychophysics","141","579716","0.0-141.0","5ecbd383243b3438410dae19","64dd6d662f5957ed17de0794","","","","","1517",""," ","key"," ","8.333276243094426","500","250","eb","68","2","1","0","0","68","62"
"","psychophysics","142","581200","0.0-142.0","5ecbd383243b3438410dae19","64dd6d662f5957ed17de0794","","","","","1482",""," ","key"," ","8.33327683615814","500","250","inst","","","","","","",""
"","psychophysics","143","584635","0.0-143.0","5ecbd383243b3438410dae19","64dd6d662f5957ed17de0794","","","","","3434",""," ","key"," ","8.333317961165166","500","250","instPog0","340","2","","0","0","370","340"
"","psychophysics","144","589128","0.0-144.0","5ecbd383243b3438410dae19","64dd6d662f5957ed17de0794","","","","","4492",""," ","key"," ","8.33332156133838","500","250","instPog1","354","2","","0","0","370","340"
"","psychophysics","145","591037","0.0-145.0","5ecbd383243b3438410dae19","64dd6d662f5957ed17de0794","","","","","1908",""," ","key"," ","8.333250000000127","500","250","instPog2","332","2","","0","0","340","340"
"","psychophysics","146","591839","0.0-146.0","5ecbd383243b3438410dae19","64dd6d662f5957ed17de0794","","","","","801",""," ","key"," ","8.333052631579095","500","250","inst","","","","","","",""
"","psychophysics","147","595090","0.0-147.0","5ecbd383243b3438410dae19","64dd6d662f5957ed17de0794","","","","","3251",""," ","key"," ","8.333305912596296","500","250","pog","348","2","1","0","0","340","367"
"","psychophysics","148","600227","0.0-148.0","5ecbd383243b3438410dae19","64dd6d662f5957ed17de0794","","","","","5135",""," ","key"," ","8.333297077922056","500","250","pog","359","2","1","0","0","331","373"
"","psychophysics","149","603056","0.0-149.0","5ecbd383243b3438410dae19","64dd6d662f5957ed17de0794","","","","","2828",""," ","key"," ","8.333396449704384","500","250","pog","327","2","1","0","0","319","347"
"","psychophysics","150","606797","0.0-150.0","5ecbd383243b3438410dae19","64dd6d662f5957ed17de0794","","","","","3740",""," ","key"," ","8.333287946428754","500","250","pog","342","2","1","0","0","294","354"
"","psychophysics","151","610286","0.0-151.0","5ecbd383243b3438410dae19","64dd6d662f5957ed17de0794","","","","","3488",""," ","key"," ","8.333246411483303","500","250","pog","364","2","1","0","0","400","377"
"","psychophysics","152","613368","0.0-152.0","5ecbd383243b3438410dae19","64dd6d662f5957ed17de0794","","","","","3081",""," ","key"," ","8.333268292682993","500","250","pog","345","2","1","0","0","355","358"
"","psychophysics","153","616743","0.0-153.0","5ecbd383243b3438410dae19","64dd6d662f5957ed17de0794","","","","","3374",""," ","key"," ","8.333314356435606","500","250","pog","292","2","1","0","0","348","311"
"","psychophysics","154","619453","0.0-154.0","5ecbd383243b3438410dae19","64dd6d662f5957ed17de0794","","","","","2709",""," ","key"," ","8.333317901234553","500","250","pog","308","2","1","0","0","320","317"
"","psychophysics","155","623896","0.0-155.0","5ecbd383243b3438410dae19","64dd6d662f5957ed17de0794","","","","","4442",""," ","key"," ","8.333270676691598","500","250","pog","315","2","1","0","0","359","324"
"","psychophysics","156","626121","0.0-156.0","5ecbd383243b3438410dae19","64dd6d662f5957ed17de0794","","","","","2224",""," ","key"," ","8.33327819548873","500","250","pog","334","2","1","0","0","324","356"
"","psychophysics","157","628526","0.0-157.0","5ecbd383243b3438410dae19","64dd6d662f5957ed17de0794","","","","","2403",""," ","key"," ","8.333295138888692","500","250","pog","302","2","1","0","0","310","317"
"","psychophysics","158","632393","0.0-158.0","5ecbd383243b3438410dae19","64dd6d662f5957ed17de0794","","","","","3866",""," ","key"," ","8.333302375809973","500","250","pog","279","2","1","0","0","379","302"
"","psychophysics","159","636373","0.0-159.0","5ecbd383243b3438410dae19","64dd6d662f5957ed17de0794","","","","","3979",""," ","key"," ","8.333262605041837","500","250","pog","289","2","1","0","0","369","323"
"","psychophysics","160","637707","0.0-160.0","5ecbd383243b3438410dae19","64dd6d662f5957ed17de0794","","","","","1333",""," ","key"," ","8.333301886792423","500","250","pog","301","2","1","0","0","283","339"
"","psychophysics","161","641296","0.0-161.0","5ecbd383243b3438410dae19","64dd6d662f5957ed17de0794","","","","","3588",""," ","key"," ","8.333267441860313","500","250","pog","282","2","1","0","0","340","303"
"","psychophysics","162","642015","0.0-162.0","5ecbd383243b3438410dae19","64dd6d662f5957ed17de0794","","","","","718",""," ","key"," ","8.333023529412115","500","250","inst","","","","","","",""
"","psychophysics","163","646800","0.0-163.0","5ecbd383243b3438410dae19","64dd6d662f5957ed17de0794","","","","","4783",""," ","key"," ","8.333322862129053","500","250","instBr3","7","2","","0","0","40","300"
"","psychophysics","164","647502","0.0-164.0","5ecbd383243b3438410dae19","64dd6d662f5957ed17de0794","","","","","701",""," ","key"," ","8.333071428571461","500","250","inst","","","","","","",""
"","psychophysics","165","649153","0.0-165.0","5ecbd383243b3438410dae19","64dd6d662f5957ed17de0794","","","","","1650",""," ","key"," ","8.333421319796997","500","250","br","13","2","1","14","19","4","274"
"","psychophysics","166","652845","0.0-166.0","5ecbd383243b3438410dae19","64dd6d662f5957ed17de0794","","","","","3691",""," ","key"," ","8.333212669683057","500","250","br","3","2","1","-21","5","16","297"
"","psychophysics","167","654782","0.0-167.0","5ecbd383243b3438410dae19","64dd6d662f5957ed17de0794","","","","","1935",""," ","key"," ","8.333203463203342","500","250","br","6","2","1","-14","9","2","260"
"","psychophysics","168","659359","0.0-168.0","5ecbd383243b3438410dae19","64dd6d662f5957ed17de0794","","","","","4577",""," ","key"," ","8.333295081967306","500","250","br","8","2","1","23","17","-23","297"
"","psychophysics","169","662128","0.0-169.0","5ecbd383243b3438410dae19","64dd6d662f5957ed17de0794","","","","","2768",""," ","key"," ","8.33326888217533","500","250","br","7","2","1","-8","-24","14","204"
"","psychophysics","170","667472","0.0-170.0","5ecbd383243b3438410dae19","64dd6d662f5957ed17de0794","","","","","5343",""," ","key"," ","8.33331249999992","500","250","br","1","2","1","20","-22","-26","226"
"","psychophysics","171","670674","0.0-171.0","5ecbd383243b3438410dae19","64dd6d662f5957ed17de0794","","","","","3201",""," ","key"," ","8.333289817232437","500","250","br","1","2","1","4","-29","30","270"
"","psychophysics","172","673112","0.0-172.0","5ecbd383243b3438410dae19","64dd6d662f5957ed17de0794","","","","","2436",""," ","key"," ","8.333277397260009","500","250","br","7","2","1","29","21","24","250"
"","psychophysics","173","675265","0.0-173.0","5ecbd383243b3438410dae19","64dd6d662f5957ed17de0794","","","","","2153",""," ","key"," ","8.333007782101106","500","250","br","4","2","1","20","-16","-9","259"
"","psychophysics","174","677867","0.0-174.0","5ecbd383243b3438410dae19","64dd6d662f5957ed17de0794","","","","","2601",""," ","key"," ","8.333269230769544","500","250","br","2","2","1","-18","10","10","259"
"","psychophysics","175","681961","0.0-175.0","5ecbd383243b3438410dae19","64dd6d662f5957ed17de0794","","","","","4093",""," ","key"," ","8.333248979591868","500","250","br","-3","2","1","17","0","24","264"
"","psychophysics","176","684525","0.0-176.0","5ecbd383243b3438410dae19","64dd6d662f5957ed17de0794","","","","","2562",""," ","key"," ","8.333294117647098","500","250","br","4","2","1","7","-9","17","216"
"","psychophysics","177","687323","0.0-177.0","5ecbd383243b3438410dae19","64dd6d662f5957ed17de0794","","","","","2797",""," ","key"," ","8.333310447761496","500","250","br","4","2","1","-17","11","27","218"
"","psychophysics","178","689445","0.0-178.0","5ecbd383243b3438410dae19","64dd6d662f5957ed17de0794","","","","","2121",""," ","key"," ","8.333181102362307","500","250","br","12","2","1","-10","-5","1","286"
"","psychophysics","179","692063","0.0-179.0","5ecbd383243b3438410dae19","64dd6d662f5957ed17de0794","","","","","2617",""," ","key"," ","8.333217252396231","500","250","br","4","2","1","-30","-12","-27","300"
"","psychophysics","180","692709","0.0-180.0","5ecbd383243b3438410dae19","64dd6d662f5957ed17de0794","","","","","645",""," ","key"," ","8.33344155844065","500","250","inst","","","","","","",""
"","psychophysics","181","701677","0.0-181.0","5ecbd383243b3438410dae19","64dd6d662f5957ed17de0794","","","","","8967",""," ","key"," ","8.333311627906921","500","250","instPz1","54","1","","","","25","50"
"","psychophysics","182","706847","0.0-182.0","5ecbd383243b3438410dae19","64dd6d662f5957ed17de0794","","","","","5169",""," ","key"," ","8.333321486268176","500","250","instPz2","21","1","","","","35","20"
"","psychophysics","183","708206","0.0-183.0","5ecbd383243b3438410dae19","64dd6d662f5957ed17de0794","","","","","1358",""," ","key"," ","8.333240740740655","500","250","instPz3","99","1","","","","100","30"
"","psychophysics","184","708601","0.0-184.0","5ecbd383243b3438410dae19","64dd6d662f5957ed17de0794","","","","","394",""," ","key"," ","8.333468085105352","500","250","instPz4","100","1","","","","100","30"
"","psychophysics","185","710104","0.0-185.0","5ecbd383243b3438410dae19","64dd6d662f5957ed17de0794","","","","","1502",""," ","key"," ","8.333195530726215","500","250","inst","","","","","","",""
"","psychophysics","186","712816","0.0-186.0","5ecbd383243b3438410dae19","64dd6d662f5957ed17de0794","","","","","2710",""," ","key"," ","8.333253086419894","500","250","pz","36","1","1","","","41","34"
"","psychophysics","187","716849","0.0-187.0","5ecbd383243b3438410dae19","64dd6d662f5957ed17de0794","","","","","4032",""," ","key"," ","8.333277432712212","500","250","pz","50","1","1","","","33","46"
"","psychophysics","188","720660","0.0-188.0","5ecbd383243b3438410dae19","64dd6d662f5957ed17de0794","","","","","3810",""," ","key"," ","8.333319474835992","500","250","pz","46","1","1","","","58","39"
"","psychophysics","189","723508","0.0-189.0","5ecbd383243b3438410dae19","64dd6d662f5957ed17de0794","","","","","2846",""," ","key"," ","8.333220588235417","500","250","pz","46","1","1","","","26","45"
"","psychophysics","190","725025","0.0-190.0","5ecbd383243b3438410dae19","64dd6d662f5957ed17de0794","","","","","1516",""," ","key"," ","8.333270718232287","500","250","pz","55","1","1","","","54","48"
"","psychophysics","191","728857","0.0-191.0","5ecbd383243b3438410dae19","64dd6d662f5957ed17de0794","","","","","3831",""," ","key"," ","8.333352941176388","500","250","pz","26","1","1","","","40","23"
"","psychophysics","192","733565","0.0-192.0","5ecbd383243b3438410dae19","64dd6d662f5957ed17de0794","","","","","4706",""," ","key"," ","8.333308510638151","500","250","pz","22","1","1","","","43","20"
"","psychophysics","193","735432","0.0-193.0","5ecbd383243b3438410dae19","64dd6d662f5957ed17de0794","","","","","1866",""," ","key"," ","8.333506726457282","500","250","pz","35","1","1","","","27","30"
"","psychophysics","194","737934","0.0-194.0","5ecbd383243b3438410dae19","64dd6d662f5957ed17de0794","","","","","2501",""," ","key"," ","8.333293333333375","500","250","pz","48","1","1","","","38","41"
"","psychophysics","195","741265","0.0-195.0","5ecbd383243b3438410dae19","64dd6d662f5957ed17de0794","","","","","3330",""," ","key"," ","8.333095477386752","500","250","pz","60","1","1","","","41","52"
"","psychophysics","196","745918","0.0-196.0","5ecbd383243b3438410dae19","64dd6d662f5957ed17de0794","","","","","4652",""," ","key"," ","8.33334408602139","500","250","pz","54","1","1","","","20","56"
"","psychophysics","197","750577","0.0-197.0","5ecbd383243b3438410dae19","64dd6d662f5957ed17de0794","","","","","4658",""," ","key"," ","8.33325627240132","500","250","pz","23","1","1","","","36","21"
"","psychophysics","198","753766","0.0-198.0","5ecbd383243b3438410dae19","64dd6d662f5957ed17de0794","","","","","3188",""," ","key"," ","8.33332020997374","500","250","pz","47","1","1","","","60","44"
"","psychophysics","199","759103","0.0-199.0","5ecbd383243b3438410dae19","64dd6d662f5957ed17de0794","","","","","5336",""," ","key"," ","8.33329375000012","500","250","pz","61","1","1","","","32","59"
"","psychophysics","200","764044","0.0-200.0","5ecbd383243b3438410dae19","64dd6d662f5957ed17de0794","","","","","4940",""," ","key"," ","8.333307432432383","500","250","pz","47","1","1","","","54","45"
"","psychophysics","201","764945","0.0-201.0","5ecbd383243b3438410dae19","64dd6d662f5957ed17de0794","","","","","900",""," ","key"," ","8.333084112149663","500","250","inst","","","","","","",""
"","psychophysics","202","767856","0.0-202.0","5ecbd383243b3438410dae19","64dd6d662f5957ed17de0794","","","","","2910",""," ","key"," ","8.333281609195621","500","250","instZol1","1.3","","","0","0","-1.3",""
"","psychophysics","203","777770","0.0-203.0","5ecbd383243b3438410dae19","64dd6d662f5957ed17de0794","","","","","9913",""," ","key"," ","8.333322119428146","500","250","instZol2","1.1000000000000008","1","","0","0","2",""
"","psychophysics","204","779522","0.0-204.0","5ecbd383243b3438410dae19","64dd6d662f5957ed17de0794","","","","","1751",""," ","key"," ","8.333215311005306","500","250","inst","","","","","","",""
"","psychophysics","205","785027","0.0-205.0","5ecbd383243b3438410dae19","64dd6d662f5957ed17de0794","","","","","5503",""," ","key"," ","8.333278787878667","500","250","zol","0.9699999999999999","1","1","6","-7","-0.27",""
"","psychophysics","206","792802","0.0-206.0","5ecbd383243b3438410dae19","64dd6d662f5957ed17de0794","","","","","7774",""," ","key"," ","8.33332510729612","500","250","zol","0.9899999999999999","1","1","-17","8","0.41",""
"","psychophysics","207","799131","0.0-207.0","5ecbd383243b3438410dae19","64dd6d662f5957ed17de0794","","","","","6327",""," ","key"," ","8.333291556728245","500","250","zol","0.83","1","1","-6","-12","0.27",""
"","psychophysics","208","803351","0.0-208.0","5ecbd383243b3438410dae19","64dd6d662f5957ed17de0794","","","","","4219",""," ","key"," ","8.333296442687605","500","250","zol","0.84","1","1","-21","10","-0.34",""
"","psychophysics","209","807118","0.0-209.0","5ecbd383243b3438410dae19","64dd6d662f5957ed17de0794","","","","","3766",""," ","key"," ","8.333299334811464","500","250","zol","1.06","1","1","-6","29","-0.66",""
"","psychophysics","210","811219","0.0-210.0","5ecbd383243b3438410dae19","64dd6d662f5957ed17de0794","","","","","4100",""," ","key"," ","8.333250509164829","500","250","zol","1.3300000000000003","1","1","14","-6","-0.73",""
"","psychophysics","211","818033","0.0-211.0","5ecbd383243b3438410dae19","64dd6d662f5957ed17de0794","","","","","6812",""," ","key"," ","8.333272058823615","500","250","zol","0.81","1","1","23","-13","0.39",""
"","psychophysics","212","823125","0.0-212.0","5ecbd383243b3438410dae19","64dd6d662f5957ed17de0794","","","","","5091",""," ","key"," ","8.333322422258647","500","250","zol","1.0299999999999998","1","1","-27","21","0.67",""
"","psychophysics","213","824027","0.0-213.0","5ecbd383243b3438410dae19","64dd6d662f5957ed17de0794","","","","","901",""," ","key"," ","8.333355140186864","500","250","zol","0.5","1","1","25","-28","-0.5",""
"","psychophysics","214","826900","0.0-214.0","5ecbd383243b3438410dae19","64dd6d662f5957ed17de0794","","","","","2871",""," ","key"," ","8.333177325581431","500","250","zol","1.0499999999999998","1","1","29","-26","-0.15",""
"","psychophysics","215","831629","0.0-215.0","5ecbd383243b3438410dae19","64dd6d662f5957ed17de0794","","","","","4728",""," ","key"," ","8.333287985865628","500","250","zol","1.4400000000000004","1","1","-8","17","-0.34",""
"","psychophysics","216","834279","0.0-216.0","5ecbd383243b3438410dae19","64dd6d662f5957ed17de0794","","","","","2648",""," ","key"," ","8.33329337539426","500","250","zol","0.83","1","1","-4","3","-0.03",""
"","psychophysics","217","837026","0.0-217.0","5ecbd383243b3438410dae19","64dd6d662f5957ed17de0794","","","","","2746",""," ","key"," ","8.333294832826688","500","250","zol","1.4000000000000001","1","1","19","27","-0.2",""
"","psychophysics","218","841844","0.0-218.0","5ecbd383243b3438410dae19","64dd6d662f5957ed17de0794","","","","","4817",""," ","key"," ","8.333277296360446","500","250","zol","1.2300000000000002","1","1","-30","-22","-0.23",""
"","psychophysics","219","847214","0.0-219.0","5ecbd383243b3438410dae19","64dd6d662f5957ed17de0794","","","","","5369",""," ","key"," ","8.333290824261429","500","250","zol","0.6699999999999998","1","1","2","-19","0.53",""
