"success","trial_type","trial_index","time_elapsed","internal_node_id","pid","sid","timeout","failed_images","failed_audio","failed_video","rt","stimulus","response","response_type","key_press","avg_frame_time","center_x","center_y","task","resp","version","block","start","jitterX","jitterY","parA"
"true","fullscreen","0","3059","0.0-0.0","5fe3f539dd8cf10e7d545231","64dd6dd9f0fa61a5abd68282","","","","","","","","","","","","","","","","","","","",""
"true","preload","1","3118","0.0-1.0","5fe3f539dd8cf10e7d545231","64dd6dd9f0fa61a5abd68282","false","[]","[]","[]","","","","","","","","","","","","","","","",""
"","html-button-response","2","4303","0.0-2.0","5fe3f539dd8cf10e7d545231","64dd6dd9f0fa61a5abd68282","","","","","1184","Please Make Sure Your Audio Is On.","0","","","","","","","","","","","","",""
"","psychophysics","3","9327","0.0-3.0","5fe3f539dd8cf10e7d545231","64dd6dd9f0fa61a5abd68282","","","","","5017",""," ","key"," ","6.954569847856155","1280","250","","","","","","","",""
"","psychophysics","4","11864","0.0-4.0","5fe3f539dd8cf10e7d545231","64dd6dd9f0fa61a5abd68282","","","","","2536",""," ","key"," ","6.944766483516485","500","250","inst","","","","","","",""
"","psychophysics","5","16551","0.0-5.0","5fe3f539dd8cf10e7d545231","64dd6dd9f0fa61a5abd68282","","","","","4686",""," ","key"," ","6.955069836552747","500","250","sample0","","","","","","",""
"","psychophysics","6","19511","0.0-6.0","5fe3f539dd8cf10e7d545231","64dd6dd9f0fa61a5abd68282","","","","","2958",""," ","key"," ","6.944687058823526","500","250","sample1","","","","","","",""
"","psychophysics","7","38440","0.0-7.0","5fe3f539dd8cf10e7d545231","64dd6dd9f0fa61a5abd68282","","","","","18928",""," ","key"," ","6.944753394495412","500","250","sample2","102","","","","","",""
"","psychophysics","8","49911","0.0-8.0","5fe3f539dd8cf10e7d545231","64dd6dd9f0fa61a5abd68282","","","","","11471",""," ","key"," ","6.944757722592367","500","250","sample3","102","","","","","",""
"","psychophysics","9","58112","0.0-9.0","5fe3f539dd8cf10e7d545231","64dd6dd9f0fa61a5abd68282","","","","","8198",""," ","key"," ","6.9447531806615785","500","250","sample4","102","","","","","",""
"","psychophysics","10","62584","0.0-10.0","5fe3f539dd8cf10e7d545231","64dd6dd9f0fa61a5abd68282","","","","","4472",""," ","key"," ","6.944762052877133","500","250","sample5","","","","","","",""
"","psychophysics","11","70295","0.0-11.0","5fe3f539dd8cf10e7d545231","64dd6dd9f0fa61a5abd68282","","","","","7710",""," ","key"," ","6.944781981981987","500","250","sample6","502","","","","","",""
"","psychophysics","12","75809","0.0-12.0","5fe3f539dd8cf10e7d545231","64dd6dd9f0fa61a5abd68282","","","","","5512",""," ","key"," ","6.944720959595956","500","250","inst","","","","","","",""
"","psychophysics","13","81879","0.0-13.0","5fe3f539dd8cf10e7d545231","64dd6dd9f0fa61a5abd68282","","","","","6069",""," ","key"," ","6.944740274599552","500","250","inst","","","","","","",""
"","psychophysics","14","85495","0.0-14.0","5fe3f539dd8cf10e7d545231","64dd6dd9f0fa61a5abd68282","","","","","3614",""," ","key"," ","6.944761078998084","500","250","inst","","","","","","",""
"","psychophysics","15","87401","0.0-15.0","5fe3f539dd8cf10e7d545231","64dd6dd9f0fa61a5abd68282","","","","","1904",""," ","key"," ","6.944751824817549","500","250","inst","","","","","","",""
"","psychophysics","16","89503","0.0-16.0","5fe3f539dd8cf10e7d545231","64dd6dd9f0fa61a5abd68282","","","","","2102",""," ","key"," ","6.944760797342216","500","250","inst","","","","","","",""
"","psychophysics","17","94855","0.0-17.0","5fe3f539dd8cf10e7d545231","64dd6dd9f0fa61a5abd68282","","","","","5349",""," ","key"," ","6.944749350649344","500","250","instPog0","340","2","","370","0","0","340"
"","psychophysics","18","101375","0.0-18.0","5fe3f539dd8cf10e7d545231","64dd6dd9f0fa61a5abd68282","","","","","6519",""," ","key"," ","6.944756929637528","500","250","instPog1","348","2","","370","0","0","340"
"","psychophysics","19","107888","0.0-19.0","5fe3f539dd8cf10e7d545231","64dd6dd9f0fa61a5abd68282","","","","","6512",""," ","key"," ","6.944757737459976","500","250","instPog2","318","2","","340","0","0","340"
"","psychophysics","20","111720","0.0-20.0","5fe3f539dd8cf10e7d545231","64dd6dd9f0fa61a5abd68282","","","","","3831",""," ","key"," ","6.944752727272729","500","250","inst","","","","","","",""
"","psychophysics","21","115423","0.0-21.0","5fe3f539dd8cf10e7d545231","64dd6dd9f0fa61a5abd68282","","","","","3701",""," ","key"," ","6.944737335834893","500","250","pog","313","2","0","353","0","0","317"
"","psychophysics","22","118096","0.0-22.0","5fe3f539dd8cf10e7d545231","64dd6dd9f0fa61a5abd68282","","","","","2672",""," ","key"," ","6.944841145833341","500","250","pog","355","2","0","353","0","0","367"
"","psychophysics","23","120823","0.0-23.0","5fe3f539dd8cf10e7d545231","64dd6dd9f0fa61a5abd68282","","","","","2726",""," ","key"," ","6.944754475703338","500","250","pog","303","2","0","301","0","0","315"
"","psychophysics","24","124471","0.0-24.0","5fe3f539dd8cf10e7d545231","64dd6dd9f0fa61a5abd68282","","","","","3647",""," ","key"," ","6.9447466666666635","500","250","pog","369","2","0","381","0","0","372"
"","psychophysics","25","131071","0.0-25.0","5fe3f539dd8cf10e7d545231","64dd6dd9f0fa61a5abd68282","","","","","6599",""," ","key"," ","6.9447523709167465","500","250","pog","346","2","0","380","0","0","355"
"","psychophysics","26","136807","0.0-26.0","5fe3f539dd8cf10e7d545231","64dd6dd9f0fa61a5abd68282","","","","","5735",""," ","key"," ","6.944689696969669","500","250","pog","313","2","0","349","0","0","324"
"","psychophysics","27","142327","0.0-27.0","5fe3f539dd8cf10e7d545231","64dd6dd9f0fa61a5abd68282","","","","","5519",""," ","key"," ","6.944751889168768","500","250","pog","312","2","0","284","0","0","329"
"","psychophysics","28","149167","0.0-28.0","5fe3f539dd8cf10e7d545231","64dd6dd9f0fa61a5abd68282","","","","","6839",""," ","key"," ","6.944795731707321","500","250","pog","340","2","0","394","0","0","356"
"","psychophysics","29","151295","0.0-29.0","5fe3f539dd8cf10e7d545231","64dd6dd9f0fa61a5abd68282","","","","","2127",""," ","key"," ","6.944636065573775","500","250","pog","291","2","0","293","0","0","302"
"","psychophysics","30","155527","0.0-30.0","5fe3f539dd8cf10e7d545231","64dd6dd9f0fa61a5abd68282","","","","","4231",""," ","key"," ","6.944728618421036","500","250","pog","305","2","0","291","0","0","324"
"","psychophysics","31","163529","0.0-31.0","5fe3f539dd8cf10e7d545231","64dd6dd9f0fa61a5abd68282","","","","","null","","null","key","null","6.944757602085141","500","250","pog","345","2","0","289","0","0","362"
"","psychophysics","32","168591","0.0-32.0","5fe3f539dd8cf10e7d545231","64dd6dd9f0fa61a5abd68282","","","","","5061",""," ","key"," ","6.944723901098889","500","250","pog","288","2","0","382","0","0","303"
"","psychophysics","33","170871","0.0-33.0","5fe3f539dd8cf10e7d545231","64dd6dd9f0fa61a5abd68282","","","","","2278",""," ","key"," ","6.944768292682899","500","250","pog","282","2","0","314","0","0","300"
"","psychophysics","34","177431","0.0-34.0","5fe3f539dd8cf10e7d545231","64dd6dd9f0fa61a5abd68282","","","","","6560",""," ","key"," ","6.944782608695645","500","250","pog","335","2","0","387","0","0","337"
"","psychophysics","35","184335","0.0-35.0","5fe3f539dd8cf10e7d545231","64dd6dd9f0fa61a5abd68282","","","","","6902",""," ","key"," ","6.94470795568983","500","250","pog","322","2","0","338","0","0","312"
"","psychophysics","36","185704","0.0-36.0","5fe3f539dd8cf10e7d545231","64dd6dd9f0fa61a5abd68282","","","","","1366",""," ","key"," ","6.944770408163355","500","250","inst","","","","","","",""
"","psychophysics","37","188055","0.0-37.0","5fe3f539dd8cf10e7d545231","64dd6dd9f0fa61a5abd68282","","","","","2350",""," ","key"," ","6.944701183431977","500","250","instEB0","75","1","","75","0","0","75"
"","psychophysics","38","192279","0.0-38.0","5fe3f539dd8cf10e7d545231","64dd6dd9f0fa61a5abd68282","","","","","4223",""," ","key"," ","6.944807248764451","500","250","instEB1","69","1","","80","0","0","70"
"","psychophysics","39","199207","0.0-39.0","5fe3f539dd8cf10e7d545231","64dd6dd9f0fa61a5abd68282","","","","","6925",""," ","key"," ","6.944753259779362","500","250","instEB2","71","1","","80","0","0","65"
"","psychophysics","40","206352","0.0-40.0","5fe3f539dd8cf10e7d545231","64dd6dd9f0fa61a5abd68282","","","","","7143",""," ","key"," ","6.944754863813214","500","250","instEB3","90","1","","65","0","0","80"
"","psychophysics","41","214151","0.0-41.0","5fe3f539dd8cf10e7d545231","64dd6dd9f0fa61a5abd68282","","","","","7798",""," ","key"," ","6.944754010695183","500","250","instEB4","64","1","","70","0","0","65"
"","psychophysics","42","217623","0.0-42.0","5fe3f539dd8cf10e7d545231","64dd6dd9f0fa61a5abd68282","","","","","3471",""," ","key"," ","6.944713426853672","500","250","inst","","","","","","",""
"","psychophysics","43","221568","0.0-43.0","5fe3f539dd8cf10e7d545231","64dd6dd9f0fa61a5abd68282","","","","","3943",""," ","key"," ","6.944753086419784","500","250","eb","69","1","0","75","0","0","69"
"","psychophysics","44","225447","0.0-44.0","5fe3f539dd8cf10e7d545231","64dd6dd9f0fa61a5abd68282","","","","","3878",""," ","key"," ","6.944746858168791","500","250","eb","89","1","0","73","0","0","86"
"","psychophysics","45","230143","0.0-45.0","5fe3f539dd8cf10e7d545231","64dd6dd9f0fa61a5abd68282","","","","","4694",""," ","key"," ","6.944768888888864","500","250","eb","55","1","0","86","0","0","63"
"","psychophysics","46","234071","0.0-46.0","5fe3f539dd8cf10e7d545231","64dd6dd9f0fa61a5abd68282","","","","","3925",""," ","key"," ","6.957072695035443","500","250","eb","72","1","0","70","0","0","74"
"","psychophysics","47","236503","0.0-47.0","5fe3f539dd8cf10e7d545231","64dd6dd9f0fa61a5abd68282","","","","","2430",""," ","key"," ","6.9447593123208895","500","250","eb","73","1","0","64","0","0","79"
"","psychophysics","48","237951","0.0-48.0","5fe3f539dd8cf10e7d545231","64dd6dd9f0fa61a5abd68282","","","","","1447",""," ","key"," ","6.944759615384521","500","250","eb","66","1","0","72","0","0","76"
"","psychophysics","49","241639","0.0-49.0","5fe3f539dd8cf10e7d545231","64dd6dd9f0fa61a5abd68282","","","","","3687",""," ","key"," ","6.9447547169810795","500","250","eb","83","1","0","76","0","0","85"
"","psychophysics","50","244223","0.0-50.0","5fe3f539dd8cf10e7d545231","64dd6dd9f0fa61a5abd68282","","","","","2582",""," ","key"," ","6.944743935309973","500","250","eb","76","1","0","67","0","0","79"
"","psychophysics","51","247767","0.0-51.0","5fe3f539dd8cf10e7d545231","64dd6dd9f0fa61a5abd68282","","","","","3543",""," ","key"," ","6.944750491159129","500","250","eb","52","1","0","82","0","0","62"
"","psychophysics","52","250359","0.0-52.0","5fe3f539dd8cf10e7d545231","64dd6dd9f0fa61a5abd68282","","","","","2590",""," ","key"," ","6.944763440860188","500","250","eb","72","1","0","75","0","0","71"
"","psychophysics","53","253783","0.0-53.0","5fe3f539dd8cf10e7d545231","64dd6dd9f0fa61a5abd68282","","","","","3421",""," ","key"," ","6.94475000000002","500","250","eb","63","1","0","84","0","0","61"
"","psychophysics","54","256511","0.0-54.0","5fe3f539dd8cf10e7d545231","64dd6dd9f0fa61a5abd68282","","","","","2725",""," ","key"," ","6.944750000000011","500","250","eb","89","1","0","69","0","0","89"
"","psychophysics","55","260998","0.0-55.0","5fe3f539dd8cf10e7d545231","64dd6dd9f0fa61a5abd68282","","","","","4486",""," ","key"," ","6.944759689922473","500","250","eb","109","1","0","73","0","0","90"
"","psychophysics","56","265838","0.0-56.0","5fe3f539dd8cf10e7d545231","64dd6dd9f0fa61a5abd68282","","","","","4837",""," ","key"," ","6.944744252873586","500","250","eb","47","1","0","88","0","0","62"
"","psychophysics","57","269535","0.0-57.0","5fe3f539dd8cf10e7d545231","64dd6dd9f0fa61a5abd68282","","","","","3694",""," ","key"," ","6.944750000000034","500","250","eb","75","1","0","90","0","0","69"
"","psychophysics","58","270430","0.0-58.0","5fe3f539dd8cf10e7d545231","64dd6dd9f0fa61a5abd68282","","","","","895",""," ","key"," ","6.94473437500028","500","250","inst","","","","","","",""
"","psychophysics","59","273239","0.0-59.0","5fe3f539dd8cf10e7d545231","64dd6dd9f0fa61a5abd68282","","","","","2808",""," ","key"," ","6.944759305210804","500","250","instPzPre","50","0","","50","","","50"
"","psychophysics","60","275678","0.0-60.0","5fe3f539dd8cf10e7d545231","64dd6dd9f0fa61a5abd68282","","","","","2438",""," ","key"," ","6.944845714285703","500","250","instPz0","50","2","","50","","","50"
"","psychophysics","61","282918","0.0-61.0","5fe3f539dd8cf10e7d545231","64dd6dd9f0fa61a5abd68282","","","","","7239",""," ","key"," ","6.944758157389658","500","250","instPz1","44","2","","25","","","50"
"","psychophysics","62","288686","0.0-62.0","5fe3f539dd8cf10e7d545231","64dd6dd9f0fa61a5abd68282","","","","","5767",""," ","key"," ","6.944834740651365","500","250","instPz2","31","2","","20","","","35"
"","psychophysics","63","297079","0.0-63.0","5fe3f539dd8cf10e7d545231","64dd6dd9f0fa61a5abd68282","","","","","8390",""," ","key"," ","6.950487986743995","500","250","instPz3","30","2","","30","","","100"
"","psychophysics","64","300783","0.0-64.0","5fe3f539dd8cf10e7d545231","64dd6dd9f0fa61a5abd68282","","","","","3701",""," ","key"," ","6.944751879699262","500","250","instPz4","30","2","","30","","","100"
"","psychophysics","65","301808","0.0-65.0","5fe3f539dd8cf10e7d545231","64dd6dd9f0fa61a5abd68282","","","","","1024",""," ","key"," ","6.944734693877874","500","250","inst","","","","","","",""
"","psychophysics","66","309814","0.0-66.0","5fe3f539dd8cf10e7d545231","64dd6dd9f0fa61a5abd68282","","","","","null","","null","key","null","6.944754126846179","500","250","pz","17","2","0","20","","","54"
"","psychophysics","67","310471","0.0-67.0","5fe3f539dd8cf10e7d545231","64dd6dd9f0fa61a5abd68282","","","","","655",""," ","key"," ","6.944744680850875","500","250","pz","39","2","0","39","","","37"
"","psychophysics","68","316175","0.0-68.0","5fe3f539dd8cf10e7d545231","64dd6dd9f0fa61a5abd68282","","","","","5703",""," ","key"," ","6.944760975609718","500","250","pz","27","2","0","30","","","52"
"","psychophysics","69","322135","0.0-69.0","5fe3f539dd8cf10e7d545231","64dd6dd9f0fa61a5abd68282","","","","","5958",""," ","key"," ","6.944766899766884","500","250","pz","22","2","0","45","","","32"
"","psychophysics","70","325919","0.0-70.0","5fe3f539dd8cf10e7d545231","64dd6dd9f0fa61a5abd68282","","","","","3783",""," ","key"," ","6.944915285451264","500","250","pz","14","2","0","25","","","23"
"","psychophysics","71","330256","0.0-71.0","5fe3f539dd8cf10e7d545231","64dd6dd9f0fa61a5abd68282","","","","","4335",""," ","key"," ","6.9445817307692215","500","250","pz","26","2","0","46","","","36"
"","psychophysics","72","333983","0.0-72.0","5fe3f539dd8cf10e7d545231","64dd6dd9f0fa61a5abd68282","","","","","3726",""," ","key"," ","6.944759328358215","500","250","pz","39","2","0","28","","","48"
"","psychophysics","73","335719","0.0-73.0","5fe3f539dd8cf10e7d545231","64dd6dd9f0fa61a5abd68282","","","","","1735",""," ","key"," ","6.944767068273221","500","250","pz","45","2","0","38","","","60"
"","psychophysics","74","339352","0.0-74.0","5fe3f539dd8cf10e7d545231","64dd6dd9f0fa61a5abd68282","","","","","3632",""," ","key"," ","6.944750957854469","500","250","pz","23","2","0","21","","","40"
"","psychophysics","75","341271","0.0-75.0","5fe3f539dd8cf10e7d545231","64dd6dd9f0fa61a5abd68282","","","","","1918",""," ","key"," ","6.9447563636362215","500","250","pz","34","2","0","29","","","54"
"","psychophysics","76","344095","0.0-76.0","5fe3f539dd8cf10e7d545231","64dd6dd9f0fa61a5abd68282","","","","","2823",""," ","key"," ","6.944756157635458","500","250","pz","24","2","0","37","","","38"
"","psychophysics","77","348559","0.0-77.0","5fe3f539dd8cf10e7d545231","64dd6dd9f0fa61a5abd68282","","","","","4463",""," ","key"," ","6.944747269890862","500","250","pz","30","2","0","59","","","41"
"","psychophysics","78","351359","0.0-78.0","5fe3f539dd8cf10e7d545231","64dd6dd9f0fa61a5abd68282","","","","","2797",""," ","key"," ","6.944774193548402","500","250","pz","30","2","0","56","","","30"
"","psychophysics","79","354047","0.0-79.0","5fe3f539dd8cf10e7d545231","64dd6dd9f0fa61a5abd68282","","","","","2687",""," ","key"," ","6.944753886010332","500","250","pz","28","2","0","55","","","41"
"","psychophysics","80","357616","0.0-80.0","5fe3f539dd8cf10e7d545231","64dd6dd9f0fa61a5abd68282","","","","","3567",""," ","key"," ","6.94474804687502","500","250","pz","17","2","0","52","","","23"
"","psychophysics","81","358424","0.0-81.0","5fe3f539dd8cf10e7d545231","64dd6dd9f0fa61a5abd68282","","","","","806",""," ","key"," ","6.944870689655012","500","250","inst","","","","","","",""
"","psychophysics","82","361080","0.0-82.0","5fe3f539dd8cf10e7d545231","64dd6dd9f0fa61a5abd68282","","","","","2655",""," ","key"," ","6.944761154855561","500","250","instBr0","0","","","0","0","0","300"
"","psychophysics","83","371809","0.0-83.0","5fe3f539dd8cf10e7d545231","64dd6dd9f0fa61a5abd68282","","","","","10726",""," ","key"," ","6.944734455958576","500","250","instBr1","3","","","-40","0","0","300"
"","psychophysics","84","377527","0.0-84.0","5fe3f539dd8cf10e7d545231","64dd6dd9f0fa61a5abd68282","","","","","5718",""," ","key"," ","6.944805589307426","500","250","instBr3","26","2","","40","0","0","300"
"","psychophysics","85","378359","0.0-85.0","5fe3f539dd8cf10e7d545231","64dd6dd9f0fa61a5abd68282","","","","","831",""," ","key"," ","6.944245762711636","500","250","inst","","","","","","",""
"","psychophysics","86","381575","0.0-86.0","5fe3f539dd8cf10e7d545231","64dd6dd9f0fa61a5abd68282","","","","","3214",""," ","key"," ","6.944770562770556","500","250","br","21","2","0","14","-15","3","296"
"","psychophysics","87","386599","0.0-87.0","5fe3f539dd8cf10e7d545231","64dd6dd9f0fa61a5abd68282","","","","","5022",""," ","key"," ","6.944759336099567","500","250","br","19","2","0","-27","14","1","281"
"","psychophysics","88","390415","0.0-88.0","5fe3f539dd8cf10e7d545231","64dd6dd9f0fa61a5abd68282","","","","","3814",""," ","key"," ","6.944649635036506","500","250","br","21","2","0","-9","-24","-26","242"
"","psychophysics","89","394247","0.0-89.0","5fe3f539dd8cf10e7d545231","64dd6dd9f0fa61a5abd68282","","","","","3830",""," ","key"," ","6.944773139745929","500","250","br","19","2","0","-27","-20","-15","259"
"","psychophysics","90","396799","0.0-90.0","5fe3f539dd8cf10e7d545231","64dd6dd9f0fa61a5abd68282","","","","","2551",""," ","key"," ","6.9447602179835295","500","250","br","21","2","0","22","12","21","261"
"","psychophysics","91","400744","0.0-91.0","5fe3f539dd8cf10e7d545231","64dd6dd9f0fa61a5abd68282","","","","","3943",""," ","key"," ","6.944753086419732","500","250","br","26","2","0","-6","-16","28","300"
"","psychophysics","92","404119","0.0-92.0","5fe3f539dd8cf10e7d545231","64dd6dd9f0fa61a5abd68282","","","","","3374",""," ","key"," ","6.94475463917527","500","250","br","20","2","0","-24","-25","12","208"
"","psychophysics","93","405855","0.0-93.0","5fe3f539dd8cf10e7d545231","64dd6dd9f0fa61a5abd68282","","","","","1734",""," ","key"," ","6.94475903614456","500","250","br","25","2","0","2","7","-17","266"
"","psychophysics","94","407960","0.0-94.0","5fe3f539dd8cf10e7d545231","64dd6dd9f0fa61a5abd68282","","","","","2103",""," ","key"," ","6.944745033112661","500","250","br","18","2","0","-7","-27","-8","269"
"","psychophysics","95","411551","0.0-95.0","5fe3f539dd8cf10e7d545231","64dd6dd9f0fa61a5abd68282","","","","","3590",""," ","key"," ","6.944749999999961","500","250","br","21","2","0","-24","-16","-1","278"
"","psychophysics","96","413231","0.0-96.0","5fe3f539dd8cf10e7d545231","64dd6dd9f0fa61a5abd68282","","","","","1679",""," ","key"," ","6.944742738589291","500","250","br","29","2","0","8","17","25","248"
"","psychophysics","97","414863","0.0-97.0","5fe3f539dd8cf10e7d545231","64dd6dd9f0fa61a5abd68282","","","","","1630",""," ","key"," ","6.944764957265007","500","250","br","27","2","0","7","0","-5","207"
"","psychophysics","98","416503","0.0-98.0","5fe3f539dd8cf10e7d545231","64dd6dd9f0fa61a5abd68282","","","","","1639",""," ","key"," ","6.944736170212669","500","250","br","28","2","0","10","12","-18","245"
"","psychophysics","99","420096","0.0-99.0","5fe3f539dd8cf10e7d545231","64dd6dd9f0fa61a5abd68282","","","","","3591",""," ","key"," ","6.944717054263542","500","250","br","24","2","0","7","-10","6","264"
"","psychophysics","100","422856","0.0-100.0","5fe3f539dd8cf10e7d545231","64dd6dd9f0fa61a5abd68282","","","","","2759",""," ","key"," ","6.944749999999961","500","250","br","15","2","0","1","9","20","260"
"","psychophysics","101","424672","0.0-101.0","5fe3f539dd8cf10e7d545231","64dd6dd9f0fa61a5abd68282","","","","","1814",""," ","key"," ","6.944766283524802","500","250","inst","","","","","","",""
"","psychophysics","102","427888","0.0-102.0","5fe3f539dd8cf10e7d545231","64dd6dd9f0fa61a5abd68282","","","","","3215",""," ","key"," ","6.944746753246749","500","250","instZol0","0","","","0","0","0",""
"","psychophysics","103","438687","0.0-103.0","5fe3f539dd8cf10e7d545231","64dd6dd9f0fa61a5abd68282","","","","","10799",""," ","key"," ","6.944752895752901","500","250","instZol1","0.30000000000000004","","","-1.3","0","0",""
"","psychophysics","104","446040","0.0-104.0","5fe3f539dd8cf10e7d545231","64dd6dd9f0fa61a5abd68282","","","","","7350",""," ","key"," ","6.944747637051044","500","250","instZol2","-0.7999999999999993","2","","2","0","0",""
"","psychophysics","105","446895","0.0-105.0","5fe3f539dd8cf10e7d545231","64dd6dd9f0fa61a5abd68282","","","","","855",""," ","key"," ","6.944877049180041","500","250","inst","","","","","","",""
"","psychophysics","106","454899","0.0-106.0","5fe3f539dd8cf10e7d545231","64dd6dd9f0fa61a5abd68282","","","","","null","","null","key","null","6.944652476107718","500","250","zol","-1.24","2","0","0.24","16","-25",""
"","psychophysics","107","455025","0.0-107.0","5fe3f539dd8cf10e7d545231","64dd6dd9f0fa61a5abd68282","","","","","123",""," ","key"," ","6.946777777775424","500","250","zol","-0.61","2","0","0.61","2","-20",""
"","psychophysics","108","458928","0.0-108.0","5fe3f539dd8cf10e7d545231","64dd6dd9f0fa61a5abd68282","","","","","3901",""," ","key"," ","6.944782531194272","500","250","zol","-1.0699999999999998","2","0","-0.13","7","-20",""
"","psychophysics","109","464295","0.0-109.0","5fe3f539dd8cf10e7d545231","64dd6dd9f0fa61a5abd68282","","","","","5366",""," ","key"," ","6.944753566796329","500","250","zol","-0.9099999999999999","2","0","0.61","15","30",""
"","psychophysics","110","467183","0.0-110.0","5fe3f539dd8cf10e7d545231","64dd6dd9f0fa61a5abd68282","","","","","2886",""," ","key"," ","6.944751807228881","500","250","zol","-0.9099999999999999","2","0","-0.09","23","-3",""
"","psychophysics","111","471304","0.0-111.0","5fe3f539dd8cf10e7d545231","64dd6dd9f0fa61a5abd68282","","","","","4117",""," ","key"," ","6.9447487352444774","500","250","zol","-1.12","2","0","-0.08","-21","-19",""
"","psychophysics","112","475672","0.0-112.0","5fe3f539dd8cf10e7d545231","64dd6dd9f0fa61a5abd68282","","","","","4366",""," ","key"," ","6.944753184713457","500","250","zol","-1.0599999999999998","2","0","-0.34","0","-9",""
"","psychophysics","113","479280","0.0-113.0","5fe3f539dd8cf10e7d545231","64dd6dd9f0fa61a5abd68282","","","","","3606",""," ","key"," ","6.945013513513499","500","250","zol","-0.6399999999999999","2","0","-0.66","-27","19",""
"","psychophysics","114","484751","0.0-114.0","5fe3f539dd8cf10e7d545231","64dd6dd9f0fa61a5abd68282","","","","","5470",""," ","key"," ","6.944818297331695","500","250","zol","-1.6200000000000006","2","0","0.72","-16","2",""
"","psychophysics","115","488087","0.0-115.0","5fe3f539dd8cf10e7d545231","64dd6dd9f0fa61a5abd68282","","","","","3334",""," ","key"," ","6.944757828809999","500","250","zol","-1.5200000000000005","2","0","0.62","-20","29",""
"","psychophysics","116","493152","0.0-116.0","5fe3f539dd8cf10e7d545231","64dd6dd9f0fa61a5abd68282","","","","","5062",""," ","key"," ","6.944839285714277","500","250","zol","-0.9499999999999998","2","0","-0.25","23","-9",""
"","psychophysics","117","500015","0.0-117.0","5fe3f539dd8cf10e7d545231","64dd6dd9f0fa61a5abd68282","","","","","6861",""," ","key"," ","6.94467611336035","500","250","zol","-1.4300000000000002","2","0","0.73","-22","18",""
"","psychophysics","118","504231","0.0-118.0","5fe3f539dd8cf10e7d545231","64dd6dd9f0fa61a5abd68282","","","","","4214",""," ","key"," ","6.944734323432376","500","250","zol","-0.7699999999999999","2","0","-0.63","23","14",""
"","psychophysics","119","507192","0.0-119.0","5fe3f539dd8cf10e7d545231","64dd6dd9f0fa61a5abd68282","","","","","2959",""," ","key"," ","6.944748235294212","500","250","zol","-0.8299999999999998","2","0","0.43","28","-30",""
"","psychophysics","120","514927","0.0-120.0","5fe3f539dd8cf10e7d545231","64dd6dd9f0fa61a5abd68282","","","","","7733",""," ","key"," ","6.944741239892212","500","250","zol","-0.7899999999999999","2","0","-0.71","-29","16",""
"","psychophysics","121","516039","0.0-121.0","5fe3f539dd8cf10e7d545231","64dd6dd9f0fa61a5abd68282","","","","","1111",""," ","key"," ","6.944635220125695","500","250","inst","","","","","","",""
"","psychophysics","122","521943","0.0-122.0","5fe3f539dd8cf10e7d545231","64dd6dd9f0fa61a5abd68282","","","","","5903",""," ","key"," ","6.9447550058892915","500","250","instBr3","-14","1","","40","0","0","300"
"","psychophysics","123","522615","0.0-123.0","5fe3f539dd8cf10e7d545231","64dd6dd9f0fa61a5abd68282","","","","","671",""," ","key"," ","6.944802083333343","500","250","inst","","","","","","",""
"","psychophysics","124","525703","0.0-124.0","5fe3f539dd8cf10e7d545231","64dd6dd9f0fa61a5abd68282","","","","","3087",""," ","key"," ","6.94473873873869","500","250","br","-15","1","1","-23","21","-18","232"
"","psychophysics","125","529655","0.0-125.0","5fe3f539dd8cf10e7d545231","64dd6dd9f0fa61a5abd68282","","","","","3951",""," ","key"," ","6.94486267605639","500","250","br","-14","1","1","27","-3","16","243"
"","psychophysics","126","531783","0.0-126.0","5fe3f539dd8cf10e7d545231","64dd6dd9f0fa61a5abd68282","","","","","2127",""," ","key"," ","6.944813114754306","500","250","br","-11","1","1","-19","3","-2","297"
"","psychophysics","127","535903","0.0-127.0","5fe3f539dd8cf10e7d545231","64dd6dd9f0fa61a5abd68282","","","","","4119",""," ","key"," ","6.944816188870271","500","250","br","-18","1","1","-20","20","-13","282"
"","psychophysics","128","539304","0.0-128.0","5fe3f539dd8cf10e7d545231","64dd6dd9f0fa61a5abd68282","","","","","3398",""," ","key"," ","6.944766393442568","500","250","br","-16","1","1","27","-6","6","214"
"","psychophysics","129","541624","0.0-129.0","5fe3f539dd8cf10e7d545231","64dd6dd9f0fa61a5abd68282","","","","","2319",""," ","key"," ","6.944753753753762","500","250","br","-22","1","1","-21","24","21","230"
"","psychophysics","130","545664","0.0-130.0","5fe3f539dd8cf10e7d545231","64dd6dd9f0fa61a5abd68282","","","","","4039",""," ","key"," ","6.944712564543935","500","250","br","-15","1","1","-7","-28","-20","267"
"","psychophysics","131","549528","0.0-131.0","5fe3f539dd8cf10e7d545231","64dd6dd9f0fa61a5abd68282","","","","","3863",""," ","key"," ","6.944902702702654","500","250","br","-17","1","1","18","11","-23","259"
"","psychophysics","132","554672","0.0-132.0","5fe3f539dd8cf10e7d545231","64dd6dd9f0fa61a5abd68282","","","","","5142",""," ","key"," ","6.944766216216188","500","250","br","-16","1","1","25","-12","-6","278"
"","psychophysics","133","560305","0.0-133.0","5fe3f539dd8cf10e7d545231","64dd6dd9f0fa61a5abd68282","","","","","5632",""," ","key"," ","6.944751851851793","500","250","br","-21","1","1","-26","5","-1","279"
"","psychophysics","134","564984","0.0-134.0","5fe3f539dd8cf10e7d545231","64dd6dd9f0fa61a5abd68282","","","","","4678",""," ","key"," ","6.944751857355082","500","250","br","-12","1","1","-5","12","11","283"
"","psychophysics","135","568448","0.0-135.0","5fe3f539dd8cf10e7d545231","64dd6dd9f0fa61a5abd68282","","","","","3463",""," ","key"," ","6.944763052208773","500","250","br","-8","1","1","5","-20","12","204"
"","psychophysics","136","571776","0.0-136.0","5fe3f539dd8cf10e7d545231","64dd6dd9f0fa61a5abd68282","","","","","3327",""," ","key"," ","6.9446652719663815","500","250","br","-15","1","1","-11","-20","-13","239"
"","psychophysics","137","576488","0.0-137.0","5fe3f539dd8cf10e7d545231","64dd6dd9f0fa61a5abd68282","","","","","4711",""," ","key"," ","6.944750369276248","500","250","br","-13","1","1","21","-27","30","264"
"","psychophysics","138","579760","0.0-138.0","5fe3f539dd8cf10e7d545231","64dd6dd9f0fa61a5abd68282","","","","","3271",""," ","key"," ","6.944751063829902","500","250","br","-17","1","1","7","-11","9","291"
"","psychophysics","139","580553","0.0-139.0","5fe3f539dd8cf10e7d545231","64dd6dd9f0fa61a5abd68282","","","","","791",""," ","key"," ","6.944105263158123","500","250","inst","","","","","","",""
"","psychophysics","140","584591","0.0-140.0","5fe3f539dd8cf10e7d545231","64dd6dd9f0fa61a5abd68282","","","","","4038",""," ","key"," ","6.944715517241275","500","250","instEB1","78","2","","70","0","0","80"
"","psychophysics","141","587808","0.0-141.0","5fe3f539dd8cf10e7d545231","64dd6dd9f0fa61a5abd68282","","","","","3215",""," ","key"," ","6.944755411255315","500","250","instEB2","81","2","","65","0","0","80"
"","psychophysics","142","592200","0.0-142.0","5fe3f539dd8cf10e7d545231","64dd6dd9f0fa61a5abd68282","","","","","4391",""," ","key"," ","6.944768987341653","500","250","instEB3","77","2","","80","0","0","65"
"","psychophysics","143","596175","0.0-143.0","5fe3f539dd8cf10e7d545231","64dd6dd9f0fa61a5abd68282","","","","","3974",""," ","key"," ","6.94474080560428","500","250","instEB4","71","2","","65","0","0","70"
"","psychophysics","144","597479","0.0-144.0","5fe3f539dd8cf10e7d545231","64dd6dd9f0fa61a5abd68282","","","","","1303",""," ","key"," ","6.944780748663097","500","250","inst","","","","","","",""
"","psychophysics","145","602401","0.0-145.0","5fe3f539dd8cf10e7d545231","64dd6dd9f0fa61a5abd68282","","","","","4920",""," ","key"," ","6.944822033898317","500","250","eb","82","2","1","68","0","0","73"
"","psychophysics","146","604920","0.0-146.0","5fe3f539dd8cf10e7d545231","64dd6dd9f0fa61a5abd68282","","","","","2518",""," ","key"," ","6.944764542936443","500","250","eb","80","2","1","81","0","0","81"
"","psychophysics","147","609984","0.0-147.0","5fe3f539dd8cf10e7d545231","64dd6dd9f0fa61a5abd68282","","","","","5061",""," ","key"," ","6.944751373626347","500","250","eb","81","2","1","63","0","0","87"
"","psychophysics","148","611993","0.0-148.0","5fe3f539dd8cf10e7d545231","64dd6dd9f0fa61a5abd68282","","","","","2007",""," ","key"," ","6.944740484429162","500","250","eb","81","2","1","60","0","0","79"
"","psychophysics","149","613775","0.0-149.0","5fe3f539dd8cf10e7d545231","64dd6dd9f0fa61a5abd68282","","","","","1781",""," ","key"," ","6.9449803921567534","500","250","eb","86","2","1","62","0","0","85"
"","psychophysics","150","616543","0.0-150.0","5fe3f539dd8cf10e7d545231","64dd6dd9f0fa61a5abd68282","","","","","2766",""," ","key"," ","6.9447688442212065","500","250","eb","81","2","1","73","0","0","80"
"","psychophysics","151","618520","0.0-151.0","5fe3f539dd8cf10e7d545231","64dd6dd9f0fa61a5abd68282","","","","","1975",""," ","key"," ","6.945070422535293","500","250","eb","87","2","1","77","0","0","83"
"","psychophysics","152","621288","0.0-152.0","5fe3f539dd8cf10e7d545231","64dd6dd9f0fa61a5abd68282","","","","","2767",""," ","key"," ","6.9448136020151505","500","250","eb","78","2","1","73","0","0","81"
"","psychophysics","153","625815","0.0-153.0","5fe3f539dd8cf10e7d545231","64dd6dd9f0fa61a5abd68282","","","","","4526",""," ","key"," ","6.944754224270404","500","250","eb","78","2","1","61","0","0","66"
"","psychophysics","154","628487","0.0-154.0","5fe3f539dd8cf10e7d545231","64dd6dd9f0fa61a5abd68282","","","","","2670",""," ","key"," ","6.944773437499862","500","250","eb","84","2","1","64","0","0","78"
"","psychophysics","155","631991","0.0-155.0","5fe3f539dd8cf10e7d545231","64dd6dd9f0fa61a5abd68282","","","","","3503",""," ","key"," ","6.94473161033788","500","250","eb","72","2","1","90","0","0","61"
"","psychophysics","156","634399","0.0-156.0","5fe3f539dd8cf10e7d545231","64dd6dd9f0fa61a5abd68282","","","","","2405",""," ","key"," ","6.944664739884538","500","250","eb","88","2","1","68","0","0","87"
"","psychophysics","157","636767","0.0-157.0","5fe3f539dd8cf10e7d545231","64dd6dd9f0fa61a5abd68282","","","","","2366",""," ","key"," ","6.944720588235171","500","250","eb","79","2","1","83","0","0","72"
"","psychophysics","158","639071","0.0-158.0","5fe3f539dd8cf10e7d545231","64dd6dd9f0fa61a5abd68282","","","","","2302",""," ","key"," ","6.944764350453009","500","250","eb","67","2","1","61","0","0","65"
"","psychophysics","159","641919","0.0-159.0","5fe3f539dd8cf10e7d545231","64dd6dd9f0fa61a5abd68282","","","","","2847",""," ","key"," ","6.944753056234671","500","250","eb","87","2","1","89","0","0","87"
"","psychophysics","160","642863","0.0-160.0","5fe3f539dd8cf10e7d545231","64dd6dd9f0fa61a5abd68282","","","","","943",""," ","key"," ","6.944748148148776","500","250","inst","","","","","","",""
"","psychophysics","161","647735","0.0-161.0","5fe3f539dd8cf10e7d545231","64dd6dd9f0fa61a5abd68282","","","","","4871",""," ","key"," ","6.94475714285725","500","250","instZol1","2.7755575615628914e-17","","","-1.3","0","0",""
"","psychophysics","162","655543","0.0-162.0","5fe3f539dd8cf10e7d545231","64dd6dd9f0fa61a5abd68282","","","","","7806",""," ","key"," ","6.944752669039148","500","250","instZol2","0.4000000000000007","1","","2","0","0",""
"","psychophysics","163","656287","0.0-163.0","5fe3f539dd8cf10e7d545231","64dd6dd9f0fa61a5abd68282","","","","","743",""," ","key"," ","6.944801886793322","500","250","inst","","","","","","",""
"","psychophysics","164","660999","0.0-164.0","5fe3f539dd8cf10e7d545231","64dd6dd9f0fa61a5abd68282","","","","","4710",""," ","key"," ","6.944796159527295","500","250","zol","0.8099999999999999","1","1","-0.71","10","-27",""
"","psychophysics","165","664975","0.0-165.0","5fe3f539dd8cf10e7d545231","64dd6dd9f0fa61a5abd68282","","","","","3973",""," ","key"," ","6.9446800699299995","500","250","zol","0.7","1","1","0.4","3","-4",""
"","psychophysics","166","669327","0.0-166.0","5fe3f539dd8cf10e7d545231","64dd6dd9f0fa61a5abd68282","","","","","4350",""," ","key"," ","6.944758400000073","500","250","zol","0.3699999999999999","1","1","0.63","-7","25",""
"","psychophysics","167","670839","0.0-167.0","5fe3f539dd8cf10e7d545231","64dd6dd9f0fa61a5abd68282","","","","","1509",""," ","key"," ","6.944741935483695","500","250","zol","0.47","1","1","-0.37","18","7",""
"","psychophysics","168","674881","0.0-168.0","5fe3f539dd8cf10e7d545231","64dd6dd9f0fa61a5abd68282","","","","","4040",""," ","key"," ","6.944712564543935","500","250","zol","0.52","1","1","-0.32","26","27",""
"","psychophysics","169","680895","0.0-169.0","5fe3f539dd8cf10e7d545231","64dd6dd9f0fa61a5abd68282","","","","","6013",""," ","key"," ","6.944588439306379","500","250","zol","1.4400000000000002","1","1","-0.24","18","6",""
"","psychophysics","170","686879","0.0-170.0","5fe3f539dd8cf10e7d545231","64dd6dd9f0fa61a5abd68282","","","","","5981",""," ","key"," ","6.944744483159171","500","250","zol","1.2500000000000002","1","1","-0.25","-11","-5",""
"","psychophysics","171","690888","0.0-171.0","5fe3f539dd8cf10e7d545231","64dd6dd9f0fa61a5abd68282","","","","","4007",""," ","key"," ","6.944661458333333","500","250","zol","1.03","1","1","0.37","26","13",""
"","psychophysics","172","696536","0.0-172.0","5fe3f539dd8cf10e7d545231","64dd6dd9f0fa61a5abd68282","","","","","5646",""," ","key"," ","6.944720443349769","500","250","zol","0.9899999999999999","1","1","0.21","-5","-21",""
"","psychophysics","173","700031","0.0-173.0","5fe3f539dd8cf10e7d545231","64dd6dd9f0fa61a5abd68282","","","","","3493",""," ","key"," ","6.944799204771481","500","250","zol","1.0699999999999998","1","1","0.23","-2","-8",""
"","psychophysics","174","702735","0.0-174.0","5fe3f539dd8cf10e7d545231","64dd6dd9f0fa61a5abd68282","","","","","2702",""," ","key"," ","6.944811855669952","500","250","zol","1.5900000000000003","1","1","0.01","26","0",""
"","psychophysics","175","707151","0.0-175.0","5fe3f539dd8cf10e7d545231","64dd6dd9f0fa61a5abd68282","","","","","4414",""," ","key"," ","6.944730708661386","500","250","zol","0.58","1","1","-0.18","29","10",""
"","psychophysics","176","709351","0.0-176.0","5fe3f539dd8cf10e7d545231","64dd6dd9f0fa61a5abd68282","","","","","2198",""," ","key"," ","6.944794303797262","500","250","zol","0.71","1","1","0.69","-15","10",""
"","psychophysics","177","711391","0.0-177.0","5fe3f539dd8cf10e7d545231","64dd6dd9f0fa61a5abd68282","","","","","2038",""," ","key"," ","6.944777397260274","500","250","zol","1.6900000000000004","1","1","0.21","27","-2",""
"","psychophysics","178","716632","0.0-178.0","5fe3f539dd8cf10e7d545231","64dd6dd9f0fa61a5abd68282","","","","","5238",""," ","key"," ","6.944783819628761","500","250","zol","1.1300000000000001","1","1","-0.23","-2","29",""
"","psychophysics","179","717415","0.0-179.0","5fe3f539dd8cf10e7d545231","64dd6dd9f0fa61a5abd68282","","","","","782",""," ","key"," ","6.944410714286538","500","250","inst","","","","","","",""
"","psychophysics","180","722391","0.0-180.0","5fe3f539dd8cf10e7d545231","64dd6dd9f0fa61a5abd68282","","","","","4975",""," ","key"," ","6.944735664335711","500","250","instPz1","41","1","","25","","","50"
"","psychophysics","181","726824","0.0-181.0","5fe3f539dd8cf10e7d545231","64dd6dd9f0fa61a5abd68282","","","","","4432",""," ","key"," ","6.944757053291544","500","250","instPz2","25","1","","35","","","20"
"","psychophysics","182","732999","0.0-182.0","5fe3f539dd8cf10e7d545231","64dd6dd9f0fa61a5abd68282","","","","","6173",""," ","key"," ","6.944754504504549","500","250","instPz3","56","1","","100","","","30"
"","psychophysics","183","737591","0.0-183.0","5fe3f539dd8cf10e7d545231","64dd6dd9f0fa61a5abd68282","","","","","4590",""," ","key"," ","6.944722727272716","500","250","instPz4","66","1","","100","","","30"
"","psychophysics","184","738255","0.0-184.0","5fe3f539dd8cf10e7d545231","64dd6dd9f0fa61a5abd68282","","","","","663",""," ","key"," ","6.945105263158238","500","250","inst","","","","","","",""
"","psychophysics","185","741751","0.0-185.0","5fe3f539dd8cf10e7d545231","64dd6dd9f0fa61a5abd68282","","","","","3495",""," ","key"," ","6.944583665338611","500","250","pz","65","1","1","29","","","37"
"","psychophysics","186","744735","0.0-186.0","5fe3f539dd8cf10e7d545231","64dd6dd9f0fa61a5abd68282","","","","","2983",""," ","key"," ","6.944668997668809","500","250","pz","59","1","1","39","","","38"
"","psychophysics","187","746631","0.0-187.0","5fe3f539dd8cf10e7d545231","64dd6dd9f0fa61a5abd68282","","","","","1894",""," ","key"," ","6.9452977941178045","500","250","pz","50","1","1","30","","","36"
"","psychophysics","188","749543","0.0-188.0","5fe3f539dd8cf10e7d545231","64dd6dd9f0fa61a5abd68282","","","","","2911",""," ","key"," ","6.944973684210691","500","250","pz","41","1","1","54","","","22"
"","psychophysics","189","751911","0.0-189.0","5fe3f539dd8cf10e7d545231","64dd6dd9f0fa61a5abd68282","","","","","2366",""," ","key"," ","6.944773529411759","500","250","pz","53","1","1","31","","","35"
"","psychophysics","190","754327","0.0-190.0","5fe3f539dd8cf10e7d545231","64dd6dd9f0fa61a5abd68282","","","","","2415",""," ","key"," ","6.944749279538846","500","250","pz","39","1","1","28","","","33"
"","psychophysics","191","757215","0.0-191.0","5fe3f539dd8cf10e7d545231","64dd6dd9f0fa61a5abd68282","","","","","2887",""," ","key"," ","6.944792771084425","500","250","pz","40","1","1","45","","","24"
"","psychophysics","192","758943","0.0-192.0","5fe3f539dd8cf10e7d545231","64dd6dd9f0fa61a5abd68282","","","","","1727",""," ","key"," ","6.94468421052655","500","250","pz","48","1","1","43","","","41"
"","psychophysics","193","762631","0.0-193.0","5fe3f539dd8cf10e7d545231","64dd6dd9f0fa61a5abd68282","","","","","3686",""," ","key"," ","6.9447740112993035","500","250","pz","67","1","1","47","","","59"
"","psychophysics","194","764999","0.0-194.0","5fe3f539dd8cf10e7d545231","64dd6dd9f0fa61a5abd68282","","","","","2367",""," ","key"," ","6.944823529411737","500","250","pz","49","1","1","44","","","49"
"","psychophysics","195","769615","0.0-195.0","5fe3f539dd8cf10e7d545231","64dd6dd9f0fa61a5abd68282","","","","","4615",""," ","key"," ","6.944713423831029","500","250","pz","71","1","1","37","","","60"
"","psychophysics","196","775703","0.0-196.0","5fe3f539dd8cf10e7d545231","64dd6dd9f0fa61a5abd68282","","","","","6086",""," ","key"," ","6.944759132420154","500","250","pz","43","1","1","59","","","30"
"","psychophysics","197","778352","0.0-197.0","5fe3f539dd8cf10e7d545231","64dd6dd9f0fa61a5abd68282","","","","","2647",""," ","key"," ","6.944781578947349","500","250","pz","50","1","1","23","","","44"
"","psychophysics","198","782696","0.0-198.0","5fe3f539dd8cf10e7d545231","64dd6dd9f0fa61a5abd68282","","","","","4342",""," ","key"," ","6.944712000000104","500","250","pz","37","1","1","57","","","22"
"","psychophysics","199","785103","0.0-199.0","5fe3f539dd8cf10e7d545231","64dd6dd9f0fa61a5abd68282","","","","","2406",""," ","key"," ","6.944744927535995","500","250","pz","60","1","1","40","","","44"
"","psychophysics","200","789032","0.0-200.0","5fe3f539dd8cf10e7d545231","64dd6dd9f0fa61a5abd68282","","","","","3928",""," ","key"," ","6.94476460176994","500","250","inst","","","","","","",""
"","psychophysics","201","794799","0.0-201.0","5fe3f539dd8cf10e7d545231","64dd6dd9f0fa61a5abd68282","","","","","5766",""," ","key"," ","6.94474909529545","500","250","instPog0","160","1","","190","0","0","160"
"","psychophysics","202","798088","0.0-202.0","5fe3f539dd8cf10e7d545231","64dd6dd9f0fa61a5abd68282","","","","","3287",""," ","key"," ","6.944754756870926","500","250","instPog1","172","1","","190","0","0","160"
"","psychophysics","203","801295","0.0-203.0","5fe3f539dd8cf10e7d545231","64dd6dd9f0fa61a5abd68282","","","","","3206",""," ","key"," ","6.944759219088905","500","250","instPog2","178","1","","160","0","0","160"
"","psychophysics","204","802695","0.0-204.0","5fe3f539dd8cf10e7d545231","64dd6dd9f0fa61a5abd68282","","","","","1399",""," ","key"," ","6.944735000000219","500","250","inst","","","","","","",""
"","psychophysics","205","806143","0.0-205.0","5fe3f539dd8cf10e7d545231","64dd6dd9f0fa61a5abd68282","","","","","3446",""," ","key"," ","6.944715725806506","500","250","pog","203","1","1","181","0","0","173"
"","psychophysics","206","808655","0.0-206.0","5fe3f539dd8cf10e7d545231","64dd6dd9f0fa61a5abd68282","","","","","2511",""," ","key"," ","6.944750692520918","500","250","pog","175","1","1","183","0","0","154"
"","psychophysics","207","812199","0.0-207.0","5fe3f539dd8cf10e7d545231","64dd6dd9f0fa61a5abd68282","","","","","3543",""," ","key"," ","6.944768172887992","500","250","pog","153","1","1","137","0","0","137"
"","psychophysics","208","816463","0.0-208.0","5fe3f539dd8cf10e7d545231","64dd6dd9f0fa61a5abd68282","","","","","4263",""," ","key"," ","6.944738988580751","500","250","pog","161","1","1","137","0","0","139"
"","psychophysics","209","821927","0.0-209.0","5fe3f539dd8cf10e7d545231","64dd6dd9f0fa61a5abd68282","","","","","5463",""," ","key"," ","6.944774809160297","500","250","pog","195","1","1","155","0","0","182"
"","psychophysics","210","824335","0.0-210.0","5fe3f539dd8cf10e7d545231","64dd6dd9f0fa61a5abd68282","","","","","2406",""," ","key"," ","6.944678260869535","500","250","pog","196","1","1","196","0","0","191"
"","psychophysics","211","826271","0.0-211.0","5fe3f539dd8cf10e7d545231","64dd6dd9f0fa61a5abd68282","","","","","1934",""," ","key"," ","6.9447517985609535","500","250","pog","172","1","1","170","0","0","139"
"","psychophysics","212","833999","0.0-212.0","5fe3f539dd8cf10e7d545231","64dd6dd9f0fa61a5abd68282","","","","","7727",""," ","key"," ","6.944791366906482","500","250","pog","186","1","1","100","0","0","164"
"","psychophysics","213","839072","0.0-213.0","5fe3f539dd8cf10e7d545231","64dd6dd9f0fa61a5abd68282","","","","","5071",""," ","key"," ","6.944757201646095","500","250","pog","171","1","1","191","0","0","143"
"","psychophysics","214","842096","0.0-214.0","5fe3f539dd8cf10e7d545231","64dd6dd9f0fa61a5abd68282","","","","","3023",""," ","key"," ","6.944758620689591","500","250","pog","202","1","1","192","0","0","175"
"","psychophysics","215","848376","0.0-215.0","5fe3f539dd8cf10e7d545231","64dd6dd9f0fa61a5abd68282","","","","","6279",""," ","key"," ","6.944781838316632","500","250","pog","159","1","1","105","0","0","142"
"","psychophysics","216","852336","0.0-216.0","5fe3f539dd8cf10e7d545231","64dd6dd9f0fa61a5abd68282","","","","","3959",""," ","key"," ","6.9446783831282906","500","250","pog","190","1","1","106","0","0","170"
"","psychophysics","217","859008","0.0-217.0","5fe3f539dd8cf10e7d545231","64dd6dd9f0fa61a5abd68282","","","","","6670",""," ","key"," ","6.944811458333303","500","250","pog","206","1","1","112","0","0","192"
"","psychophysics","218","862712","0.0-218.0","5fe3f539dd8cf10e7d545231","64dd6dd9f0fa61a5abd68282","","","","","3703",""," ","key"," ","6.944693609022647","500","250","pog","192","1","1","140","0","0","178"
"","psychophysics","219","865768","0.0-219.0","5fe3f539dd8cf10e7d545231","64dd6dd9f0fa61a5abd68282","","","","","3055",""," ","key"," ","6.94469476082009","500","250","pog","208","1","1","184","0","0","188"
