"success","trial_type","trial_index","time_elapsed","internal_node_id","pid","sid","timeout","failed_images","failed_audio","failed_video","rt","stimulus","response","response_type","key_press","avg_frame_time","center_x","center_y","task","resp","version","block","jitterX","jitterY","start","parA"
"true","fullscreen","0","3105","0.0-0.0","6440152a313156f527ef2bd5","64dd6e026369cdd0386f739b","","","","","","","","","","","","","","","","","","","",""
"true","preload","1","3175","0.0-1.0","6440152a313156f527ef2bd5","64dd6e026369cdd0386f739b","false","[]","[]","[]","","","","","","","","","","","","","","","",""
"","html-button-response","2","10887","0.0-2.0","6440152a313156f527ef2bd5","64dd6e026369cdd0386f739b","","","","","7711","Please Make Sure Your Audio Is On.","0","","","","","","","","","","","","",""
"","psychophysics","3","30730","0.0-3.0","6440152a313156f527ef2bd5","64dd6e026369cdd0386f739b","","","","","19834",""," ","key"," ","16.66640504201681","840","250","","","","","","","",""
"","psychophysics","4","33768","0.0-4.0","6440152a313156f527ef2bd5","64dd6e026369cdd0386f739b","","","","","3037",""," ","key"," ","16.665999999999997","500","250","inst","","","","","","",""
"","psychophysics","5","39968","0.0-5.0","6440152a313156f527ef2bd5","64dd6e026369cdd0386f739b","","","","","6197",""," ","key"," ","16.666000000000007","500","250","sample0","","","","","","",""
"","psychophysics","6","42414","0.0-6.0","6440152a313156f527ef2bd5","64dd6e026369cdd0386f739b","","","","","2445",""," ","key"," ","16.66767808219178","500","250","sample1","","","","","","",""
"","psychophysics","7","60654","0.0-7.0","6440152a313156f527ef2bd5","64dd6e026369cdd0386f739b","","","","","18238",""," ","key"," ","16.681700549450543","500","250","sample2","100","","","","","",""
"","psychophysics","8","67925","0.0-8.0","6440152a313156f527ef2bd5","64dd6e026369cdd0386f739b","","","","","7264",""," ","key"," ","16.665999999999997","500","250","sample3","100","","","","","",""
"","psychophysics","9","75708","0.0-9.0","6440152a313156f527ef2bd5","64dd6e026369cdd0386f739b","","","","","7790",""," ","key"," ","16.66685438972163","500","250","sample4","102","","","","","",""
"","psychophysics","10","79680","0.0-10.0","6440152a313156f527ef2bd5","64dd6e026369cdd0386f739b","","","","","3973",""," ","key"," ","16.666000000000018","500","250","sample5","","","","","","",""
"","psychophysics","11","92254","0.0-11.0","6440152a313156f527ef2bd5","64dd6e026369cdd0386f739b","","","","","12578",""," ","key"," ","16.666477453580907","500","250","sample6","502","","","","","",""
"","psychophysics","12","97286","0.0-12.0","6440152a313156f527ef2bd5","64dd6e026369cdd0386f739b","","","","","5032",""," ","key"," ","16.666","500","250","inst","","","","","","",""
"","psychophysics","13","103278","0.0-13.0","6440152a313156f527ef2bd5","64dd6e026369cdd0386f739b","","","","","5992",""," ","key"," ","16.66701671309193","500","250","inst","","","","","","",""
"","psychophysics","14","107795","0.0-14.0","6440152a313156f527ef2bd5","64dd6e026369cdd0386f739b","","","","","4516",""," ","key"," ","16.666000000000025","500","250","inst","","","","","","",""
"","psychophysics","15","109377","0.0-15.0","6440152a313156f527ef2bd5","64dd6e026369cdd0386f739b","","","","","1581",""," ","key"," ","16.665999999999915","500","250","inst","","","","","","",""
"","psychophysics","16","111230","0.0-16.0","6440152a313156f527ef2bd5","64dd6e026369cdd0386f739b","","","","","1852",""," ","key"," ","16.666736363636367","500","250","inst","","","","","","",""
"","psychophysics","17","114808","0.0-17.0","6440152a313156f527ef2bd5","64dd6e026369cdd0386f739b","","","","","3576",""," ","key"," ","16.665999999999954","500","250","instZol0","0","","","0","0","0",""
"","psychophysics","18","122409","0.0-18.0","6440152a313156f527ef2bd5","64dd6e026369cdd0386f739b","","","","","7601",""," ","key"," ","16.666885714285723","500","250","instZol1","-0.09999999999999998","","","0","0","-1.3",""
"","psychophysics","19","137462","0.0-19.0","6440152a313156f527ef2bd5","64dd6e026369cdd0386f739b","","","","","15051",""," ","key"," ","16.66626496674058","500","250","instZol2","-1.9","2","","0","0","2",""
"","psychophysics","20","139609","0.0-20.0","6440152a313156f527ef2bd5","64dd6e026369cdd0386f739b","","","","","2146",""," ","key"," ","16.66599999999994","500","250","inst","","","","","","",""
"","psychophysics","21","144096","0.0-21.0","6440152a313156f527ef2bd5","64dd6e026369cdd0386f739b","","","","","4482",""," ","key"," ","16.666302238806036","500","250","zol","-1.4100000000000004","2","0","4","-29","0.41",""
"","psychophysics","22","148975","0.0-22.0","6440152a313156f527ef2bd5","64dd6e026369cdd0386f739b","","","","","4876",""," ","key"," ","16.66600000000003","500","250","zol","-1.17","2","0","-25","-23","0.27",""
"","psychophysics","23","153350","0.0-23.0","6440152a313156f527ef2bd5","64dd6e026369cdd0386f739b","","","","","4373",""," ","key"," ","16.666919540229852","500","250","zol","-1.3300000000000003","2","0","-15","22","0.03",""
"","psychophysics","24","159520","0.0-24.0","6440152a313156f527ef2bd5","64dd6e026369cdd0386f739b","","","","","6167",""," ","key"," ","16.666000000000043","500","250","zol","-0.9299999999999999","2","0","20","-4","-0.37",""
"","psychophysics","25","164609","0.0-25.0","6440152a313156f527ef2bd5","64dd6e026369cdd0386f739b","","","","","5085",""," ","key"," ","16.666891803278695","500","250","zol","-0.9099999999999999","2","0","-20","-3","-0.29",""
"","psychophysics","26","169808","0.0-26.0","6440152a313156f527ef2bd5","64dd6e026369cdd0386f739b","","","","","5196",""," ","key"," ","16.665999999999965","500","250","zol","-1.4700000000000002","2","0","27","-13","-0.73",""
"","psychophysics","27","174602","0.0-27.0","6440152a313156f527ef2bd5","64dd6e026369cdd0386f739b","","","","","4791",""," ","key"," ","16.666734265734323","500","250","zol","-1.4700000000000002","2","0","-1","27","-0.33",""
"","psychophysics","28","180549","0.0-28.0","6440152a313156f527ef2bd5","64dd6e026369cdd0386f739b","","","","","5943",""," ","key"," ","16.665999999999972","500","250","zol","-1.5200000000000005","2","0","-23","8","0.22",""
"","psychophysics","29","188554","0.0-29.0","6440152a313156f527ef2bd5","64dd6e026369cdd0386f739b","","","","","null","","null","key","null","16.666509394572028","500","250","zol","-1.4","2","0","-7","-17","0.7",""
"","psychophysics","30","192550","0.0-30.0","6440152a313156f527ef2bd5","64dd6e026369cdd0386f739b","","","","","3987",""," ","key"," ","16.667087866108822","500","250","zol","-1.6400000000000006","2","0","29","-8","0.64",""
"","psychophysics","31","197232","0.0-31.0","6440152a313156f527ef2bd5","64dd6e026369cdd0386f739b","","","","","4678",""," ","key"," ","16.666000000000036","500","250","zol","-1.3200000000000003","2","0","-6","-26","0.62",""
"","psychophysics","32","201650","0.0-32.0","6440152a313156f527ef2bd5","64dd6e026369cdd0386f739b","","","","","4415",""," ","key"," ","16.666973484848395","500","250","zol","-1.2100000000000002","2","0","0","20","-0.19",""
"","psychophysics","33","205947","0.0-33.0","6440152a313156f527ef2bd5","64dd6e026369cdd0386f739b","","","","","4294",""," ","key"," ","16.666000000000043","500","250","zol","-1.4100000000000004","2","0","-23","-12","0.21",""
"","psychophysics","34","212389","0.0-34.0","6440152a313156f527ef2bd5","64dd6e026369cdd0386f739b","","","","","6439",""," ","key"," ","16.666603626943026","500","250","zol","-1.4900000000000002","2","0","23","-25","-0.21",""
"","psychophysics","35","217458","0.0-35.0","6440152a313156f527ef2bd5","64dd6e026369cdd0386f739b","","","","","5066",""," ","key"," ","16.666000000000032","500","250","zol","-1.4900000000000002","2","0","8","16","-0.31",""
"","psychophysics","36","218991","0.0-36.0","6440152a313156f527ef2bd5","64dd6e026369cdd0386f739b","","","","","1532",""," ","key"," ","16.665999999999997","500","250","inst","","","","","","",""
"","psychophysics","37","221339","0.0-37.0","6440152a313156f527ef2bd5","64dd6e026369cdd0386f739b","","","","","2340",""," ","key"," ","16.667785714285646","500","250","instBr0","0","","","0","0","0","300"
"","psychophysics","38","228158","0.0-38.0","6440152a313156f527ef2bd5","64dd6e026369cdd0386f739b","","","","","6817",""," ","key"," ","16.666000000000007","500","250","instBr1","1","","","0","0","-40","300"
"","psychophysics","39","235983","0.0-39.0","6440152a313156f527ef2bd5","64dd6e026369cdd0386f739b","","","","","7824",""," ","key"," ","16.666514957264965","500","250","instBr3","24","2","","0","0","40","300"
"","psychophysics","40","237341","0.0-40.0","6440152a313156f527ef2bd5","64dd6e026369cdd0386f739b","","","","","1356",""," ","key"," ","16.665999999999954","500","250","inst","","","","","","",""
"","psychophysics","41","241238","0.0-41.0","6440152a313156f527ef2bd5","64dd6e026369cdd0386f739b","","","","","3895",""," ","key"," ","16.667038626609497","500","250","br","19","2","0","-21","20","21","208"
"","psychophysics","42","246293","0.0-42.0","6440152a313156f527ef2bd5","64dd6e026369cdd0386f739b","","","","","5054",""," ","key"," ","16.66600000000004","500","250","br","14","2","0","9","13","-4","223"
"","psychophysics","43","252135","0.0-43.0","6440152a313156f527ef2bd5","64dd6e026369cdd0386f739b","","","","","5840",""," ","key"," ","16.667080229226325","500","250","br","19","2","0","26","27","-9","279"
"","psychophysics","44","255490","0.0-44.0","6440152a313156f527ef2bd5","64dd6e026369cdd0386f739b","","","","","3354",""," ","key"," ","16.666000000000047","500","250","br","17","2","0","28","15","6","225"
"","psychophysics","45","263090","0.0-45.0","6440152a313156f527ef2bd5","64dd6e026369cdd0386f739b","","","","","7598",""," ","key"," ","16.666520879120863","500","250","br","14","2","0","16","5","-24","220"
"","psychophysics","46","264375","0.0-46.0","6440152a313156f527ef2bd5","64dd6e026369cdd0386f739b","","","","","1282",""," ","key"," ","16.665999999999737","500","250","br","22","2","0","6","-27","22","258"
"","psychophysics","47","269607","0.0-47.0","6440152a313156f527ef2bd5","64dd6e026369cdd0386f739b","","","","","5231",""," ","key"," ","16.66599999999995","500","250","br","18","2","0","-7","5","-7","224"
"","psychophysics","48","274819","0.0-48.0","6440152a313156f527ef2bd5","64dd6e026369cdd0386f739b","","","","","5210",""," ","key"," ","16.666774919614237","500","250","br","18","2","0","-18","-7","3","206"
"","psychophysics","49","280008","0.0-49.0","6440152a313156f527ef2bd5","64dd6e026369cdd0386f739b","","","","","5186",""," ","key"," ","16.666000000000153","500","250","br","15","2","0","26","27","-5","267"
"","psychophysics","50","283268","0.0-50.0","6440152a313156f527ef2bd5","64dd6e026369cdd0386f739b","","","","","3258",""," ","key"," ","16.667247422680393","500","250","br","18","2","0","-1","-5","6","258"
"","psychophysics","51","289390","0.0-51.0","6440152a313156f527ef2bd5","64dd6e026369cdd0386f739b","","","","","6119",""," ","key"," ","16.665999999999897","500","250","br","21","2","0","-9","11","-1","243"
"","psychophysics","52","292905","0.0-52.0","6440152a313156f527ef2bd5","64dd6e026369cdd0386f739b","","","","","3513",""," ","key"," ","16.667109523809494","500","250","br","17","2","0","-15","-6","0","234"
"","psychophysics","53","297576","0.0-53.0","6440152a313156f527ef2bd5","64dd6e026369cdd0386f739b","","","","","4669",""," ","key"," ","16.665999999999837","500","250","br","22","2","0","28","27","1","253"
"","psychophysics","54","300119","0.0-54.0","6440152a313156f527ef2bd5","64dd6e026369cdd0386f739b","","","","","2542",""," ","key"," ","16.665999999999944","500","250","br","25","2","0","25","-4","30","247"
"","psychophysics","55","306060","0.0-55.0","6440152a313156f527ef2bd5","64dd6e026369cdd0386f739b","","","","","5939",""," ","key"," ","16.66633426966283","500","250","br","17","2","0","-2","-5","-21","279"
"","psychophysics","56","306678","0.0-56.0","6440152a313156f527ef2bd5","64dd6e026369cdd0386f739b","","","","","616",""," ","key"," ","16.665999999999055","500","250","inst","","","","","","",""
"","psychophysics","57","320123","0.0-57.0","6440152a313156f527ef2bd5","64dd6e026369cdd0386f739b","","","","","13443",""," ","key"," ","16.666269230769203","500","250","instPog0","340","2","","0","0","370","340"
"","psychophysics","58","331245","0.0-58.0","6440152a313156f527ef2bd5","64dd6e026369cdd0386f739b","","","","","11121",""," ","key"," ","16.66650150150152","500","250","instPog1","334","2","","0","0","370","340"
"","psychophysics","59","338946","0.0-59.0","6440152a313156f527ef2bd5","64dd6e026369cdd0386f739b","","","","","7699",""," ","key"," ","16.666674620390456","500","250","instPog2","336","2","","0","0","340","340"
"","psychophysics","60","339934","0.0-60.0","6440152a313156f527ef2bd5","64dd6e026369cdd0386f739b","","","","","987",""," ","key"," ","16.665999999999446","500","250","inst","","","","","","",""
"","psychophysics","61","347454","0.0-61.0","6440152a313156f527ef2bd5","64dd6e026369cdd0386f739b","","","","","7518",""," ","key"," ","16.666503325942337","500","250","pog","329","2","0","0","0","289","344"
"","psychophysics","62","353996","0.0-62.0","6440152a313156f527ef2bd5","64dd6e026369cdd0386f739b","","","","","6540",""," ","key"," ","16.66632736572901","500","250","pog","330","2","0","0","0","354","346"
"","psychophysics","63","362001","0.0-63.0","6440152a313156f527ef2bd5","64dd6e026369cdd0386f739b","","","","","null","","null","key","null","16.666511482254737","500","250","pog","339","2","0","0","0","281","359"
"","psychophysics","64","362149","0.0-64.0","6440152a313156f527ef2bd5","64dd6e026369cdd0386f739b","","","","","145",""," ","key"," ","16.666000000004715","500","250","pog","291","2","0","0","0","291","344"
"","psychophysics","65","365028","0.0-65.0","6440152a313156f527ef2bd5","64dd6e026369cdd0386f739b","","","","","2878",""," ","key"," ","16.666000000000146","500","250","pog","330","2","0","0","0","316","354"
"","psychophysics","66","372018","0.0-66.0","6440152a313156f527ef2bd5","64dd6e026369cdd0386f739b","","","","","6988",""," ","key"," ","16.66653588516752","500","250","pog","302","2","0","0","0","340","322"
"","psychophysics","67","375326","0.0-67.0","6440152a313156f527ef2bd5","64dd6e026369cdd0386f739b","","","","","3307",""," ","key"," ","16.66599999999979","500","250","pog","334","2","0","0","0","316","349"
"","psychophysics","68","383330","0.0-68.0","6440152a313156f527ef2bd5","64dd6e026369cdd0386f739b","","","","","null","","null","key","null","16.666473903966555","500","250","pog","295","2","0","0","0","377","332"
"","psychophysics","69","385714","0.0-69.0","6440152a313156f527ef2bd5","64dd6e026369cdd0386f739b","","","","","2382",""," ","key"," ","16.665999999999897","500","250","pog","318","2","0","0","0","312","349"
"","psychophysics","70","391791","0.0-70.0","6440152a313156f527ef2bd5","64dd6e026369cdd0386f739b","","","","","6076",""," ","key"," ","16.666667582417467","500","250","pog","311","2","0","0","0","363","348"
"","psychophysics","71","397951","0.0-71.0","6440152a313156f527ef2bd5","64dd6e026369cdd0386f739b","","","","","6158",""," ","key"," ","16.66599999999997","500","250","pog","334","2","0","0","0","292","364"
"","psychophysics","72","398922","0.0-72.0","6440152a313156f527ef2bd5","64dd6e026369cdd0386f739b","","","","","969",""," ","key"," ","16.665999999999446","500","250","pog","311","2","0","0","0","311","313"
"","psychophysics","73","406663","0.0-73.0","6440152a313156f527ef2bd5","64dd6e026369cdd0386f739b","","","","","7739",""," ","key"," ","16.666520518358503","500","250","pog","316","2","0","0","0","384","331"
"","psychophysics","74","412216","0.0-74.0","6440152a313156f527ef2bd5","64dd6e026369cdd0386f739b","","","","","5552",""," ","key"," ","16.666725903614466","500","250","pog","298","2","0","0","0","368","308"
"","psychophysics","75","416872","0.0-75.0","6440152a313156f527ef2bd5","64dd6e026369cdd0386f739b","","","","","4653",""," ","key"," ","16.666000000000047","500","250","pog","318","2","0","0","0","370","341"
"","psychophysics","76","417486","0.0-76.0","6440152a313156f527ef2bd5","64dd6e026369cdd0386f739b","","","","","613",""," ","key"," ","16.666000000000672","500","250","inst","","","","","","",""
"","psychophysics","77","419767","0.0-77.0","6440152a313156f527ef2bd5","64dd6e026369cdd0386f739b","","","","","2279",""," ","key"," ","16.666000000000242","500","250","instPzPre","50","0","","","","50","50"
"","psychophysics","78","427863","0.0-78.0","6440152a313156f527ef2bd5","64dd6e026369cdd0386f739b","","","","","8082",""," ","key"," ","16.666828865979404","500","250","instPz0","50","1","","","","50","50"
"","psychophysics","79","434445","0.0-79.0","6440152a313156f527ef2bd5","64dd6e026369cdd0386f739b","","","","","6581",""," ","key"," ","16.666337563451656","500","250","instPz1","54","1","","","","25","50"
"","psychophysics","80","443815","0.0-80.0","6440152a313156f527ef2bd5","64dd6e026369cdd0386f739b","","","","","9368",""," ","key"," ","16.66639928698748","500","250","instPz2","19","1","","","","35","20"
"","psychophysics","81","453220","0.0-81.0","6440152a313156f527ef2bd5","64dd6e026369cdd0386f739b","","","","","9402",""," ","key"," ","16.66665425531918","500","250","instPz3","100","1","","","","100","30"
"","psychophysics","82","456036","0.0-82.0","6440152a313156f527ef2bd5","64dd6e026369cdd0386f739b","","","","","2815",""," ","key"," ","16.66600000000021","500","250","instPz4","100","1","","","","100","30"
"","psychophysics","83","456750","0.0-83.0","6440152a313156f527ef2bd5","64dd6e026369cdd0386f739b","","","","","712",""," ","key"," ","16.665999999999567","500","250","inst","","","","","","",""
"","psychophysics","84","458727","0.0-84.0","6440152a313156f527ef2bd5","64dd6e026369cdd0386f739b","","","","","1968",""," ","key"," ","16.665999999999904","500","250","pz","57","1","0","","","57","28"
"","psychophysics","85","466730","0.0-85.0","6440152a313156f527ef2bd5","64dd6e026369cdd0386f739b","","","","","null","","null","key","null","16.66653027139871","500","250","pz","95","1","0","","","21","29"
"","psychophysics","86","474182","0.0-86.0","6440152a313156f527ef2bd5","64dd6e026369cdd0386f739b","","","","","7450",""," ","key"," ","16.666150224215254","500","250","pz","101","1","0","","","38","53"
"","psychophysics","87","476423","0.0-87.0","6440152a313156f527ef2bd5","64dd6e026369cdd0386f739b","","","","","2238",""," ","key"," ","16.666000000000047","500","250","pz","59","1","0","","","46","30"
"","psychophysics","88","480919","0.0-88.0","6440152a313156f527ef2bd5","64dd6e026369cdd0386f739b","","","","","4495",""," ","key"," ","16.665999999999926","500","250","pz","94","1","0","","","56","48"
"","psychophysics","89","482146","0.0-89.0","6440152a313156f527ef2bd5","64dd6e026369cdd0386f739b","","","","","1224",""," ","key"," ","16.671652777777734","500","250","pz","45","1","0","","","44","24"
"","psychophysics","90","486664","0.0-90.0","6440152a313156f527ef2bd5","64dd6e026369cdd0386f739b","","","","","4516",""," ","key"," ","16.666000000000025","500","250","pz","79","1","0","","","38","55"
"","psychophysics","91","492721","0.0-91.0","6440152a313156f527ef2bd5","64dd6e026369cdd0386f739b","","","","","6055",""," ","key"," ","16.666303030303077","500","250","pz","84","1","0","","","28","49"
"","psychophysics","92","499110","0.0-92.0","6440152a313156f527ef2bd5","64dd6e026369cdd0386f739b","","","","","6387",""," ","key"," ","16.66600000000003","500","250","pz","95","1","0","","","34","48"
"","psychophysics","93","500504","0.0-93.0","6440152a313156f527ef2bd5","64dd6e026369cdd0386f739b","","","","","1392",""," ","key"," ","16.665999999999894","500","250","pz","37","1","0","","","36","22"
"","psychophysics","94","503338","0.0-94.0","6440152a313156f527ef2bd5","64dd6e026369cdd0386f739b","","","","","2832",""," ","key"," ","16.667248520710142","500","250","pz","33","1","0","","","42","20"
"","psychophysics","95","506971","0.0-95.0","6440152a313156f527ef2bd5","64dd6e026369cdd0386f739b","","","","","3631",""," ","key"," ","16.665999999999986","500","250","pz","49","1","0","","","28","32"
"","psychophysics","96","513666","0.0-96.0","6440152a313156f527ef2bd5","64dd6e026369cdd0386f739b","","","","","6694",""," ","key"," ","16.666607499999955","500","250","pz","115","1","0","","","50","41"
"","psychophysics","97","516707","0.0-97.0","6440152a313156f527ef2bd5","64dd6e026369cdd0386f739b","","","","","3037",""," ","key"," ","16.665999999999997","500","250","pz","55","1","0","","","36","26"
"","psychophysics","98","517445","0.0-98.0","6440152a313156f527ef2bd5","64dd6e026369cdd0386f739b","","","","","737",""," ","key"," ","16.66599999999947","500","250","pz","48","1","0","","","48","26"
"","psychophysics","99","518281","0.0-99.0","6440152a313156f527ef2bd5","64dd6e026369cdd0386f739b","","","","","834",""," ","key"," ","16.66600000000041","500","250","inst","","","","","","",""
"","psychophysics","100","520305","0.0-100.0","6440152a313156f527ef2bd5","64dd6e026369cdd0386f739b","","","","","2023",""," ","key"," ","16.666000000000086","500","250","instEB0","75","2","","0","0","75","75"
"","psychophysics","101","522579","0.0-101.0","6440152a313156f527ef2bd5","64dd6e026369cdd0386f739b","","","","","2272",""," ","key"," ","16.667799999999936","500","250","instEB1","70","2","","0","0","70","80"
"","psychophysics","102","529559","0.0-102.0","6440152a313156f527ef2bd5","64dd6e026369cdd0386f739b","","","","","6978",""," ","key"," ","16.666000000000086","500","250","instEB2","86","2","","0","0","65","80"
"","psychophysics","103","539739","0.0-103.0","6440152a313156f527ef2bd5","64dd6e026369cdd0386f739b","","","","","10179",""," ","key"," ","16.66639999999993","500","250","instEB3","67","2","","0","0","80","65"
"","psychophysics","104","545332","0.0-104.0","6440152a313156f527ef2bd5","64dd6e026369cdd0386f739b","","","","","5591",""," ","key"," ","16.66671257485004","500","250","instEB4","69","2","","0","0","65","70"
"","psychophysics","105","546487","0.0-105.0","6440152a313156f527ef2bd5","64dd6e026369cdd0386f739b","","","","","1153",""," ","key"," ","16.66600000000039","500","250","inst","","","","","","",""
"","psychophysics","106","552194","0.0-106.0","6440152a313156f527ef2bd5","64dd6e026369cdd0386f739b","","","","","5705",""," ","key"," ","16.666715542521924","500","250","eb","86","2","0","0","0","70","87"
"","psychophysics","107","553979","0.0-107.0","6440152a313156f527ef2bd5","64dd6e026369cdd0386f739b","","","","","1782",""," ","key"," ","16.666000000000185","500","250","eb","68","2","0","0","0","68","62"
"","psychophysics","108","557421","0.0-108.0","6440152a313156f527ef2bd5","64dd6e026369cdd0386f739b","","","","","3441",""," ","key"," ","16.665999999999983","500","250","eb","82","2","0","0","0","76","86"
"","psychophysics","109","561422","0.0-109.0","6440152a313156f527ef2bd5","64dd6e026369cdd0386f739b","","","","","3998",""," ","key"," ","16.665999999999997","500","250","eb","72","2","0","0","0","63","70"
"","psychophysics","110","564211","0.0-110.0","6440152a313156f527ef2bd5","64dd6e026369cdd0386f739b","","","","","2782",""," ","key"," ","16.668373493975622","500","250","eb","78","2","0","0","0","70","86"
"","psychophysics","111","566116","0.0-111.0","6440152a313156f527ef2bd5","64dd6e026369cdd0386f739b","","","","","1903",""," ","key"," ","16.66599999999924","500","250","eb","77","2","0","0","0","79","78"
"","psychophysics","112","568515","0.0-112.0","6440152a313156f527ef2bd5","64dd6e026369cdd0386f739b","","","","","2395",""," ","key"," ","16.666000000000086","500","250","eb","82","2","0","0","0","87","71"
"","psychophysics","113","571888","0.0-113.0","6440152a313156f527ef2bd5","64dd6e026369cdd0386f739b","","","","","3369",""," ","key"," ","16.666000000000032","500","250","eb","74","2","0","0","0","66","76"
"","psychophysics","114","575592","0.0-114.0","6440152a313156f527ef2bd5","64dd6e026369cdd0386f739b","","","","","3702",""," ","key"," ","16.667149321266717","500","250","eb","80","2","0","0","0","60","79"
"","psychophysics","115","577521","0.0-115.0","6440152a313156f527ef2bd5","64dd6e026369cdd0386f739b","","","","","1927",""," ","key"," ","16.665999999999716","500","250","eb","77","2","0","0","0","79","80"
"","psychophysics","116","582008","0.0-116.0","6440152a313156f527ef2bd5","64dd6e026369cdd0386f739b","","","","","4486",""," ","key"," ","16.666000000000047","500","250","eb","70","2","0","0","0","89","66"
"","psychophysics","117","584748","0.0-117.0","6440152a313156f527ef2bd5","64dd6e026369cdd0386f739b","","","","","2737",""," ","key"," ","16.667478527607358","500","250","eb","86","2","0","0","0","74","87"
"","psychophysics","118","588779","0.0-118.0","6440152a313156f527ef2bd5","64dd6e026369cdd0386f739b","","","","","4027",""," ","key"," ","16.665999999999734","500","250","eb","63","2","0","0","0","68","60"
"","psychophysics","119","591220","0.0-119.0","6440152a313156f527ef2bd5","64dd6e026369cdd0386f739b","","","","","2439",""," ","key"," ","16.665999999999432","500","250","eb","79","2","0","0","0","85","75"
"","psychophysics","120","593158","0.0-120.0","6440152a313156f527ef2bd5","64dd6e026369cdd0386f739b","","","","","1936",""," ","key"," ","16.66813913043386","500","250","eb","71","2","0","0","0","74","69"
"","psychophysics","121","593853","0.0-121.0","6440152a313156f527ef2bd5","64dd6e026369cdd0386f739b","","","","","694",""," ","key"," ","16.665999999999567","500","250","inst","","","","","","",""
"","psychophysics","122","597209","0.0-122.0","6440152a313156f527ef2bd5","64dd6e026369cdd0386f739b","","","","","3354",""," ","key"," ","16.66600000000035","500","250","instPz1","27","2","","","","25","50"
"","psychophysics","123","598772","0.0-123.0","6440152a313156f527ef2bd5","64dd6e026369cdd0386f739b","","","","","1561",""," ","key"," ","16.66599999999963","500","250","instPz2","20","2","","","","20","35"
"","psychophysics","124","601262","0.0-124.0","6440152a313156f527ef2bd5","64dd6e026369cdd0386f739b","","","","","2488",""," ","key"," ","16.666000000000587","500","250","instPz3","30","2","","","","30","100"
"","psychophysics","125","602420","0.0-125.0","6440152a313156f527ef2bd5","64dd6e026369cdd0386f739b","","","","","1156",""," ","key"," ","16.669507246376757","500","250","instPz4","30","2","","","","30","100"
"","psychophysics","126","604248","0.0-126.0","6440152a313156f527ef2bd5","64dd6e026369cdd0386f739b","","","","","1822",""," ","key"," ","16.666000000000672","500","250","inst","","","","","","",""
"","psychophysics","127","607843","0.0-127.0","6440152a313156f527ef2bd5","64dd6e026369cdd0386f739b","","","","","3591",""," ","key"," ","16.66599999999974","500","250","pz","38","2","1","","","32","43"
"","psychophysics","128","611261","0.0-128.0","6440152a313156f527ef2bd5","64dd6e026369cdd0386f739b","","","","","3416",""," ","key"," ","16.665999999999723","500","250","pz","41","2","1","","","32","49"
"","psychophysics","129","613777","0.0-129.0","6440152a313156f527ef2bd5","64dd6e026369cdd0386f739b","","","","","2514",""," ","key"," ","16.666540000000193","500","250","pz","21","2","1","","","28","21"
"","psychophysics","130","616941","0.0-130.0","6440152a313156f527ef2bd5","64dd6e026369cdd0386f739b","","","","","3162",""," ","key"," ","16.666000000000366","500","250","pz","33","2","1","","","23","53"
"","psychophysics","131","619555","0.0-131.0","6440152a313156f527ef2bd5","64dd6e026369cdd0386f739b","","","","","2612",""," ","key"," ","16.666000000000423","500","250","pz","38","2","1","","","45","44"
"","psychophysics","132","621328","0.0-132.0","6440152a313156f527ef2bd5","64dd6e026369cdd0386f739b","","","","","1770",""," ","key"," ","16.66599999999938","500","250","pz","33","2","1","","","35","47"
"","psychophysics","133","624962","0.0-133.0","6440152a313156f527ef2bd5","64dd6e026369cdd0386f739b","","","","","3626",""," ","key"," ","16.66794009216576","500","250","pz","35","2","1","","","28","54"
"","psychophysics","134","627813","0.0-134.0","6440152a313156f527ef2bd5","64dd6e026369cdd0386f739b","","","","","2849",""," ","key"," ","16.665999999999837","500","250","pz","41","2","1","","","47","58"
"","psychophysics","135","631198","0.0-135.0","6440152a313156f527ef2bd5","64dd6e026369cdd0386f739b","","","","","3383",""," ","key"," ","16.666000000000032","500","250","pz","30","2","1","","","24","47"
"","psychophysics","136","637344","0.0-136.0","6440152a313156f527ef2bd5","64dd6e026369cdd0386f739b","","","","","6142",""," ","key"," ","16.666595108695734","500","250","pz","23","2","1","","","55","28"
"","psychophysics","137","644034","0.0-137.0","6440152a313156f527ef2bd5","64dd6e026369cdd0386f739b","","","","","6688",""," ","key"," ","16.666299251870292","500","250","pz","31","2","1","","","55","44"
"","psychophysics","138","652044","0.0-138.0","6440152a313156f527ef2bd5","64dd6e026369cdd0386f739b","","","","","null","","null","key","null","16.666000000000174","500","250","pz","17","2","1","","","52","21"
"","psychophysics","139","652169","0.0-139.0","6440152a313156f527ef2bd5","64dd6e026369cdd0386f739b","","","","","123",""," ","key"," ","16.666000000001596","500","250","pz","41","2","1","","","41","23"
"","psychophysics","140","657593","0.0-140.0","6440152a313156f527ef2bd5","64dd6e026369cdd0386f739b","","","","","5416",""," ","key"," ","16.666746913580106","500","250","pz","26","2","1","","","45","57"
"","psychophysics","141","663110","0.0-141.0","6440152a313156f527ef2bd5","64dd6e026369cdd0386f739b","","","","","5515",""," ","key"," ","16.66673030303015","500","250","pz","28","2","1","","","47","47"
"","psychophysics","142","663667","0.0-142.0","6440152a313156f527ef2bd5","64dd6e026369cdd0386f739b","","","","","555",""," ","key"," ","16.666000000000086","500","250","inst","","","","","","",""
"","psychophysics","143","665204","0.0-143.0","6440152a313156f527ef2bd5","64dd6e026369cdd0386f739b","","","","","1527",""," ","key"," ","16.665999999999038","500","250","instBr3","40","1","","0","0","40","300"
"","psychophysics","144","665973","0.0-144.0","6440152a313156f527ef2bd5","64dd6e026369cdd0386f739b","","","","","768",""," ","key"," ","16.66599999999938","500","250","inst","","","","","","",""
"","psychophysics","145","668527","0.0-145.0","6440152a313156f527ef2bd5","64dd6e026369cdd0386f739b","","","","","2546",""," ","key"," ","16.6660000000005","500","250","br","-24","1","1","-7","-3","-29","250"
"","psychophysics","146","669429","0.0-146.0","6440152a313156f527ef2bd5","64dd6e026369cdd0386f739b","","","","","900",""," ","key"," ","16.665999999999087","500","250","br","-24","1","1","25","9","-24","273"
"","psychophysics","147","671642","0.0-147.0","6440152a313156f527ef2bd5","64dd6e026369cdd0386f739b","","","","","2211",""," ","key"," ","16.6659999999992","500","250","br","-14","1","1","1","6","-8","282"
"","psychophysics","148","674729","0.0-148.0","6440152a313156f527ef2bd5","64dd6e026369cdd0386f739b","","","","","3085",""," ","key"," ","16.667336956521307","500","250","br","-10","1","1","22","-13","2","244"
"","psychophysics","149","677720","0.0-149.0","6440152a313156f527ef2bd5","64dd6e026369cdd0386f739b","","","","","2989",""," ","key"," ","16.665999999999553","500","250","br","-14","1","1","3","18","1","215"
"","psychophysics","150","679896","0.0-150.0","6440152a313156f527ef2bd5","64dd6e026369cdd0386f739b","","","","","2174",""," ","key"," ","16.665999999999922","500","250","br","-19","1","1","-30","-5","-20","233"
"","psychophysics","151","683835","0.0-151.0","6440152a313156f527ef2bd5","64dd6e026369cdd0386f739b","","","","","3938",""," ","key"," ","16.666898305084896","500","250","br","-7","1","1","-29","-30","11","204"
"","psychophysics","152","689081","0.0-152.0","6440152a313156f527ef2bd5","64dd6e026369cdd0386f739b","","","","","5244",""," ","key"," ","16.665999999999848","500","250","br","-12","1","1","-24","-23","13","262"
"","psychophysics","153","691107","0.0-153.0","6440152a313156f527ef2bd5","64dd6e026369cdd0386f739b","","","","","2024",""," ","key"," ","16.66599999999938","500","250","br","-12","1","1","16","15","-12","256"
"","psychophysics","154","694119","0.0-154.0","6440152a313156f527ef2bd5","64dd6e026369cdd0386f739b","","","","","3010",""," ","key"," ","16.6675055555553","500","250","br","-17","1","1","-27","-30","-5","205"
"","psychophysics","155","698685","0.0-155.0","6440152a313156f527ef2bd5","64dd6e026369cdd0386f739b","","","","","4564",""," ","key"," ","16.66599999999989","500","250","br","-16","1","1","30","23","4","241"
"","psychophysics","156","699810","0.0-156.0","6440152a313156f527ef2bd5","64dd6e026369cdd0386f739b","","","","","1123",""," ","key"," ","16.666000000000086","500","250","br","-25","1","1","-21","-25","-23","215"
"","psychophysics","157","706464","0.0-157.0","6440152a313156f527ef2bd5","64dd6e026369cdd0386f739b","","","","","6652",""," ","key"," ","16.66653266331665","500","250","br","-19","1","1","3","11","9","238"
"","psychophysics","158","714467","0.0-158.0","6440152a313156f527ef2bd5","64dd6e026369cdd0386f739b","","","","","null","","null","key","null","16.666845511482244","500","250","br","-10","1","1","23","11","28","256"
"","psychophysics","159","715532","0.0-159.0","6440152a313156f527ef2bd5","64dd6e026369cdd0386f739b","","","","","1057",""," ","key"," ","16.665999999999748","500","250","br","-19","1","1","15","24","-19","238"
"","psychophysics","160","716094","0.0-160.0","6440152a313156f527ef2bd5","64dd6e026369cdd0386f739b","","","","","560",""," ","key"," ","16.666000000000086","500","250","inst","","","","","","",""
"","psychophysics","161","720336","0.0-161.0","6440152a313156f527ef2bd5","64dd6e026369cdd0386f739b","","","","","4240",""," ","key"," ","16.66599999999996","500","250","instZol1","0.30000000000000004","","","0","0","-1.3",""
"","psychophysics","162","728317","0.0-162.0","6440152a313156f527ef2bd5","64dd6e026369cdd0386f739b","","","","","7979",""," ","key"," ","16.666504184100493","500","250","instZol2","0.5000000000000007","1","","0","0","2",""
"","psychophysics","163","729128","0.0-163.0","6440152a313156f527ef2bd5","64dd6e026369cdd0386f739b","","","","","810",""," ","key"," ","16.666000000000533","500","250","inst","","","","","","",""
"","psychophysics","164","731319","0.0-164.0","6440152a313156f527ef2bd5","64dd6e026369cdd0386f739b","","","","","2181",""," ","key"," ","16.666000000000327","500","250","zol","0.58","1","1","14","-4","-0.08",""
"","psychophysics","165","735039","0.0-165.0","6440152a313156f527ef2bd5","64dd6e026369cdd0386f739b","","","","","3718",""," ","key"," ","16.66686486486484","500","250","zol","0.69","1","1","19","-8","0.61",""
"","psychophysics","166","736749","0.0-166.0","6440152a313156f527ef2bd5","64dd6e026369cdd0386f739b","","","","","1707",""," ","key"," ","16.665999999999457","500","250","zol","0.74","1","1","29","-14","-0.64",""
"","psychophysics","167","739770","0.0-167.0","6440152a313156f527ef2bd5","64dd6e026369cdd0386f739b","","","","","3018",""," ","key"," ","16.666000000000494","500","250","zol","0.82","1","1","3","26","0.18",""
"","psychophysics","168","741241","0.0-168.0","6440152a313156f527ef2bd5","64dd6e026369cdd0386f739b","","","","","1468",""," ","key"," ","16.665999999999112","500","250","zol","1.12","1","1","16","-27","-0.72",""
"","psychophysics","169","744883","0.0-169.0","6440152a313156f527ef2bd5","64dd6e026369cdd0386f739b","","","","","3640",""," ","key"," ","16.667357798164854","500","250","zol","0.8899999999999999","1","1","-15","11","0.61",""
"","psychophysics","170","747627","0.0-170.0","6440152a313156f527ef2bd5","64dd6e026369cdd0386f739b","","","","","2742",""," ","key"," ","16.66599999999976","500","250","zol","0.9299999999999999","1","1","-12","19","0.17",""
"","psychophysics","171","751051","0.0-171.0","6440152a313156f527ef2bd5","64dd6e026369cdd0386f739b","","","","","3421",""," ","key"," ","16.666000000000135","500","250","zol","1.04","1","1","19","23","0.36",""
"","psychophysics","172","754256","0.0-172.0","6440152a313156f527ef2bd5","64dd6e026369cdd0386f739b","","","","","3202",""," ","key"," ","16.667251308900866","500","250","zol","1.04","1","1","2","27","0.36",""
"","psychophysics","173","757437","0.0-173.0","6440152a313156f527ef2bd5","64dd6e026369cdd0386f739b","","","","","3178",""," ","key"," ","16.666000000000196","500","250","zol","1.01","1","1","23","29","0.29",""
"","psychophysics","174","760742","0.0-174.0","6440152a313156f527ef2bd5","64dd6e026369cdd0386f739b","","","","","3302",""," ","key"," ","16.665999999999656","500","250","zol","0.8999999999999999","1","1","-24","11","0.5",""
"","psychophysics","175","763568","0.0-175.0","6440152a313156f527ef2bd5","64dd6e026369cdd0386f739b","","","","","2824",""," ","key"," ","16.667443786981963","500","250","zol","0.9199999999999999","1","1","17","20","0.18",""
"","psychophysics","176","767198","0.0-176.0","6440152a313156f527ef2bd5","64dd6e026369cdd0386f739b","","","","","3628",""," ","key"," ","16.665999999999986","500","250","zol","0.61","1","1","8","-25","0.69",""
"","psychophysics","177","771009","0.0-177.0","6440152a313156f527ef2bd5","64dd6e026369cdd0386f739b","","","","","3808",""," ","key"," ","16.665999999999617","500","250","zol","0.8899999999999999","1","1","-15","26","0.71",""
"","psychophysics","178","773157","0.0-178.0","6440152a313156f527ef2bd5","64dd6e026369cdd0386f739b","","","","","2145",""," ","key"," ","16.66759374999947","500","250","zol","1.03","1","1","20","4","-0.13",""
"","psychophysics","179","773695","0.0-179.0","6440152a313156f527ef2bd5","64dd6e026369cdd0386f739b","","","","","537",""," ","key"," ","16.665999999998377","500","250","inst","","","","","","",""
"","psychophysics","180","779231","0.0-180.0","6440152a313156f527ef2bd5","64dd6e026369cdd0386f739b","","","","","5535",""," ","key"," ","16.666000000000246","500","250","instEB1","68","1","","0","0","80","70"
"","psychophysics","181","784867","0.0-181.0","6440152a313156f527ef2bd5","64dd6e026369cdd0386f739b","","","","","5633",""," ","key"," ","16.666356083086157","500","250","instEB2","69","1","","0","0","80","65"
"","psychophysics","182","789802","0.0-182.0","6440152a313156f527ef2bd5","64dd6e026369cdd0386f739b","","","","","4932",""," ","key"," ","16.665999999999904","500","250","instEB3","81","1","","0","0","65","80"
"","psychophysics","183","792488","0.0-183.0","6440152a313156f527ef2bd5","64dd6e026369cdd0386f739b","","","","","2684",""," ","key"," ","16.66600000000035","500","250","instEB4","64","1","","0","0","70","65"
"","psychophysics","184","793076","0.0-184.0","6440152a313156f527ef2bd5","64dd6e026369cdd0386f739b","","","","","587",""," ","key"," ","16.674029411765172","500","250","inst","","","","","","",""
"","psychophysics","185","796523","0.0-185.0","6440152a313156f527ef2bd5","64dd6e026369cdd0386f739b","","","","","3435",""," ","key"," ","16.665999999999983","500","250","eb","91","1","1","0","0","90","84"
"","psychophysics","186","799212","0.0-186.0","6440152a313156f527ef2bd5","64dd6e026369cdd0386f739b","","","","","2687",""," ","key"," ","16.66599999999962","500","250","eb","76","1","1","0","0","73","77"
"","psychophysics","187","802802","0.0-187.0","6440152a313156f527ef2bd5","64dd6e026369cdd0386f739b","","","","","3586",""," ","key"," ","16.66600000000028","500","250","eb","75","1","1","0","0","63","77"
"","psychophysics","188","806268","0.0-188.0","6440152a313156f527ef2bd5","64dd6e026369cdd0386f739b","","","","","3464",""," ","key"," ","16.66702898550702","500","250","eb","69","1","1","0","0","83","63"
"","psychophysics","189","808865","0.0-189.0","6440152a313156f527ef2bd5","64dd6e026369cdd0386f739b","","","","","2589",""," ","key"," ","16.66599999999988","500","250","eb","83","1","1","0","0","76","83"
"","psychophysics","190","813810","0.0-190.0","6440152a313156f527ef2bd5","64dd6e026369cdd0386f739b","","","","","4943",""," ","key"," ","16.666816949152576","500","250","eb","83","1","1","0","0","60","82"
"","psychophysics","191","816179","0.0-191.0","6440152a313156f527ef2bd5","64dd6e026369cdd0386f739b","","","","","2366",""," ","key"," ","16.666000000000533","500","250","eb","70","1","1","0","0","74","77"
"","psychophysics","192","820018","0.0-192.0","6440152a313156f527ef2bd5","64dd6e026369cdd0386f739b","","","","","3828",""," ","key"," ","16.666000000000224","500","250","eb","81","1","1","0","0","66","85"
"","psychophysics","193","821100","0.0-193.0","6440152a313156f527ef2bd5","64dd6e026369cdd0386f739b","","","","","1081",""," ","key"," ","16.665999999999258","500","250","eb","88","1","1","0","0","88","85"
"","psychophysics","194","825003","0.0-194.0","6440152a313156f527ef2bd5","64dd6e026369cdd0386f739b","","","","","3901",""," ","key"," ","16.667055793991413","500","250","eb","88","1","1","0","0","72","89"
"","psychophysics","195","826726","0.0-195.0","6440152a313156f527ef2bd5","64dd6e026369cdd0386f739b","","","","","1721",""," ","key"," ","16.66600000000029","500","250","eb","72","1","1","0","0","74","70"
"","psychophysics","196","828769","0.0-196.0","6440152a313156f527ef2bd5","64dd6e026369cdd0386f739b","","","","","2041",""," ","key"," ","16.665999999999823","500","250","eb","62","1","1","0","0","69","60"
"","psychophysics","197","830048","0.0-197.0","6440152a313156f527ef2bd5","64dd6e026369cdd0386f739b","","","","","1277",""," ","key"," ","16.6660000000005","500","250","eb","80","1","1","0","0","77","74"
"","psychophysics","198","832298","0.0-198.0","6440152a313156f527ef2bd5","64dd6e026369cdd0386f739b","","","","","2248",""," ","key"," ","16.66600000000048","500","250","eb","78","1","1","0","0","77","75"
"","psychophysics","199","834159","0.0-199.0","6440152a313156f527ef2bd5","64dd6e026369cdd0386f739b","","","","","1859",""," ","key"," ","16.668199999999807","500","250","eb","76","1","1","0","0","77","75"
"","psychophysics","200","834893","0.0-200.0","6440152a313156f527ef2bd5","64dd6e026369cdd0386f739b","","","","","733",""," ","key"," ","16.666000000000825","500","250","inst","","","","","","",""
"","psychophysics","201","848434","0.0-201.0","6440152a313156f527ef2bd5","64dd6e026369cdd0386f739b","","","","","13539",""," ","key"," ","16.666300492610937","500","250","instPog0","160","1","","0","0","190","160"
"","psychophysics","202","853116","0.0-202.0","6440152a313156f527ef2bd5","64dd6e026369cdd0386f739b","","","","","4681",""," ","key"," ","16.665999999999933","500","250","instPog1","158","1","","0","0","190","160"
"","psychophysics","203","854483","0.0-203.0","6440152a313156f527ef2bd5","64dd6e026369cdd0386f739b","","","","","1366",""," ","key"," ","16.66900000000016","500","250","instPog2","160","1","","0","0","160","160"
"","psychophysics","204","855251","0.0-204.0","6440152a313156f527ef2bd5","64dd6e026369cdd0386f739b","","","","","766",""," ","key"," ","16.66599999999938","500","250","inst","","","","","","",""
"","psychophysics","205","863259","0.0-205.0","6440152a313156f527ef2bd5","64dd6e026369cdd0386f739b","","","","","null","","null","key","null","16.666569937369545","500","250","pog","182","1","1","0","0","130","186"
"","psychophysics","206","863421","0.0-206.0","6440152a313156f527ef2bd5","64dd6e026369cdd0386f739b","","","","","160",""," ","key"," ","16.66600000000714","500","250","pog","207","1","1","0","0","207","188"
"","psychophysics","207","864476","0.0-207.0","6440152a313156f527ef2bd5","64dd6e026369cdd0386f739b","","","","","1054",""," ","key"," ","16.666000000000256","500","250","pog","173","1","1","0","0","173","165"
"","psychophysics","208","869289","0.0-208.0","6440152a313156f527ef2bd5","64dd6e026369cdd0386f739b","","","","","4803",""," ","key"," ","16.665999999999865","500","250","pog","181","1","1","0","0","217","166"
"","psychophysics","209","875281","0.0-209.0","6440152a313156f527ef2bd5","64dd6e026369cdd0386f739b","","","","","5990",""," ","key"," ","16.667036211699205","500","250","pog","212","1","1","0","0","184","200"
"","psychophysics","210","876531","0.0-210.0","6440152a313156f527ef2bd5","64dd6e026369cdd0386f739b","","","","","1249",""," ","key"," ","16.665999999999798","500","250","pog","186","1","1","0","0","186","182"
"","psychophysics","211","881502","0.0-211.0","6440152a313156f527ef2bd5","64dd6e026369cdd0386f739b","","","","","4970",""," ","key"," ","16.666000000000086","500","250","pog","154","1","1","0","0","216","137"
"","psychophysics","212","883849","0.0-212.0","6440152a313156f527ef2bd5","64dd6e026369cdd0386f739b","","","","","2346",""," ","key"," ","16.787647482014442","500","250","pog","191","1","1","0","0","203","163"
"","psychophysics","213","889457","0.0-213.0","6440152a313156f527ef2bd5","64dd6e026369cdd0386f739b","","","","","5606",""," ","key"," ","16.666000000000306","500","250","pog","193","1","1","0","0","119","168"
"","psychophysics","214","895249","0.0-214.0","6440152a313156f527ef2bd5","64dd6e026369cdd0386f739b","","","","","5790",""," ","key"," ","16.666703170028875","500","250","pog","202","1","1","0","0","104","197"
"","psychophysics","215","898907","0.0-215.0","6440152a313156f527ef2bd5","64dd6e026369cdd0386f739b","","","","","3656",""," ","key"," ","16.66599999999984","500","250","pog","194","1","1","0","0","140","172"
"","psychophysics","216","903010","0.0-216.0","6440152a313156f527ef2bd5","64dd6e026369cdd0386f739b","","","","","4102",""," ","key"," ","16.665999999999695","500","250","pog","206","1","1","0","0","138","184"
"","psychophysics","217","907968","0.0-217.0","6440152a313156f527ef2bd5","64dd6e026369cdd0386f739b","","","","","4956",""," ","key"," ","16.666808080808135","500","250","pog","220","1","1","0","0","130","188"
"","psychophysics","218","911394","0.0-218.0","6440152a313156f527ef2bd5","64dd6e026369cdd0386f739b","","","","","3424",""," ","key"," ","16.665999999999723","500","250","pog","204","1","1","0","0","172","165"
"","psychophysics","219","916717","0.0-219.0","6440152a313156f527ef2bd5","64dd6e026369cdd0386f739b","","","","","5322",""," ","key"," ","16.66676489028242","500","250","pog","215","1","1","0","0","121","180"
