"success","trial_type","trial_index","time_elapsed","internal_node_id","pid","sid","timeout","failed_images","failed_audio","failed_video","rt","stimulus","response","response_type","key_press","avg_frame_time","center_x","center_y","task","resp","version","block","jitterX","jitterY","start","parA"
"true","fullscreen","0","18193","0.0-0.0","610c393d97bda65462348f69","64dd6e3d487e5b89d60b2c03","","","","","","","","","","","","","","","","","","","",""
"true","preload","1","18621","0.0-1.0","610c393d97bda65462348f69","64dd6e3d487e5b89d60b2c03","false","[]","[]","[]","","","","","","","","","","","","","","","",""
"","html-button-response","2","24320","0.0-2.0","610c393d97bda65462348f69","64dd6e3d487e5b89d60b2c03","","","","","5690","Please Make Sure Your Audio Is On.","0","","","","","","","","","","","","",""
"","psychophysics","3","43531","0.0-3.0","610c393d97bda65462348f69","64dd6e3d487e5b89d60b2c03","","","","","19146",""," ","key"," ","16.84242857142857","683","250","","","","","","","",""
"","psychophysics","4","48631","0.0-4.0","610c393d97bda65462348f69","64dd6e3d487e5b89d60b2c03","","","","","5093",""," ","key"," ","16.832698675496683","500","250","inst","","","","","","",""
"","psychophysics","5","52533","0.0-5.0","610c393d97bda65462348f69","64dd6e3d487e5b89d60b2c03","","","","","3832",""," ","key"," ","16.739333333333335","500","250","sample0","","","","","","",""
"","psychophysics","6","54820","0.0-6.0","610c393d97bda65462348f69","64dd6e3d487e5b89d60b2c03","","","","","2272",""," ","key"," ","16.667154411764706","500","250","sample1","","","","","","",""
"","psychophysics","7","66302","0.0-7.0","610c393d97bda65462348f69","64dd6e3d487e5b89d60b2c03","","","","","11444",""," ","key"," ","16.691398835516733","500","250","sample2","100","","","","","",""
"","psychophysics","8","71384","0.0-8.0","610c393d97bda65462348f69","64dd6e3d487e5b89d60b2c03","","","","","5069",""," ","key"," ","16.667180921052644","500","250","sample3","96","","","","","",""
"","psychophysics","9","80671","0.0-9.0","610c393d97bda65462348f69","64dd6e3d487e5b89d60b2c03","","","","","9261",""," ","key"," ","16.667106115107902","500","250","sample4","100","","","","","",""
"","psychophysics","10","84612","0.0-10.0","610c393d97bda65462348f69","64dd6e3d487e5b89d60b2c03","","","","","3920",""," ","key"," ","16.66719574468084","500","250","sample5","","","","","","",""
"","psychophysics","11","91282","0.0-11.0","610c393d97bda65462348f69","64dd6e3d487e5b89d60b2c03","","","","","6659",""," ","key"," ","16.66713499999998","500","250","sample6","500","","","","","",""
"","psychophysics","12","95401","0.0-12.0","610c393d97bda65462348f69","64dd6e3d487e5b89d60b2c03","","","","","4104",""," ","key"," ","16.667146341463365","500","250","inst","","","","","","",""
"","psychophysics","13","102019","0.0-13.0","610c393d97bda65462348f69","64dd6e3d487e5b89d60b2c03","","","","","6588",""," ","key"," ","16.667093434343457","500","250","inst","","","","","","",""
"","psychophysics","14","107105","0.0-14.0","610c393d97bda65462348f69","64dd6e3d487e5b89d60b2c03","","","","","5061",""," ","key"," ","16.66713815789473","500","250","inst","","","","","","",""
"","psychophysics","15","109487","0.0-15.0","610c393d97bda65462348f69","64dd6e3d487e5b89d60b2c03","","","","","2370",""," ","key"," ","16.66722535211267","500","250","inst","","","","","","",""
"","psychophysics","16","111801","0.0-16.0","610c393d97bda65462348f69","64dd6e3d487e5b89d60b2c03","","","","","2289",""," ","key"," ","16.667079710144932","500","250","inst","","","","","","",""
"","psychophysics","17","114495","0.0-17.0","610c393d97bda65462348f69","64dd6e3d487e5b89d60b2c03","","","","","2678",""," ","key"," ","16.66713750000008","500","250","instBr0","0","","","0","0","0","300"
"","psychophysics","18","119995","0.0-18.0","610c393d97bda65462348f69","64dd6e3d487e5b89d60b2c03","","","","","5470",""," ","key"," ","16.667164133738567","500","250","instBr1","-4","","","0","0","-40","300"
"","psychophysics","19","130630","0.0-19.0","610c393d97bda65462348f69","64dd6e3d487e5b89d60b2c03","","","","","10619",""," ","key"," ","16.667133437990593","500","250","instBr3","-11","1","","0","0","40","300"
"","psychophysics","20","133187","0.0-20.0","610c393d97bda65462348f69","64dd6e3d487e5b89d60b2c03","","","","","2532",""," ","key"," ","16.667065359477228","500","250","inst","","","","","","",""
"","psychophysics","21","137250","0.0-21.0","610c393d97bda65462348f69","64dd6e3d487e5b89d60b2c03","","","","","4032",""," ","key"," ","16.66709465020573","500","250","br","-14","1","0","14","-3","-19","289"
"","psychophysics","22","142644","0.0-22.0","610c393d97bda65462348f69","64dd6e3d487e5b89d60b2c03","","","","","5357",""," ","key"," ","16.6671708074535","500","250","br","-11","1","0","27","-27","-25","244"
"","psychophysics","23","148555","0.0-23.0","610c393d97bda65462348f69","64dd6e3d487e5b89d60b2c03","","","","","5894",""," ","key"," ","16.66711299435027","500","250","br","-12","1","0","-21","-12","27","210"
"","psychophysics","24","152317","0.0-24.0","610c393d97bda65462348f69","64dd6e3d487e5b89d60b2c03","","","","","3711",""," ","key"," ","16.741526785714345","500","250","br","-11","1","0","12","-28","-18","268"
"","psychophysics","25","156383","0.0-25.0","610c393d97bda65462348f69","64dd6e3d487e5b89d60b2c03","","","","","4058",""," ","key"," ","16.667119341563847","500","250","br","-9","1","0","-5","19","-12","293"
"","psychophysics","26","158588","0.0-26.0","610c393d97bda65462348f69","64dd6e3d487e5b89d60b2c03","","","","","2147",""," ","key"," ","16.795323076923243","500","250","br","-5","1","0","7","4","5","253"
"","psychophysics","27","161413","0.0-27.0","610c393d97bda65462348f69","64dd6e3d487e5b89d60b2c03","","","","","2811",""," ","key"," ","16.66716568047331","500","250","br","-8","1","0","13","11","-2","206"
"","psychophysics","28","166783","0.0-28.0","610c393d97bda65462348f69","64dd6e3d487e5b89d60b2c03","","","","","5325",""," ","key"," ","16.667149532710276","500","250","br","-3","1","0","-20","-11","19","292"
"","psychophysics","29","169914","0.0-29.0","610c393d97bda65462348f69","64dd6e3d487e5b89d60b2c03","","","","","3123",""," ","key"," ","16.756758064516195","500","250","br","-11","1","0","-20","29","-12","244"
"","psychophysics","30","172748","0.0-30.0","610c393d97bda65462348f69","64dd6e3d487e5b89d60b2c03","","","","","2804",""," ","key"," ","16.667130177514764","500","250","br","-6","1","0","-24","-11","2","212"
"","psychophysics","31","176604","0.0-31.0","610c393d97bda65462348f69","64dd6e3d487e5b89d60b2c03","","","","","3847",""," ","key"," ","16.66713478260866","500","250","br","-6","1","0","7","29","1","203"
"","psychophysics","32","178472","0.0-32.0","610c393d97bda65462348f69","64dd6e3d487e5b89d60b2c03","","","","","1819",""," ","key"," ","16.81864545454525","500","250","br","-2","1","0","-8","12","3","203"
"","psychophysics","33","181206","0.0-33.0","610c393d97bda65462348f69","64dd6e3d487e5b89d60b2c03","","","","","2720",""," ","key"," ","16.667153374233035","500","250","br","-10","1","0","17","-5","-16","272"
"","psychophysics","34","185388","0.0-34.0","610c393d97bda65462348f69","64dd6e3d487e5b89d60b2c03","","","","","4152",""," ","key"," ","16.66715599999996","500","250","br","-8","1","0","24","-29","16","276"
"","psychophysics","35","188368","0.0-35.0","610c393d97bda65462348f69","64dd6e3d487e5b89d60b2c03","","","","","2967",""," ","key"," ","16.667179775280907","500","250","br","-16","1","0","-23","-2","-25","255"
"","psychophysics","36","189626","0.0-36.0","610c393d97bda65462348f69","64dd6e3d487e5b89d60b2c03","","","","","1251",""," ","key"," ","16.66705405405397","500","250","inst","","","","","","",""
"","psychophysics","37","193465","0.0-37.0","610c393d97bda65462348f69","64dd6e3d487e5b89d60b2c03","","","","","3794",""," ","key"," ","16.73986462882098","500","250","instZol0","0","","","0","0","0",""
"","psychophysics","38","201690","0.0-38.0","610c393d97bda65462348f69","64dd6e3d487e5b89d60b2c03","","","","","8217",""," ","key"," ","16.66715243902439","500","250","instZol1","0.10000000000000003","","","0","0","-1.3",""
"","psychophysics","39","208999","0.0-39.0","610c393d97bda65462348f69","64dd6e3d487e5b89d60b2c03","","","","","7265",""," ","key"," ","16.70526086956527","500","250","instZol2","-2.900000000000001","1","","0","0","2",""
"","psychophysics","40","210889","0.0-40.0","610c393d97bda65462348f69","64dd6e3d487e5b89d60b2c03","","","","","1885",""," ","key"," ","16.66726785714283","500","250","inst","","","","","","",""
"","psychophysics","41","217440","0.0-41.0","610c393d97bda65462348f69","64dd6e3d487e5b89d60b2c03","","","","","6513",""," ","key"," ","16.66713775510207","500","250","zol","1.35","1","0","29","26","-0.55",""
"","psychophysics","42","224630","0.0-42.0","610c393d97bda65462348f69","64dd6e3d487e5b89d60b2c03","","","","","7164",""," ","key"," ","16.66712325581398","500","250","zol","1.37","1","0","-4","2","-0.27",""
"","psychophysics","43","232646","0.0-43.0","610c393d97bda65462348f69","64dd6e3d487e5b89d60b2c03","","","","","null","","null","key","null","16.667166320166334","500","250","zol","1.7100000000000006","1","0","15","-11","0.29",""
"","psychophysics","44","237153","0.0-44.0","610c393d97bda65462348f69","64dd6e3d487e5b89d60b2c03","","","","","4479",""," ","key"," ","16.667141263940557","500","250","zol","1.3300000000000003","1","0","-1","-7","0.27",""
"","psychophysics","45","240002","0.0-45.0","610c393d97bda65462348f69","64dd6e3d487e5b89d60b2c03","","","","","2799",""," ","key"," ","16.765650887574076","500","250","zol","0.72","1","0","18","-29","0.38",""
"","psychophysics","46","244368","0.0-46.0","610c393d97bda65462348f69","64dd6e3d487e5b89d60b2c03","","","","","4345",""," ","key"," ","16.667195402298876","500","250","zol","0.8699999999999999","1","0","27","17","0.03",""
"","psychophysics","47","247931","0.0-47.0","610c393d97bda65462348f69","64dd6e3d487e5b89d60b2c03","","","","","3519",""," ","key"," ","16.667000000000044","500","250","zol","1.8700000000000006","1","0","23","22","-0.47",""
"","psychophysics","48","250261","0.0-48.0","610c393d97bda65462348f69","64dd6e3d487e5b89d60b2c03","","","","","2304",""," ","key"," ","16.667223021582778","500","250","zol","1.3200000000000003","1","0","-14","17","-0.22",""
"","psychophysics","49","253204","0.0-49.0","610c393d97bda65462348f69","64dd6e3d487e5b89d60b2c03","","","","","2881",""," ","key"," ","16.858804597701152","500","250","zol","1.01","1","0","-21","14","-0.01",""
"","psychophysics","50","256987","0.0-50.0","610c393d97bda65462348f69","64dd6e3d487e5b89d60b2c03","","","","","3766",""," ","key"," ","16.667181415929186","500","250","zol","1.8800000000000006","1","0","-29","-21","0.02",""
"","psychophysics","51","261184","0.0-51.0","610c393d97bda65462348f69","64dd6e3d487e5b89d60b2c03","","","","","4154",""," ","key"," ","16.667139442231036","500","250","zol","1.3400000000000003","1","0","21","-3","0.26",""
"","psychophysics","52","263167","0.0-52.0","610c393d97bda65462348f69","64dd6e3d487e5b89d60b2c03","","","","","1967",""," ","key"," ","16.667119658119283","500","250","zol","1.3900000000000001","1","0","-23","-16","-0.19",""
"","psychophysics","53","265498","0.0-53.0","610c393d97bda65462348f69","64dd6e3d487e5b89d60b2c03","","","","","2299",""," ","key"," ","16.667129496403085","500","250","zol","1.26","1","0","-27","-12","0.04",""
"","psychophysics","54","270538","0.0-54.0","610c393d97bda65462348f69","64dd6e3d487e5b89d60b2c03","","","","","5022",""," ","key"," ","16.66711589403968","500","250","zol","1.7300000000000006","1","0","0","30","0.37",""
"","psychophysics","55","274774","0.0-55.0","610c393d97bda65462348f69","64dd6e3d487e5b89d60b2c03","","","","","4188",""," ","key"," ","16.73325396825408","500","250","zol","1.6200000000000006","1","0","3","8","-0.32",""
"","psychophysics","56","275957","0.0-56.0","610c393d97bda65462348f69","64dd6e3d487e5b89d60b2c03","","","","","1170",""," ","key"," ","16.66727142857105","500","250","inst","","","","","","",""
"","psychophysics","57","279615","0.0-57.0","610c393d97bda65462348f69","64dd6e3d487e5b89d60b2c03","","","","","3615",""," ","key"," ","16.743963133640563","500","250","instPzPre","50","0","","","","50","50"
"","psychophysics","58","289371","0.0-58.0","610c393d97bda65462348f69","64dd6e3d487e5b89d60b2c03","","","","","9713",""," ","key"," ","16.695662671232864","500","250","instPz0","46","1","","","","50","50"
"","psychophysics","59","296280","0.0-59.0","610c393d97bda65462348f69","64dd6e3d487e5b89d60b2c03","","","","","6880",""," ","key"," ","16.667138014527822","500","250","instPz1","55","1","","","","25","50"
"","psychophysics","60","299939","0.0-60.0","610c393d97bda65462348f69","64dd6e3d487e5b89d60b2c03","","","","","3646",""," ","key"," ","16.66711872146113","500","250","instPz2","24","1","","","","35","20"
"","psychophysics","61","313464","0.0-61.0","610c393d97bda65462348f69","64dd6e3d487e5b89d60b2c03","","","","","13501",""," ","key"," ","16.68774660074164","500","250","instPz3","48","1","","","","100","30"
"","psychophysics","62","320309","0.0-62.0","610c393d97bda65462348f69","64dd6e3d487e5b89d60b2c03","","","","","6834",""," ","key"," ","16.667141463414612","500","250","instPz4","43","1","","","","100","30"
"","psychophysics","63","322206","0.0-63.0","610c393d97bda65462348f69","64dd6e3d487e5b89d60b2c03","","","","","1886",""," ","key"," ","16.66711504424745","500","250","inst","","","","","","",""
"","psychophysics","64","326187","0.0-64.0","610c393d97bda65462348f69","64dd6e3d487e5b89d60b2c03","","","","","3964",""," ","key"," ","16.66719327731099","500","250","pz","26","1","0","","","40","21"
"","psychophysics","65","333157","0.0-65.0","610c393d97bda65462348f69","64dd6e3d487e5b89d60b2c03","","","","","6958",""," ","key"," ","16.667105515587576","500","250","pz","62","1","0","","","20","54"
"","psychophysics","66","337610","0.0-66.0","610c393d97bda65462348f69","64dd6e3d487e5b89d60b2c03","","","","","4440",""," ","key"," ","16.667169172932347","500","250","pz","25","1","0","","","58","20"
"","psychophysics","67","342271","0.0-67.0","610c393d97bda65462348f69","64dd6e3d487e5b89d60b2c03","","","","","4647",""," ","key"," ","16.667136200716826","500","250","pz","54","1","0","","","32","50"
"","psychophysics","68","344375","0.0-68.0","610c393d97bda65462348f69","64dd6e3d487e5b89d60b2c03","","","","","2095",""," ","key"," ","16.66708799999999","500","250","pz","34","1","0","","","33","26"
"","psychophysics","69","347272","0.0-69.0","610c393d97bda65462348f69","64dd6e3d487e5b89d60b2c03","","","","","2845",""," ","key"," ","16.764046511627722","500","250","pz","41","1","0","","","36","31"
"","psychophysics","70","351242","0.0-70.0","610c393d97bda65462348f69","64dd6e3d487e5b89d60b2c03","","","","","3955",""," ","key"," ","16.667130801687705","500","250","pz","43","1","0","","","30","39"
"","psychophysics","71","355020","0.0-71.0","610c393d97bda65462348f69","64dd6e3d487e5b89d60b2c03","","","","","3739",""," ","key"," ","16.66714601769896","500","250","pz","46","1","0","","","21","39"
"","psychophysics","72","363026","0.0-72.0","610c393d97bda65462348f69","64dd6e3d487e5b89d60b2c03","","","","","null","","null","key","null","16.667117154811802","500","250","pz","40","1","0","","","31","31"
"","psychophysics","73","366777","0.0-73.0","610c393d97bda65462348f69","64dd6e3d487e5b89d60b2c03","","","","","3655",""," ","key"," ","16.893416289592793","500","250","pz","59","1","0","","","31","53"
"","psychophysics","74","369585","0.0-74.0","610c393d97bda65462348f69","64dd6e3d487e5b89d60b2c03","","","","","2792",""," ","key"," ","16.66712574850284","500","250","pz","60","1","0","","","60","36"
"","psychophysics","75","373505","0.0-75.0","610c393d97bda65462348f69","64dd6e3d487e5b89d60b2c03","","","","","3881",""," ","key"," ","16.667093617021244","500","250","pz","72","1","0","","","43","60"
"","psychophysics","76","376186","0.0-76.0","610c393d97bda65462348f69","64dd6e3d487e5b89d60b2c03","","","","","2671",""," ","key"," ","16.667182389937075","500","250","pz","43","1","0","","","58","30"
"","psychophysics","77","381122","0.0-77.0","610c393d97bda65462348f69","64dd6e3d487e5b89d60b2c03","","","","","4897",""," ","key"," ","16.6670810810811","500","250","pz","70","1","0","","","35","56"
"","psychophysics","78","383501","0.0-78.0","610c393d97bda65462348f69","64dd6e3d487e5b89d60b2c03","","","","","2371",""," ","key"," ","16.667120567375978","500","250","pz","51","1","0","","","59","30"
"","psychophysics","79","389298","0.0-79.0","610c393d97bda65462348f69","64dd6e3d487e5b89d60b2c03","","","","","5786",""," ","key"," ","16.66715561959645","500","250","inst","","","","","","",""
"","psychophysics","80","395837","0.0-80.0","610c393d97bda65462348f69","64dd6e3d487e5b89d60b2c03","","","","","6529",""," ","key"," ","16.667084398977025","500","250","instPog0","160","1","","0","0","190","160"
"","psychophysics","81","399460","0.0-81.0","610c393d97bda65462348f69","64dd6e3d487e5b89d60b2c03","","","","","3583",""," ","key"," ","16.9008224299066","500","250","instPog1","190","1","","0","0","190","160"
"","psychophysics","82","402815","0.0-82.0","610c393d97bda65462348f69","64dd6e3d487e5b89d60b2c03","","","","","3341",""," ","key"," ","16.667150000000255","500","250","instPog2","160","1","","0","0","160","160"
"","psychophysics","83","403668","0.0-83.0","610c393d97bda65462348f69","64dd6e3d487e5b89d60b2c03","","","","","843",""," ","key"," ","16.667179999999934","500","250","inst","","","","","","",""
"","psychophysics","84","407113","0.0-84.0","610c393d97bda65462348f69","64dd6e3d487e5b89d60b2c03","","","","","3410",""," ","key"," ","16.66718932038831","500","250","pog","167","1","0","0","0","177","143"
"","psychophysics","85","411944","0.0-85.0","610c393d97bda65462348f69","64dd6e3d487e5b89d60b2c03","","","","","4815",""," ","key"," ","16.667131487889396","500","250","pog","181","1","0","0","0","203","147"
"","psychophysics","86","417049","0.0-86.0","610c393d97bda65462348f69","64dd6e3d487e5b89d60b2c03","","","","","5087",""," ","key"," ","16.667131147540907","500","250","pog","219","1","0","0","0","129","199"
"","psychophysics","87","421283","0.0-87.0","610c393d97bda65462348f69","64dd6e3d487e5b89d60b2c03","","","","","4221",""," ","key"," ","16.66711857707517","500","250","pog","186","1","0","0","0","210","161"
"","psychophysics","88","429300","0.0-88.0","610c393d97bda65462348f69","64dd6e3d487e5b89d60b2c03","","","","","null","","null","key","null","16.66715208333335","500","250","pog","147","1","0","0","0","211","132"
"","psychophysics","89","429506","0.0-89.0","610c393d97bda65462348f69","64dd6e3d487e5b89d60b2c03","","","","","197",""," ","key"," ","16.667416666668334","500","250","pog","149","1","0","0","0","149","136"
"","psychophysics","90","435539","0.0-90.0","610c393d97bda65462348f69","64dd6e3d487e5b89d60b2c03","","","","","6003",""," ","key"," ","16.713427777777703","500","250","pog","170","1","0","0","0","124","152"
"","psychophysics","91","441549","0.0-91.0","610c393d97bda65462348f69","64dd6e3d487e5b89d60b2c03","","","","","6001",""," ","key"," ","16.667136490250638","500","250","pog","203","1","0","0","0","101","191"
"","psychophysics","92","448446","0.0-92.0","610c393d97bda65462348f69","64dd6e3d487e5b89d60b2c03","","","","","6854",""," ","key"," ","16.6671016949152","500","250","pog","210","1","0","0","0","100","196"
"","psychophysics","93","452656","0.0-93.0","610c393d97bda65462348f69","64dd6e3d487e5b89d60b2c03","","","","","4193",""," ","key"," ","16.66708333333326","500","250","pog","161","1","0","0","0","153","151"
"","psychophysics","94","456192","0.0-94.0","610c393d97bda65462348f69","64dd6e3d487e5b89d60b2c03","","","","","3498",""," ","key"," ","16.667175355450397","500","250","pog","148","1","0","0","0","106","144"
"","psychophysics","95","459627","0.0-95.0","610c393d97bda65462348f69","64dd6e3d487e5b89d60b2c03","","","","","3427",""," ","key"," ","16.667170731707408","500","250","pog","148","1","0","0","0","178","124"
"","psychophysics","96","464461","0.0-96.0","610c393d97bda65462348f69","64dd6e3d487e5b89d60b2c03","","","","","4814",""," ","key"," ","16.667096885813038","500","250","pog","186","1","0","0","0","130","167"
"","psychophysics","97","466136","0.0-97.0","610c393d97bda65462348f69","64dd6e3d487e5b89d60b2c03","","","","","1670",""," ","key"," ","16.667202020202165","500","250","pog","208","1","0","0","0","216","185"
"","psychophysics","98","468437","0.0-98.0","610c393d97bda65462348f69","64dd6e3d487e5b89d60b2c03","","","","","2269",""," ","key"," ","16.667167883211693","500","250","pog","200","1","0","0","0","210","177"
"","psychophysics","99","469541","0.0-99.0","610c393d97bda65462348f69","64dd6e3d487e5b89d60b2c03","","","","","1090",""," ","key"," ","16.667090909090774","500","250","inst","","","","","","",""
"","psychophysics","100","473882","0.0-100.0","610c393d97bda65462348f69","64dd6e3d487e5b89d60b2c03","","","","","4272",""," ","key"," ","16.796817120622592","500","250","instEB0","77","1","","0","0","75","75"
"","psychophysics","101","478921","0.0-101.0","610c393d97bda65462348f69","64dd6e3d487e5b89d60b2c03","","","","","5026",""," ","key"," ","16.667182119205304","500","250","instEB1","72","1","","0","0","80","70"
"","psychophysics","102","482927","0.0-102.0","610c393d97bda65462348f69","64dd6e3d487e5b89d60b2c03","","","","","3971",""," ","key"," ","16.667150627615158","500","250","instEB2","70","1","","0","0","80","65"
"","psychophysics","103","488129","0.0-103.0","610c393d97bda65462348f69","64dd6e3d487e5b89d60b2c03","","","","","5184",""," ","key"," ","16.667173633440637","500","250","instEB3","74","1","","0","0","65","80"
"","psychophysics","104","491270","0.0-104.0","610c393d97bda65462348f69","64dd6e3d487e5b89d60b2c03","","","","","3089",""," ","key"," ","16.756666666666618","500","250","instEB4","60","1","","0","0","70","65"
"","psychophysics","105","491895","0.0-105.0","610c393d97bda65462348f69","64dd6e3d487e5b89d60b2c03","","","","","612",""," ","key"," ","16.667405405405884","500","250","inst","","","","","","",""
"","psychophysics","106","496098","0.0-106.0","610c393d97bda65462348f69","64dd6e3d487e5b89d60b2c03","","","","","4145",""," ","key"," ","16.801024096385607","500","250","eb","54","1","0","0","0","68","61"
"","psychophysics","107","499296","0.0-107.0","610c393d97bda65462348f69","64dd6e3d487e5b89d60b2c03","","","","","3177",""," ","key"," ","16.66709424083789","500","250","eb","61","1","0","0","0","81","64"
"","psychophysics","108","503715","0.0-108.0","610c393d97bda65462348f69","64dd6e3d487e5b89d60b2c03","","","","","4388",""," ","key"," ","16.667189393939527","500","250","eb","88","1","0","0","0","86","90"
"","psychophysics","109","506211","0.0-109.0","610c393d97bda65462348f69","64dd6e3d487e5b89d60b2c03","","","","","2476",""," ","key"," ","16.66716778523526","500","250","eb","81","1","0","0","0","74","88"
"","psychophysics","110","510590","0.0-110.0","610c393d97bda65462348f69","64dd6e3d487e5b89d60b2c03","","","","","4337",""," ","key"," ","16.667164750957873","500","250","eb","86","1","0","0","0","63","87"
"","psychophysics","111","515264","0.0-111.0","610c393d97bda65462348f69","64dd6e3d487e5b89d60b2c03","","","","","4656",""," ","key"," ","16.66713928571428","500","250","eb","76","1","0","0","0","61","77"
"","psychophysics","112","519244","0.0-112.0","610c393d97bda65462348f69","64dd6e3d487e5b89d60b2c03","","","","","3933",""," ","key"," ","16.737396624472723","500","250","eb","82","1","0","0","0","72","85"
"","psychophysics","113","523926","0.0-113.0","610c393d97bda65462348f69","64dd6e3d487e5b89d60b2c03","","","","","4664",""," ","key"," ","16.66713928571428","500","250","eb","70","1","0","0","0","80","70"
"","psychophysics","114","526647","0.0-114.0","610c393d97bda65462348f69","64dd6e3d487e5b89d60b2c03","","","","","2681",""," ","key"," ","16.66711728395046","500","250","eb","75","1","0","0","0","82","73"
"","psychophysics","115","529038","0.0-115.0","610c393d97bda65462348f69","64dd6e3d487e5b89d60b2c03","","","","","2366",""," ","key"," ","16.78544680851079","500","250","eb","65","1","0","0","0","60","64"
"","psychophysics","116","532496","0.0-116.0","610c393d97bda65462348f69","64dd6e3d487e5b89d60b2c03","","","","","3404",""," ","key"," ","16.829809756097156","500","250","eb","65","1","0","0","0","78","66"
"","psychophysics","117","535224","0.0-117.0","610c393d97bda65462348f69","64dd6e3d487e5b89d60b2c03","","","","","2709",""," ","key"," ","16.66723456790162","500","250","eb","89","1","0","0","0","73","87"
"","psychophysics","118","537148","0.0-118.0","610c393d97bda65462348f69","64dd6e3d487e5b89d60b2c03","","","","","1863",""," ","key"," ","16.962132743363004","500","250","eb","82","1","0","0","0","77","82"
"","psychophysics","119","540163","0.0-119.0","610c393d97bda65462348f69","64dd6e3d487e5b89d60b2c03","","","","","2990",""," ","key"," ","16.667099999999888","500","250","eb","79","1","0","0","0","75","80"
"","psychophysics","120","542495","0.0-120.0","610c393d97bda65462348f69","64dd6e3d487e5b89d60b2c03","","","","","2284",""," ","key"," ","16.787920289854284","500","250","eb","85","1","0","0","0","79","83"
"","psychophysics","121","543761","0.0-121.0","610c393d97bda65462348f69","64dd6e3d487e5b89d60b2c03","","","","","1261",""," ","key"," ","16.66713333333377","500","250","inst","","","","","","",""
"","psychophysics","122","548416","0.0-122.0","610c393d97bda65462348f69","64dd6e3d487e5b89d60b2c03","","","","","4626",""," ","key"," ","16.66713309352514","500","250","instEB1","80","2","","0","0","70","80"
"","psychophysics","123","550096","0.0-123.0","610c393d97bda65462348f69","64dd6e3d487e5b89d60b2c03","","","","","1661",""," ","key"," ","16.6673199999996","500","250","instEB2","66","2","","0","0","65","80"
"","psychophysics","124","551549","0.0-124.0","610c393d97bda65462348f69","64dd6e3d487e5b89d60b2c03","","","","","1412",""," ","key"," ","16.667058139534525","500","250","instEB3","80","2","","0","0","80","65"
"","psychophysics","125","554266","0.0-125.0","610c393d97bda65462348f69","64dd6e3d487e5b89d60b2c03","","","","","2703",""," ","key"," ","16.667098765432502","500","250","instEB4","63","2","","0","0","65","70"
"","psychophysics","126","555420","0.0-126.0","610c393d97bda65462348f69","64dd6e3d487e5b89d60b2c03","","","","","1141",""," ","key"," ","16.66719117646982","500","250","inst","","","","","","",""
"","psychophysics","127","559600","0.0-127.0","610c393d97bda65462348f69","64dd6e3d487e5b89d60b2c03","","","","","4158",""," ","key"," ","16.667168000000064","500","250","eb","76","2","1","0","0","61","70"
"","psychophysics","128","561405","0.0-128.0","610c393d97bda65462348f69","64dd6e3d487e5b89d60b2c03","","","","","1766",""," ","key"," ","16.667261682242966","500","250","eb","79","2","1","0","0","78","82"
"","psychophysics","129","566063","0.0-129.0","610c393d97bda65462348f69","64dd6e3d487e5b89d60b2c03","","","","","4642",""," ","key"," ","16.66714336917532","500","250","eb","84","2","1","0","0","67","81"
"","psychophysics","130","568094","0.0-130.0","610c393d97bda65462348f69","64dd6e3d487e5b89d60b2c03","","","","","1991",""," ","key"," ","16.66715702479359","500","250","eb","79","2","1","0","0","82","75"
"","psychophysics","131","570584","0.0-131.0","610c393d97bda65462348f69","64dd6e3d487e5b89d60b2c03","","","","","2470",""," ","key"," ","16.66705405405436","500","250","eb","85","2","1","0","0","79","82"
"","psychophysics","132","573230","0.0-132.0","610c393d97bda65462348f69","64dd6e3d487e5b89d60b2c03","","","","","2581",""," ","key"," ","16.98974193548408","500","250","eb","74","2","1","0","0","78","68"
"","psychophysics","133","575550","0.0-133.0","610c393d97bda65462348f69","64dd6e3d487e5b89d60b2c03","","","","","2299",""," ","key"," ","16.667152173912484","500","250","eb","84","2","1","0","0","87","83"
"","psychophysics","134","579784","0.0-134.0","610c393d97bda65462348f69","64dd6e3d487e5b89d60b2c03","","","","","4192",""," ","key"," ","16.667110671936683","500","250","eb","70","2","1","0","0","88","64"
"","psychophysics","135","583654","0.0-135.0","610c393d97bda65462348f69","64dd6e3d487e5b89d60b2c03","","","","","3847",""," ","key"," ","16.667186147186126","500","250","eb","89","2","1","0","0","67","85"
"","psychophysics","136","585453","0.0-136.0","610c393d97bda65462348f69","64dd6e3d487e5b89d60b2c03","","","","","1784",""," ","key"," ","16.66725233644813","500","250","eb","87","2","1","0","0","78","90"
"","psychophysics","137","589227","0.0-137.0","610c393d97bda65462348f69","64dd6e3d487e5b89d60b2c03","","","","","3755",""," ","key"," ","16.667182222221875","500","250","eb","84","2","1","0","0","68","84"
"","psychophysics","138","591866","0.0-138.0","610c393d97bda65462348f69","64dd6e3d487e5b89d60b2c03","","","","","2572",""," ","key"," ","16.880878205128308","500","250","eb","83","2","1","0","0","71","80"
"","psychophysics","139","593872","0.0-139.0","610c393d97bda65462348f69","64dd6e3d487e5b89d60b2c03","","","","","1991",""," ","key"," ","16.667168067227227","500","250","eb","76","2","1","0","0","66","76"
"","psychophysics","140","595807","0.0-140.0","610c393d97bda65462348f69","64dd6e3d487e5b89d60b2c03","","","","","1922",""," ","key"," ","16.66703478260796","500","250","eb","82","2","1","0","0","76","82"
"","psychophysics","141","598331","0.0-141.0","610c393d97bda65462348f69","64dd6e3d487e5b89d60b2c03","","","","","2505",""," ","key"," ","16.667192052980415","500","250","eb","76","2","1","0","0","74","76"
"","psychophysics","142","599125","0.0-142.0","610c393d97bda65462348f69","64dd6e3d487e5b89d60b2c03","","","","","749",""," ","key"," ","16.667108695652924","500","250","inst","","","","","","",""
"","psychophysics","143","639135","0.0-143.0","610c393d97bda65462348f69","64dd6e3d487e5b89d60b2c03","","","","","39997",""," ","key"," ","16.667134583333343","500","250","instPog0","340","2","","0","0","370","340"
"","psychophysics","144","643248","0.0-144.0","610c393d97bda65462348f69","64dd6e3d487e5b89d60b2c03","","","","","4083",""," ","key"," ","16.66719105691087","500","250","instPog1","342","2","","0","0","370","340"
"","psychophysics","145","644962","0.0-145.0","610c393d97bda65462348f69","64dd6e3d487e5b89d60b2c03","","","","","1707",""," ","key"," ","16.66714705882352","500","250","instPog2","332","2","","0","0","340","340"
"","psychophysics","146","646076","0.0-146.0","610c393d97bda65462348f69","64dd6e3d487e5b89d60b2c03","","","","","1066",""," ","key"," ","16.66689230769228","500","250","inst","","","","","","",""
"","psychophysics","147","647606","0.0-147.0","610c393d97bda65462348f69","64dd6e3d487e5b89d60b2c03","","","","","1516",""," ","key"," ","16.667285714285693","500","250","pog","317","2","1","0","0","325","324"
"","psychophysics","148","651257","0.0-148.0","610c393d97bda65462348f69","64dd6e3d487e5b89d60b2c03","","","","","3635",""," ","key"," ","16.667183486238514","500","250","pog","356","2","1","0","0","400","361"
"","psychophysics","149","654746","0.0-149.0","610c393d97bda65462348f69","64dd6e3d487e5b89d60b2c03","","","","","3478",""," ","key"," ","16.667167464115224","500","250","pog","324","2","1","0","0","390","324"
"","psychophysics","150","655971","0.0-150.0","610c393d97bda65462348f69","64dd6e3d487e5b89d60b2c03","","","","","1177",""," ","key"," ","16.66731944444473","500","250","pog","333","2","1","0","0","337","332"
"","psychophysics","151","659983","0.0-151.0","610c393d97bda65462348f69","64dd6e3d487e5b89d60b2c03","","","","","4001",""," ","key"," ","16.667129166666808","500","250","pog","341","2","1","0","0","285","348"
"","psychophysics","152","662450","0.0-152.0","610c393d97bda65462348f69","64dd6e3d487e5b89d60b2c03","","","","","2430",""," ","key"," ","16.667115646258445","500","250","pog","352","2","1","0","0","334","356"
"","psychophysics","153","666363","0.0-153.0","610c393d97bda65462348f69","64dd6e3d487e5b89d60b2c03","","","","","3898",""," ","key"," ","16.667102564102372","500","250","pog","310","2","1","0","0","308","318"
"","psychophysics","154","669830","0.0-154.0","610c393d97bda65462348f69","64dd6e3d487e5b89d60b2c03","","","","","3444",""," ","key"," ","16.667202898550887","500","250","pog","362","2","1","0","0","400","371"
"","psychophysics","155","671136","0.0-155.0","610c393d97bda65462348f69","64dd6e3d487e5b89d60b2c03","","","","","1298",""," ","key"," ","16.667207792207794","500","250","pog","332","2","1","0","0","332","344"
"","psychophysics","156","673035","0.0-156.0","610c393d97bda65462348f69","64dd6e3d487e5b89d60b2c03","","","","","1861",""," ","key"," ","16.667017699114204","500","250","pog","304","2","1","0","0","308","311"
"","psychophysics","157","676149","0.0-157.0","610c393d97bda65462348f69","64dd6e3d487e5b89d60b2c03","","","","","3099",""," ","key"," ","16.66716666666663","500","250","pog","359","2","1","0","0","363","367"
"","psychophysics","158","679385","0.0-158.0","610c393d97bda65462348f69","64dd6e3d487e5b89d60b2c03","","","","","3226",""," ","key"," ","16.667150259067405","500","250","pog","337","2","1","0","0","395","347"
"","psychophysics","159","681416","0.0-159.0","610c393d97bda65462348f69","64dd6e3d487e5b89d60b2c03","","","","","2019",""," ","key"," ","16.667074380165413","500","250","pog","290","2","1","0","0","280","309"
"","psychophysics","160","682784","0.0-160.0","610c393d97bda65462348f69","64dd6e3d487e5b89d60b2c03","","","","","1332",""," ","key"," ","16.66719753086498","500","250","pog","337","2","1","0","0","335","350"
"","psychophysics","161","684179","0.0-161.0","610c393d97bda65462348f69","64dd6e3d487e5b89d60b2c03","","","","","1383",""," ","key"," ","16.667265060241334","500","250","pog","345","2","1","0","0","339","363"
"","psychophysics","162","685210","0.0-162.0","610c393d97bda65462348f69","64dd6e3d487e5b89d60b2c03","","","","","989",""," ","key"," ","16.666949999999876","500","250","inst","","","","","","",""
"","psychophysics","163","720900","0.0-163.0","610c393d97bda65462348f69","64dd6e3d487e5b89d60b2c03","","","","","35676",""," ","key"," ","16.66713825315273","500","250","instPz1","24","2","","","","25","50"
"","psychophysics","164","721532","0.0-164.0","610c393d97bda65462348f69","64dd6e3d487e5b89d60b2c03","","","","","595",""," ","key"," ","16.667081081081886","500","250","instPz2","20","2","","","","20","35"
"","psychophysics","165","722069","0.0-165.0","610c393d97bda65462348f69","64dd6e3d487e5b89d60b2c03","","","","","515",""," ","key"," ","16.66716129032354","500","250","instPz3","30","2","","","","30","100"
"","psychophysics","166","722961","0.0-166.0","610c393d97bda65462348f69","64dd6e3d487e5b89d60b2c03","","","","","882",""," ","key"," ","16.66696153846211","500","250","instPz4","30","2","","","","30","100"
"","psychophysics","167","723581","0.0-167.0","610c393d97bda65462348f69","64dd6e3d487e5b89d60b2c03","","","","","609",""," ","key"," ","16.66736111111176","500","250","inst","","","","","","",""
"","psychophysics","168","728650","0.0-168.0","610c393d97bda65462348f69","64dd6e3d487e5b89d60b2c03","","","","","5026",""," ","key"," ","16.722148514851828","500","250","pz","29","2","1","","","57","36"
"","psychophysics","169","731279","0.0-169.0","610c393d97bda65462348f69","64dd6e3d487e5b89d60b2c03","","","","","2615",""," ","key"," ","16.6671592356692","500","250","pz","25","2","1","","","32","27"
"","psychophysics","170","735916","0.0-170.0","610c393d97bda65462348f69","64dd6e3d487e5b89d60b2c03","","","","","4606",""," ","key"," ","16.66715523465671","500","250","pz","19","2","1","","","54","21"
"","psychophysics","171","739664","0.0-171.0","610c393d97bda65462348f69","64dd6e3d487e5b89d60b2c03","","","","","3741",""," ","key"," ","16.66710267857135","500","250","pz","28","2","1","","","26","34"
"","psychophysics","172","742688","0.0-172.0","610c393d97bda65462348f69","64dd6e3d487e5b89d60b2c03","","","","","2992",""," ","key"," ","16.66712777777769","500","250","pz","26","2","1","","","39","29"
"","psychophysics","173","746928","0.0-173.0","610c393d97bda65462348f69","64dd6e3d487e5b89d60b2c03","","","","","4225",""," ","key"," ","16.6671818181819","500","250","pz","25","2","1","","","47","30"
"","psychophysics","174","749972","0.0-174.0","610c393d97bda65462348f69","64dd6e3d487e5b89d60b2c03","","","","","3006",""," ","key"," ","16.759198895027186","500","250","pz","30","2","1","","","40","43"
"","psychophysics","175","754648","0.0-175.0","610c393d97bda65462348f69","64dd6e3d487e5b89d60b2c03","","","","","4661",""," ","key"," ","16.66710000000021","500","250","pz","19","2","1","","","51","20"
"","psychophysics","176","756988","0.0-176.0","610c393d97bda65462348f69","64dd6e3d487e5b89d60b2c03","","","","","2298",""," ","key"," ","16.667122302158138","500","250","pz","21","2","1","","","36","21"
"","psychophysics","177","760814","0.0-177.0","610c393d97bda65462348f69","64dd6e3d487e5b89d60b2c03","","","","","3813",""," ","key"," ","16.6671310043665","500","250","pz","34","2","1","","","21","43"
"","psychophysics","178","765221","0.0-178.0","610c393d97bda65462348f69","64dd6e3d487e5b89d60b2c03","","","","","4367",""," ","key"," ","16.667148288973685","500","250","pz","30","2","1","","","60","31"
"","psychophysics","179","767187","0.0-179.0","610c393d97bda65462348f69","64dd6e3d487e5b89d60b2c03","","","","","1951",""," ","key"," ","16.667111111111325","500","250","pz","24","2","1","","","33","24"
"","psychophysics","180","771499","0.0-180.0","610c393d97bda65462348f69","64dd6e3d487e5b89d60b2c03","","","","","4271",""," ","key"," ","16.732003891050585","500","250","pz","20","2","1","","","57","20"
"","psychophysics","181","774064","0.0-181.0","610c393d97bda65462348f69","64dd6e3d487e5b89d60b2c03","","","","","2558",""," ","key"," ","16.66711764705894","500","250","pz","38","2","1","","","45","49"
"","psychophysics","182","776936","0.0-182.0","610c393d97bda65462348f69","64dd6e3d487e5b89d60b2c03","","","","","2837",""," ","key"," ","16.66711695906461","500","250","pz","30","2","1","","","28","32"
"","psychophysics","183","777848","0.0-183.0","610c393d97bda65462348f69","64dd6e3d487e5b89d60b2c03","","","","","899",""," ","key"," ","16.666981481481344","500","250","inst","","","","","","",""
"","psychophysics","184","781868","0.0-184.0","610c393d97bda65462348f69","64dd6e3d487e5b89d60b2c03","","","","","3978",""," ","key"," ","16.66717499999989","500","250","instZol1","0.4999999999999998","","","0","0","-1.3",""
"","psychophysics","185","785043","0.0-185.0","610c393d97bda65462348f69","64dd6e3d487e5b89d60b2c03","","","","","3161",""," ","key"," ","16.667089947090343","500","250","instZol2","-1.4999999999999996","2","","0","0","2",""
"","psychophysics","186","785633","0.0-186.0","610c393d97bda65462348f69","64dd6e3d487e5b89d60b2c03","","","","","547",""," ","key"," ","17.157147058823337","500","250","inst","","","","","","",""
"","psychophysics","187","789120","0.0-187.0","610c393d97bda65462348f69","64dd6e3d487e5b89d60b2c03","","","","","3468",""," ","key"," ","16.667182692307577","500","250","zol","-0.31","2","1","14","5","-0.09",""
"","psychophysics","188","793871","0.0-188.0","610c393d97bda65462348f69","64dd6e3d487e5b89d60b2c03","","","","","4712",""," ","key"," ","16.726038869257685","500","250","zol","-0.7","2","1","5","15","-0.6",""
"","psychophysics","189","799084","0.0-189.0","610c393d97bda65462348f69","64dd6e3d487e5b89d60b2c03","","","","","5195",""," ","key"," ","16.667102564102745","500","250","zol","-1.4800000000000004","2","1","2","8","0.68",""
"","psychophysics","190","803057","0.0-190.0","610c393d97bda65462348f69","64dd6e3d487e5b89d60b2c03","","","","","3934",""," ","key"," ","16.66717299578057","500","250","zol","-1.4000000000000001","2","1","19","-20","0.7",""
"","psychophysics","191","805401","0.0-191.0","610c393d97bda65462348f69","64dd6e3d487e5b89d60b2c03","","","","","2325",""," ","key"," ","16.667085714285662","500","250","zol","-1.3","2","1","21","16","-0.2",""
"","psychophysics","192","807996","0.0-192.0","610c393d97bda65462348f69","64dd6e3d487e5b89d60b2c03","","","","","2553",""," ","key"," ","16.667071428571","500","250","zol","-1.5500000000000005","2","1","-4","-19","0.45",""
"","psychophysics","193","812147","0.0-193.0","610c393d97bda65462348f69","64dd6e3d487e5b89d60b2c03","","","","","4134",""," ","key"," ","16.667125000000176","500","250","zol","-1.8300000000000005","2","1","-11","14","-0.57",""
"","psychophysics","194","816766","0.0-194.0","610c393d97bda65462348f69","64dd6e3d487e5b89d60b2c03","","","","","4577",""," ","key"," ","16.72749637681156","500","250","zol","-1.5600000000000003","2","1","23","-12","-0.74",""
"","psychophysics","195","819695","0.0-195.0","610c393d97bda65462348f69","64dd6e3d487e5b89d60b2c03","","","","","2912",""," ","key"," ","16.667166666666997","500","250","zol","-1.2200000000000002","2","1","25","1","-0.58",""
"","psychophysics","196","824507","0.0-196.0","610c393d97bda65462348f69","64dd6e3d487e5b89d60b2c03","","","","","4792",""," ","key"," ","16.667124999999942","500","250","zol","-1.2500000000000002","2","1","-19","24","0.15",""
"","psychophysics","197","828293","0.0-197.0","610c393d97bda65462348f69","64dd6e3d487e5b89d60b2c03","","","","","3767",""," ","key"," ","16.741279999999744","500","250","zol","-1.3600000000000003","2","1","-6","1","-0.44",""
"","psychophysics","198","830357","0.0-198.0","610c393d97bda65462348f69","64dd6e3d487e5b89d60b2c03","","","","","2001",""," ","key"," ","16.94263636363643","500","250","zol","-1.7200000000000006","2","1","13","-27","0.02",""
"","psychophysics","199","832977","0.0-199.0","610c393d97bda65462348f69","64dd6e3d487e5b89d60b2c03","","","","","2596",""," ","key"," ","16.667096153846405","500","250","zol","-2.2400000000000007","2","1","-11","5","0.24",""
"","psychophysics","200","835654","0.0-200.0","610c393d97bda65462348f69","64dd6e3d487e5b89d60b2c03","","","","","2624",""," ","key"," ","16.878151898734313","500","250","zol","-2.3600000000000008","2","1","-6","-2","-0.34",""
"","psychophysics","201","840195","0.0-201.0","610c393d97bda65462348f69","64dd6e3d487e5b89d60b2c03","","","","","4520",""," ","key"," ","16.667147601476092","500","250","zol","-1.6800000000000004","2","1","30","21","-0.32",""
"","psychophysics","202","840953","0.0-202.0","610c393d97bda65462348f69","64dd6e3d487e5b89d60b2c03","","","","","729",""," ","key"," ","16.667088888890834","500","250","inst","","","","","","",""
"","psychophysics","203","842142","0.0-203.0","610c393d97bda65462348f69","64dd6e3d487e5b89d60b2c03","","","","","1183",""," ","key"," ","16.667085714285662","500","250","instBr3","40","2","","0","0","40","300"
"","psychophysics","204","842775","0.0-204.0","610c393d97bda65462348f69","64dd6e3d487e5b89d60b2c03","","","","","587",""," ","key"," ","16.66724324324231","500","250","inst","","","","","","",""
"","psychophysics","205","845183","0.0-205.0","610c393d97bda65462348f69","64dd6e3d487e5b89d60b2c03","","","","","2391",""," ","key"," ","16.66704861111147","500","250","br","18","2","1","-27","-13","-7","277"
"","psychophysics","206","847129","0.0-206.0","610c393d97bda65462348f69","64dd6e3d487e5b89d60b2c03","","","","","1910",""," ","key"," ","16.66714782608754","500","250","br","18","2","1","12","-25","27","208"
"","psychophysics","207","849486","0.0-207.0","610c393d97bda65462348f69","64dd6e3d487e5b89d60b2c03","","","","","2340",""," ","key"," ","16.66714893617","500","250","br","17","2","1","13","22","3","281"
"","psychophysics","208","853036","0.0-208.0","610c393d97bda65462348f69","64dd6e3d487e5b89d60b2c03","","","","","3512",""," ","key"," ","16.667216981132405","500","250","br","13","2","1","14","-12","-25","261"
"","psychophysics","209","855892","0.0-209.0","610c393d97bda65462348f69","64dd6e3d487e5b89d60b2c03","","","","","2848",""," ","key"," ","16.66711176470648","500","250","br","16","2","1","12","-22","-20","241"
"","psychophysics","210","858550","0.0-210.0","610c393d97bda65462348f69","64dd6e3d487e5b89d60b2c03","","","","","2621",""," ","key"," ","16.66703773584911","500","250","br","27","2","1","-10","12","12","265"
"","psychophysics","211","860305","0.0-211.0","610c393d97bda65462348f69","64dd6e3d487e5b89d60b2c03","","","","","1748",""," ","key"," ","16.66721153846167","500","250","br","22","2","1","7","-5","12","300"
"","psychophysics","212","861843","0.0-212.0","610c393d97bda65462348f69","64dd6e3d487e5b89d60b2c03","","","","","1490",""," ","key"," ","16.667208791208957","500","250","br","18","2","1","-3","8","11","284"
"","psychophysics","213","864234","0.0-213.0","610c393d97bda65462348f69","64dd6e3d487e5b89d60b2c03","","","","","2378",""," ","key"," ","16.6672307692307","500","250","br","9","2","1","-7","26","-18","224"
"","psychophysics","214","865977","0.0-214.0","610c393d97bda65462348f69","64dd6e3d487e5b89d60b2c03","","","","","1692",""," ","key"," ","16.830666666666694","500","250","br","16","2","1","6","-29","19","245"
"","psychophysics","215","867885","0.0-215.0","610c393d97bda65462348f69","64dd6e3d487e5b89d60b2c03","","","","","1896",""," ","key"," ","16.667175438596146","500","250","br","20","2","1","13","19","9","227"
"","psychophysics","216","869535","0.0-216.0","610c393d97bda65462348f69","64dd6e3d487e5b89d60b2c03","","","","","1616",""," ","key"," ","16.667103092783833","500","250","br","25","2","1","12","-30","17","271"
"","psychophysics","217","872091","0.0-217.0","610c393d97bda65462348f69","64dd6e3d487e5b89d60b2c03","","","","","2542",""," ","key"," ","16.667150326797533","500","250","br","13","2","1","-4","-22","-8","232"
"","psychophysics","218","873847","0.0-218.0","610c393d97bda65462348f69","64dd6e3d487e5b89d60b2c03","","","","","1720",""," ","key"," ","16.66712499999938","500","250","br","16","2","1","-17","-5","5","280"
"","psychophysics","219","877353","0.0-219.0","610c393d97bda65462348f69","64dd6e3d487e5b89d60b2c03","","","","","3491",""," ","key"," ","16.746861244019335","500","250","br","18","2","1","-24","4","-30","266"
