"rt","response","trial_type","trial_index","time_elapsed","internal_node_id","pid","response_type","key_press","avg_frame_time","center_x","center_y","task","resp","jitterX","jitterY","start","parA","parB"
"5609","{""pid"":""4222""}","survey-text","0","5625","0.0-0.0","4222","","","","","","","","","","","",""
"18270"," ","psychophysics","1","23904","0.0-1.0","4222","key"," ","16.68322080291971","500","250","inst","","","","","",""
"2156"," ","psychophysics","2","26063","0.0-2.0","4222","key"," ","16.681750000000022","500","250","sample1","","","","","",""
"10187"," ","psychophysics","3","36255","0.0-3.0","4222","key"," ","16.683034426229504","500","250","sample2","102","","","","",""
"4734"," ","psychophysics","4","40991","0.0-4.0","4222","key"," ","16.682950530035342","500","250","sample3","100","","","","",""
"6366"," ","psychophysics","5","47359","0.0-5.0","4222","key"," ","16.683128608923877","500","250","sample4","102","","","","",""
"3566"," ","psychophysics","6","50927","0.0-6.0","4222","key"," ","16.682507042253537","500","250","sample5","","","","","",""
"9870"," ","psychophysics","7","60799","0.0-7.0","4222","key"," ","16.683594915254233","500","250","sample7","500","","","","",""
"6205"," ","psychophysics","8","67008","0.0-8.0","4222","key"," ","16.68357795698926","500","250","inst","","","","","",""
"5373"," ","psychophysics","9","72383","0.0-9.0","4222","key"," ","16.68419003115265","500","250","inst","","","","","",""
"4462"," ","psychophysics","10","76847","0.0-10.0","4222","key"," ","16.68300375939851","500","250","inst","","","","","",""
"1564"," ","psychophysics","11","78415","0.0-11.0","4222","key"," ","16.68234408602149","500","250","inst","","","","","",""
"3004"," ","psychophysics","12","81423","0.0-12.0","4222","key"," ","16.683777777777788","500","250","inst","","","","","",""
"2846"," ","psychophysics","13","84271","0.0-13.0","4222","key"," ","16.682911242603616","500","250","instBr0","-15","0","0","0","300",""
"7212"," ","psychophysics","14","91487","0.0-14.0","4222","key"," ","16.682706018518495","500","250","instBr1","-17","0","0","-40","300",""
"6526"," ","psychophysics","15","98015","0.0-15.0","4222","key"," ","16.682915384615384","500","250","instBr2","-16","0","0","40","300",""
"10174"," ","psychophysics","16","108191","0.0-16.0","4222","key"," ","16.683623973727407","500","250","instBr3","-10","0","0","40","300",""
"1407"," ","psychophysics","17","109600","0.0-17.0","4222","key"," ","16.687095238095242","500","250","inst","","","","","",""
"6188"," ","psychophysics","18","115791","0.0-18.0","4222","key"," ","16.683667567567593","500","250","br","-14","1","-14","8","300",""
"9982"," ","psychophysics","19","125774","0.0-19.0","4222","key"," ","16.683534338358445","500","250","br","-14","-25","17","19","300",""
"6846"," ","psychophysics","20","132623","0.0-20.0","4222","key"," ","16.68383414634147","500","250","br","-18","-12","-23","-26","300",""
"8397"," ","psychophysics","21","141022","0.0-21.0","4222","key"," ","16.683161354581646","500","250","br","-13","23","0","49","300",""
"10830"," ","psychophysics","22","151855","0.0-22.0","4222","key"," ","16.683492283950603","500","250","br","-17","28","-17","-32","300",""
"9917"," ","psychophysics","23","161774","0.0-23.0","4222","key"," ","16.683816498316506","500","250","br","-19","1","30","-33","300",""
"10494"," ","psychophysics","24","172270","0.0-24.0","4222","key"," ","16.683746815286643","500","250","br","-16","-26","-8","-15","300",""
"13887"," ","psychophysics","25","186160","0.0-25.0","4222","key"," ","16.683264423076917","500","250","br","-17","28","7","-30","300",""
"4236"," ","psychophysics","26","190399","0.0-26.0","4222","key"," ","16.68355335968373","500","250","br","-13","30","0","-6","300",""
"9582"," ","psychophysics","27","199983","0.0-27.0","4222","key"," ","16.68368062827222","500","250","br","-17","-4","26","41","300",""
"4318"," ","psychophysics","28","204303","0.0-28.0","4222","key"," ","16.682577519379773","500","250","br","-5","9","5","49","300",""
"8942"," ","psychophysics","29","213247","0.0-29.0","4222","key"," ","16.683263551401872","500","250","br","-18","-18","9","-18","300",""
"7454"," ","psychophysics","30","220703","0.0-30.0","4222","key"," ","16.68267264573993","500","250","br","-17","13","-5","-5","300",""
"6222"," ","psychophysics","31","226927","0.0-31.0","4222","key"," ","16.682956989247305","500","250","br","-22","12","-11","-48","300",""
"8686"," ","psychophysics","32","235615","0.0-32.0","4222","key"," ","16.683146153846163","500","250","br","-17","-4","10","-14","300",""
"1886"," ","psychophysics","33","237503","0.0-33.0","4222","key"," ","16.681178571428454","500","250","inst","","","","","",""
"1792"," ","psychophysics","34","239296","0.0-34.0","4222","key"," ","16.683074766355208","500","250","instEB0","40","0","0","40","40",""
"12060"," ","psychophysics","35","251358","0.0-35.0","4222","key"," ","16.68327700831025","500","250","instEB1","69","0","0","30","70",""
"10638"," ","psychophysics","36","261998","0.0-36.0","4222","key"," ","16.68315408805037","500","250","instEB2","43","0","0","60","40",""
"12187"," ","psychophysics","37","274190","0.0-37.0","4222","key"," ","16.68339589041098","500","250","instEB3","71","0","0","45","65",""
"10174"," ","psychophysics","38","284366","0.0-38.0","4222","key"," ","16.683615763546776","500","250","instEB4","70","0","0","45","65",""
"1118"," ","psychophysics","39","285486","0.0-39.0","4222","key"," ","16.686818181818428","500","250","inst","","","","","",""
"6542"," ","psychophysics","40","292030","0.0-40.0","4222","key"," ","16.683511508951472","500","250","eb","57","0","0","29","49",""
"8491"," ","psychophysics","41","300527","0.0-41.0","4222","key"," ","16.683349705304426","500","250","eb","53","0","0","44","46",""
"5614"," ","psychophysics","42","306143","0.0-42.0","4222","key"," ","16.684089552238756","500","250","eb","51","0","0","25","47",""
"6940"," ","psychophysics","43","313088","0.0-43.0","4222","key"," ","16.683552884615263","500","250","eb","59","0","0","39","53",""
"6654"," ","psychophysics","44","319744","0.0-44.0","4222","key"," ","16.68363316582917","500","250","eb","44","0","0","33","39",""
"9724"," ","psychophysics","45","329471","0.0-45.0","4222","key"," ","16.683640893470717","500","250","eb","26","0","0","28","24",""
"14846"," ","psychophysics","46","344319","0.0-46.0","4222","key"," ","16.683466816647933","500","250","eb","56","0","0","32","52",""
"7374"," ","psychophysics","47","351695","0.0-47.0","4222","key"," ","16.683151927437684","500","250","eb","31","0","0","35","27",""
"5278"," ","psychophysics","48","356975","0.0-48.0","4222","key"," ","16.682946031746116","500","250","eb","31","0","0","30","27",""
"9310"," ","psychophysics","49","366286","0.0-49.0","4222","key"," ","16.683560143626497","500","250","eb","57","0","0","32","49",""
"5244"," ","psychophysics","50","371534","0.0-50.0","4222","key"," ","16.683041401273996","500","250","eb","52","0","0","43","46",""
"6654"," ","psychophysics","51","378190","0.0-51.0","4222","key"," ","16.68352763819094","500","250","eb","57","0","0","54","52",""
"6238"," ","psychophysics","52","384430","0.0-52.0","4222","key"," ","16.683101876675657","500","250","eb","33","0","0","30","30",""
"9936"," ","psychophysics","53","394369","0.0-53.0","4222","key"," ","16.683238655462187","500","250","eb","35","0","0","29","31",""
"9195"," ","psychophysics","54","403566","0.0-54.0","4222","key"," ","16.683327272727304","500","250","eb","30","0","0","48","26",""
"1630"," ","psychophysics","55","405198","0.0-55.0","4222","key"," ","16.683804123711617","500","250","inst","","","","","",""
"5726"," ","psychophysics","56","410926","0.0-56.0","4222","key"," ","16.682883040935593","500","250","instBis0","150","0","0","110","150",""
"6718"," ","psychophysics","57","417646","0.0-57.0","4222","key"," ","16.683156716417948","500","250","instBis1","98","0","0","110","150",""
"8814"," ","psychophysics","58","426463","0.0-58.0","4222","key"," ","16.683910815939228","500","250","instBis2","109","13","15","115","114",""
"813"," ","psychophysics","59","427279","0.0-59.0","4222","key"," ","16.68510416666686","500","250","inst","","","","","",""
"8206"," ","psychophysics","60","435487","0.0-60.0","4222","key"," ","16.68286150712826","500","250","bis","206","-6","-22","236","202",""
"3646"," ","psychophysics","61","439135","0.0-61.0","4222","key"," ","16.68284403669745","500","250","bis","136","18","-18","136","139",""
"6990"," ","psychophysics","62","446127","0.0-62.0","4222","key"," ","16.68347129186601","500","250","bis","211","-6","10","205","209",""
"4046"," ","psychophysics","63","450175","0.0-63.0","4222","key"," ","16.682165289256087","500","250","bis","209","-10","-10","209","202",""
"14062"," ","psychophysics","64","464239","0.0-64.0","4222","key"," ","16.683209026128253","500","250","bis","204","-1","-27","232","213",""
"16654"," ","psychophysics","65","480894","0.0-65.0","4222","key"," ","16.683164493480433","500","250","bis","236","-2","-18","120","244",""
"11486"," ","psychophysics","66","492382","0.0-66.0","4222","key"," ","16.683364825581435","500","250","bis","170","12","19","208","170",""
"7518"," ","psychophysics","67","499902","0.0-67.0","4222","key"," ","16.68352783964361","500","250","bis","177","-12","22","137","184",""
"4973"," ","psychophysics","68","504878","0.0-68.0","4222","key"," ","16.68353020134222","500","250","bis","151","27","28","181","138",""
"9774"," ","psychophysics","69","514655","0.0-69.0","4222","key"," ","16.682894017094046","500","250","bis","169","4","-16","195","161",""
"13277"," ","psychophysics","70","527934","0.0-70.0","4222","key"," ","16.683410062893138","500","250","bis","248","18","-9","170","251",""
"11070"," ","psychophysics","71","539006","0.0-71.0","4222","key"," ","16.68380211480366","500","250","bis","208","29","-2","172","217",""
"9102"," ","psychophysics","72","548110","0.0-72.0","4222","key"," ","16.683295412844156","500","250","bis","191","-15","28","149","190",""
"20463"," ","psychophysics","73","568575","0.0-73.0","4222","key"," ","16.683311582381723","500","250","bis","134","26","1","224","139",""
"13405"," ","psychophysics","74","581982","0.0-74.0","4222","key"," ","16.683036159600906","500","250","bis","277","-3","-12","101","276",""
"1486"," ","psychophysics","75","583470","0.0-75.0","4222","key"," ","16.680738636363955","500","250","inst","","","","","",""
"1677"," ","psychophysics","76","585150","0.0-76.0","4222","key"," ","16.681929999999703","500","250","instZol0","0","0","0","0","",""
"11551"," ","psychophysics","77","596703","0.0-77.0","4222","key"," ","16.68322398843943","500","250","instZol1","0.10000000000000003","0","0","-1.3","",""
"70204"," ","psychophysics","78","666911","0.0-78.0","4222","key"," ","16.68333301640124","500","250","instZol2","-0.399999999999999","0","0","2","",""
"798"," ","psychophysics","79","667711","0.0-79.0","4222","key"," ","16.67919148936214","500","250","inst","","","","","",""
"1293"," ","psychophysics","80","669007","0.0-80.0","4222","key"," ","16.67976315789335","500","250","zol","-0.47","23","16","0.47","",""
"12619"," ","psychophysics","81","681631","0.0-81.0","4222","key"," ","16.683174603174578","500","250","zol","-0.45999999999999996","21","22","-0.04","",""
"12237"," ","psychophysics","82","693870","0.0-82.0","4222","key"," ","16.682956343792736","500","250","zol","-1.15","-19","14","-0.15","",""
"17246"," ","psychophysics","83","711119","0.0-83.0","4222","key"," ","16.683028073572093","500","250","zol","-0.74","-16","2","-0.26","",""
"10974"," ","psychophysics","84","722096","0.0-84.0","4222","key"," ","16.683385083713933","500","250","zol","-0.65","25","-4","-0.35","",""
"9420"," ","psychophysics","85","731518","0.0-85.0","4222","key"," ","16.683362344582605","500","250","zol","-1.04","26","-19","-0.26","",""
"12812"," ","psychophysics","86","744335","0.0-86.0","4222","key"," ","16.68336067708333","500","250","zol","-0.9799999999999999","25","4","-0.42","",""
"11997"," ","psychophysics","87","756334","0.0-87.0","4222","key"," ","16.683286908077964","500","250","zol","-0.7599999999999999","21","4","0.06","",""
"6525"," ","psychophysics","88","762862","0.0-88.0","4222","key"," ","16.682715384615285","500","250","zol","-0.62","-21","-6","-0.38","",""
"3421"," ","psychophysics","89","766287","0.0-89.0","4222","key"," ","16.682470588235518","500","250","zol","-0.57","-18","-19","-0.03","",""
"7643"," ","psychophysics","90","773934","0.0-90.0","4222","key"," ","16.683067685589712","500","250","zol","-0.9999999999999999","-13","-11","0.2","",""
"9325"," ","psychophysics","91","783262","0.0-91.0","4222","key"," ","16.683378136200634","500","250","zol","-0.8499999999999999","-3","-30","-0.65","",""
"10302"," ","psychophysics","92","793567","0.0-92.0","4222","key"," ","16.683350081037243","500","250","zol","-0.74","15","27","-0.06","",""
"23964"," ","psychophysics","93","817534","0.0-93.0","4222","key"," ","16.683194425087162","500","250","zol","-0.7699999999999999","-2","-4","-0.13","",""
"8045"," ","psychophysics","94","825582","0.0-94.0","4222","key"," ","16.683151452282118","500","250","zol","-0.8899999999999999","-26","21","-0.71","",""
"1166"," ","psychophysics","95","826750","0.0-95.0","4222","key"," ","16.68333333333367","500","250","inst","","","","","",""
"1678"," ","psychophysics","96","828430","0.0-96.0","4222","key"," ","16.681707070707674","500","250","instPz0","50","","","50","50",""
"6622"," ","psychophysics","97","835054","0.0-97.0","4222","key"," ","16.683366161616192","500","250","instPz1","49","","","25","50",""
"6781"," ","psychophysics","98","841838","0.0-98.0","4222","key"," ","16.682896551723978","500","250","instPz2","27","","","15","25",""
"12445"," ","psychophysics","99","854286","0.0-99.0","4222","key"," ","16.683655033557013","500","250","instPz3","34","","","15","25",""
"8894"," ","psychophysics","100","863182","0.0-100.0","4222","key"," ","16.683657894736854","500","250","instPz4","37","","","15","30",""
"845"," ","psychophysics","101","864030","0.0-101.0","4222","key"," ","16.68271999999881","500","250","inst","","","","","",""
"14719"," ","psychophysics","102","878752","0.0-102.0","4222","key"," ","16.68327324263038","500","250","pz","72","","","15","60",""
"7180"," ","psychophysics","103","885934","0.0-103.0","4222","key"," ","16.684004662004853","500","250","pz","36","","","15","31",""
"6286"," ","psychophysics","104","892222","0.0-104.0","4222","key"," ","16.68339893617017","500","250","pz","56","","","15","44",""
"3869"," ","psychophysics","105","896094","0.0-105.0","4222","key"," ","16.68272727272711","500","250","pz","69","","","15","56",""
"15472"," ","psychophysics","106","911568","0.0-106.0","4222","key"," ","16.68360949298814","500","250","pz","40","","","15","34",""
"8428"," ","psychophysics","107","919998","0.0-107.0","4222","key"," ","16.684007936507918","500","250","pz","65","","","15","52",""
"8862"," ","psychophysics","108","928862","0.0-108.0","4222","key"," ","16.683905660377526","500","250","pz","62","","","15","52",""
"7245"," ","psychophysics","109","936110","0.0-109.0","4222","key"," ","16.683942396313377","500","250","pz","33","","","15","27",""
"7389"," ","psychophysics","110","943502","0.0-110.0","4222","key"," ","16.683079185520302","500","250","pz","33","","","15","28",""
"11278"," ","psychophysics","111","954782","0.0-111.0","4222","key"," ","16.68334666666661","500","250","pz","32","","","15","28",""
"15614"," ","psychophysics","112","970398","0.0-112.0","4222","key"," ","16.68307486631021","500","250","pz","69","","","15","59",""
"7230"," ","psychophysics","113","977630","0.0-113.0","4222","key"," ","16.683354166666472","500","250","pz","44","","","15","37",""
"7741"," ","psychophysics","114","985374","0.0-114.0","4222","key"," ","16.683782327586258","500","250","pz","37","","","15","32",""
"6445"," ","psychophysics","115","991821","0.0-115.0","4222","key"," ","16.683942857142778","500","250","pz","39","","","15","31",""
"7806"," ","psychophysics","116","999629","0.0-116.0","4222","key"," ","16.68380942184162","500","250","pz","61","","","15","50",""
"2206"," ","psychophysics","117","1001837","0.0-117.0","4222","key"," ","16.685259541985403","500","250","inst","","","","","",""
"5372"," ","psychophysics","118","1007213","0.0-118.0","4222","key"," ","16.68337267080737","500","250","instTilt0","-5","","","-5","-5","2"
"2830"," ","psychophysics","119","1010046","0.0-119.0","4222","key"," ","16.683267857142795","500","250","instTilt1","5","","","5","-5","2"
"5740"," ","psychophysics","120","1015789","0.0-120.0","4222","key"," ","16.68349127906989","500","250","instTilt2","-8","","","5","-5","2"
"5230"," ","psychophysics","121","1021021","0.0-121.0","4222","key"," ","16.684153846153865","500","250","instTilt","11","","","","9","2"
"4861"," ","psychophysics","122","1025885","0.0-122.0","4222","key"," ","16.683780068728858","500","250","instTilt","4","","","","9","1"
"830"," ","psychophysics","123","1026717","0.0-123.0","4222","key"," ","16.677428571426557","500","250","inst","","","","","",""
"4398"," ","psychophysics","124","1031118","0.0-124.0","4222","key"," ","16.683030534350802","500","250","tilt","8","","","","8","0"
"4972"," ","psychophysics","125","1036093","0.0-125.0","4222","key"," ","16.68354697986592","500","250","tilt","3","","","","1","0"
"5630"," ","psychophysics","126","1041725","0.0-126.0","4222","key"," ","16.683482142856867","500","250","tilt","8","","","","8","0"
"4445"," ","psychophysics","127","1046173","0.0-127.0","4222","key"," ","16.683781954887433","500","250","tilt","-6","","","","-2","1"
"6606"," ","psychophysics","128","1052781","0.0-128.0","4222","key"," ","16.68307088607586","500","250","tilt","0","","","","2","1"
"4318"," ","psychophysics","129","1057101","0.0-129.0","4222","key"," ","16.684077519379276","500","250","tilt","5","","","","9","1"
"7630"," ","psychophysics","130","1064733","0.0-130.0","4222","key"," ","16.683344298245572","500","250","tilt","-7","","","","-8","0"
"8988"," ","psychophysics","131","1073725","0.0-131.0","4222","key"," ","16.683397769516414","500","250","tilt","9","","","","10","0"
"4221"," ","psychophysics","132","1077951","0.0-132.0","4222","key"," ","16.683992094861843","500","250","tilt","6","","","","7","0"
"8828"," ","psychophysics","133","1086781","0.0-133.0","4222","key"," ","16.683842803030117","500","250","tilt","5","","","","9","1"
"4382"," ","psychophysics","134","1091165","0.0-134.0","4222","key"," ","16.684229007634183","500","250","tilt","-4","","","","-2","1"
"7646"," ","psychophysics","135","1098813","0.0-135.0","4222","key"," ","16.68336980306356","500","250","tilt","3","","","","6","1"
"5950"," ","psychophysics","136","1104765","0.0-136.0","4222","key"," ","16.683137640449235","500","250","tilt","0","","","","-2","0"
"9903"," ","psychophysics","137","1114670","0.0-137.0","4222","key"," ","16.683317032040758","500","250","tilt","-5","","","","-5","1"
"7837"," ","psychophysics","138","1122509","0.0-138.0","4222","key"," ","16.682805555555213","500","250","tilt","-6","","","","-9","0"
"685"," ","psychophysics","139","1123197","0.0-139.0","4222","key"," ","16.67658536585343","500","250","inst","","","","","",""
"8030"," ","psychophysics","140","1131229","0.0-140.0","4222","key"," ","16.68295833333347","500","250","instPog0","160","0","0","190","160",""
"9150"," ","psychophysics","141","1140382","0.0-141.0","4222","key"," ","16.68333211678835","500","250","instPog1","159","0","0","190","160",""
"1678"," ","psychophysics","142","1142062","0.0-142.0","4222","key"," ","16.682696969697552","500","250","instPog2","189","0","0","190","160",""
"1357"," ","psychophysics","143","1143422","0.0-143.0","4222","key"," ","16.687296296294527","500","250","inst","","","","","",""
"9230"," ","psychophysics","144","1152654","0.0-144.0","4222","key"," ","16.683273550724877","500","250","pog","171","0","0","82","163",""
"9438"," ","psychophysics","145","1162094","0.0-145.0","4222","key"," ","16.683573451327508","500","250","pog","141","0","0","110","129",""
"9246"," ","psychophysics","146","1171342","0.0-146.0","4222","key"," ","16.683486437612796","500","250","pog","182","0","0","146","168",""
"10717"," ","psychophysics","147","1182062","0.0-147.0","4222","key"," ","16.683280373831728","500","250","pog","143","0","0","233","129",""
"10078"," ","psychophysics","148","1192142","0.0-148.0","4222","key"," ","16.682932006633433","500","250","pog","193","0","0","180","179",""
"7263"," ","psychophysics","149","1199406","0.0-149.0","4222","key"," ","16.6839655172417","500","250","pog","173","0","0","203","154",""
"10846"," ","psychophysics","150","1210254","0.0-150.0","4222","key"," ","16.6833543913713","500","250","pog","204","0","0","159","192",""
"6846"," ","psychophysics","151","1217102","0.0-151.0","4222","key"," ","16.684046454767497","500","250","pog","137","0","0","110","122",""
"13006"," ","psychophysics","152","1230110","0.0-152.0","4222","key"," ","16.683532734274497","500","250","pog","160","0","0","231","149",""
"10830"," ","psychophysics","153","1240942","0.0-153.0","4222","key"," ","16.683462962963084","500","250","pog","209","0","0","238","193",""
"2926"," ","psychophysics","154","1243870","0.0-154.0","4222","key"," ","16.68366857142853","500","250","pog","151","0","0","98","154",""
"8304"," ","psychophysics","155","1252175","0.0-155.0","4222","key"," ","16.683305835009833","500","250","pog","217","0","0","201","196",""
"12653"," ","psychophysics","156","1264829","0.0-156.0","4222","key"," ","16.68347027741097","500","250","pog","167","0","0","203","156",""
"9646"," ","psychophysics","157","1274477","0.0-157.0","4222","key"," ","16.683538994800696","500","250","pog","176","0","0","97","163",""
"16541"," ","psychophysics","158","1291021","0.0-158.0","4222","key"," ","16.683142280524905","500","250","pog","167","0","0","109","159",""
"1839"," ","psychophysics","159","1292862","0.0-159.0","4222","key"," ","16.682605504585908","500","250","inst","","","","","",""
"1692"," ","psychophysics","160","1294557","0.0-160.0","4222","key"," ","16.684445544556336","500","250","instML0","0","0","0","0","150","150"
"6350"," ","psychophysics","161","1300909","0.0-161.0","4222","key"," ","16.683994736841658","500","250","instML1","0","0","0","-60","120","180"
"21134"," ","psychophysics","162","1322046","0.0-162.0","4222","key"," ","16.683160347551382","500","250","instML2","6","0","0","60","180","120"
"12846"," ","psychophysics","163","1334894","0.0-163.0","4222","key"," ","16.68341352405712","500","250","instML3","12","0","0","-60","120","180"
"1055"," ","psychophysics","164","1335950","0.0-164.0","4222","key"," ","16.684758064513577","500","250","inst","","","","","",""
"25583"," ","psychophysics","165","1361534","0.0-165.0","4222","key"," ","16.683397912589676","500","250","ml","19","0","0","41","182","141"
"9005"," ","psychophysics","166","1370542","0.0-166.0","4222","key"," ","16.683736059479294","500","250","ml","12","0","0","-18","100","118"
"8958"," ","psychophysics","167","1379503","0.0-167.0","4222","key"," ","16.683575418994117","500","250","ml","25","0","0","43","170","127"
"8749"," ","psychophysics","168","1388254","0.0-168.0","4222","key"," ","16.682923518164426","500","250","ml","16","0","0","-10","133","143"
"4927"," ","psychophysics","169","1393183","0.0-169.0","4222","key"," ","16.683772881355896","500","250","ml","21","0","0","29","173","144"
"8572"," ","psychophysics","170","1401758","0.0-170.0","4222","key"," ","16.683038986354727","500","250","ml","21","0","0","-55","123","178"
"13182"," ","psychophysics","171","1414942","0.0-171.0","4222","key"," ","16.683382762991144","500","250","ml","31","0","0","-13","186","199"
"5630"," ","psychophysics","172","1420574","0.0-172.0","4222","key"," ","16.683148809523637","500","250","ml","14","0","0","24","158","134"
"8717"," ","psychophysics","173","1429294","0.0-173.0","4222","key"," ","16.682735632183977","500","250","ml","14","0","0","-62","118","180"
"6526"," ","psychophysics","174","1435822","0.0-174.0","4222","key"," ","16.68304358974326","500","250","ml","17","0","0","33","180","147"
"8828"," ","psychophysics","175","1444654","0.0-175.0","4222","key"," ","16.683302457466816","500","250","ml","28","0","0","38","195","157"
"10014"," ","psychophysics","176","1454670","0.0-176.0","4222","key"," ","16.683667779633097","500","250","ml","18","0","0","68","194","126"
"9774"," ","psychophysics","177","1464446","0.0-177.0","4222","key"," ","16.683256410256536","500","250","ml","14","0","0","28","164","136"
"10478"," ","psychophysics","178","1474926","0.0-178.0","4222","key"," ","16.682964912280767","500","250","ml","20","0","0","8","193","185"
"17071"," ","psychophysics","179","1491998","0.0-179.0","4222","key"," ","16.683247311828012","500","250","ml","19","0","0","-63","127","190"
