"rt","response","trial_type","trial_index","time_elapsed","internal_node_id","pid","response_type","key_press","avg_frame_time","center_x","center_y","task","resp","jitterX","jitterY","start","parA","parB"
"1304720","{""pid"":"" 4268""}","survey-text","0","1304723","0.0-0.0"," 4268","","","","","","","","","","","",""
"16790"," ","psychophysics","1","1321522","0.0-1.0"," 4268","key"," ","16.683200595829202","500","250","inst","","","","","",""
"4573"," ","psychophysics","2","1326097","0.0-2.0"," 4268","key"," ","16.683527472527057","500","250","sample1","","","","","",""
"30878"," ","psychophysics","3","1356978","0.0-3.0"," 4268","key"," ","16.683371351351333","500","250","sample2","100","","","","",""
"10078"," ","psychophysics","4","1367058","0.0-4.0"," 4268","key"," ","16.683034825870447","500","250","sample3","100","","","","",""
"20366"," ","psychophysics","5","1387425","0.0-5.0"," 4268","key"," ","16.683199999999964","500","250","sample4","100","","","","",""
"6638"," ","psychophysics","6","1394065","0.0-6.0"," 4268","key"," ","16.683083123426005","500","250","sample5","","","","","",""
"12558"," ","psychophysics","7","1406625","0.0-7.0"," 4268","key"," ","16.683335106382692","500","250","sample7","500","","","","",""
"8510"," ","psychophysics","8","1415137","0.0-8.0"," 4268","key"," ","16.683086444007614","500","250","inst","","","","","",""
"5614"," ","psychophysics","9","1420753","0.0-9.0"," 4268","key"," ","16.683681547619578","500","250","inst","","","","","",""
"4942"," ","psychophysics","10","1425697","0.0-10.0"," 4268","key"," ","16.683027118644123","500","250","inst","","","","","",""
"2334"," ","psychophysics","11","1428033","0.0-11.0"," 4268","key"," ","16.683251798561635","500","250","inst","","","","","",""
"1534"," ","psychophysics","12","1429568","0.0-12.0"," 4268","key"," ","16.681549450548896","500","250","inst","","","","","",""
"3454"," ","psychophysics","13","1433025","0.0-13.0"," 4268","key"," ","16.68324757281587","500","250","instBr0","-15","0","0","0","300",""
"13405"," ","psychophysics","14","1446433","0.0-14.0"," 4268","key"," ","16.68324906600246","500","250","instBr1","-20","0","0","-40","300",""
"13838"," ","psychophysics","15","1460273","0.0-15.0"," 4268","key"," ","16.68308564535577","500","250","instBr2","-16","0","0","40","300",""
"20846"," ","psychophysics","16","1481121","0.0-16.0"," 4268","key"," ","16.683161858974273","500","250","instBr3","-25","0","0","40","300",""
"1888"," ","psychophysics","17","1483010","0.0-17.0"," 4268","key"," ","16.683938053098665","500","250","inst","","","","","",""
"9436"," ","psychophysics","18","1492449","0.0-18.0"," 4268","key"," ","16.68343971631199","500","250","br","-18","28","30","44","300",""
"7534"," ","psychophysics","19","1499984","0.0-19.0"," 4268","key"," ","16.682824833702686","500","250","br","-26","-28","26","26","300",""
"6078"," ","psychophysics","20","1506064","0.0-20.0"," 4268","key"," ","16.683380165289364","500","250","br","-25","19","6","-33","300",""
"8381"," ","psychophysics","21","1514449","0.0-21.0"," 4268","key"," ","16.68366932270926","500","250","br","-24","5","19","-47","300",""
"4318"," ","psychophysics","22","1518768","0.0-22.0"," 4268","key"," ","16.682418604651215","500","250","br","-19","7","-10","-10","300",""
"6686"," ","psychophysics","23","1525456","0.0-23.0"," 4268","key"," ","16.683472499999915","500","250","br","-19","21","-7","-3","300",""
"9326"," ","psychophysics","24","1534784","0.0-24.0"," 4268","key"," ","16.682965949820737","500","250","br","-26","4","-1","43","300",""
"5438"," ","psychophysics","25","1540225","0.0-25.0"," 4268","key"," ","16.683406153846388","500","250","br","-22","23","21","15","300",""
"3374"," ","psychophysics","26","1543601","0.0-26.0"," 4268","key"," ","16.681781094528233","500","250","br","-22","-30","-29","-12","300",""
"7085"," ","psychophysics","27","1550688","0.0-27.0"," 4268","key"," ","16.683271226414945","500","250","br","-27","6","-21","-49","300",""
"6413"," ","psychophysics","28","1557104","0.0-28.0"," 4268","key"," ","16.683429687500393","500","250","br","-24","25","-18","23","300",""
"8590"," ","psychophysics","29","1565696","0.0-29.0"," 4268","key"," ","16.683449416342082","500","250","br","-19","-17","-2","25","300",""
"4270"," ","psychophysics","30","1569968","0.0-30.0"," 4268","key"," ","16.68341960784267","500","250","br","-23","5","10","-8","300",""
"5870"," ","psychophysics","31","1575840","0.0-31.0"," 4268","key"," ","16.6833589743588","500","250","br","-24","25","-22","32","300",""
"5070"," ","psychophysics","32","1580912","0.0-32.0"," 4268","key"," ","16.68341914191381","500","250","br","-20","-1","-23","17","300",""
"3310"," ","psychophysics","33","1584224","0.0-33.0"," 4268","key"," ","16.683467005075755","500","250","inst","","","","","",""
"2430"," ","psychophysics","34","1586656","0.0-34.0"," 4268","key"," ","16.68100689655202","500","250","instEB0","40","0","0","40","40",""
"15342"," ","psychophysics","35","1602000","0.0-35.0"," 4268","key"," ","16.683350380848825","500","250","instEB1","71","0","0","30","70",""
"12926"," ","psychophysics","36","1614927","0.0-36.0"," 4268","key"," ","16.683341085271564","500","250","instEB2","42","0","0","60","40",""
"16879"," ","psychophysics","37","1631809","0.0-37.0"," 4268","key"," ","16.683574678536143","500","250","instEB3","68","0","0","45","65",""
"11549"," ","psychophysics","38","1643360","0.0-38.0"," 4268","key"," ","16.68372648335756","500","250","instEB4","70","0","0","45","65",""
"1950"," ","psychophysics","39","1645312","0.0-39.0"," 4268","key"," ","16.683749999999517","500","250","inst","","","","","",""
"7070"," ","psychophysics","40","1652383","0.0-40.0"," 4268","key"," ","16.68319148936168","500","250","eb","37","0","0","41","27",""
"8158"," ","psychophysics","41","1660543","0.0-41.0"," 4268","key"," ","16.683108606557532","500","250","eb","53","0","0","33","46",""
"5918"," ","psychophysics","42","1666463","0.0-42.0"," 4268","key"," ","16.683333333333728","500","250","eb","33","0","0","29","25",""
"4894"," ","psychophysics","43","1671359","0.0-43.0"," 4268","key"," ","16.68415753424649","500","250","eb","47","0","0","49","39",""
"6398"," ","psychophysics","44","1677759","0.0-44.0"," 4268","key"," ","16.683237597911056","500","250","eb","48","0","0","38","43",""
"10734"," ","psychophysics","45","1688495","0.0-45.0"," 4268","key"," ","16.683281931464016","500","250","eb","36","0","0","53","29",""
"6780"," ","psychophysics","46","1695279","0.0-46.0"," 4268","key"," ","16.682773399014792","500","250","eb","41","0","0","46","35",""
"5902"," ","psychophysics","47","1701183","0.0-47.0"," 4268","key"," ","16.6832747875354","500","250","eb","30","0","0","40","25",""
"7150"," ","psychophysics","48","1708335","0.0-48.0"," 4268","key"," ","16.683663551401885","500","250","eb","47","0","0","54","43",""
"6590"," ","psychophysics","49","1714927","0.0-49.0"," 4268","key"," ","16.683403553299343","500","250","eb","40","0","0","25","34",""
"6990"," ","psychophysics","50","1721919","0.0-50.0"," 4268","key"," ","16.683361244019185","500","250","eb","32","0","0","29","25",""
"9214"," ","psychophysics","51","1731135","0.0-51.0"," 4268","key"," ","16.683303085299457","500","250","eb","54","0","0","33","50",""
"3630"," ","psychophysics","52","1734767","0.0-52.0"," 4268","key"," ","16.683290322581605","500","250","eb","49","0","0","52","45",""
"5438"," ","psychophysics","53","1740207","0.0-53.0"," 4268","key"," ","16.684089230768954","500","250","eb","42","0","0","32","37",""
"3006"," ","psychophysics","54","1743215","0.0-54.0"," 4268","key"," ","16.683374301676103","500","250","eb","56","0","0","54","53",""
"1372"," ","psychophysics","55","1744591","0.0-55.0"," 4268","key"," ","16.682146341463255","500","250","inst","","","","","",""
"10350"," ","psychophysics","56","1754942","0.0-56.0"," 4268","key"," ","16.683363489499346","500","250","instBis0","146","0","0","110","150",""
"10958"," ","psychophysics","57","1765903","0.0-57.0"," 4268","key"," ","16.683327743902492","500","250","instBis1","132","0","0","110","150",""
"11710"," ","psychophysics","58","1777615","0.0-58.0"," 4268","key"," ","16.683348074179747","500","250","instBis2","99","-23","22","117","119",""
"1294"," ","psychophysics","59","1778911","0.0-59.0"," 4268","key"," ","16.683207792208783","500","250","inst","","","","","",""
"7391"," ","psychophysics","60","1786303","0.0-60.0"," 4268","key"," ","16.68331900452489","500","250","bis","117","-7","26","185","132",""
"5296"," ","psychophysics","61","1791600","0.0-61.0"," 4268","key"," ","16.68275394321754","500","250","bis","151","4","0","121","204",""
"12044"," ","psychophysics","62","1803646","0.0-62.0"," 4268","key"," ","16.683373092926573","500","250","bis","211","-5","23","177","256",""
"9391"," ","psychophysics","63","1813039","0.0-63.0"," 4268","key"," ","16.683437722419832","500","250","bis","128","13","3","238","143",""
"6190"," ","psychophysics","64","1819230","0.0-64.0"," 4268","key"," ","16.68407297297318","500","250","bis","275","28","-25","211","285",""
"7758"," ","psychophysics","65","1826990","0.0-65.0"," 4268","key"," ","16.683086206896657","500","250","bis","200","27","7","282","209",""
"12366"," ","psychophysics","66","1839358","0.0-66.0"," 4268","key"," ","16.6833283783783","500","250","bis","190","8","11","290","208",""
"7983"," ","psychophysics","67","1847342","0.0-67.0"," 4268","key"," ","16.682847280334876","500","250","bis","130","-4","-23","230","160",""
"6446"," ","psychophysics","68","1853790","0.0-68.0"," 4268","key"," ","16.68275064935049","500","250","bis","123","-10","9","267","120",""
"4830"," ","psychophysics","69","1858622","0.0-69.0"," 4268","key"," ","16.68337024221435","500","250","bis","175","-10","-23","237","194",""
"11488"," ","psychophysics","70","1870112","0.0-70.0"," 4268","key"," ","16.683329941860542","500","250","bis","170","-10","-17","288","212",""
"5869"," ","psychophysics","71","1875982","0.0-71.0"," 4268","key"," ","16.68342857142844","500","250","bis","134","-28","-15","162","156",""
"10348"," ","psychophysics","72","1886334","0.0-72.0"," 4268","key"," ","16.683711290322695","500","250","bis","198","29","17","204","249",""
"8878"," ","psychophysics","73","1895214","0.0-73.0"," 4268","key"," ","16.68373069679847","500","250","bis","204","16","-18","204","261",""
"4750"," ","psychophysics","74","1899966","0.0-74.0"," 4268","key"," ","16.68248943661989","500","250","bis","141","-2","-6","151","167",""
"5199"," ","psychophysics","75","1905166","0.0-75.0"," 4268","key"," ","16.683723472668923","500","250","inst","","","","","",""
"2206"," ","psychophysics","76","1907374","0.0-76.0"," 4268","key"," ","16.6830992366397","500","250","instZol0","0","0","0","0","",""
"22014"," ","psychophysics","77","1929390","0.0-77.0"," 4268","key"," ","16.683310841546636","500","250","instZol1","2.7755575615628914e-17","0","0","-1.3","",""
"35485"," ","psychophysics","78","1964878","0.0-78.0"," 4268","key"," ","16.68323424270936","500","250","instZol2","-0.8999999999999992","0","0","2","",""
"1438"," ","psychophysics","79","1966318","0.0-79.0"," 4268","key"," ","16.686329411764575","500","250","inst","","","","","",""
"16158"," ","psychophysics","80","1982478","0.0-80.0"," 4268","key"," ","16.683380165289122","500","250","zol","0.01999999999999999","28","-14","0.38","",""
"8077"," ","psychophysics","81","1990557","0.0-81.0"," 4268","key"," ","16.683020703933696","500","250","zol","-1.25","-10","9","-0.05","",""
"8847"," ","psychophysics","82","1999408","0.0-82.0"," 4268","key"," ","16.682894339622877","500","250","zol","-1.02","-14","-16","0.52","",""
"7355"," ","psychophysics","83","2006765","0.0-83.0"," 4268","key"," ","16.6827386363637","500","250","zol","-1.5100000000000005","28","11","-0.29","",""
"5837"," ","psychophysics","84","2012606","0.0-84.0"," 4268","key"," ","16.68332664756422","500","250","zol","-1.7500000000000007","-9","19","0.65","",""
"7661"," ","psychophysics","85","2020270","0.0-85.0"," 4268","key"," ","16.683240174672232","500","250","zol","-0.9799999999999999","-15","16","-0.72","",""
"4957"," ","psychophysics","86","2025230","0.0-86.0"," 4268","key"," ","16.683500000000365","500","250","zol","-1.4200000000000004","2","5","0.22","",""
"6780"," ","psychophysics","87","2032014","0.0-87.0"," 4268","key"," ","16.682729064039037","500","250","zol","-1.1500000000000001","-5","-7","0.55","",""
"7805"," ","psychophysics","88","2039821","0.0-88.0"," 4268","key"," ","16.6835224839402","500","250","zol","-1.18","14","11","0.28","",""
"4302"," ","psychophysics","89","2044125","0.0-89.0"," 4268","key"," ","16.683412451362273","500","250","zol","-1.11","2","-23","0.21","",""
"12670"," ","psychophysics","90","2056798","0.0-90.0"," 4268","key"," ","16.683345191040825","500","250","zol","-1.3900000000000001","-27","12","-0.51","",""
"9868"," ","psychophysics","91","2066669","0.0-91.0"," 4268","key"," ","16.683281355932497","500","250","zol","-1.5400000000000005","-15","-29","0.14","",""
"7452"," ","psychophysics","92","2074125","0.0-92.0"," 4268","key"," ","16.683244394619255","500","250","zol","-1.7200000000000006","-6","4","0.12","",""
"7214"," ","psychophysics","93","2081341","0.0-93.0"," 4268","key"," ","16.6839351851851","500","250","zol","-1.29","25","-20","-0.71","",""
"7662"," ","psychophysics","94","2089005","0.0-94.0"," 4268","key"," ","16.683325327510893","500","250","zol","-1.4000000000000001","24","7","-0.3","",""
"1134"," ","psychophysics","95","2090141","0.0-95.0"," 4268","key"," ","16.682910447759525","500","250","inst","","","","","",""
"2798"," ","psychophysics","96","2092941","0.0-96.0"," 4268","key"," ","16.68313173652755","500","250","instPz0","50","","","50","50",""
"10462"," ","psychophysics","97","2103405","0.0-97.0"," 4268","key"," ","16.683658146964813","500","250","instPz1","51","","","25","50",""
"9326"," ","psychophysics","98","2112732","0.0-98.0"," 4268","key"," ","16.683763440860282","500","250","instPz2","26","","","15","25",""
"13403"," ","psychophysics","99","2126141","0.0-99.0"," 4268","key"," ","16.683259028642162","500","250","instPz3","33","","","15","25",""
"6064"," ","psychophysics","100","2132206","0.0-100.0"," 4268","key"," ","16.68339393939438","500","250","instPz4","35","","","15","30",""
"989"," ","psychophysics","101","2133196","0.0-101.0"," 4268","key"," ","16.680344827585564","500","250","inst","","","","","",""
"6926"," ","psychophysics","102","2140124","0.0-102.0"," 4268","key"," ","16.68289855072513","500","250","pz","60","","","15","50",""
"4894"," ","psychophysics","103","2145020","0.0-103.0"," 4268","key"," ","16.68339931740626","500","250","pz","31","","","15","24",""
"5262"," ","psychophysics","104","2150285","0.0-104.0"," 4268","key"," ","16.68384713375686","500","250","pz","64","","","15","53",""
"4622"," ","psychophysics","105","2154908","0.0-105.0"," 4268","key"," ","16.682942028985817","500","250","pz","34","","","15","24",""
"5068"," ","psychophysics","106","2159980","0.0-106.0"," 4268","key"," ","16.683082508250592","500","250","pz","26","","","15","20",""
"4381"," ","psychophysics","107","2164364","0.0-107.0"," 4268","key"," ","16.6833167938935","500","250","pz","65","","","15","54",""
"4078"," ","psychophysics","108","2168444","0.0-108.0"," 4268","key"," ","16.682823770490597","500","250","pz","50","","","15","44",""
"3246"," ","psychophysics","109","2171692","0.0-109.0"," 4268","key"," ","16.682440414508427","500","250","pz","43","","","15","35",""
"3677"," ","psychophysics","110","2175372","0.0-110.0"," 4268","key"," ","16.683027272726495","500","250","pz","65","","","15","60",""
"4158"," ","psychophysics","111","2179532","0.0-111.0"," 4268","key"," ","16.682189516127934","500","250","pz","48","","","15","42",""
"2988"," ","psychophysics","112","2182524","0.0-112.0"," 4268","key"," ","16.68370949720714","500","250","pz","36","","","15","27",""
"5294"," ","psychophysics","113","2187820","0.0-113.0"," 4268","key"," ","16.682636075949333","500","250","pz","63","","","15","54",""
"5950"," ","psychophysics","114","2193772","0.0-114.0"," 4268","key"," ","16.683359550561995","500","250","pz","48","","","15","36",""
"4414"," ","psychophysics","115","2198188","0.0-115.0"," 4268","key"," ","16.684378787878703","500","250","pz","46","","","15","40",""
"2622"," ","psychophysics","116","2200812","0.0-116.0"," 4268","key"," ","16.68289743589524","500","250","pz","37","","","15","29",""
"991"," ","psychophysics","117","2201804","0.0-117.0"," 4268","key"," ","16.68270689655288","500","250","inst","","","","","",""
"6348"," ","psychophysics","118","2208156","0.0-118.0"," 4268","key"," ","16.683373684210604","500","250","instTilt0","-5","","","-5","-5","2"
"11374"," ","psychophysics","119","2219532","0.0-119.0"," 4268","key"," ","16.683271659324806","500","250","instTilt1","-6","","","5","-5","2"
"5950"," ","psychophysics","120","2225484","0.0-120.0"," 4268","key"," ","16.682966292134665","500","250","instTilt2","-7","","","5","-5","2"
"3726"," ","psychophysics","121","2229212","0.0-121.0"," 4268","key"," ","16.68347747747887","500","250","instTilt","13","","","","9","2"
"7054"," ","psychophysics","122","2236268","0.0-122.0"," 4268","key"," ","16.68375118483317","500","250","instTilt","7","","","","9","1"
"958"," ","psychophysics","123","2237228","0.0-123.0"," 4268","key"," ","16.680052631575485","500","250","inst","","","","","",""
"3534"," ","psychophysics","124","2240763","0.0-124.0"," 4268","key"," ","16.68233175355482","500","250","tilt","-12","","","","-7","1"
"3038"," ","psychophysics","125","2243804","0.0-125.0"," 4268","key"," ","16.68344751381166","500","250","tilt","13","","","","10","0"
"6046"," ","psychophysics","126","2249851","0.0-126.0"," 4268","key"," ","16.68330470914114","500","250","tilt","-8","","","","-7","0"
"7052"," ","psychophysics","127","2256908","0.0-127.0"," 4268","key"," ","16.683545023696144","500","250","tilt","-12","","","","-8","0"
"10142"," ","psychophysics","128","2267052","0.0-128.0"," 4268","key"," ","16.683420098846995","500","250","tilt","8","","","","5","0"
"6192"," ","psychophysics","129","2273246","0.0-129.0"," 4268","key"," ","16.684061994609195","500","250","tilt","13","","","","6","0"
"4908"," ","psychophysics","130","2278156","0.0-130.0"," 4268","key"," ","16.683372013650693","500","250","tilt","-11","","","","-2","1"
"4254"," ","psychophysics","131","2282412","0.0-131.0"," 4268","key"," ","16.682767716535242","500","250","tilt","13","","","","6","0"
"4286"," ","psychophysics","132","2286700","0.0-132.0"," 4268","key"," ","16.682507812500262","500","250","tilt","11","","","","4","0"
"3134"," ","psychophysics","133","2289836","0.0-133.0"," 4268","key"," ","16.683491978610064","500","250","tilt","-6","","","","-1","0"
"4942"," ","psychophysics","134","2294780","0.0-134.0"," 4268","key"," ","16.683413559323082","500","250","tilt","-8","","","","-5","0"
"5534"," ","psychophysics","135","2300316","0.0-135.0"," 4268","key"," ","16.684075528700916","500","250","tilt","4","","","","2","1"
"3870"," ","psychophysics","136","2304188","0.0-136.0"," 4268","key"," ","16.6832510822501","500","250","tilt","-8","","","","-2","1"
"4302"," ","psychophysics","137","2308492","0.0-137.0"," 4268","key"," ","16.68333852140175","500","250","tilt","-11","","","","-6","1"
"5166"," ","psychophysics","138","2313660","0.0-138.0"," 4268","key"," ","16.682974110031953","500","250","tilt","7","","","","7","1"
"974"," ","psychophysics","139","2314636","0.0-139.0"," 4268","key"," ","16.68435087719148","500","250","inst","","","","","",""
"12525"," ","psychophysics","140","2327164","0.0-140.0"," 4268","key"," ","16.68344133333303","500","250","instPog0","161","0","0","190","160",""
"12300"," ","psychophysics","141","2339467","0.0-141.0"," 4268","key"," ","16.683666214382267","500","250","instPog1","179","0","0","190","160",""
"8815"," ","psychophysics","142","2348284","0.0-142.0"," 4268","key"," ","16.68380075901397","500","250","instPog2","179","0","0","190","160",""
"956"," ","psychophysics","143","2349244","0.0-143.0"," 4268","key"," ","16.683491228066647","500","250","inst","","","","","",""
"20574"," ","psychophysics","144","2369819","0.0-144.0"," 4268","key"," ","16.683249999999973","500","250","pog","153","0","0","217","129",""
"3408"," ","psychophysics","145","2373229","0.0-145.0"," 4268","key"," ","16.68378431372591","500","250","pog","172","0","0","177","139",""
"3021"," ","psychophysics","146","2376252","0.0-146.0"," 4268","key"," ","16.683333333333334","500","250","pog","204","0","0","204","172",""
"7023"," ","psychophysics","147","2383276","0.0-147.0"," 4268","key"," ","16.68339761904707","500","250","pog","181","0","0","94","143",""
"1726"," ","psychophysics","148","2385003","0.0-148.0"," 4268","key"," ","16.68069607843462","500","250","pog","211","0","0","211","189",""
"956"," ","psychophysics","149","2385963","0.0-149.0"," 4268","key"," ","16.683105263156456","500","250","pog","188","0","0","188","153",""
"8368"," ","psychophysics","150","2394333","0.0-150.0"," 4268","key"," ","16.683385229540317","500","250","pog","225","0","0","103","197",""
"6380"," ","psychophysics","151","2400715","0.0-151.0"," 4268","key"," ","16.682745406824576","500","250","pog","164","0","0","96","140",""
"6318"," ","psychophysics","152","2407035","0.0-152.0"," 4268","key"," ","16.683338624338997","500","250","pog","199","0","0","136","165",""
"9118"," ","psychophysics","153","2416155","0.0-153.0"," 4268","key"," ","16.68327472527467","500","250","pog","170","0","0","87","145",""
"10814"," ","psychophysics","154","2426971","0.0-154.0"," 4268","key"," ","16.68339412673873","500","250","pog","204","0","0","88","180",""
"6862"," ","psychophysics","155","2433835","0.0-155.0"," 4268","key"," ","16.68343170731692","500","250","pog","179","0","0","233","146",""
"4013"," ","psychophysics","156","2437851","0.0-156.0"," 4268","key"," ","16.683504166667504","500","250","pog","229","0","0","190","196",""
"4990"," ","psychophysics","157","2442843","0.0-157.0"," 4268","key"," ","16.683610738255084","500","250","pog","179","0","0","95","150",""
"4318"," ","psychophysics","158","2447163","0.0-158.0"," 4268","key"," ","16.683364341084218","500","250","pog","205","0","0","155","187",""
"862"," ","psychophysics","159","2448027","0.0-159.0"," 4268","key"," ","16.683274509805237","500","250","inst","","","","","",""
"1246"," ","psychophysics","160","2449276","0.0-160.0"," 4268","key"," ","16.686283783785797","500","250","instML0","0","0","0","0","150","150"
"7774"," ","psychophysics","161","2457050","0.0-161.0"," 4268","key"," ","16.683298924731552","500","250","instML1","-2","0","0","-60","120","180"
"8302"," ","psychophysics","162","2465354","0.0-162.0"," 4268","key"," ","16.683927565392377","500","250","instML2","8","0","0","60","180","120"
"4078"," ","psychophysics","163","2469434","0.0-163.0"," 4268","key"," ","16.684024691359436","500","250","instML3","-60","0","0","-60","120","180"
"2526"," ","psychophysics","164","2471962","0.0-164.0"," 4268","key"," ","16.681761589403948","500","250","inst","","","","","",""
"6638"," ","psychophysics","165","2478602","0.0-165.0"," 4268","key"," ","16.683428211586893","500","250","ml","17","0","0","31","138","107"
"5966"," ","psychophysics","166","2484570","0.0-166.0"," 4268","key"," ","16.684132022471847","500","250","ml","20","0","0","-40","145","185"
"5564"," ","psychophysics","167","2490138","0.0-167.0"," 4268","key"," ","16.683294294294328","500","250","ml","33","0","0","1","185","184"
"1694"," ","psychophysics","168","2491834","0.0-168.0"," 4268","key"," ","16.68373267326762","500","250","ml","28","0","0","28","178","150"
"7198"," ","psychophysics","169","2499034","0.0-169.0"," 4268","key"," ","16.683306976744557","500","250","ml","16","0","0","44","147","103"
"7421"," ","psychophysics","170","2506458","0.0-170.0"," 4268","key"," ","16.683286036036463","500","250","ml","16","0","0","-20","115","135"
"4237"," ","psychophysics","171","2510699","0.0-171.0"," 4268","key"," ","16.68224015748165","500","250","ml","32","0","0","18","198","180"
"3437"," ","psychophysics","172","2514139","0.0-172.0"," 4268","key"," ","16.68324390243875","500","250","ml","39","0","0","-7","158","165"
"2702"," ","psychophysics","173","2516843","0.0-173.0"," 4268","key"," ","16.68311801242428","500","250","ml","34","0","0","24","152","128"
"2750"," ","psychophysics","174","2519595","0.0-174.0"," 4268","key"," ","16.683256097561","500","250","ml","16","0","0","2","109","107"
"4270"," ","psychophysics","175","2523867","0.0-175.0"," 4268","key"," ","16.683341176470048","500","250","ml","24","0","0","16","137","121"
"4432"," ","psychophysics","176","2528300","0.0-176.0"," 4268","key"," ","16.68345660377329","500","250","ml","27","0","0","25","158","133"
"4140"," ","psychophysics","177","2532443","0.0-177.0"," 4268","key"," ","16.682429149797798","500","250","ml","12","0","0","22","134","112"
"2318"," ","psychophysics","178","2534763","0.0-178.0"," 4268","key"," ","16.684304347825304","500","250","ml","15","0","0","9","122","113"
"4030"," ","psychophysics","179","2538795","0.0-179.0"," 4268","key"," ","16.683195020746503","500","250","ml","24","0","0","-2","155","157"
