"rt","response","trial_type","trial_index","time_elapsed","internal_node_id","pid","response_type","key_press","avg_frame_time","center_x","center_y","task","resp","jitterX","jitterY","start","parA","parB"
"5875","{""pid"":""4207""}","survey-text","0","5887","0.0-0.0","4207","","","","","","","","","","","",""
"16605"," ","psychophysics","1","22502","0.0-1.0","4207","key"," ","16.683602409638556","500","250","inst","","","","","",""
"2173"," ","psychophysics","2","24677","0.0-2.0","4207","key"," ","16.684736434108544","500","250","sample1","","","","","",""
"13083"," ","psychophysics","3","37765","0.0-3.0","4207","key"," ","16.683704081632655","500","250","sample2","98","","","","",""
"5630"," ","psychophysics","4","43397","0.0-4.0","4207","key"," ","16.683446428571425","500","250","sample3","104","","","","",""
"9116"," ","psychophysics","5","52517","0.0-5.0","4207","key"," ","16.68325457875458","500","250","sample4","100","","","","",""
"3246"," ","psychophysics","6","55765","0.0-6.0","4207","key"," ","16.683237113402036","500","250","sample5","","","","","",""
"5886"," ","psychophysics","7","61653","0.0-7.0","4207","key"," ","16.68351704545454","500","250","sample7","502","","","","",""
"3600"," ","psychophysics","8","65255","0.0-8.0","4207","key"," ","16.684548837209302","500","250","inst","","","","","",""
"748"," ","psychophysics","9","66005","0.0-9.0","4207","key"," ","16.683545454545477","500","250","inst","","","","","",""
"5614"," ","psychophysics","10","71621","0.0-10.0","4207","key"," ","16.6832328358209","500","250","inst","","","","","",""
"4014"," ","psychophysics","11","75638","0.0-11.0","4207","key"," ","16.682866666666634","500","250","inst","","","","","",""
"2127"," ","psychophysics","12","77767","0.0-12.0","4207","key"," ","16.684094488189015","500","250","inst","","","","","",""
"4060"," ","psychophysics","13","81829","0.0-13.0","4207","key"," ","16.684115702479325","500","250","instBr0","-13","0","0","0","300",""
"4030"," ","psychophysics","14","85861","0.0-14.0","4207","key"," ","16.68290456431536","500","250","instBr1","-22","0","0","-40","300",""
"4800"," ","psychophysics","15","90663","0.0-15.0","4207","key"," ","16.683153310104537","500","250","instBr2","-17","0","0","40","300",""
"6443"," ","psychophysics","16","97109","0.0-16.0","4207","key"," ","16.68365714285714","500","250","instBr3","-12","0","0","40","300",""
"1262"," ","psychophysics","17","98373","0.0-17.0","4207","key"," ","16.685599999999976","500","250","inst","","","","","",""
"2048"," ","psychophysics","18","100423","0.0-18.0","4207","key"," ","16.683877049180364","500","250","br","-11","-3","-23","13","300",""
"1868"," ","psychophysics","19","102293","0.0-19.0","4207","key"," ","16.68597297297294","500","250","br","-27","12","6","-49","300",""
"1278"," ","psychophysics","20","103573","0.0-20.0","4207","key"," ","16.685453333333328","500","250","br","-21","-5","8","-21","300",""
"2397"," ","psychophysics","21","105973","0.0-21.0","4207","key"," ","16.685195804195754","500","250","br","-25","-8","-22","-41","300",""
"4238"," ","psychophysics","22","110213","0.0-22.0","4207","key"," ","16.68430434782609","500","250","br","-9","18","16","37","300",""
"1532"," ","psychophysics","23","111749","0.0-23.0","4207","key"," ","16.68561538461526","500","250","br","-14","13","-15","3","300",""
"4013"," ","psychophysics","24","115765","0.0-24.0","4207","key"," ","16.683970833333298","500","250","br","-16","-27","-4","27","300",""
"1823"," ","psychophysics","25","117590","0.0-25.0","4207","key"," ","16.68578899082559","500","250","br","-27","-11","-14","-38","300",""
"3821"," ","psychophysics","26","121413","0.0-26.0","4207","key"," ","16.683280701754388","500","250","br","-12","22","4","27","300",""
"2238"," ","psychophysics","27","123653","0.0-27.0","4207","key"," ","16.683691729323286","500","250","br","-28","-8","-9","-35","300",""
"2638"," ","psychophysics","28","126293","0.0-28.0","4207","key"," ","16.68228662420386","500","250","br","-14","17","23","10","300",""
"894"," ","psychophysics","29","127189","0.0-29.0","4207","key"," ","16.683849056603613","500","250","br","-28","-7","13","-28","300",""
"4174"," ","psychophysics","30","131365","0.0-30.0","4207","key"," ","16.683301204819248","500","250","br","-15","15","6","48","300",""
"2878"," ","psychophysics","31","134245","0.0-31.0","4207","key"," ","16.683604651162717","500","250","br","-16","6","14","31","300",""
"1165"," ","psychophysics","32","135413","0.0-32.0","4207","key"," ","16.687173913043598","500","250","br","-19","-9","11","-19","300",""
"1838"," ","psychophysics","33","137253","0.0-33.0","4207","key"," ","16.683963302752257","500","250","inst","","","","","",""
"2494"," ","psychophysics","34","139749","0.0-34.0","4207","key"," ","16.684744966442967","500","250","instEB0","40","0","0","40","40",""
"4158"," ","psychophysics","35","143909","0.0-35.0","4207","key"," ","16.683826612903253","500","250","instEB1","69","0","0","30","70",""
"6430"," ","psychophysics","36","150341","0.0-36.0","4207","key"," ","16.682485714285672","500","250","instEB2","59","0","0","60","40",""
"5646"," ","psychophysics","37","155989","0.0-37.0","4207","key"," ","16.683400593471845","500","250","instEB3","68","0","0","45","65",""
"5630"," ","psychophysics","38","161621","0.0-38.0","4207","key"," ","16.683439169139433","500","250","instEB4","71","0","0","45","65",""
"1326"," ","psychophysics","39","162949","0.0-39.0","4207","key"," ","16.680974358974474","500","250","inst","","","","","",""
"2908"," ","psychophysics","40","165861","0.0-40.0","4207","key"," ","16.68187931034481","500","250","eb","62","0","0","35","49",""
"1597"," ","psychophysics","41","167461","0.0-41.0","4207","key"," ","16.680442105263385","500","250","eb","44","0","0","34","33",""
"1790"," ","psychophysics","42","169253","0.0-42.0","4207","key"," ","16.683716981132232","500","250","eb","54","0","0","54","50",""
"2014"," ","psychophysics","43","171269","0.0-43.0","4207","key"," ","16.68151666666672","500","250","eb","43","0","0","33","36",""
"1902"," ","psychophysics","44","173173","0.0-44.0","4207","key"," ","16.681203539822967","500","250","eb","39","0","0","31","30",""
"2158"," ","psychophysics","45","175333","0.0-45.0","4207","key"," ","16.685007751937828","500","250","eb","49","0","0","52","33",""
"1502"," ","psychophysics","46","176836","0.0-46.0","4207","key"," ","16.686460674157317","500","250","eb","45","0","0","41","40",""
"3982"," ","psychophysics","47","180820","0.0-47.0","4207","key"," ","16.68304621848728","500","250","eb","61","0","0","47","52",""
"2846"," ","psychophysics","48","183668","0.0-48.0","4207","key"," ","16.684289940828513","500","250","eb","34","0","0","24","25",""
"1611"," ","psychophysics","49","185284","0.0-49.0","4207","key"," ","16.68319791666666","500","250","eb","40","0","0","32","31",""
"1550"," ","psychophysics","50","186836","0.0-50.0","4207","key"," ","16.682347826086776","500","250","eb","46","0","0","33","40",""
"1839"," ","psychophysics","51","188678","0.0-51.0","4207","key"," ","16.68138181818173","500","250","eb","49","0","0","38","38",""
"1949"," ","psychophysics","52","190630","0.0-52.0","4207","key"," ","16.682896551724266","500","250","eb","50","0","0","51","34",""
"2734"," ","psychophysics","53","193366","0.0-53.0","4207","key"," ","16.684877300613554","500","250","eb","47","0","0","27","42",""
"1692"," ","psychophysics","54","195060","0.0-54.0","4207","key"," ","16.684959999999847","500","250","eb","56","0","0","45","40",""
"973"," ","psychophysics","55","196036","0.0-55.0","4207","key"," ","16.682465517241607","500","250","inst","","","","","",""
"7774"," ","psychophysics","56","203812","0.0-56.0","4207","key"," ","16.682810752688198","500","250","instBis0","152","0","0","110","150",""
"6878"," ","psychophysics","57","210693","0.0-57.0","4207","key"," ","16.68309489051097","500","250","instBis1","140","0","0","110","150",""
"4206"," ","psychophysics","58","214900","0.0-58.0","4207","key"," ","16.68360956175303","500","250","instBis2","140","-5","-8","176","147",""
"845"," ","psychophysics","59","215748","0.0-59.0","4207","key"," ","16.68890000000014","500","250","inst","","","","","",""
"1918"," ","psychophysics","60","217668","0.0-60.0","4207","key"," ","16.684815789473586","500","250","bis","234","29","-15","284","215",""
"4558"," ","psychophysics","61","222228","0.0-61.0","4207","key"," ","16.68324175824174","500","250","bis","215","-7","-5","267","242",""
"4958"," ","psychophysics","62","227188","0.0-62.0","4207","key"," ","16.68293581081073","500","250","bis","88","6","-26","188","117",""
"4063"," ","psychophysics","63","231253","0.0-63.0","4207","key"," ","16.682341563786043","500","250","bis","156","-2","4","280","209",""
"1245"," ","psychophysics","64","232500","0.0-64.0","4207","key"," ","16.683082191781093","500","250","bis","215","0","-4","217","278",""
"2013"," ","psychophysics","65","234516","0.0-65.0","4207","key"," ","16.681725000000007","500","250","bis","132","-6","2","152","224",""
"4142"," ","psychophysics","66","238660","0.0-66.0","4207","key"," ","16.68320564516128","500","250","bis","88","9","7","270","123",""
"3646"," ","psychophysics","67","242308","0.0-67.0","4207","key"," ","16.683875576036925","500","250","bis","228","10","17","114","296",""
"2686"," ","psychophysics","68","244996","0.0-68.0","4207","key"," ","16.682374999999958","500","250","bis","196","-1","9","230","273",""
"3389"," ","psychophysics","69","248388","0.0-69.0","4207","key"," ","16.683068965517243","500","250","bis","132","5","-18","100","192",""
"5614"," ","psychophysics","70","254004","0.0-70.0","4207","key"," ","16.68360597014926","500","250","bis","150","9","-12","208","206",""
"2702"," ","psychophysics","71","256708","0.0-71.0","4207","key"," ","16.685105590062086","500","250","bis","90","8","-7","166","106",""
"1469"," ","psychophysics","72","258180","0.0-72.0","4207","key"," ","16.686340909090756","500","250","bis","80","8","28","112","129",""
"3262"," ","psychophysics","73","261444","0.0-73.0","4207","key"," ","16.68481958762892","500","250","bis","195","18","30","197","282",""
"1006"," ","psychophysics","74","262452","0.0-74.0","4207","key"," ","16.685799999999777","500","250","bis","164","-7","-26","170","214",""
"1214"," ","psychophysics","75","263669","0.0-75.0","4207","key"," ","16.6865000000002","500","250","inst","","","","","",""
"11006"," ","psychophysics","76","274676","0.0-76.0","4207","key"," ","16.683636778115567","500","250","instZol0","0","0","0","0","",""
"7836"," ","psychophysics","77","282516","0.0-77.0","4207","key"," ","16.683567164179216","500","250","instZol1","-2.7755575615628914e-17","0","0","-1.3","",""
"24379"," ","psychophysics","78","306901","0.0-78.0","4207","key"," ","16.683373032169783","500","250","instZol2","-1.5","0","0","2","",""
"638"," ","psychophysics","79","307541","0.0-79.0","4207","key"," ","16.681324324323608","500","250","inst","","","","","",""
"4621"," ","psychophysics","80","312165","0.0-80.0","4207","key"," ","16.6831413043479","500","250","zol","-1.24","9","14","-0.66","",""
"3196"," ","psychophysics","81","315365","0.0-81.0","4207","key"," ","16.683623036649138","500","250","zol","-1.15","-9","18","0.05","",""
"1693"," ","psychophysics","82","317061","0.0-82.0","4207","key"," ","16.68169306930717","500","250","zol","-1.6900000000000004","-15","0","0.39","",""
"4397"," ","psychophysics","83","321461","0.0-83.0","4207","key"," ","16.68373384030413","500","250","zol","-1.8900000000000006","26","-22","-0.11","",""
"3261"," ","psychophysics","84","324725","0.0-84.0","4207","key"," ","16.684515463917386","500","250","zol","-1.6400000000000006","-30","-9","0.04","",""
"3517"," ","psychophysics","85","328245","0.0-85.0","4207","key"," ","16.68452857142852","500","250","zol","-1.5800000000000003","1","-11","0.18","",""
"8045"," ","psychophysics","86","336293","0.0-86.0","4207","key"," ","16.683970954356845","500","250","zol","-1.3100000000000003","12","0","-0.49","",""
"2461"," ","psychophysics","87","338757","0.0-87.0","4207","key"," ","16.68456164383559","500","250","zol","-1.17","-21","30","0.17","",""
"2011"," ","psychophysics","88","340773","0.0-88.0","4207","key"," ","16.685249999999844","500","250","zol","-1.18","-7","16","0.08","",""
"1965"," ","psychophysics","89","342741","0.0-89.0","4207","key"," ","16.68503418803398","500","250","zol","-1.6900000000000004","-15","-25","0.49","",""
"3149"," ","psychophysics","90","345893","0.0-90.0","4207","key"," ","16.683851063829856","500","250","zol","-1.24","-22","-18","-0.56","",""
"4989"," ","psychophysics","91","350885","0.0-91.0","4207","key"," ","16.68317114093947","500","250","zol","-1.36","-15","2","0.26","",""
"1661"," ","psychophysics","92","352549","0.0-92.0","4207","key"," ","16.683202020201897","500","250","zol","-0.6299999999999999","0","-23","-0.67","",""
"1293"," ","psychophysics","93","353845","0.0-93.0","4207","key"," ","16.68007792207766","500","250","zol","-1.4400000000000004","16","-2","-0.06","",""
"2077"," ","psychophysics","94","355925","0.0-94.0","4207","key"," ","16.683951219512107","500","250","zol","-1.6300000000000006","12","29","0.53","",""
"3501"," ","psychophysics","95","359429","0.0-95.0","4207","key"," ","16.684995215310956","500","250","inst","","","","","",""
"5612"," ","psychophysics","96","365045","0.0-96.0","4207","key"," ","16.683333333333437","500","250","instPz0","48","","","50","50",""
"2174"," ","psychophysics","97","367221","0.0-97.0","4207","key"," ","16.683906976744087","500","250","instPz1","48","","","25","50",""
"1469"," ","psychophysics","98","368693","0.0-98.0","4207","key"," ","16.685818181817673","500","250","instPz2","29","","","15","25",""
"4767"," ","psychophysics","99","373462","0.0-99.0","4207","key"," ","16.683378947368546","500","250","instPz3","29","","","15","25",""
"3164"," ","psychophysics","100","376629","0.0-100.0","4207","key"," ","16.684164893616824","500","250","instPz4","34","","","15","30",""
"701"," ","psychophysics","101","377334","0.0-101.0","4207","key"," ","16.682833333333424","500","250","inst","","","","","",""
"4669"," ","psychophysics","102","382005","0.0-102.0","4207","key"," ","16.682451612903364","500","250","pz","71","","","15","56",""
"3630"," ","psychophysics","103","385637","0.0-103.0","4207","key"," ","16.683240740740548","500","250","pz","57","","","15","36",""
"3823"," ","psychophysics","104","389462","0.0-104.0","4207","key"," ","16.682209606987005","500","250","pz","75","","","15","57",""
"2925"," ","psychophysics","105","392389","0.0-105.0","4207","key"," ","16.684011494253102","500","250","pz","65","","","15","43",""
"2398"," ","psychophysics","106","394789","0.0-106.0","4207","key"," ","16.684874125874366","500","250","pz","63","","","15","44",""
"2110"," ","psychophysics","107","396901","0.0-107.0","4207","key"," ","16.68152000000002","500","250","pz","54","","","15","43",""
"3197"," ","psychophysics","108","400101","0.0-108.0","4207","key"," ","16.682994764397854","500","250","pz","82","","","15","59",""
"2174"," ","psychophysics","109","402277","0.0-109.0","4207","key"," ","16.68218461538468","500","250","pz","58","","","15","52",""
"2205"," ","psychophysics","110","404485","0.0-110.0","4207","key"," ","16.685442748091642","500","250","pz","57","","","15","37",""
"3662"," ","psychophysics","111","408149","0.0-111.0","4207","key"," ","16.683940639269387","500","250","pz","73","","","15","41",""
"2606"," ","psychophysics","112","410757","0.0-112.0","4207","key"," ","16.681935483871044","500","250","pz","70","","","15","48",""
"2446"," ","psychophysics","113","413205","0.0-113.0","4207","key"," ","16.681767123287674","500","250","pz","60","","","15","31",""
"3102"," ","psychophysics","114","416309","0.0-114.0","4207","key"," ","16.68313513513516","500","250","pz","83","","","15","49",""
"2030"," ","psychophysics","115","418341","0.0-115.0","4207","key"," ","16.684322314049705","500","250","pz","50","","","15","34",""
"1584"," ","psychophysics","116","419927","0.0-116.0","4207","key"," ","16.683414893617428","500","250","pz","38","","","15","22",""
"844"," ","psychophysics","117","420773","0.0-117.0","4207","key"," ","16.68793877551085","500","250","inst","","","","","",""
"3996"," ","psychophysics","118","424773","0.0-118.0","4207","key"," ","16.68365690376581","500","250","instTilt0","-5","","","-5","-5","2"
"7214"," ","psychophysics","119","431989","0.0-119.0","4207","key"," ","16.68334027777773","500","250","instTilt1","-3","","","5","-5","2"
"4494"," ","psychophysics","120","436485","0.0-120.0","4207","key"," ","16.682742537313562","500","250","instTilt2","-6","","","5","-5","2"
"2654"," ","psychophysics","121","439141","0.0-121.0","4207","key"," ","16.682873417721336","500","250","instTilt","11","","","","9","2"
"4700"," ","psychophysics","122","443845","0.0-122.0","4207","key"," ","16.682775800711696","500","250","instTilt","9","","","","9","1"
"606"," ","psychophysics","123","444453","0.0-123.0","4207","key"," ","16.67927777777691","500","250","inst","","","","","",""
"1790"," ","psychophysics","124","446245","0.0-124.0","4207","key"," ","16.68324528301886","500","250","tilt","9","","","","9","1"
"1694"," ","psychophysics","125","447941","0.0-125.0","4207","key"," ","16.68259405940575","500","250","tilt","12","","","","9","0"
"1357"," ","psychophysics","126","449301","0.0-126.0","4207","key"," ","16.68052499999976","500","250","tilt","6","","","","1","0"
"1852"," ","psychophysics","127","451157","0.0-127.0","4207","key"," ","16.682657657657867","500","250","tilt","-12","","","","-10","0"
"1469"," ","psychophysics","128","452629","0.0-128.0","4207","key"," ","16.682862068965346","500","250","tilt","-5","","","","-4","0"
"2366"," ","psychophysics","129","454997","0.0-129.0","4207","key"," ","16.68469503546069","500","250","tilt","-1","","","","2","1"
"1680"," ","psychophysics","130","456679","0.0-130.0","4207","key"," ","16.684580000000423","500","250","tilt","-9","","","","-2","1"
"2012"," ","psychophysics","131","458693","0.0-131.0","4207","key"," ","16.682823529412204","500","250","tilt","-9","","","","-6","0"
"1629"," ","psychophysics","132","460325","0.0-132.0","4207","key"," ","16.683278350515373","500","250","tilt","-4","","","","-5","1"
"1470"," ","psychophysics","133","461797","0.0-133.0","4207","key"," ","16.686379310344453","500","250","tilt","-8","","","","-2","0"
"1949"," ","psychophysics","134","463749","0.0-134.0","4207","key"," ","16.68320689655204","500","250","tilt","-1","","","","-3","0"
"2076"," ","psychophysics","135","465829","0.0-135.0","4207","key"," ","16.680717741935364","500","250","tilt","-14","","","","-9","1"
"3902"," ","psychophysics","136","469733","0.0-136.0","4207","key"," ","16.683296137339237","500","250","tilt","-14","","","","-9","0"
"1359"," ","psychophysics","137","471093","0.0-137.0","4207","key"," ","16.686049382716135","500","250","tilt","7","","","","1","0"
"782"," ","psychophysics","138","471878","0.0-138.0","4207","key"," ","16.684195652173873","500","250","tilt","0","","","","-1","1"
"1501"," ","psychophysics","139","473381","0.0-139.0","4207","key"," ","16.681011235954898","500","250","inst","","","","","",""
"6158"," ","psychophysics","140","479541","0.0-140.0","4207","key"," ","16.68286684782604","500","250","instPog0","160","0","0","190","160",""
"10446"," ","psychophysics","141","489989","0.0-141.0","4207","key"," ","16.68311679999996","500","250","instPog1","154","0","0","190","160",""
"7680"," ","psychophysics","142","497670","0.0-142.0","4207","key"," ","16.683336956521657","500","250","instPog2","170","0","0","190","160",""
"700"," ","psychophysics","143","498373","0.0-143.0","4207","key"," ","16.681024390242982","500","250","inst","","","","","",""
"5710"," ","psychophysics","144","504085","0.0-144.0","4207","key"," ","16.683249266862205","500","250","pog","171","0","0","103","166",""
"1950"," ","psychophysics","145","506037","0.0-145.0","4207","key"," ","16.68266379310356","500","250","pog","135","0","0","116","130",""
"1838"," ","psychophysics","146","507877","0.0-146.0","4207","key"," ","16.682247706421933","500","250","pog","163","0","0","174","147",""
"2348"," ","psychophysics","147","510229","0.0-147.0","4207","key"," ","16.682778571428415","500","250","pog","176","0","0","196","160",""
"2829"," ","psychophysics","148","513061","0.0-148.0","4207","key"," ","16.684106508875747","500","250","pog","148","0","0","102","147",""
"2846"," ","psychophysics","149","515909","0.0-149.0","4207","key"," ","16.683317647058765","500","250","pog","178","0","0","234","181",""
"3390"," ","psychophysics","150","519301","0.0-150.0","4207","key"," ","16.68356930693072","500","250","pog","170","0","0","101","162",""
"4462"," ","psychophysics","151","523765","0.0-151.0","4207","key"," ","16.68391011235952","500","250","pog","135","0","0","240","133",""
"5182"," ","psychophysics","152","528949","0.0-152.0","4207","key"," ","16.68347249190929","500","250","pog","192","0","0","224","180",""
"3086"," ","psychophysics","153","532038","0.0-153.0","4207","key"," ","16.682102702702775","500","250","pog","194","0","0","152","188",""
"3437"," ","psychophysics","154","535477","0.0-154.0","4207","key"," ","16.682160975609726","500","250","pog","197","0","0","136","187",""
"3438"," ","psychophysics","155","538916","0.0-155.0","4207","key"," ","16.682097560975972","500","250","pog","152","0","0","98","143",""
"1694"," ","psychophysics","156","540612","0.0-156.0","4207","key"," ","16.685910891089126","500","250","pog","145","0","0","139","136",""
"7550"," ","psychophysics","157","548164","0.0-157.0","4207","key"," ","16.683951219512323","500","250","pog","160","0","0","150","148",""
"2430"," ","psychophysics","158","550596","0.0-158.0","4207","key"," ","16.684027586206955","500","250","pog","161","0","0","201","141",""
"1118"," ","psychophysics","159","551716","0.0-159.0","4207","key"," ","16.686409090908427","500","250","inst","","","","","",""
"1678"," ","psychophysics","160","553396","0.0-160.0","4207","key"," ","16.68302000000025","500","250","instML0","0","0","0","0","150","150"
"5070"," ","psychophysics","161","558468","0.0-161.0","4207","key"," ","16.682950495049532","500","250","instML1","0","0","0","-60","120","180"
"5806"," ","psychophysics","162","564276","0.0-162.0","4207","key"," ","16.68303170028815","500","250","instML2","4","0","0","60","180","120"
"6862"," ","psychophysics","163","571141","0.0-163.0","4207","key"," ","16.682885365853394","500","250","instML3","36","0","0","-60","120","180"
"909"," ","psychophysics","164","572052","0.0-164.0","4207","key"," ","16.680592592592195","500","250","inst","","","","","",""
"1902"," ","psychophysics","165","573956","0.0-165.0","4207","key"," ","16.681106194689978","500","250","ml","32","0","0","24","138","114"
"4734"," ","psychophysics","166","578692","0.0-166.0","4207","key"," ","16.683819787985687","500","250","ml","35","0","0","-73","121","194"
"2959"," ","psychophysics","167","581654","0.0-167.0","4207","key"," ","16.683881355932318","500","250","ml","22","0","0","-60","116","176"
"3580"," ","psychophysics","168","585236","0.0-168.0","4207","key"," ","16.68345070422568","500","250","ml","41","0","0","65","187","122"
"5916"," ","psychophysics","169","591156","0.0-169.0","4207","key"," ","16.68383050847458","500","250","ml","49","0","0","3","195","192"
"9038"," ","psychophysics","170","600196","0.0-170.0","4207","key"," ","16.683737523105364","500","250","ml","30","0","0","-78","118","196"
"1182"," ","psychophysics","171","601380","0.0-171.0","4207","key"," ","16.684328571427613","500","250","ml","10","0","0","16","118","102"
"814"," ","psychophysics","172","602196","0.0-172.0","4207","key"," ","16.686645833333994","500","250","ml","4","0","0","4","111","107"
"1982"," ","psychophysics","173","604180","0.0-173.0","4207","key"," ","16.68551694915306","500","250","ml","25","0","0","41","166","125"
"6894"," ","psychophysics","174","611076","0.0-174.0","4207","key"," ","16.682944174757335","500","250","ml","20","0","0","-26","126","152"
"1086"," ","psychophysics","175","612164","0.0-175.0","4207","key"," ","16.681531250000262","500","250","ml","9","0","0","11","147","136"
"3980"," ","psychophysics","176","616148","0.0-176.0","4207","key"," ","16.682453781512603","500","250","ml","13","0","0","-41","126","167"
"5134"," ","psychophysics","177","621284","0.0-177.0","4207","key"," ","16.68261563517904","500","250","ml","45","0","0","-11","169","180"
"8926"," ","psychophysics","178","630212","0.0-178.0","4207","key"," ","16.683237827715224","500","250","ml","44","0","0","-56","137","193"
"3582"," ","psychophysics","179","633796","0.0-179.0","4207","key"," ","16.683303738317548","500","250","ml","34","0","0","-66","115","181"
