"rt","response","trial_type","trial_index","time_elapsed","internal_node_id","pid","response_type","key_press","avg_frame_time","center_x","center_y","task","resp","jitterX","jitterY","start","parA","parB"
"13287","{""pid"":""daddyshome""}","survey-text","0","13296","0.0-0.0","daddyshome","","","","","","","","","","","",""
"1610"," ","psychophysics","1","14929","0.0-1.0","daddyshome","key"," ","16.68210309278351","500","250","inst","","","","","",""
"7401"," ","psychophysics","2","22335","0.0-2.0","daddyshome","key"," ","16.683205417607223","500","250","sample1","","","","","",""
"22198"," ","psychophysics","3","44534","0.0-3.0","daddyshome","key"," ","16.683384210526313","500","250","sample2","98","","","","",""
"6834"," ","psychophysics","4","51369","0.0-4.0","daddyshome","key"," ","16.683374083129586","500","250","sample3","98","","","","",""
"10148"," ","psychophysics","5","61518","0.0-5.0","daddyshome","key"," ","16.683362438220758","500","250","sample4","100","","","","",""
"5082"," ","psychophysics","6","66601","0.0-6.0","daddyshome","key"," ","16.683842105263178","500","250","sample5","","","","","",""
"10900"," ","psychophysics","7","77502","0.0-7.0","daddyshome","key"," ","16.683547546012285","500","250","sample7","502","","","","",""
"4264"," ","psychophysics","8","81767","0.0-8.0","daddyshome","key"," ","16.68356470588233","500","250","inst","","","","","",""
"4702"," ","psychophysics","9","86470","0.0-9.0","daddyshome","key"," ","16.683131672597888","500","250","inst","","","","","",""
"4719"," ","psychophysics","10","91190","0.0-10.0","daddyshome","key"," ","16.683248226950326","500","250","inst","","","","","",""
"2647"," ","psychophysics","11","93839","0.0-11.0","daddyshome","key"," ","16.6826242038216","500","250","inst","","","","","",""
"3048"," ","psychophysics","12","96888","0.0-12.0","daddyshome","key"," ","16.683972527472488","500","250","inst","","","","","",""
"2954"," ","psychophysics","13","99846","0.0-13.0","daddyshome","key"," ","16.683494318181808","500","250","instBr0","-15","0","0","0","300",""
"6438"," ","psychophysics","14","106286","0.0-14.0","daddyshome","key"," ","16.683277922077934","500","250","instBr1","-12","0","0","-40","300",""
"4974"," ","psychophysics","15","111262","0.0-15.0","daddyshome","key"," ","16.683516778523522","500","250","instBr2","-6","0","0","40","300",""
"21439"," ","psychophysics","16","132702","0.0-16.0","daddyshome","key"," ","16.683315420560753","500","250","instBr3","-10","0","0","40","300",""
"2151"," ","psychophysics","17","134854","0.0-17.0","daddyshome","key"," ","16.683546875000047","500","250","inst","","","","","",""
"4251"," ","psychophysics","18","139105","0.0-18.0","daddyshome","key"," ","16.683862204724413","500","250","br","-22","21","17","-28","300",""
"6091"," ","psychophysics","19","145198","0.0-19.0","daddyshome","key"," ","16.68343406593412","500","250","br","-16","0","-2","-11","300",""
"2199"," ","psychophysics","20","147398","0.0-20.0","daddyshome","key"," ","16.682610687022834","500","250","inst","","","","","",""
"1851"," ","psychophysics","21","149250","0.0-21.0","daddyshome","key"," ","16.684427272727373","500","250","instEB0","40","0","0","40","40",""
"8715"," ","psychophysics","22","157966","0.0-22.0","daddyshome","key"," ","16.68336276391556","500","250","instEB1","69","0","0","30","70",""
"10288"," ","psychophysics","23","168255","0.0-23.0","daddyshome","key"," ","16.68359577922078","500","250","instEB2","45","0","0","60","40",""
"13311"," ","psychophysics","24","181567","0.0-24.0","daddyshome","key"," ","16.68345294855709","500","250","instEB3","70","0","0","45","65",""
"12767"," ","psychophysics","25","194335","0.0-25.0","daddyshome","key"," ","16.683238219895294","500","250","instEB4","74","0","0","45","65",""
"1438"," ","psychophysics","26","195773","0.0-26.0","daddyshome","key"," ","16.683352941176373","500","250","inst","","","","","",""
"9735"," ","psychophysics","27","205510","0.0-27.0","daddyshome","key"," ","16.68339279588337","500","250","eb","61","0","0","45","50",""
"11295"," ","psychophysics","28","216806","0.0-28.0","daddyshome","key"," ","16.683236686390515","500","250","eb","59","0","0","24","48",""
"743"," ","psychophysics","29","217549","0.0-29.0","daddyshome","key"," ","16.68238636363623","500","250","inst","","","","","",""
"10495"," ","psychophysics","30","228046","0.0-30.0","daddyshome","key"," ","16.683487261146468","500","250","instBis0","150","0","0","110","150",""
"13703"," ","psychophysics","31","241750","0.0-31.0","daddyshome","key"," ","16.682889024390224","500","250","instBis1","132","0","0","110","150",""
"14855"," ","psychophysics","32","256606","0.0-32.0","daddyshome","key"," ","16.68331235955055","500","250","instBis2","154","6","4","112","173",""
"747"," ","psychophysics","33","257353","0.0-33.0","daddyshome","key"," ","16.683302325581682","500","250","inst","","","","","",""
"15067"," ","psychophysics","34","272422","0.0-34.0","daddyshome","key"," ","16.683306755260226","500","250","bis","228","-1","13","190","255",""
"6263"," ","psychophysics","35","278686","0.0-35.0","daddyshome","key"," ","16.68319251336905","500","250","bis","233","-7","-20","233","264",""
"719"," ","psychophysics","36","279406","0.0-36.0","daddyshome","key"," ","16.686642857142335","500","250","inst","","","","","",""
"2610"," ","psychophysics","37","282017","0.0-37.0","daddyshome","key"," ","16.68417307692289","500","250","instZol0","0","0","0","0","",""
"12212"," ","psychophysics","38","294230","0.0-38.0","daddyshome","key"," ","16.68330779753757","500","250","instZol1","0.10000000000000003","0","0","-1.3","",""
"29798"," ","psychophysics","39","324030","0.0-39.0","daddyshome","key"," ","16.68336414565829","500","250","instZol2","-0.09999999999999948","0","0","2","",""
"812"," ","psychophysics","40","324843","0.0-40.0","daddyshome","key"," ","16.685249999999844","500","250","inst","","","","","",""
"14697"," ","psychophysics","41","339541","0.0-41.0","daddyshome","key"," ","16.683320454545438","500","250","zol","-0.59","15","-19","0.09","",""
"4216"," ","psychophysics","42","343759","0.0-42.0","daddyshome","key"," ","16.68329365079366","500","250","zol","-0.44999999999999996","-9","-22","0.15","",""
"2574"," ","psychophysics","43","346333","0.0-43.0","daddyshome","key"," ","16.683359477124206","500","250","inst","","","","","",""
"2543"," ","psychophysics","44","348877","0.0-44.0","daddyshome","key"," ","16.684145695364123","500","250","instPz0","50","","","50","50",""
"8965"," ","psychophysics","45","357845","0.0-45.0","daddyshome","key"," ","16.683659217877096","500","250","instPz1","49","","","25","50",""
"4041"," ","psychophysics","46","361887","0.0-46.0","daddyshome","key"," ","16.68327385892114","500","250","instPz2","29","","","15","25",""
"5126"," ","psychophysics","47","367016","0.0-47.0","daddyshome","key"," ","16.684035830618928","500","250","instPz3","27","","","15","25",""
"5372"," ","psychophysics","48","372390","0.0-48.0","daddyshome","key"," ","16.68317757009342","500","250","instPz4","32","","","15","30",""
"799"," ","psychophysics","49","373189","0.0-49.0","daddyshome","key"," ","16.681914893616774","500","250","inst","","","","","",""
"6817"," ","psychophysics","50","380007","0.0-50.0","daddyshome","key"," ","16.68315479115492","500","250","pz","63","","","15","59",""
"5728"," ","psychophysics","51","385737","0.0-51.0","daddyshome","key"," ","16.683603498542343","500","250","pz","47","","","15","42",""
"32127"," ","psychophysics","52","417865","0.0-52.0","daddyshome","key"," ","16.683360706860718","500","250","inst","","","","","",""
"5585"," ","psychophysics","53","423454","0.0-53.0","daddyshome","key"," ","16.683062686567165","500","250","instTilt0","-5","","","-5","-5","2"
"5729"," ","psychophysics","54","429184","0.0-54.0","daddyshome","key"," ","16.683666666666706","500","250","instTilt1","-4","","","5","-5","2"
"4664"," ","psychophysics","55","433849","0.0-55.0","daddyshome","key"," ","16.683121863799336","500","250","instTilt2","-5","","","5","-5","2"
"4275"," ","psychophysics","56","438125","0.0-56.0","daddyshome","key"," ","16.68290980392154","500","250","instTilt","5","","","","9","2"
"8521"," ","psychophysics","57","446648","0.0-57.0","daddyshome","key"," ","16.68347058823531","500","250","instTilt","6","","","","9","1"
"1301"," ","psychophysics","58","447949","0.0-58.0","daddyshome","key"," ","16.6835844155844","500","250","inst","","","","","",""
"6680"," ","psychophysics","59","454630","0.0-59.0","daddyshome","key"," ","16.68354887218039","500","250","tilt","-9","","","","-10","1"
"8814"," ","psychophysics","60","463445","0.0-60.0","daddyshome","key"," ","16.68341477272726","500","250","tilt","-6","","","","-7","0"
"1664"," ","psychophysics","61","465110","0.0-61.0","daddyshome","key"," ","16.68285714285757","500","250","inst","","","","","",""
"14590"," ","psychophysics","62","479701","0.0-62.0","daddyshome","key"," ","16.683315789473678","500","250","instPog0","160","0","0","190","160",""
"12368"," ","psychophysics","63","492071","0.0-63.0","daddyshome","key"," ","16.683529729729777","500","250","instPog1","166","0","0","190","160",""
"6765"," ","psychophysics","64","498841","0.0-64.0","daddyshome","key"," ","16.68315555555559","500","250","instPog2","178","0","0","190","160",""
"910"," ","psychophysics","65","499751","0.0-65.0","daddyshome","key"," ","16.68562962963026","500","250","inst","","","","","",""
"7910"," ","psychophysics","66","507662","0.0-66.0","daddyshome","key"," ","16.68345877378438","500","250","pog","171","0","0","133","159",""
"7575"," ","psychophysics","67","515238","0.0-67.0","daddyshome","key"," ","16.683459161147816","500","250","pog","214","0","0","152","195",""
"689"," ","psychophysics","68","515927","0.0-68.0","daddyshome","key"," ","16.68530000000028","500","250","inst","","","","","",""
"1826"," ","psychophysics","69","517758","0.0-69.0","daddyshome","key"," ","16.68325688073373","500","250","instML0","0","0","0","0","150","150"
"5735"," ","psychophysics","70","523495","0.0-70.0","daddyshome","key"," ","16.68343731778424","500","250","instML1","0","0","0","-60","120","180"
"11539"," ","psychophysics","71","535038","0.0-71.0","daddyshome","key"," ","16.68348191027508","500","250","instML2","6","0","0","60","180","120"
"17783"," ","psychophysics","72","552821","0.0-72.0","daddyshome","key"," ","16.683360563380262","500","250","instML3","4","0","0","-60","120","180"
"1009"," ","psychophysics","73","553831","0.0-73.0","daddyshome","key"," ","16.683644067795978","500","250","inst","","","","","",""
"8575"," ","psychophysics","74","562407","0.0-74.0","daddyshome","key"," ","16.683368421052574","500","250","ml","30","0","0","8","194","186"
"5195"," ","psychophysics","75","567605","0.0-75.0","daddyshome","key"," ","16.683254019292505","500","250","ml","18","0","0","8","114","106"
