"rt","response","trial_type","trial_index","time_elapsed","internal_node_id","pid","response_type","key_press","avg_frame_time","center_x","center_y","task","resp","jitterX","jitterY","start","parA","parB"
"74383","{""pid"":""123""}","survey-text","0","74399","0.0-0.0","123","","","","","","","","","","","",""
"3300"," ","psychophysics","1","77707","0.0-1.0","123","key"," ","16.67005076142132","500","250","inst","","","","","",""
"5518"," ","psychophysics","2","83229","0.0-2.0","123","key"," ","16.664652567975832","500","250","sample1","","","","","",""
"6038"," ","psychophysics","3","89270","0.0-3.0","123","key"," ","16.667590027700832","500","250","sample2","102","","","","",""
"3754"," ","psychophysics","4","93028","0.0-4.0","123","key"," ","16.666666666666668","500","250","sample3","102","","","","",""
"8564"," ","psychophysics","5","101595","0.0-5.0","123","key"," ","16.666666666666668","500","250","sample4","102","","","","",""
"14751"," ","psychophysics","6","116350","0.0-6.0","123","key"," ","16.66628959276018","500","250","sample5","","","","","",""
"6841"," ","psychophysics","7","123196","0.0-7.0","123","key"," ","16.66829268292683","500","250","sample7","498","","","","",""
"4898"," ","psychophysics","8","128096","0.0-8.0","123","key"," ","16.668941979522184","500","250","inst","","","","","",""
"8327"," ","psychophysics","9","136427","0.0-9.0","123","key"," ","16.663326653306612","500","250","inst","","","","","",""
"1032"," ","psychophysics","10","137461","0.0-10.0","123","key"," ","16.672131147540984","500","250","inst","","","","","",""
"1101"," ","psychophysics","11","138566","0.0-11.0","123","key"," ","16.676923076923078","500","250","inst","","","","","",""
"1575"," ","psychophysics","12","140144","0.0-12.0","123","key"," ","16.670212765957448","500","250","inst","","","","","",""
"2247"," ","psychophysics","13","142396","0.0-13.0","123","key"," ","16.66417910447761","500","250","instBr0","-15","0","0","0","300",""
"7519"," ","psychophysics","14","149920","0.0-14.0","123","key"," ","16.66888888888889","500","250","instBr1","-22","0","0","-40","300",""
"6772"," ","psychophysics","15","156697","0.0-15.0","123","key"," ","16.667487684729064","500","250","instBr2","-20","0","0","40","300",""
"7943"," ","psychophysics","16","164645","0.0-16.0","123","key"," ","16.665966386554622","500","250","instBr3","-8","0","0","40","300",""
"2985"," ","psychophysics","17","167633","0.0-17.0","123","key"," ","16.662921348314608","500","250","inst","","","","","",""
"2714"," ","psychophysics","18","170351","0.0-18.0","123","key"," ","16.666666666666668","500","250","br","4","7","20","15","300",""
"1748"," ","psychophysics","19","172103","0.0-19.0","123","key"," ","16.66346153846154","500","250","br","-13","30","1","-19","300",""
"1423"," ","psychophysics","20","173531","0.0-20.0","123","key"," ","16.658823529411766","500","250","inst","","","","","",""
"2561"," ","psychophysics","21","176096","0.0-21.0","123","key"," ","16.666666666666668","500","250","instEB0","40","0","0","40","40",""
"12828"," ","psychophysics","22","188928","0.0-22.0","123","key"," ","16.665799739921976","500","250","instEB1","70","0","0","30","70",""
"22979"," ","psychophysics","23","211911","0.0-23.0","123","key"," ","16.666908563134978","500","250","instEB2","40","0","0","60","40",""
"10997"," ","psychophysics","24","222911","0.0-24.0","123","key"," ","16.667678300455236","500","250","instEB3","75","0","0","45","65",""
"11188"," ","psychophysics","25","234104","0.0-25.0","123","key"," ","16.66716417910448","500","250","instEB4","71","0","0","45","65",""
"5827"," ","psychophysics","26","239934","0.0-26.0","123","key"," ","16.67048710601719","500","250","inst","","","","","",""
"11514"," ","psychophysics","27","251452","0.0-27.0","123","key"," ","16.666666666666668","500","250","eb","49","0","0","51","36",""
"1543"," ","psychophysics","28","252999","0.0-28.0","123","key"," ","16.66304347826087","500","250","eb","50","0","0","49","36",""
"1112"," ","psychophysics","29","254116","0.0-29.0","123","key"," ","16.666666666666668","500","250","inst","","","","","",""
"5792"," ","psychophysics","30","259912","0.0-30.0","123","key"," ","16.665706051873197","500","250","instBis0","150","0","0","110","150",""
"2786"," ","psychophysics","31","262701","0.0-31.0","123","key"," ","16.662650602409638","500","250","instBis1","122","0","0","110","150",""
"2049"," ","psychophysics","32","264754","0.0-32.0","123","key"," ","16.66393442622951","500","250","instBis2","118","-11","-11","122","104",""
"517"," ","psychophysics","33","265283","0.0-33.0","123","key"," ","16.612903225806452","500","250","inst","","","","","",""
"2335"," ","psychophysics","34","267622","0.0-34.0","123","key"," ","16.66906474820144","500","250","bis","227","7","16","253","293",""
"5901"," ","psychophysics","35","273527","0.0-35.0","123","key"," ","16.666666666666668","500","250","bis","113","27","-17","217","136",""
"766"," ","psychophysics","36","274296","0.0-36.0","123","key"," ","16.644444444444446","500","250","inst","","","","","",""
"3597"," ","psychophysics","37","277896","0.0-37.0","123","key"," ","16.669767441860465","500","250","instZol0","1.3","0","0","0","",""
"578"," ","psychophysics","38","278478","0.0-38.0","123","key"," ","16.676470588235293","500","250","instZol1","1.3","0","0","-1.3","",""
"1979"," ","psychophysics","39","280461","0.0-39.0","123","key"," ","16.66949152542373","500","250","instZol2","-0.7999999999999993","0","0","2","",""
"599"," ","psychophysics","40","281064","0.0-40.0","123","key"," ","16.65714285714286","500","250","inst","","","","","",""
"25017"," ","psychophysics","41","306087","0.0-41.0","123","key"," ","16.666666666666668","500","250","zol","0.09999999999999998","-25","-5","-0.7","",""
"3902"," ","psychophysics","42","309993","0.0-42.0","123","key"," ","16.67094017094017","500","250","zol","0.01999999999999999","-8","29","0.28","",""
"607"," ","psychophysics","43","310602","0.0-43.0","123","key"," ","16.685714285714287","500","250","inst","","","","","",""
"2075"," ","psychophysics","44","312684","0.0-44.0","123","key"," ","16.661290322580644","500","250","instPz0","62","","","50","50",""
"376"," ","psychophysics","45","313064","0.0-45.0","123","key"," ","16.636363636363637","500","250","instPz1","25","","","25","50",""
"392"," ","psychophysics","46","313460","0.0-46.0","123","key"," ","16.652173913043477","500","250","instPz2","15","","","15","25",""
"3721"," ","psychophysics","47","317186","0.0-47.0","123","key"," ","16.67117117117117","500","250","instPz3","35","","","15","25",""
"3940"," ","psychophysics","48","321130","0.0-48.0","123","key"," ","16.665254237288135","500","250","instPz4","34","","","15","30",""
"983"," ","psychophysics","49","322117","0.0-49.0","123","key"," ","16.655172413793103","500","250","inst","","","","","",""
"6705"," ","psychophysics","50","328827","0.0-50.0","123","key"," ","16.66915422885572","500","250","pz","49","","","15","40",""
"10281"," ","psychophysics","51","339111","0.0-51.0","123","key"," ","16.667207792207794","500","250","pz","37","","","15","20",""
"3080"," ","psychophysics","52","342194","0.0-52.0","123","key"," ","16.668478260869566","500","250","inst","","","","","",""
"2268"," ","psychophysics","53","344469","0.0-53.0","123","key"," ","16.666666666666668","500","250","instTilt0","-5","","","-5","-5","2"
"12020"," ","psychophysics","54","356493","0.0-54.0","123","key"," ","16.667128987517337","500","250","instTilt1","8","","","5","-5","2"
"2797"," ","psychophysics","55","359295","0.0-55.0","123","key"," ","16.67065868263473","500","250","instTilt2","-8","","","5","-5","2"
"2080"," ","psychophysics","56","361381","0.0-56.0","123","key"," ","16.669354838709676","500","250","instTilt","8","","","","9","2"
"7559"," ","psychophysics","57","368944","0.0-57.0","123","key"," ","16.666666666666668","500","250","instTilt","5","","","","9","1"
"479"," ","psychophysics","58","369426","0.0-58.0","123","key"," ","16.678571428571427","500","250","inst","","","","","",""
"6076"," ","psychophysics","59","375505","0.0-59.0","123","key"," ","16.666666666666668","500","250","tilt","-1","","","","2","1"
"2309"," ","psychophysics","60","377819","0.0-60.0","123","key"," ","16.63768115942029","500","250","tilt","0","","","","7","0"
"604"," ","psychophysics","61","378426","0.0-61.0","123","key"," ","16.666666666666668","500","250","inst","","","","","",""
"5735"," ","psychophysics","62","384164","0.0-62.0","123","key"," ","16.664723032069972","500","250","instPog0","160","0","0","190","160",""
"4214"," ","psychophysics","63","388381","0.0-63.0","123","key"," ","16.66269841269841","500","250","instPog1","167","0","0","190","160",""
"4291"," ","psychophysics","64","392676","0.0-64.0","123","key"," ","16.66536964980545","500","250","instPog2","169","0","0","190","160",""
"857"," ","psychophysics","65","393537","0.0-65.0","123","key"," ","16.66","500","250","inst","","","","","",""
"8571"," ","psychophysics","66","402114","0.0-66.0","123","key"," ","16.66536964980545","500","250","pog","189","0","0","121","163",""
"1814"," ","psychophysics","67","403932","0.0-67.0","123","key"," ","16.666666666666668","500","250","pog","163","0","0","163","139",""
"1060"," ","psychophysics","68","404995","0.0-68.0","123","key"," ","16.666666666666668","500","250","inst","","","","","",""
"6350"," ","psychophysics","69","411350","0.0-69.0","123","key"," ","16.66842105263158","500","250","instML0","0","0","0","0","150","150"
"6737"," ","psychophysics","70","418092","0.0-70.0","123","key"," ","16.663366336633665","500","250","instML1","0","0","0","-60","120","180"
"9949"," ","psychophysics","71","428044","0.0-71.0","123","key"," ","16.666107382550337","500","250","instML2","6","0","0","60","180","120"
"39186"," ","psychophysics","72","467233","0.0-72.0","123","key"," ","16.666382978723405","500","250","instML3","34","0","0","-60","120","180"
"448"," ","psychophysics","73","467684","0.0-73.0","123","key"," ","16.653846153846153","500","250","inst","","","","","",""
"856"," ","psychophysics","74","468544","0.0-74.0","123","key"," ","16.666666666666668","500","250","ml","3","0","0","3","199","196"
"6827"," ","psychophysics","75","475375","0.0-75.0","123","key"," ","16.667481662591687","500","250","ml","17","0","0","-7","111","118"
