"rt","response_type","key_press","response","avg_frame_time","center_x","center_y","trial_type","trial_index","time_elapsed","internal_node_id","pid","sid","phase","guide","targ","resp","stimulus","is5","stim"
"1603","key"," "," ","18.420079545454545","500","250","psychophysics","0","1640","0.0-0.0","55e7b91341988f000575d6b5","6213cb6a1fdacc292045f204","","","","","","",""
"1335","key"," "," ","17.36207792207793","500","250","psychophysics","1","2990","0.0-1.0","55e7b91341988f000575d6b5","6213cb6a1fdacc292045f204","","","","","","",""
"1562","key"," "," ","16.711000000000006","500","250","psychophysics","2","4568","0.0-2.0","55e7b91341988f000575d6b5","6213cb6a1fdacc292045f204","","","","","","",""
"900","key"," "," ","16.710999999999988","500","250","psychophysics","3","5479","0.0-3.0","55e7b91341988f000575d6b5","6213cb6a1fdacc292045f204","","","","","","",""
"1942","key"," "," ","16.711","500","250","psychophysics","4","7433","0.0-4.0","55e7b91341988f000575d6b5","6213cb6a1fdacc292045f204","","","","","","",""
"3145","key"," "," ","16.801534759358283","500","250","psychophysics","5","10594","0.0-5.0","55e7b91341988f000575d6b5","6213cb6a1fdacc292045f204","","","","","","",""
"2093","key"," "," ","16.711","500","250","psychophysics","6","12701","0.0-6.0","55e7b91341988f000575d6b5","6213cb6a1fdacc292045f204","","","","","","",""
"2075","key"," "," ","16.711000000000006","500","250","psychophysics","7","14789","0.0-7.0","55e7b91341988f000575d6b5","6213cb6a1fdacc292045f204","","","","","","",""
"9259","key"," "," ","16.955990842490845","500","250","psychophysics","8","24062","0.0-8.0","55e7b91341988f000575d6b5","6213cb6a1fdacc292045f204","0","0","32","33","","",""
"1384","key"," "," ","16.710999999999995","500","250","psychophysics","9","25453","0.0-9.0","55e7b91341988f000575d6b5","6213cb6a1fdacc292045f204","","","","","","",""
"1444","key"," "," ","16.90531395348837","500","250","psychophysics","10","26919","0.0-10.0","55e7b91341988f000575d6b5","6213cb6a1fdacc292045f204","","","","","","",""
"2632","key"," "," ","16.712210191082796","500","250","psychophysics","11","29568","0.0-11.0","55e7b91341988f000575d6b5","6213cb6a1fdacc292045f204","","","","","","",""
"1301","key"," "," ","16.710999999999984","500","250","psychophysics","12","30881","0.0-12.0","55e7b91341988f000575d6b5","6213cb6a1fdacc292045f204","","","","","","",""
"1487","key"," "," ","16.710999999999984","500","250","psychophysics","13","32384","0.0-13.0","55e7b91341988f000575d6b5","6213cb6a1fdacc292045f204","","","","","","",""
"1003","key"," "," ","16.710999999999938","500","250","psychophysics","14","33402","0.0-14.0","55e7b91341988f000575d6b5","6213cb6a1fdacc292045f204","","","","","","",""
"1948","key"," "," ","16.71100000000002","500","250","psychophysics","15","35362","0.0-15.0","55e7b91341988f000575d6b5","6213cb6a1fdacc292045f204","","","","","","",""
"1112","key"," "," ","16.711000000000038","500","250","psychophysics","16","36497","0.0-16.0","55e7b91341988f000575d6b5","6213cb6a1fdacc292045f204","","","","","","",""
"8439","key"," "," ","16.87863399999999","500","250","psychophysics","17","44949","0.0-17.0","55e7b91341988f000575d6b5","6213cb6a1fdacc292045f204","1","0","60","63","","",""
"6309","key"," "," ","16.845382352941165","500","250","psychophysics","18","51267","0.0-18.0","55e7b91341988f000575d6b5","6213cb6a1fdacc292045f204","1","5","21","24","","",""
"8374","key"," "," ","16.711471057884232","500","250","psychophysics","19","59657","0.0-19.0","55e7b91341988f000575d6b5","6213cb6a1fdacc292045f204","1","0","47","46","","",""
"5281","key"," "," ","16.764050793650792","500","250","psychophysics","20","64953","0.0-20.0","55e7b91341988f000575d6b5","6213cb6a1fdacc292045f204","1","5","35","41","","",""
"4427","key"," "," ","16.71174242424246","500","250","psychophysics","21","69394","0.0-21.0","55e7b91341988f000575d6b5","6213cb6a1fdacc292045f204","1","0","31","38","","",""
"4059","key"," "," ","16.779487704918","500","250","psychophysics","22","73492","0.0-22.0","55e7b91341988f000575d6b5","6213cb6a1fdacc292045f204","1","5","38","39","","",""
"5433","key"," "," ","16.7117292307692","500","250","psychophysics","23","78941","0.0-23.0","55e7b91341988f000575d6b5","6213cb6a1fdacc292045f204","1","0","33","42","","",""
"2364","key"," "," ","16.710999999999924","500","250","psychophysics","24","81321","0.0-24.0","55e7b91341988f000575d6b5","6213cb6a1fdacc292045f204","1","5","23","23","","",""
"6415","key"," "," ","16.711072916666655","500","250","psychophysics","25","87747","0.0-25.0","55e7b91341988f000575d6b5","6213cb6a1fdacc292045f204","1","0","54","64","","",""
"5395","key"," "," ","16.711000000000016","500","250","psychophysics","26","93163","0.0-26.0","55e7b91341988f000575d6b5","6213cb6a1fdacc292045f204","1","5","25","28","","",""
"5170","key"," "," ","16.7660064724919","500","250","psychophysics","27","98363","0.0-27.0","55e7b91341988f000575d6b5","6213cb6a1fdacc292045f204","1","0","29","35","","",""
"7488","key"," "," ","16.71099999999998","500","250","psychophysics","28","105864","0.0-28.0","55e7b91341988f000575d6b5","6213cb6a1fdacc292045f204","1","5","58","65","","",""
"4098","key"," "," ","16.711759183673443","500","250","psychophysics","29","109976","0.0-29.0","55e7b91341988f000575d6b5","6213cb6a1fdacc292045f204","1","0","30","32","","",""
"3860","key"," "," ","16.711000000000038","500","250","psychophysics","30","113851","0.0-30.0","55e7b91341988f000575d6b5","6213cb6a1fdacc292045f204","1","5","28","33","","",""
"4193","key"," "," ","16.711374501992005","500","250","psychophysics","31","118062","0.0-31.0","55e7b91341988f000575d6b5","6213cb6a1fdacc292045f204","1","0","41","46","","",""
"2810","key"," "," ","16.81106586826341","500","250","psychophysics","32","120888","0.0-32.0","55e7b91341988f000575d6b5","6213cb6a1fdacc292045f204","1","5","20","20","","",""
"3643","key"," "," ","16.865731481481447","500","250","psychophysics","33","124544","0.0-33.0","55e7b91341988f000575d6b5","6213cb6a1fdacc292045f204","1","0","28","35","","",""
"4013","key"," "," ","16.712012499999947","500","250","psychophysics","34","128572","0.0-34.0","55e7b91341988f000575d6b5","6213cb6a1fdacc292045f204","1","5","32","35","","",""
"3695","key"," "," ","16.711000000000038","500","250","psychophysics","35","132281","0.0-35.0","55e7b91341988f000575d6b5","6213cb6a1fdacc292045f204","1","0","21","31","","",""
"4445","key"," "," ","16.71100000000003","500","250","psychophysics","36","136743","0.0-36.0","55e7b91341988f000575d6b5","6213cb6a1fdacc292045f204","1","5","42","52","","",""
"1401","key"," "," ","17.111107142856955","500","250","psychophysics","37","138180","0.0-37.0","55e7b91341988f000575d6b5","6213cb6a1fdacc292045f204","","","","","","",""
"1312","key"," "," ","16.710999999999796","500","250","psychophysics","38","139502","0.0-38.0","55e7b91341988f000575d6b5","6213cb6a1fdacc292045f204","","","","","","",""
"752","key"," "," ","16.710999999999895","500","250","psychophysics","39","140269","0.0-39.0","55e7b91341988f000575d6b5","6213cb6a1fdacc292045f204","","","","","","",""
"3388","key"," "," ","16.711000000000016","500","250","psychophysics","40","143672","0.0-40.0","55e7b91341988f000575d6b5","6213cb6a1fdacc292045f204","2","0","23","28","","",""
"1699","key"," "," ","16.710999999999974","500","250","psychophysics","41","145390","0.0-41.0","55e7b91341988f000575d6b5","6213cb6a1fdacc292045f204","","","","","","",""
"9618","key"," "," ","16.74032578397215","500","250","psychophysics","42","155019","0.0-42.0","55e7b91341988f000575d6b5","6213cb6a1fdacc292045f204","2","0","54","62","","",""
"1383","key"," "," ","16.711000000000077","500","250","psychophysics","43","156411","0.0-43.0","55e7b91341988f000575d6b5","6213cb6a1fdacc292045f204","","","","","","",""
"4285","key"," "," ","16.711628906249985","500","250","psychophysics","44","160706","0.0-44.0","55e7b91341988f000575d6b5","6213cb6a1fdacc292045f204","2","0","45","45","","",""
"2901","key"," "," ","16.71100000000015","500","250","psychophysics","45","163617","0.0-45.0","55e7b91341988f000575d6b5","6213cb6a1fdacc292045f204","","","","","","",""
"6249","key"," "," ","16.711513368983958","500","250","psychophysics","46","169880","0.0-46.0","55e7b91341988f000575d6b5","6213cb6a1fdacc292045f204","2","0","50","64","","",""
"1461","key"," "," ","16.905313953488246","500","250","psychophysics","47","171351","0.0-47.0","55e7b91341988f000575d6b5","6213cb6a1fdacc292045f204","","","","","","",""
"4899","key"," "," ","16.711000000000013","500","250","psychophysics","48","176272","0.0-48.0","55e7b91341988f000575d6b5","6213cb6a1fdacc292045f204","2","0","48","53","","",""
"2090","key"," "," ","16.713808000000192","500","250","psychophysics","49","178373","0.0-49.0","55e7b91341988f000575d6b5","6213cb6a1fdacc292045f204","","","","","","",""
"4732","key"," "," ","17.323124542124607","500","250","psychophysics","50","183118","0.0-50.0","55e7b91341988f000575d6b5","6213cb6a1fdacc292045f204","2","0","48","54","","",""
"1119","key"," "," ","16.711000000000254","500","250","psychophysics","51","184252","0.0-51.0","55e7b91341988f000575d6b5","6213cb6a1fdacc292045f204","","","","","","",""
"3939","key"," "," ","16.854806866952845","500","250","psychophysics","52","188200","0.0-52.0","55e7b91341988f000575d6b5","6213cb6a1fdacc292045f204","2","0","42","47","","",""
"1119","key"," "," ","16.711000000000254","500","250","psychophysics","53","189331","0.0-53.0","55e7b91341988f000575d6b5","6213cb6a1fdacc292045f204","","","","","","",""
"4329","key"," "," ","16.71099999999998","500","250","psychophysics","54","193671","0.0-54.0","55e7b91341988f000575d6b5","6213cb6a1fdacc292045f204","2","0","44","52","","",""
"1996","key"," "," ","16.71100000000006","500","250","psychophysics","55","195682","0.0-55.0","55e7b91341988f000575d6b5","6213cb6a1fdacc292045f204","","","","","","",""
"3301","key"," "," ","16.712182741116692","500","250","psychophysics","56","198991","0.0-56.0","55e7b91341988f000575d6b5","6213cb6a1fdacc292045f204","2","0","20","24","","",""
"1626","key"," "," ","16.711000000000045","500","250","psychophysics","57","200631","0.0-57.0","55e7b91341988f000575d6b5","6213cb6a1fdacc292045f204","","","","","","",""
"3825","key"," "," ","16.711000000000077","500","250","psychophysics","58","204471","0.0-58.0","55e7b91341988f000575d6b5","6213cb6a1fdacc292045f204","2","0","37","42","","",""
"1263","key"," "," ","16.711000000000155","500","250","psychophysics","59","205742","0.0-59.0","55e7b91341988f000575d6b5","6213cb6a1fdacc292045f204","","","","","","",""
"4104","key"," "," ","16.711836734693854","500","250","psychophysics","60","209855","0.0-60.0","55e7b91341988f000575d6b5","6213cb6a1fdacc292045f204","2","0","42","49","","",""
"1711","key"," "," ","16.711000000000258","500","250","psychophysics","61","211578","0.0-61.0","55e7b91341988f000575d6b5","6213cb6a1fdacc292045f204","","","","","","",""
"3441","key"," "," ","17.29882412060309","500","250","psychophysics","62","215032","0.0-62.0","55e7b91341988f000575d6b5","6213cb6a1fdacc292045f204","2","0","34","34","","",""
"5677","key"," "," ","19.212625850340192","500","250","psychophysics","63","220718","0.0-63.0","55e7b91341988f000575d6b5","6213cb6a1fdacc292045f204","","","","","","",""
"3184","key"," "," ","23.297817518248223","500","250","psychophysics","64","223947","0.0-64.0","55e7b91341988f000575d6b5","6213cb6a1fdacc292045f204","2","0","36","36","","",""
"3187","key"," "," ","21.861650684931554","500","250","psychophysics","65","227162","0.0-65.0","55e7b91341988f000575d6b5","6213cb6a1fdacc292045f204","","","","","","",""
"2959","key"," "," ","24.245713114753972","500","250","psychophysics","66","230157","0.0-66.0","55e7b91341988f000575d6b5","6213cb6a1fdacc292045f204","2","0","32","31","","",""
"1456","key"," "," ","22.88121538461553","500","250","psychophysics","67","231646","0.0-67.0","55e7b91341988f000575d6b5","6213cb6a1fdacc292045f204","","","","","","",""
"4812","key"," "," ","24.763450777202024","500","250","psychophysics","68","236477","0.0-68.0","55e7b91341988f000575d6b5","6213cb6a1fdacc292045f204","2","0","45","54","","",""
"1245","key"," "," ","24.10240384615407","500","250","psychophysics","69","237755","0.0-69.0","55e7b91341988f000575d6b5","6213cb6a1fdacc292045f204","","","","","","",""
"1351","key"," "," ","25.525545454545433","500","250","psychophysics","70","239166","0.0-70.0","55e7b91341988f000575d6b5","6213cb6a1fdacc292045f204","","","","","","",""
"1187","key"," "," ","24.71835416666666","500","250","psychophysics","71","240371","0.0-71.0","55e7b91341988f000575d6b5","6213cb6a1fdacc292045f204","","","","","","",""
"5103","key"," "," ","27.550567567567466","500","250","psychophysics","72","245498","0.0-72.0","55e7b91341988f000575d6b5","6213cb6a1fdacc292045f204","3","5","48","61","","",""
"4389","key"," "," ","29.584135135135266","500","250","psychophysics","73","249925","0.0-73.0","55e7b91341988f000575d6b5","6213cb6a1fdacc292045f204","3","0","48","49","","",""
"3114","key"," "," ","25.201266129032216","500","250","psychophysics","74","253074","0.0-74.0","55e7b91341988f000575d6b5","6213cb6a1fdacc292045f204","3","5","40","39","","",""
"3810","key"," "," ","25.121834437086076","500","250","psychophysics","75","256911","0.0-75.0","55e7b91341988f000575d6b5","6213cb6a1fdacc292045f204","3","0","44","47","","",""
"3172","key"," "," ","24.18151515151509","500","250","psychophysics","76","260115","0.0-76.0","55e7b91341988f000575d6b5","6213cb6a1fdacc292045f204","3","5","27","25","","",""
"2396","key"," "," ","23.896730000000098","500","250","psychophysics","77","262528","0.0-77.0","55e7b91341988f000575d6b5","6213cb6a1fdacc292045f204","3","0","21","29","","",""
"2889","key"," "," ","23.83372131147523","500","250","psychophysics","78","265448","0.0-78.0","55e7b91341988f000575d6b5","6213cb6a1fdacc292045f204","3","5","37","36","","",""
"2780","key"," "," ","22.417195121951238","500","250","psychophysics","79","268263","0.0-79.0","55e7b91341988f000575d6b5","6213cb6a1fdacc292045f204","3","0","32","34","","",""
"2431","key"," "," ","23.395399999999928","500","250","psychophysics","80","270719","0.0-80.0","55e7b91341988f000575d6b5","6213cb6a1fdacc292045f204","3","5","31","31","","",""
"2742","key"," "," ","24.04038596491221","500","250","psychophysics","81","273494","0.0-81.0","55e7b91341988f000575d6b5","6213cb6a1fdacc292045f204","3","0","20","35","","",""
"5465","key"," "," ","22.769554166666786","500","250","psychophysics","82","278995","0.0-82.0","55e7b91341988f000575d6b5","6213cb6a1fdacc292045f204","3","5","57","67","","",""
"3570","key"," "," ","21.442427710843546","500","250","psychophysics","83","282592","0.0-83.0","55e7b91341988f000575d6b5","6213cb6a1fdacc292045f204","3","0","47","44","","",""
"5288","key"," "," ","22.735566523605097","500","250","psychophysics","84","287917","0.0-84.0","55e7b91341988f000575d6b5","6213cb6a1fdacc292045f204","3","5","59","64","","",""
"2808","key"," "," ","21.934835937499884","500","250","psychophysics","85","290751","0.0-85.0","55e7b91341988f000575d6b5","6213cb6a1fdacc292045f204","3","0","39","37","","",""
"3930","key"," "," ","21.433673913043332","500","250","psychophysics","86","294712","0.0-86.0","55e7b91341988f000575d6b5","6213cb6a1fdacc292045f204","3","5","52","48","","",""
"2800","key"," "," ","21.933187499999804","500","250","psychophysics","87","297548","0.0-87.0","55e7b91341988f000575d6b5","6213cb6a1fdacc292045f204","3","0","31","34","","",""
"5024","key"," "," ","21.938383259911795","500","250","psychophysics","88","302600","0.0-88.0","55e7b91341988f000575d6b5","6213cb6a1fdacc292045f204","3","5","56","62","","",""
"2399","key"," "," ","21.108631578947545","500","250","psychophysics","89","305023","0.0-89.0","55e7b91341988f000575d6b5","6213cb6a1fdacc292045f204","3","0","29","30","","",""
"121004","key"," "," ","21.52845355871886","500","250","psychophysics","90","426041","0.0-90.0","55e7b91341988f000575d6b5","6213cb6a1fdacc292045f204","3","5","41","50","","",""
"3094","key"," "," ","23.120383458646607","500","250","psychophysics","91","429149","0.0-91.0","55e7b91341988f000575d6b5","6213cb6a1fdacc292045f204","3","0","33","37","","",""
"1182","key"," "," ","24.213897959183075","500","250","psychophysics","92","430367","0.0-92.0","55e7b91341988f000575d6b5","6213cb6a1fdacc292045f204","","","","","","",""
"18063","","","v","","","","html-keyboard-response","93","448445","0.0-93.0","55e7b91341988f000575d6b5","6213cb6a1fdacc292045f204","","","","","<p> In this part of the experiment, we are going present digits 1, 2, 3, 4, 6, 7, 8, and 9.  Notice that 5 is missing.  Your job is to say whether the presented digit is less than or greater than 5.  For example, 3 is less than 5 and 7 is greater than 5.  If the digit is less than 5, press the v key; if it is greater than 5, press the n key. We are going to do 200 of these in total, but only 50 righ now. They go real fast.</p>  <br><br>  Ready? (press v or n)","",""
"2936","key","v","v","16.713240000000223","500","250","psychophysics","94","451394","0.0-94.0","55e7b91341988f000575d6b5","6213cb6a1fdacc292045f204","4","","","","","1","2"
"null","","","null","","","","html-keyboard-response","95","451897","0.0-95.0","55e7b91341988f000575d6b5","6213cb6a1fdacc292045f204","","","","","<p style=""color:darkgreen;font-size:24px;"">Correct :)</p>","",""
"2995","key","v","v","17.09296571428588","500","250","psychophysics","96","454901","0.0-96.0","55e7b91341988f000575d6b5","6213cb6a1fdacc292045f204","4","","","","","1","4"
"null","","","null","","","","html-keyboard-response","97","455403","0.0-97.0","55e7b91341988f000575d6b5","6213cb6a1fdacc292045f204","","","","","<p style=""color:darkgreen;font-size:24px;"">Correct :)</p>","",""
"2817","key","v","v","16.711000000000258","500","250","psychophysics","98","458228","0.0-98.0","55e7b91341988f000575d6b5","6213cb6a1fdacc292045f204","4","","","","","1","4"
"null","","","null","","","","html-keyboard-response","99","458730","0.0-99.0","55e7b91341988f000575d6b5","6213cb6a1fdacc292045f204","","","","","<p style=""color:darkgreen;font-size:24px;"">Correct :)</p>","",""
"2449","key","v","v","16.71195918367344","500","250","psychophysics","100","461187","0.0-100.0","55e7b91341988f000575d6b5","6213cb6a1fdacc292045f204","4","","","","","1","4"
"null","","","null","","","","html-keyboard-response","101","461689","0.0-101.0","55e7b91341988f000575d6b5","6213cb6a1fdacc292045f204","","","","","<p style=""color:darkgreen;font-size:24px;"">Correct :)</p>","",""
"2618","key","n","n","16.710999999999796","500","250","psychophysics","102","464315","0.0-102.0","55e7b91341988f000575d6b5","6213cb6a1fdacc292045f204","4","","","","","1","7"
"null","","","null","","","","html-keyboard-response","103","464818","0.0-103.0","55e7b91341988f000575d6b5","6213cb6a1fdacc292045f204","","","","","<p style=""color:darkgreen;font-size:24px;"">Correct :)</p>","",""
"2557","key","n","n","16.820940789473656","500","250","psychophysics","104","467385","0.0-104.0","55e7b91341988f000575d6b5","6213cb6a1fdacc292045f204","4","","","","","1","7"
"null","","","null","","","","html-keyboard-response","105","467889","0.0-105.0","55e7b91341988f000575d6b5","6213cb6a1fdacc292045f204","","","","","<p style=""color:darkgreen;font-size:24px;"">Correct :)</p>","",""
"2529","key","v","v","16.71261589403961","500","250","psychophysics","106","470424","0.0-106.0","55e7b91341988f000575d6b5","6213cb6a1fdacc292045f204","4","","","","","1","3"
"null","","","null","","","","html-keyboard-response","107","470926","0.0-107.0","55e7b91341988f000575d6b5","6213cb6a1fdacc292045f204","","","","","<p style=""color:darkgreen;font-size:24px;"">Correct :)</p>","",""
"2701","key","n","n","16.710999999999824","500","250","psychophysics","108","473636","0.0-108.0","55e7b91341988f000575d6b5","6213cb6a1fdacc292045f204","4","","","","","1","8"
"null","","","null","","","","html-keyboard-response","109","474138","0.0-109.0","55e7b91341988f000575d6b5","6213cb6a1fdacc292045f204","","","","","<p style=""color:darkgreen;font-size:24px;"">Correct :)</p>","",""
"2546","key","v","v","16.710999999999906","500","250","psychophysics","110","476690","0.0-110.0","55e7b91341988f000575d6b5","6213cb6a1fdacc292045f204","4","","","","","1","4"
"null","","","null","","","","html-keyboard-response","111","477194","0.0-111.0","55e7b91341988f000575d6b5","6213cb6a1fdacc292045f204","","","","","<p style=""color:darkgreen;font-size:24px;"">Correct :)</p>","",""
"2513","key","v","v","16.71226490066203","500","250","psychophysics","112","479717","0.0-112.0","55e7b91341988f000575d6b5","6213cb6a1fdacc292045f204","4","","","","","1","2"
"null","","","null","","","","html-keyboard-response","113","480220","0.0-113.0","55e7b91341988f000575d6b5","6213cb6a1fdacc292045f204","","","","","<p style=""color:darkgreen;font-size:24px;"">Correct :)</p>","",""
"2535","key","n","n","17.047463087248225","500","250","psychophysics","114","482764","0.0-114.0","55e7b91341988f000575d6b5","6213cb6a1fdacc292045f204","4","","","","","1","9"
"null","","","null","","","","html-keyboard-response","115","483272","0.0-115.0","55e7b91341988f000575d6b5","6213cb6a1fdacc292045f204","","","","","<p style=""color:darkgreen;font-size:24px;"">Correct :)</p>","",""
"3186","key","v","v","16.71099999999988","500","250","psychophysics","116","486467","0.0-116.0","55e7b91341988f000575d6b5","6213cb6a1fdacc292045f204","4","","","","","1","2"
"null","","","null","","","","html-keyboard-response","117","486970","0.0-117.0","55e7b91341988f000575d6b5","6213cb6a1fdacc292045f204","","","","","<p style=""color:darkgreen;font-size:24px;"">Correct :)</p>","",""
"2984","key","v","v","16.71181460674146","500","250","psychophysics","118","489963","0.0-118.0","55e7b91341988f000575d6b5","6213cb6a1fdacc292045f204","4","","","","","1","3"
"null","","","null","","","","html-keyboard-response","119","490464","0.0-119.0","55e7b91341988f000575d6b5","6213cb6a1fdacc292045f204","","","","","<p style=""color:darkgreen;font-size:24px;"">Correct :)</p>","",""
"2803","key","n","n","16.71099999999985","500","250","psychophysics","120","493275","0.0-120.0","55e7b91341988f000575d6b5","6213cb6a1fdacc292045f204","4","","","","","1","8"
"null","","","null","","","","html-keyboard-response","121","493780","0.0-121.0","55e7b91341988f000575d6b5","6213cb6a1fdacc292045f204","","","","","<p style=""color:darkgreen;font-size:24px;"">Correct :)</p>","",""
"2656","key","n","n","16.710999999999995","500","250","psychophysics","122","496445","0.0-122.0","55e7b91341988f000575d6b5","6213cb6a1fdacc292045f204","4","","","","","1","6"
"null","","","null","","","","html-keyboard-response","123","496948","0.0-123.0","55e7b91341988f000575d6b5","6213cb6a1fdacc292045f204","","","","","<p style=""color:darkgreen;font-size:24px;"">Correct :)</p>","",""
"3417","key","n","n","16.711741463414665","500","250","psychophysics","124","500373","0.0-124.0","55e7b91341988f000575d6b5","6213cb6a1fdacc292045f204","4","","","","","1","9"
"null","","","null","","","","html-keyboard-response","125","500878","0.0-125.0","55e7b91341988f000575d6b5","6213cb6a1fdacc292045f204","","","","","<p style=""color:darkgreen;font-size:24px;"">Correct :)</p>","",""
"2625","key","n","n","16.710999999999864","500","250","psychophysics","126","503511","0.0-126.0","55e7b91341988f000575d6b5","6213cb6a1fdacc292045f204","4","","","","","1","9"
"null","","","null","","","","html-keyboard-response","127","504013","0.0-127.0","55e7b91341988f000575d6b5","6213cb6a1fdacc292045f204","","","","","<p style=""color:darkgreen;font-size:24px;"">Correct :)</p>","",""
"2935","key","v","v","16.710999999999935","500","250","psychophysics","128","506955","0.0-128.0","55e7b91341988f000575d6b5","6213cb6a1fdacc292045f204","4","","","","","1","1"
"null","","","null","","","","html-keyboard-response","129","507456","0.0-129.0","55e7b91341988f000575d6b5","6213cb6a1fdacc292045f204","","","","","<p style=""color:darkgreen;font-size:24px;"">Correct :)</p>","",""
"2634","key","v","v","16.71232278480989","500","250","psychophysics","130","510099","0.0-130.0","55e7b91341988f000575d6b5","6213cb6a1fdacc292045f204","4","","","","","1","2"
"null","","","null","","","","html-keyboard-response","131","510601","0.0-131.0","55e7b91341988f000575d6b5","6213cb6a1fdacc292045f204","","","","","<p style=""color:darkgreen;font-size:24px;"">Correct :)</p>","",""
"2730","key","v","v","16.81352147239259","500","250","psychophysics","132","513340","0.0-132.0","55e7b91341988f000575d6b5","6213cb6a1fdacc292045f204","4","","","","","1","2"
"null","","","null","","","","html-keyboard-response","133","513842","0.0-133.0","55e7b91341988f000575d6b5","6213cb6a1fdacc292045f204","","","","","<p style=""color:darkgreen;font-size:24px;"">Correct :)</p>","",""
"2552","key","n","n","16.710999999999974","500","250","psychophysics","134","516402","0.0-134.0","55e7b91341988f000575d6b5","6213cb6a1fdacc292045f204","4","","","","","1","7"
"null","","","null","","","","html-keyboard-response","135","516907","0.0-135.0","55e7b91341988f000575d6b5","6213cb6a1fdacc292045f204","","","","","<p style=""color:darkgreen;font-size:24px;"">Correct :)</p>","",""
"2761","key","n","n","16.71198181818155","500","250","psychophysics","136","519675","0.0-136.0","55e7b91341988f000575d6b5","6213cb6a1fdacc292045f204","4","","","","","1","6"
"null","","","null","","","","html-keyboard-response","137","520180","0.0-137.0","55e7b91341988f000575d6b5","6213cb6a1fdacc292045f204","","","","","<p style=""color:darkgreen;font-size:24px;"">Correct :)</p>","",""
"2495","key","n","n","16.711000000000087","500","250","psychophysics","138","522683","0.0-138.0","55e7b91341988f000575d6b5","6213cb6a1fdacc292045f204","4","","","","","1","8"
"null","","","null","","","","html-keyboard-response","139","523187","0.0-139.0","55e7b91341988f000575d6b5","6213cb6a1fdacc292045f204","","","","","<p style=""color:darkgreen;font-size:24px;"">Correct :)</p>","",""
"2574","key","v","v","16.71099999999966","500","250","psychophysics","140","525767","0.0-140.0","55e7b91341988f000575d6b5","6213cb6a1fdacc292045f204","4","","","","","1","2"
"null","","","null","","","","html-keyboard-response","141","526269","0.0-141.0","55e7b91341988f000575d6b5","6213cb6a1fdacc292045f204","","","","","<p style=""color:darkgreen;font-size:24px;"">Correct :)</p>","",""
"3124","key","n","n","16.71228342246013","500","250","psychophysics","142","529402","0.0-142.0","55e7b91341988f000575d6b5","6213cb6a1fdacc292045f204","4","","","","","1","9"
"null","","","null","","","","html-keyboard-response","143","529903","0.0-143.0","55e7b91341988f000575d6b5","6213cb6a1fdacc292045f204","","","","","<p style=""color:darkgreen;font-size:24px;"">Correct :)</p>","",""
"2714","key","n","n","16.711000000000183","500","250","psychophysics","144","532625","0.0-144.0","55e7b91341988f000575d6b5","6213cb6a1fdacc292045f204","4","","","","","1","6"
"null","","","null","","","","html-keyboard-response","145","533130","0.0-145.0","55e7b91341988f000575d6b5","6213cb6a1fdacc292045f204","","","","","<p style=""color:darkgreen;font-size:24px;"">Correct :)</p>","",""
"2480","key","v","v","16.71100000000002","500","250","psychophysics","146","535617","0.0-146.0","55e7b91341988f000575d6b5","6213cb6a1fdacc292045f204","4","","","","","1","2"
"null","","","null","","","","html-keyboard-response","147","536119","0.0-147.0","55e7b91341988f000575d6b5","6213cb6a1fdacc292045f204","","","","","<p style=""color:darkgreen;font-size:24px;"">Correct :)</p>","",""
"2780","key","v","v","16.71099999999979","500","250","psychophysics","148","538908","0.0-148.0","55e7b91341988f000575d6b5","6213cb6a1fdacc292045f204","4","","","","","1","2"
"null","","","null","","","","html-keyboard-response","149","539411","0.0-149.0","55e7b91341988f000575d6b5","6213cb6a1fdacc292045f204","","","","","<p style=""color:darkgreen;font-size:24px;"">Correct :)</p>","",""
"2680","key","n","n","17.029310126582608","500","250","psychophysics","150","542099","0.0-150.0","55e7b91341988f000575d6b5","6213cb6a1fdacc292045f204","4","","","","","1","8"
"null","","","null","","","","html-keyboard-response","151","542604","0.0-151.0","55e7b91341988f000575d6b5","6213cb6a1fdacc292045f204","","","","","<p style=""color:darkgreen;font-size:24px;"">Correct :)</p>","",""
"2695","key","n","n","16.711000000000123","500","250","psychophysics","152","545307","0.0-152.0","55e7b91341988f000575d6b5","6213cb6a1fdacc292045f204","4","","","","","1","6"
"null","","","null","","","","html-keyboard-response","153","545809","0.0-153.0","55e7b91341988f000575d6b5","6213cb6a1fdacc292045f204","","","","","<p style=""color:darkgreen;font-size:24px;"">Correct :)</p>","",""
"2852","key","n","n","16.711000000000034","500","250","psychophysics","154","548669","0.0-154.0","55e7b91341988f000575d6b5","6213cb6a1fdacc292045f204","4","","","","","1","6"
"null","","","null","","","","html-keyboard-response","155","549176","0.0-155.0","55e7b91341988f000575d6b5","6213cb6a1fdacc292045f204","","","","","<p style=""color:darkgreen;font-size:24px;"">Correct :)</p>","",""
"3891","key","n","n","16.712175965664883","500","250","psychophysics","156","553075","0.0-156.0","55e7b91341988f000575d6b5","6213cb6a1fdacc292045f204","4","","","","","1","6"
"null","","","null","","","","html-keyboard-response","157","553577","0.0-157.0","55e7b91341988f000575d6b5","6213cb6a1fdacc292045f204","","","","","<p style=""color:darkgreen;font-size:24px;"">Correct :)</p>","",""
"2801","key","v","v","16.71099999999985","500","250","psychophysics","158","556388","0.0-158.0","55e7b91341988f000575d6b5","6213cb6a1fdacc292045f204","4","","","","","1","4"
"null","","","null","","","","html-keyboard-response","159","556890","0.0-159.0","55e7b91341988f000575d6b5","6213cb6a1fdacc292045f204","","","","","<p style=""color:darkgreen;font-size:24px;"">Correct :)</p>","",""
"2712","key","n","n","16.815055555555492","500","250","psychophysics","160","559610","0.0-160.0","55e7b91341988f000575d6b5","6213cb6a1fdacc292045f204","4","","","","","1","7"
"null","","","null","","","","html-keyboard-response","161","560112","0.0-161.0","55e7b91341988f000575d6b5","6213cb6a1fdacc292045f204","","","","","<p style=""color:darkgreen;font-size:24px;"">Correct :)</p>","",""
"2684","key","v","v","16.710999999999398","500","250","psychophysics","162","562805","0.0-162.0","55e7b91341988f000575d6b5","6213cb6a1fdacc292045f204","4","","","","","1","4"
"null","","","null","","","","html-keyboard-response","163","563309","0.0-163.0","55e7b91341988f000575d6b5","6213cb6a1fdacc292045f204","","","","","<p style=""color:darkgreen;font-size:24px;"">Correct :)</p>","",""
"3604","key","n","n","16.710999999999956","500","250","psychophysics","164","566922","0.0-164.0","55e7b91341988f000575d6b5","6213cb6a1fdacc292045f204","4","","","","","1","8"
"null","","","null","","","","html-keyboard-response","165","567425","0.0-165.0","55e7b91341988f000575d6b5","6213cb6a1fdacc292045f204","","","","","<p style=""color:darkgreen;font-size:24px;"">Correct :)</p>","",""
"3125","key","n","n","16.711935828876914","500","250","psychophysics","166","570558","0.0-166.0","55e7b91341988f000575d6b5","6213cb6a1fdacc292045f204","4","","","","","1","6"
"null","","","null","","","","html-keyboard-response","167","571061","0.0-167.0","55e7b91341988f000575d6b5","6213cb6a1fdacc292045f204","","","","","<p style=""color:darkgreen;font-size:24px;"">Correct :)</p>","",""
"2545","key","v","v","16.710999999999594","500","250","psychophysics","168","573614","0.0-168.0","55e7b91341988f000575d6b5","6213cb6a1fdacc292045f204","4","","","","","1","2"
"null","","","null","","","","html-keyboard-response","169","574118","0.0-169.0","55e7b91341988f000575d6b5","6213cb6a1fdacc292045f204","","","","","<p style=""color:darkgreen;font-size:24px;"">Correct :)</p>","",""
"2735","key","v","v","16.710999999999597","500","250","psychophysics","170","576861","0.0-170.0","55e7b91341988f000575d6b5","6213cb6a1fdacc292045f204","4","","","","","1","3"
"null","","","null","","","","html-keyboard-response","171","577363","0.0-171.0","55e7b91341988f000575d6b5","6213cb6a1fdacc292045f204","","","","","<p style=""color:darkgreen;font-size:24px;"">Correct :)</p>","",""
"2545","key","v","v","16.711657894736977","500","250","psychophysics","172","579915","0.0-172.0","55e7b91341988f000575d6b5","6213cb6a1fdacc292045f204","4","","","","","1","1"
"null","","","null","","","","html-keyboard-response","173","580417","0.0-173.0","55e7b91341988f000575d6b5","6213cb6a1fdacc292045f204","","","","","<p style=""color:darkgreen;font-size:24px;"">Correct :)</p>","",""
"2606","key","v","v","16.710999999999796","500","250","psychophysics","174","583032","0.0-174.0","55e7b91341988f000575d6b5","6213cb6a1fdacc292045f204","4","","","","","1","2"
"null","","","null","","","","html-keyboard-response","175","583534","0.0-175.0","55e7b91341988f000575d6b5","6213cb6a1fdacc292045f204","","","","","<p style=""color:darkgreen;font-size:24px;"">Correct :)</p>","",""
"3049","key","n","n","16.71100000000001","500","250","psychophysics","176","586592","0.0-176.0","55e7b91341988f000575d6b5","6213cb6a1fdacc292045f204","4","","","","","1","7"
"null","","","null","","","","html-keyboard-response","177","587096","0.0-177.0","55e7b91341988f000575d6b5","6213cb6a1fdacc292045f204","","","","","<p style=""color:darkgreen;font-size:24px;"">Correct :)</p>","",""
"2606","key","v","v","16.71288461538512","500","250","psychophysics","178","589710","0.0-178.0","55e7b91341988f000575d6b5","6213cb6a1fdacc292045f204","4","","","","","1","1"
"null","","","null","","","","html-keyboard-response","179","590213","0.0-179.0","55e7b91341988f000575d6b5","6213cb6a1fdacc292045f204","","","","","<p style=""color:darkgreen;font-size:24px;"">Correct :)</p>","",""
"2546","key","v","v","16.711000000000354","500","250","psychophysics","180","592767","0.0-180.0","55e7b91341988f000575d6b5","6213cb6a1fdacc292045f204","4","","","","","1","2"
"null","","","null","","","","html-keyboard-response","181","593270","0.0-181.0","55e7b91341988f000575d6b5","6213cb6a1fdacc292045f204","","","","","<p style=""color:darkgreen;font-size:24px;"">Correct :)</p>","",""
"2896","key","v","v","16.711000000000208","500","250","psychophysics","182","596174","0.0-182.0","55e7b91341988f000575d6b5","6213cb6a1fdacc292045f204","4","","","","","1","4"
"null","","","null","","","","html-keyboard-response","183","596676","0.0-183.0","55e7b91341988f000575d6b5","6213cb6a1fdacc292045f204","","","","","<p style=""color:darkgreen;font-size:24px;"">Correct :)</p>","",""
"2816","key","v","v","16.710999999999913","500","250","psychophysics","184","599500","0.0-184.0","55e7b91341988f000575d6b5","6213cb6a1fdacc292045f204","4","","","","","1","3"
"null","","","null","","","","html-keyboard-response","185","600002","0.0-185.0","55e7b91341988f000575d6b5","6213cb6a1fdacc292045f204","","","","","<p style=""color:darkgreen;font-size:24px;"">Correct :)</p>","",""
"3570","key","n","n","17.02974761904805","500","250","psychophysics","186","603581","0.0-186.0","55e7b91341988f000575d6b5","6213cb6a1fdacc292045f204","4","","","","","1","7"
"null","","","null","","","","html-keyboard-response","187","604082","0.0-187.0","55e7b91341988f000575d6b5","6213cb6a1fdacc292045f204","","","","","<p style=""color:darkgreen;font-size:24px;"">Correct :)</p>","",""
"2648","key","v","v","16.710999999999995","500","250","psychophysics","188","606739","0.0-188.0","55e7b91341988f000575d6b5","6213cb6a1fdacc292045f204","4","","","","","1","4"
"null","","","null","","","","html-keyboard-response","189","607241","0.0-189.0","55e7b91341988f000575d6b5","6213cb6a1fdacc292045f204","","","","","<p style=""color:darkgreen;font-size:24px;"">Correct :)</p>","",""
"2812","key","n","n","16.711000000000542","500","250","psychophysics","190","610062","0.0-190.0","55e7b91341988f000575d6b5","6213cb6a1fdacc292045f204","4","","","","","1","6"
"null","","","null","","","","html-keyboard-response","191","610566","0.0-191.0","55e7b91341988f000575d6b5","6213cb6a1fdacc292045f204","","","","","<p style=""color:darkgreen;font-size:24px;"">Correct :)</p>","",""
"2564","key","v","v","16.710999999999594","500","250","psychophysics","192","613138","0.0-192.0","55e7b91341988f000575d6b5","6213cb6a1fdacc292045f204","4","","","","","1","2"
"null","","","null","","","","html-keyboard-response","193","613643","0.0-193.0","55e7b91341988f000575d6b5","6213cb6a1fdacc292045f204","","","","","<p style=""color:darkgreen;font-size:24px;"">Correct :)</p>","",""
"12388","","","v","","","","html-keyboard-response","194","626032","0.0-194.0","55e7b91341988f000575d6b5","6213cb6a1fdacc292045f204","","","","","<p> Ok, now we are going present the same digits as before.  Your job is to say whether the digit is even or odd  If the digit is odd, press to v key; if it is even, press the n key. We are going to do 50 of these.  </p>  <br><br>  Ready? (press v or n)","",""
"2988","key","n","n","16.712631284916128","500","250","psychophysics","195","629029","0.0-195.0","55e7b91341988f000575d6b5","6213cb6a1fdacc292045f204","5","","","","","0","2"
"null","","","null","","","","html-keyboard-response","196","629531","0.0-196.0","55e7b91341988f000575d6b5","6213cb6a1fdacc292045f204","","","","","<p style=""color:darkgreen;font-size:24px;"">Correct :)</p>","",""
"2680","key","v","v","16.711000000000123","500","250","psychophysics","197","632220","0.0-197.0","55e7b91341988f000575d6b5","6213cb6a1fdacc292045f204","5","","","","","0","9"
"null","","","null","","","","html-keyboard-response","198","632723","0.0-198.0","55e7b91341988f000575d6b5","6213cb6a1fdacc292045f204","","","","","<p style=""color:darkgreen;font-size:24px;"">Correct :)</p>","",""
"2718","key","n","n","16.711000000000247","500","250","psychophysics","199","635448","0.0-199.0","55e7b91341988f000575d6b5","6213cb6a1fdacc292045f204","5","","","","","0","6"
"null","","","null","","","","html-keyboard-response","200","635951","0.0-200.0","55e7b91341988f000575d6b5","6213cb6a1fdacc292045f204","","","","","<p style=""color:darkgreen;font-size:24px;"">Correct :)</p>","",""
"2658","key","n","n","16.71257232704402","500","250","psychophysics","201","638618","0.0-201.0","55e7b91341988f000575d6b5","6213cb6a1fdacc292045f204","5","","","","","0","6"
"null","","","null","","","","html-keyboard-response","202","639120","0.0-202.0","55e7b91341988f000575d6b5","6213cb6a1fdacc292045f204","","","","","<p style=""color:darkgreen;font-size:24px;"">Correct :)</p>","",""
"3144","key","n","n","16.711000000000336","500","250","psychophysics","203","642273","0.0-203.0","55e7b91341988f000575d6b5","6213cb6a1fdacc292045f204","5","","","","","0","8"
"null","","","null","","","","html-keyboard-response","204","642777","0.0-204.0","55e7b91341988f000575d6b5","6213cb6a1fdacc292045f204","","","","","<p style=""color:darkgreen;font-size:24px;"">Correct :)</p>","",""
"2774","key","v","v","16.710999999999725","500","250","psychophysics","205","645559","0.0-205.0","55e7b91341988f000575d6b5","6213cb6a1fdacc292045f204","5","","","","","0","3"
"null","","","null","","","","html-keyboard-response","206","646062","0.0-206.0","55e7b91341988f000575d6b5","6213cb6a1fdacc292045f204","","","","","<p style=""color:darkgreen;font-size:24px;"">Correct :)</p>","",""
"2995","key","n","n","17.19202298850514","500","250","psychophysics","207","649066","0.0-207.0","55e7b91341988f000575d6b5","6213cb6a1fdacc292045f204","5","","","","","0","4"
"null","","","null","","","","html-keyboard-response","208","649569","0.0-208.0","55e7b91341988f000575d6b5","6213cb6a1fdacc292045f204","","","","","<p style=""color:darkgreen;font-size:24px;"">Correct :)</p>","",""
"2661","key","n","n","16.710999999999995","500","250","psychophysics","209","652237","0.0-209.0","55e7b91341988f000575d6b5","6213cb6a1fdacc292045f204","5","","","","","0","4"
"null","","","null","","","","html-keyboard-response","210","652739","0.0-210.0","55e7b91341988f000575d6b5","6213cb6a1fdacc292045f204","","","","","<p style=""color:darkgreen;font-size:24px;"">Correct :)</p>","",""
"2525","key","v","v","16.711000000000222","500","250","psychophysics","211","655272","0.0-211.0","55e7b91341988f000575d6b5","6213cb6a1fdacc292045f204","5","","","","","0","1"
"null","","","null","","","","html-keyboard-response","212","655775","0.0-212.0","55e7b91341988f000575d6b5","6213cb6a1fdacc292045f204","","","","","<p style=""color:darkgreen;font-size:24px;"">Correct :)</p>","",""
"2705","key","v","v","16.71235185185157","500","250","psychophysics","213","658488","0.0-213.0","55e7b91341988f000575d6b5","6213cb6a1fdacc292045f204","5","","","","","0","3"
"null","","","null","","","","html-keyboard-response","214","658990","0.0-214.0","55e7b91341988f000575d6b5","6213cb6a1fdacc292045f204","","","","","<p style=""color:darkgreen;font-size:24px;"">Correct :)</p>","",""
"2649","key","n","n","16.710999999999995","500","250","psychophysics","215","661648","0.0-215.0","55e7b91341988f000575d6b5","6213cb6a1fdacc292045f204","5","","","","","0","8"
"null","","","null","","","","html-keyboard-response","216","662150","0.0-216.0","55e7b91341988f000575d6b5","6213cb6a1fdacc292045f204","","","","","<p style=""color:darkgreen;font-size:24px;"">Correct :)</p>","",""
"2596","key","n","n","16.818812903225602","500","250","psychophysics","217","664755","0.0-217.0","55e7b91341988f000575d6b5","6213cb6a1fdacc292045f204","5","","","","","0","6"
"null","","","null","","","","html-keyboard-response","218","665260","0.0-218.0","55e7b91341988f000575d6b5","6213cb6a1fdacc292045f204","","","","","<p style=""color:darkgreen;font-size:24px;"">Correct :)</p>","",""
"2713","key","n","n","16.712098159508756","500","250","psychophysics","219","667981","0.0-219.0","55e7b91341988f000575d6b5","6213cb6a1fdacc292045f204","5","","","","","0","2"
"null","","","null","","","","html-keyboard-response","220","668484","0.0-220.0","55e7b91341988f000575d6b5","6213cb6a1fdacc292045f204","","","","","<p style=""color:darkgreen;font-size:24px;"">Correct :)</p>","",""
"2532","key","n","n","16.710999999999522","500","250","psychophysics","221","671025","0.0-221.0","55e7b91341988f000575d6b5","6213cb6a1fdacc292045f204","5","","","","","0","2"
"null","","","null","","","","html-keyboard-response","222","671529","0.0-222.0","55e7b91341988f000575d6b5","6213cb6a1fdacc292045f204","","","","","<p style=""color:darkgreen;font-size:24px;"">Correct :)</p>","",""
"2719","key","v","v","16.710999999999466","500","250","psychophysics","223","674256","0.0-223.0","55e7b91341988f000575d6b5","6213cb6a1fdacc292045f204","5","","","","","0","3"
"null","","","null","","","","html-keyboard-response","224","674758","0.0-224.0","55e7b91341988f000575d6b5","6213cb6a1fdacc292045f204","","","","","<p style=""color:darkgreen;font-size:24px;"">Correct :)</p>","",""
"2699","key","n","n","16.7116211180124","500","250","psychophysics","225","677465","0.0-225.0","55e7b91341988f000575d6b5","6213cb6a1fdacc292045f204","5","","","","","0","2"
"null","","","null","","","","html-keyboard-response","226","677968","0.0-226.0","55e7b91341988f000575d6b5","6213cb6a1fdacc292045f204","","","","","<p style=""color:darkgreen;font-size:24px;"">Correct :)</p>","",""
"2640","key","v","v","16.71099999999993","500","250","psychophysics","227","680616","0.0-227.0","55e7b91341988f000575d6b5","6213cb6a1fdacc292045f204","5","","","","","0","1"
"null","","","null","","","","html-keyboard-response","228","681118","0.0-228.0","55e7b91341988f000575d6b5","6213cb6a1fdacc292045f204","","","","","<p style=""color:darkgreen;font-size:24px;"">Correct :)</p>","",""
"2618","key","n","n","16.711000000000606","500","250","psychophysics","229","683744","0.0-229.0","55e7b91341988f000575d6b5","6213cb6a1fdacc292045f204","5","","","","","0","2"
"null","","","null","","","","html-keyboard-response","230","684249","0.0-230.0","55e7b91341988f000575d6b5","6213cb6a1fdacc292045f204","","","","","<p style=""color:darkgreen;font-size:24px;"">Correct :)</p>","",""
"2645","key","n","n","16.712797468354264","500","250","psychophysics","231","686901","0.0-231.0","55e7b91341988f000575d6b5","6213cb6a1fdacc292045f204","5","","","","","0","4"
"null","","","null","","","","html-keyboard-response","232","687405","0.0-232.0","55e7b91341988f000575d6b5","6213cb6a1fdacc292045f204","","","","","<p style=""color:darkgreen;font-size:24px;"">Correct :)</p>","",""
"2541","key","v","v","16.82094078947404","500","250","psychophysics","233","689984","0.0-233.0","55e7b91341988f000575d6b5","6213cb6a1fdacc292045f204","5","","","","","0","1"
"null","","","null","","","","html-keyboard-response","234","690487","0.0-234.0","55e7b91341988f000575d6b5","6213cb6a1fdacc292045f204","","","","","<p style=""color:darkgreen;font-size:24px;"">Correct :)</p>","",""
"2536","key","n","n","16.711000000000286","500","250","psychophysics","235","693032","0.0-235.0","55e7b91341988f000575d6b5","6213cb6a1fdacc292045f204","5","","","","","0","8"
"null","","","null","","","","html-keyboard-response","236","693535","0.0-236.0","55e7b91341988f000575d6b5","6213cb6a1fdacc292045f204","","","","","<p style=""color:darkgreen;font-size:24px;"">Correct :)</p>","",""
"2623","key","n","n","16.710999999999864","500","250","psychophysics","237","696166","0.0-237.0","55e7b91341988f000575d6b5","6213cb6a1fdacc292045f204","5","","","","","0","2"
"null","","","null","","","","html-keyboard-response","238","696672","0.0-238.0","55e7b91341988f000575d6b5","6213cb6a1fdacc292045f204","","","","","<p style=""color:darkgreen;font-size:24px;"">Correct :)</p>","",""
"2637","key","n","n","16.712227848101307","500","250","psychophysics","239","699315","0.0-239.0","55e7b91341988f000575d6b5","6213cb6a1fdacc292045f204","5","","","","","0","9"
"null","","","null","","","","html-keyboard-response","240","699818","0.0-240.0","55e7b91341988f000575d6b5","6213cb6a1fdacc292045f204","","","","","<p style=""color:red;font-size:24px;"">Error :(</p>","",""
"2548","key","n","n","17.159617449664793","500","250","psychophysics","241","702374","0.0-241.0","55e7b91341988f000575d6b5","6213cb6a1fdacc292045f204","5","","","","","0","3"
"null","","","null","","","","html-keyboard-response","242","702876","0.0-242.0","55e7b91341988f000575d6b5","6213cb6a1fdacc292045f204","","","","","<p style=""color:red;font-size:24px;"">Error :(</p>","",""
"2601","key","v","v","16.710999999999796","500","250","psychophysics","243","705485","0.0-243.0","55e7b91341988f000575d6b5","6213cb6a1fdacc292045f204","5","","","","","0","9"
"null","","","null","","","","html-keyboard-response","244","705997","0.0-244.0","55e7b91341988f000575d6b5","6213cb6a1fdacc292045f204","","","","","<p style=""color:darkgreen;font-size:24px;"">Correct :)</p>","",""
"3134","key","n","n","16.801779569892755","500","250","psychophysics","245","709142","0.0-245.0","55e7b91341988f000575d6b5","6213cb6a1fdacc292045f204","5","","","","","0","2"
"null","","","null","","","","html-keyboard-response","246","709644","0.0-246.0","55e7b91341988f000575d6b5","6213cb6a1fdacc292045f204","","","","","<p style=""color:darkgreen;font-size:24px;"">Correct :)</p>","",""
"2628","key","n","n","16.71099999999993","500","250","psychophysics","247","712282","0.0-247.0","55e7b91341988f000575d6b5","6213cb6a1fdacc292045f204","5","","","","","0","4"
"null","","","null","","","","html-keyboard-response","248","712786","0.0-248.0","55e7b91341988f000575d6b5","6213cb6a1fdacc292045f204","","","","","<p style=""color:darkgreen;font-size:24px;"">Correct :)</p>","",""
"2683","key","v","v","16.711000000000123","500","250","psychophysics","249","715477","0.0-249.0","55e7b91341988f000575d6b5","6213cb6a1fdacc292045f204","5","","","","","0","9"
"null","","","null","","","","html-keyboard-response","250","715982","0.0-250.0","55e7b91341988f000575d6b5","6213cb6a1fdacc292045f204","","","","","<p style=""color:darkgreen;font-size:24px;"">Correct :)</p>","",""
"2876","key","n","n","16.711988372092684","500","250","psychophysics","251","718865","0.0-251.0","55e7b91341988f000575d6b5","6213cb6a1fdacc292045f204","5","","","","","0","4"
"null","","","null","","","","html-keyboard-response","252","719367","0.0-252.0","55e7b91341988f000575d6b5","6213cb6a1fdacc292045f204","","","","","<p style=""color:darkgreen;font-size:24px;"">Correct :)</p>","",""
"2750","key","n","n","17.02046296296262","500","250","psychophysics","253","722126","0.0-253.0","55e7b91341988f000575d6b5","6213cb6a1fdacc292045f204","5","","","","","0","8"
"null","","","null","","","","html-keyboard-response","254","722628","0.0-254.0","55e7b91341988f000575d6b5","6213cb6a1fdacc292045f204","","","","","<p style=""color:darkgreen;font-size:24px;"">Correct :)</p>","",""
"2682","key","v","v","16.710999999999398","500","250","psychophysics","255","725318","0.0-255.0","55e7b91341988f000575d6b5","6213cb6a1fdacc292045f204","5","","","","","0","7"
"null","","","null","","","","html-keyboard-response","256","725822","0.0-256.0","55e7b91341988f000575d6b5","6213cb6a1fdacc292045f204","","","","","<p style=""color:darkgreen;font-size:24px;"">Correct :)</p>","",""
"2927","key","n","n","16.712005714285187","500","250","psychophysics","257","728757","0.0-257.0","55e7b91341988f000575d6b5","6213cb6a1fdacc292045f204","5","","","","","0","2"
"null","","","null","","","","html-keyboard-response","258","729261","0.0-258.0","55e7b91341988f000575d6b5","6213cb6a1fdacc292045f204","","","","","<p style=""color:darkgreen;font-size:24px;"">Correct :)</p>","",""
"2751","key","n","n","16.71099999999966","500","250","psychophysics","259","732021","0.0-259.0","55e7b91341988f000575d6b5","6213cb6a1fdacc292045f204","5","","","","","0","2"
"null","","","null","","","","html-keyboard-response","260","732526","0.0-260.0","55e7b91341988f000575d6b5","6213cb6a1fdacc292045f204","","","","","<p style=""color:darkgreen;font-size:24px;"">Correct :)</p>","",""
"2662","key","v","v","16.710999999999995","500","250","psychophysics","261","735197","0.0-261.0","55e7b91341988f000575d6b5","6213cb6a1fdacc292045f204","5","","","","","0","7"
"null","","","null","","","","html-keyboard-response","262","735701","0.0-262.0","55e7b91341988f000575d6b5","6213cb6a1fdacc292045f204","","","","","<p style=""color:darkgreen;font-size:24px;"">Correct :)</p>","",""
"2646","key","n","n","16.71243037974692","500","250","psychophysics","263","738356","0.0-263.0","55e7b91341988f000575d6b5","6213cb6a1fdacc292045f204","5","","","","","0","6"
"null","","","null","","","","html-keyboard-response","264","738862","0.0-264.0","55e7b91341988f000575d6b5","6213cb6a1fdacc292045f204","","","","","<p style=""color:darkgreen;font-size:24px;"">Correct :)</p>","",""
"2805","key","n","n","16.71099999999985","500","250","psychophysics","265","741676","0.0-265.0","55e7b91341988f000575d6b5","6213cb6a1fdacc292045f204","5","","","","","0","4"
"null","","","null","","","","html-keyboard-response","266","742179","0.0-266.0","55e7b91341988f000575d6b5","6213cb6a1fdacc292045f204","","","","","<p style=""color:darkgreen;font-size:24px;"">Correct :)</p>","",""
"2731","key","v","v","16.710999999999597","500","250","psychophysics","267","744919","0.0-267.0","55e7b91341988f000575d6b5","6213cb6a1fdacc292045f204","5","","","","","0","3"
"null","","","null","","","","html-keyboard-response","268","745422","0.0-268.0","55e7b91341988f000575d6b5","6213cb6a1fdacc292045f204","","","","","<p style=""color:darkgreen;font-size:24px;"">Correct :)</p>","",""
"2999","key","v","v","16.71156666666696","500","250","psychophysics","269","748429","0.0-269.0","55e7b91341988f000575d6b5","6213cb6a1fdacc292045f204","5","","","","","0","7"
"null","","","null","","","","html-keyboard-response","270","748931","0.0-270.0","55e7b91341988f000575d6b5","6213cb6a1fdacc292045f204","","","","","<p style=""color:darkgreen;font-size:24px;"">Correct :)</p>","",""
"2631","key","n","n","16.81743949044579","500","250","psychophysics","271","751570","0.0-271.0","55e7b91341988f000575d6b5","6213cb6a1fdacc292045f204","5","","","","","0","2"
"null","","","null","","","","html-keyboard-response","272","752073","0.0-272.0","55e7b91341988f000575d6b5","6213cb6a1fdacc292045f204","","","","","<p style=""color:darkgreen;font-size:24px;"">Correct :)</p>","",""
"7563","key","n","n","16.711582781456844","500","250","psychophysics","273","759644","0.0-273.0","55e7b91341988f000575d6b5","6213cb6a1fdacc292045f204","5","","","","","0","6"
"null","","","null","","","","html-keyboard-response","274","760146","0.0-274.0","55e7b91341988f000575d6b5","6213cb6a1fdacc292045f204","","","","","<p style=""color:darkgreen;font-size:24px;"">Correct :)</p>","",""
"3298","key","n","n","16.710999999999608","500","250","psychophysics","275","763453","0.0-275.0","55e7b91341988f000575d6b5","6213cb6a1fdacc292045f204","5","","","","","0","4"
"null","","","null","","","","html-keyboard-response","276","763955","0.0-276.0","55e7b91341988f000575d6b5","6213cb6a1fdacc292045f204","","","","","<p style=""color:darkgreen;font-size:24px;"">Correct :)</p>","",""
"2691","key","n","n","16.710999999999398","500","250","psychophysics","277","766654","0.0-277.0","55e7b91341988f000575d6b5","6213cb6a1fdacc292045f204","5","","","","","0","2"
"null","","","null","","","","html-keyboard-response","278","767158","0.0-278.0","55e7b91341988f000575d6b5","6213cb6a1fdacc292045f204","","","","","<p style=""color:darkgreen;font-size:24px;"">Correct :)</p>","",""
"2885","key","v","v","16.711606936416228","500","250","psychophysics","279","770053","0.0-279.0","55e7b91341988f000575d6b5","6213cb6a1fdacc292045f204","5","","","","","0","3"
"null","","","null","","","","html-keyboard-response","280","770556","0.0-280.0","55e7b91341988f000575d6b5","6213cb6a1fdacc292045f204","","","","","<p style=""color:darkgreen;font-size:24px;"">Correct :)</p>","",""
"2697","key","n","n","16.711000000000183","500","250","psychophysics","281","773260","0.0-281.0","55e7b91341988f000575d6b5","6213cb6a1fdacc292045f204","5","","","","","0","8"
"null","","","null","","","","html-keyboard-response","282","773764","0.0-282.0","55e7b91341988f000575d6b5","6213cb6a1fdacc292045f204","","","","","<p style=""color:darkgreen;font-size:24px;"">Correct :)</p>","",""
"2813","key","v","v","16.710999999999913","500","250","psychophysics","283","776585","0.0-283.0","55e7b91341988f000575d6b5","6213cb6a1fdacc292045f204","5","","","","","0","9"
"null","","","null","","","","html-keyboard-response","284","777089","0.0-284.0","55e7b91341988f000575d6b5","6213cb6a1fdacc292045f204","","","","","<p style=""color:darkgreen;font-size:24px;"">Correct :)</p>","",""
"2710","key","n","n","16.712666666666248","500","250","psychophysics","285","779807","0.0-285.0","55e7b91341988f000575d6b5","6213cb6a1fdacc292045f204","5","","","","","0","2"
"null","","","null","","","","html-keyboard-response","286","780312","0.0-286.0","55e7b91341988f000575d6b5","6213cb6a1fdacc292045f204","","","","","<p style=""color:darkgreen;font-size:24px;"">Correct :)</p>","",""
"2686","key","v","v","17.590526315789536","500","250","psychophysics","287","783005","0.0-287.0","55e7b91341988f000575d6b5","6213cb6a1fdacc292045f204","5","","","","","0","9"
"null","","","null","","","","html-keyboard-response","288","783510","0.0-288.0","55e7b91341988f000575d6b5","6213cb6a1fdacc292045f204","","","","","<p style=""color:darkgreen;font-size:24px;"">Correct :)</p>","",""
"2753","key","v","v","16.710999999999597","500","250","psychophysics","289","786271","0.0-289.0","55e7b91341988f000575d6b5","6213cb6a1fdacc292045f204","5","","","","","0","1"
"null","","","null","","","","html-keyboard-response","290","786774","0.0-290.0","55e7b91341988f000575d6b5","6213cb6a1fdacc292045f204","","","","","<p style=""color:darkgreen;font-size:24px;"">Correct :)</p>","",""
"2872","key","v","v","17.21208982035925","500","250","psychophysics","291","789655","0.0-291.0","55e7b91341988f000575d6b5","6213cb6a1fdacc292045f204","5","","","","","0","7"
"null","","","null","","","","html-keyboard-response","292","790158","0.0-292.0","55e7b91341988f000575d6b5","6213cb6a1fdacc292045f204","","","","","<p style=""color:darkgreen;font-size:24px;"">Correct :)</p>","",""
"2614","key","n","n","16.710999999999864","500","250","psychophysics","293","792780","0.0-293.0","55e7b91341988f000575d6b5","6213cb6a1fdacc292045f204","5","","","","","0","8"
"null","","","null","","","","html-keyboard-response","294","793282","0.0-294.0","55e7b91341988f000575d6b5","6213cb6a1fdacc292045f204","","","","","<p style=""color:darkgreen;font-size:24px;"">Correct :)</p>","",""
"3265","","","v","","","","html-keyboard-response","295","796549","0.0-295.0","55e7b91341988f000575d6b5","6213cb6a1fdacc292045f204","","","","","<p> Here, the tasks are going to switch.  For some trials, your job is to decide if the digit is less than or greater than 5.  For others, it is to decide if the digit is even or odd.  You will be told which type of trial the current one is.  But, pay attention, the type of trial changes too.  We are going to do 50 of these.  </p>  <br><br>  Ready? (press v or n)","",""
"4031","key","v","v","16.712020746887763","500","250","psychophysics","296","800587","0.0-296.0","55e7b91341988f000575d6b5","6213cb6a1fdacc292045f204","6","","","","","0","7"
"null","","","null","","","","html-keyboard-response","297","801089","0.0-297.0","55e7b91341988f000575d6b5","6213cb6a1fdacc292045f204","","","","","<p style=""color:darkgreen;font-size:24px;"">Correct :)</p>","",""
"2995","key","n","n","16.71099999999984","500","250","psychophysics","298","804092","0.0-298.0","55e7b91341988f000575d6b5","6213cb6a1fdacc292045f204","6","","","","","0","2"
"null","","","null","","","","html-keyboard-response","299","804595","0.0-299.0","55e7b91341988f000575d6b5","6213cb6a1fdacc292045f204","","","","","<p style=""color:darkgreen;font-size:24px;"">Correct :)</p>","",""
"2833","key","v","v","16.711600000000395","500","250","psychophysics","300","807436","0.0-300.0","55e7b91341988f000575d6b5","6213cb6a1fdacc292045f204","6","","","","","0","1"
"null","","","null","","","","html-keyboard-response","301","807937","0.0-301.0","55e7b91341988f000575d6b5","6213cb6a1fdacc292045f204","","","","","<p style=""color:darkgreen;font-size:24px;"">Correct :)</p>","",""
"2785","key","n","n","16.71099999999979","500","250","psychophysics","302","810731","0.0-302.0","55e7b91341988f000575d6b5","6213cb6a1fdacc292045f204","6","","","","","0","8"
"null","","","null","","","","html-keyboard-response","303","811238","0.0-303.0","55e7b91341988f000575d6b5","6213cb6a1fdacc292045f204","","","","","<p style=""color:darkgreen;font-size:24px;"">Correct :)</p>","",""
"2839","key","n","n","16.710999999999913","500","250","psychophysics","304","814086","0.0-304.0","55e7b91341988f000575d6b5","6213cb6a1fdacc292045f204","6","","","","","0","4"
"null","","","null","","","","html-keyboard-response","305","814589","0.0-305.0","55e7b91341988f000575d6b5","6213cb6a1fdacc292045f204","","","","","<p style=""color:darkgreen;font-size:24px;"">Correct :)</p>","",""
"2717","key","n","n","16.711000000000247","500","250","psychophysics","306","817314","0.0-306.0","55e7b91341988f000575d6b5","6213cb6a1fdacc292045f204","6","","","","","0","8"
"null","","","null","","","","html-keyboard-response","307","817819","0.0-307.0","55e7b91341988f000575d6b5","6213cb6a1fdacc292045f204","","","","","<p style=""color:darkgreen;font-size:24px;"">Correct :)</p>","",""
"2745","key","v","v","16.711000000000308","500","250","psychophysics","308","820572","0.0-308.0","55e7b91341988f000575d6b5","6213cb6a1fdacc292045f204","6","","","","","0","9"
"null","","","null","","","","html-keyboard-response","309","821074","0.0-309.0","55e7b91341988f000575d6b5","6213cb6a1fdacc292045f204","","","","","<p style=""color:darkgreen;font-size:24px;"">Correct :)</p>","",""
"2746","key","v","v","16.711000000000308","500","250","psychophysics","310","823828","0.0-310.0","55e7b91341988f000575d6b5","6213cb6a1fdacc292045f204","6","","","","","0","9"
"null","","","null","","","","html-keyboard-response","311","824331","0.0-311.0","55e7b91341988f000575d6b5","6213cb6a1fdacc292045f204","","","","","<p style=""color:darkgreen;font-size:24px;"">Correct :)</p>","",""
"2917","key","n","n","16.711000000000265","500","250","psychophysics","312","827255","0.0-312.0","55e7b91341988f000575d6b5","6213cb6a1fdacc292045f204","6","","","","","1","7"
"null","","","null","","","","html-keyboard-response","313","827758","0.0-313.0","55e7b91341988f000575d6b5","6213cb6a1fdacc292045f204","","","","","<p style=""color:darkgreen;font-size:24px;"">Correct :)</p>","",""
"2797","key","v","v","16.712839285714185","500","250","psychophysics","314","830563","0.0-314.0","55e7b91341988f000575d6b5","6213cb6a1fdacc292045f204","6","","","","","1","2"
"null","","","null","","","","html-keyboard-response","315","831065","0.0-315.0","55e7b91341988f000575d6b5","6213cb6a1fdacc292045f204","","","","","<p style=""color:darkgreen;font-size:24px;"">Correct :)</p>","",""
"2750","key","v","v","16.71099999999966","500","250","psychophysics","316","833823","0.0-316.0","55e7b91341988f000575d6b5","6213cb6a1fdacc292045f204","6","","","","","1","3"
"null","","","null","","","","html-keyboard-response","317","834329","0.0-317.0","55e7b91341988f000575d6b5","6213cb6a1fdacc292045f204","","","","","<p style=""color:darkgreen;font-size:24px;"">Correct :)</p>","",""
"2859","key","v","v","16.711000000000034","500","250","psychophysics","318","837196","0.0-318.0","55e7b91341988f000575d6b5","6213cb6a1fdacc292045f204","6","","","","","1","4"
"null","","","null","","","","html-keyboard-response","319","837698","0.0-319.0","55e7b91341988f000575d6b5","6213cb6a1fdacc292045f204","","","","","<p style=""color:darkgreen;font-size:24px;"">Correct :)</p>","",""
"2698","key","v","v","16.712222222222252","500","250","psychophysics","320","840405","0.0-320.0","55e7b91341988f000575d6b5","6213cb6a1fdacc292045f204","6","","","","","1","4"
"null","","","null","","","","html-keyboard-response","321","840908","0.0-321.0","55e7b91341988f000575d6b5","6213cb6a1fdacc292045f204","","","","","<p style=""color:darkgreen;font-size:24px;"">Correct :)</p>","",""
"2582","key","n","n","16.819512987012715","500","250","psychophysics","322","843498","0.0-322.0","55e7b91341988f000575d6b5","6213cb6a1fdacc292045f204","6","","","","","0","8"
"null","","","null","","","","html-keyboard-response","323","844002","0.0-323.0","55e7b91341988f000575d6b5","6213cb6a1fdacc292045f204","","","","","<p style=""color:darkgreen;font-size:24px;"">Correct :)</p>","",""
"2786","key","v","v","16.710999999999725","500","250","psychophysics","324","846796","0.0-324.0","55e7b91341988f000575d6b5","6213cb6a1fdacc292045f204","6","","","","","1","9"
"null","","","null","","","","html-keyboard-response","325","847300","0.0-325.0","55e7b91341988f000575d6b5","6213cb6a1fdacc292045f204","","","","","<p style=""color:red;font-size:24px;"">Error :(</p>","",""
"2730","key","n","n","16.71169325153406","500","250","psychophysics","326","850038","0.0-326.0","55e7b91341988f000575d6b5","6213cb6a1fdacc292045f204","6","","","","","0","2"
"null","","","null","","","","html-keyboard-response","327","850548","0.0-327.0","55e7b91341988f000575d6b5","6213cb6a1fdacc292045f204","","","","","<p style=""color:darkgreen;font-size:24px;"">Correct :)</p>","",""
"2984","key","n","n","16.71099999999984","500","250","psychophysics","328","853540","0.0-328.0","55e7b91341988f000575d6b5","6213cb6a1fdacc292045f204","6","","","","","1","8"
"null","","","null","","","","html-keyboard-response","329","854042","0.0-329.0","55e7b91341988f000575d6b5","6213cb6a1fdacc292045f204","","","","","<p style=""color:darkgreen;font-size:24px;"">Correct :)</p>","",""
"2548","key","v","v","16.710999999999594","500","250","psychophysics","330","856599","0.0-330.0","55e7b91341988f000575d6b5","6213cb6a1fdacc292045f204","6","","","","","0","3"
"null","","","null","","","","html-keyboard-response","331","857104","0.0-331.0","55e7b91341988f000575d6b5","6213cb6a1fdacc292045f204","","","","","<p style=""color:darkgreen;font-size:24px;"">Correct :)</p>","",""
"2778","key","n","n","16.71187951807171","500","250","psychophysics","332","859890","0.0-332.0","55e7b91341988f000575d6b5","6213cb6a1fdacc292045f204","6","","","","","0","4"
"null","","","null","","","","html-keyboard-response","333","860395","0.0-333.0","55e7b91341988f000575d6b5","6213cb6a1fdacc292045f204","","","","","<p style=""color:darkgreen;font-size:24px;"">Correct :)</p>","",""
"2815","key","v","v","16.71099999999985","500","250","psychophysics","334","863219","0.0-334.0","55e7b91341988f000575d6b5","6213cb6a1fdacc292045f204","6","","","","","0","7"
"null","","","null","","","","html-keyboard-response","335","863722","0.0-335.0","55e7b91341988f000575d6b5","6213cb6a1fdacc292045f204","","","","","<p style=""color:darkgreen;font-size:24px;"">Correct :)</p>","",""
"2616","key","n","n","16.710999999999796","500","250","psychophysics","336","866345","0.0-336.0","55e7b91341988f000575d6b5","6213cb6a1fdacc292045f204","6","","","","","1","7"
"null","","","null","","","","html-keyboard-response","337","866850","0.0-337.0","55e7b91341988f000575d6b5","6213cb6a1fdacc292045f204","","","","","<p style=""color:darkgreen;font-size:24px;"">Correct :)</p>","",""
"2543","key","v","v","16.712815789473673","500","250","psychophysics","338","869401","0.0-338.0","55e7b91341988f000575d6b5","6213cb6a1fdacc292045f204","6","","","","","1","1"
"null","","","null","","","","html-keyboard-response","339","869904","0.0-339.0","55e7b91341988f000575d6b5","6213cb6a1fdacc292045f204","","","","","<p style=""color:darkgreen;font-size:24px;"">Correct :)</p>","",""
"2711","key","v","v","16.711000000000183","500","250","psychophysics","340","872623","0.0-340.0","55e7b91341988f000575d6b5","6213cb6a1fdacc292045f204","6","","","","","0","3"
"null","","","null","","","","html-keyboard-response","341","873124","0.0-341.0","55e7b91341988f000575d6b5","6213cb6a1fdacc292045f204","","","","","<p style=""color:darkgreen;font-size:24px;"">Correct :)</p>","",""
"2906","key","n","n","16.71100000000015","500","250","psychophysics","342","876034","0.0-342.0","55e7b91341988f000575d6b5","6213cb6a1fdacc292045f204","6","","","","","0","4"
"null","","","null","","","","html-keyboard-response","343","876538","0.0-343.0","55e7b91341988f000575d6b5","6213cb6a1fdacc292045f204","","","","","<p style=""color:darkgreen;font-size:24px;"">Correct :)</p>","",""
"3150","key","v","v","16.711547872340777","500","250","psychophysics","344","879697","0.0-344.0","55e7b91341988f000575d6b5","6213cb6a1fdacc292045f204","6","","","","","1","2"
"null","","","null","","","","html-keyboard-response","345","880201","0.0-345.0","55e7b91341988f000575d6b5","6213cb6a1fdacc292045f204","","","","","<p style=""color:darkgreen;font-size:24px;"">Correct :)</p>","",""
"3030","key","v","v","16.710999999999952","500","250","psychophysics","346","883237","0.0-346.0","55e7b91341988f000575d6b5","6213cb6a1fdacc292045f204","6","","","","","0","7"
"null","","","null","","","","html-keyboard-response","347","883742","0.0-347.0","55e7b91341988f000575d6b5","6213cb6a1fdacc292045f204","","","","","<p style=""color:darkgreen;font-size:24px;"">Correct :)</p>","",""
"2745","key","v","v","16.711000000000308","500","250","psychophysics","348","886495","0.0-348.0","55e7b91341988f000575d6b5","6213cb6a1fdacc292045f204","6","","","","","0","9"
"null","","","null","","","","html-keyboard-response","349","886999","0.0-349.0","55e7b91341988f000575d6b5","6213cb6a1fdacc292045f204","","","","","<p style=""color:darkgreen;font-size:24px;"">Correct :)</p>","",""
"2725","key","v","v","16.712337423313087","500","250","psychophysics","350","889732","0.0-350.0","55e7b91341988f000575d6b5","6213cb6a1fdacc292045f204","6","","","","","0","1"
"null","","","null","","","","html-keyboard-response","351","890234","0.0-351.0","55e7b91341988f000575d6b5","6213cb6a1fdacc292045f204","","","","","<p style=""color:darkgreen;font-size:24px;"">Correct :)</p>","",""
"2720","key","v","v","16.711000000000247","500","250","psychophysics","352","892962","0.0-352.0","55e7b91341988f000575d6b5","6213cb6a1fdacc292045f204","6","","","","","1","9"
"null","","","null","","","","html-keyboard-response","353","893465","0.0-353.0","55e7b91341988f000575d6b5","6213cb6a1fdacc292045f204","","","","","<p style=""color:red;font-size:24px;"">Error :(</p>","",""
"2544","key","v","v","16.711000000000286","500","250","psychophysics","354","896018","0.0-354.0","55e7b91341988f000575d6b5","6213cb6a1fdacc292045f204","6","","","","","1","4"
"null","","","null","","","","html-keyboard-response","355","896520","0.0-355.0","55e7b91341988f000575d6b5","6213cb6a1fdacc292045f204","","","","","<p style=""color:darkgreen;font-size:24px;"">Correct :)</p>","",""
"2751","key","v","v","16.711775757575577","500","250","psychophysics","356","899278","0.0-356.0","55e7b91341988f000575d6b5","6213cb6a1fdacc292045f204","6","","","","","0","1"
"null","","","null","","","","html-keyboard-response","357","899782","0.0-357.0","55e7b91341988f000575d6b5","6213cb6a1fdacc292045f204","","","","","<p style=""color:darkgreen;font-size:24px;"">Correct :)</p>","",""
"3862","key","v","v","16.856313043477964","500","250","psychophysics","358","903657","0.0-358.0","55e7b91341988f000575d6b5","6213cb6a1fdacc292045f204","6","","","","","1","3"
"null","","","null","","","","html-keyboard-response","359","904159","0.0-359.0","55e7b91341988f000575d6b5","6213cb6a1fdacc292045f204","","","","","<p style=""color:darkgreen;font-size:24px;"">Correct :)</p>","",""
"3114","key","n","n","16.71100000000023","500","250","psychophysics","360","907281","0.0-360.0","55e7b91341988f000575d6b5","6213cb6a1fdacc292045f204","6","","","","","1","9"
"null","","","null","","","","html-keyboard-response","361","907786","0.0-361.0","55e7b91341988f000575d6b5","6213cb6a1fdacc292045f204","","","","","<p style=""color:darkgreen;font-size:24px;"">Correct :)</p>","",""
"2630","key","v","v","16.713063291139914","500","250","psychophysics","362","910425","0.0-362.0","55e7b91341988f000575d6b5","6213cb6a1fdacc292045f204","6","","","","","0","1"
"null","","","null","","","","html-keyboard-response","363","910928","0.0-363.0","55e7b91341988f000575d6b5","6213cb6a1fdacc292045f204","","","","","<p style=""color:darkgreen;font-size:24px;"">Correct :)</p>","",""
"3232","key","n","n","16.711000000000045","500","250","psychophysics","364","914168","0.0-364.0","55e7b91341988f000575d6b5","6213cb6a1fdacc292045f204","6","","","","","1","6"
"null","","","null","","","","html-keyboard-response","365","914670","0.0-365.0","55e7b91341988f000575d6b5","6213cb6a1fdacc292045f204","","","","","<p style=""color:darkgreen;font-size:24px;"">Correct :)</p>","",""
"2930","key","v","v","16.711000000000322","500","250","psychophysics","366","917609","0.0-366.0","55e7b91341988f000575d6b5","6213cb6a1fdacc292045f204","6","","","","","0","3"
"null","","","null","","","","html-keyboard-response","367","918113","0.0-367.0","55e7b91341988f000575d6b5","6213cb6a1fdacc292045f204","","","","","<p style=""color:darkgreen;font-size:24px;"">Correct :)</p>","",""
"3078","key","v","v","16.711724324324294","500","250","psychophysics","368","921200","0.0-368.0","55e7b91341988f000575d6b5","6213cb6a1fdacc292045f204","6","","","","","1","3"
"null","","","null","","","","html-keyboard-response","369","921702","0.0-369.0","55e7b91341988f000575d6b5","6213cb6a1fdacc292045f204","","","","","<p style=""color:darkgreen;font-size:24px;"">Correct :)</p>","",""
"2753","key","v","v","16.711000000000368","500","250","psychophysics","370","924463","0.0-370.0","55e7b91341988f000575d6b5","6213cb6a1fdacc292045f204","6","","","","","0","3"
"null","","","null","","","","html-keyboard-response","371","924967","0.0-371.0","55e7b91341988f000575d6b5","6213cb6a1fdacc292045f204","","","","","<p style=""color:darkgreen;font-size:24px;"">Correct :)</p>","",""
"2980","key","n","n","16.711000000000436","500","250","psychophysics","372","927955","0.0-372.0","55e7b91341988f000575d6b5","6213cb6a1fdacc292045f204","6","","","","","1","6"
"null","","","null","","","","html-keyboard-response","373","928457","0.0-373.0","55e7b91341988f000575d6b5","6213cb6a1fdacc292045f204","","","","","<p style=""color:darkgreen;font-size:24px;"">Correct :)</p>","",""
"3383","key","v","v","16.71231034482781","500","250","psychophysics","374","931848","0.0-374.0","55e7b91341988f000575d6b5","6213cb6a1fdacc292045f204","6","","","","","0","1"
"null","","","null","","","","html-keyboard-response","375","932352","0.0-375.0","55e7b91341988f000575d6b5","6213cb6a1fdacc292045f204","","","","","<p style=""color:darkgreen;font-size:24px;"">Correct :)</p>","",""
"3027","key","v","v","16.710999999999952","500","250","psychophysics","376","935388","0.0-376.0","55e7b91341988f000575d6b5","6213cb6a1fdacc292045f204","6","","","","","1","2"
"null","","","null","","","","html-keyboard-response","377","935893","0.0-377.0","55e7b91341988f000575d6b5","6213cb6a1fdacc292045f204","","","","","<p style=""color:darkgreen;font-size:24px;"">Correct :)</p>","",""
"2851","key","n","n","16.711935672514844","500","250","psychophysics","378","938752","0.0-378.0","55e7b91341988f000575d6b5","6213cb6a1fdacc292045f204","6","","","","","1","6"
"null","","","null","","","","html-keyboard-response","379","939254","0.0-379.0","55e7b91341988f000575d6b5","6213cb6a1fdacc292045f204","","","","","<p style=""color:darkgreen;font-size:24px;"">Correct :)</p>","",""
"3417","key","n","n","16.710999999999974","500","250","psychophysics","380","942679","0.0-380.0","55e7b91341988f000575d6b5","6213cb6a1fdacc292045f204","6","","","","","0","4"
"null","","","null","","","","html-keyboard-response","381","943183","0.0-381.0","55e7b91341988f000575d6b5","6213cb6a1fdacc292045f204","","","","","<p style=""color:darkgreen;font-size:24px;"">Correct :)</p>","",""
"2577","key","n","n","16.711000000000418","500","250","psychophysics","382","945769","0.0-382.0","55e7b91341988f000575d6b5","6213cb6a1fdacc292045f204","6","","","","","0","8"
"null","","","null","","","","html-keyboard-response","383","946273","0.0-383.0","55e7b91341988f000575d6b5","6213cb6a1fdacc292045f204","","","","","<p style=""color:darkgreen;font-size:24px;"">Correct :)</p>","",""
"2679","key","v","v","16.71191875000004","500","250","psychophysics","384","948960","0.0-384.0","55e7b91341988f000575d6b5","6213cb6a1fdacc292045f204","6","","","","","0","1"
"null","","","null","","","","html-keyboard-response","385","949465","0.0-385.0","55e7b91341988f000575d6b5","6213cb6a1fdacc292045f204","","","","","<p style=""color:darkgreen;font-size:24px;"">Correct :)</p>","",""
"2897","key","n","n","16.71100000000015","500","250","psychophysics","386","952370","0.0-386.0","55e7b91341988f000575d6b5","6213cb6a1fdacc292045f204","6","","","","","1","8"
"null","","","null","","","","html-keyboard-response","387","952872","0.0-387.0","55e7b91341988f000575d6b5","6213cb6a1fdacc292045f204","","","","","<p style=""color:darkgreen;font-size:24px;"">Correct :)</p>","",""
"2665","key","n","n","16.71099999999933","500","250","psychophysics","388","955544","0.0-388.0","55e7b91341988f000575d6b5","6213cb6a1fdacc292045f204","6","","","","","1","9"
"null","","","null","","","","html-keyboard-response","389","956047","0.0-389.0","55e7b91341988f000575d6b5","6213cb6a1fdacc292045f204","","","","","<p style=""color:darkgreen;font-size:24px;"">Correct :)</p>","",""
"3314","key","v","v","16.71194949494957","500","250","psychophysics","390","959369","0.0-390.0","55e7b91341988f000575d6b5","6213cb6a1fdacc292045f204","6","","","","","0","7"
"null","","","null","","","","html-keyboard-response","391","959873","0.0-391.0","55e7b91341988f000575d6b5","6213cb6a1fdacc292045f204","","","","","<p style=""color:darkgreen;font-size:24px;"">Correct :)</p>","",""
"2798","key","v","v","17.01483636363621","500","250","psychophysics","392","962679","0.0-392.0","55e7b91341988f000575d6b5","6213cb6a1fdacc292045f204","6","","","","","1","1"
"null","","","null","","","","html-keyboard-response","393","963181","0.0-393.0","55e7b91341988f000575d6b5","6213cb6a1fdacc292045f204","","","","","<p style=""color:darkgreen;font-size:24px;"">Correct :)</p>","",""
"2957","key","n","n","16.71099999999972","500","250","psychophysics","394","966145","0.0-394.0","55e7b91341988f000575d6b5","6213cb6a1fdacc292045f204","6","","","","","1","8"
"null","","","null","","","","html-keyboard-response","395","966649","0.0-395.0","55e7b91341988f000575d6b5","6213cb6a1fdacc292045f204","","","","","<p style=""color:darkgreen;font-size:24px;"">Correct :)</p>","",""
"3189","","","v","","","","html-keyboard-response","396","969839","0.0-396.0","55e7b91341988f000575d6b5","6213cb6a1fdacc292045f204","","","","","<p> Last set of trials.  Here, the tasks are going to switch once again.  We are going to do 50 of these.  And then you are done with the experiment.  </p>  <br><br>  Ready? (press v or n)","",""
"2857","key","v","v","16.71276023391871","500","250","psychophysics","397","972704","0.0-397.0","55e7b91341988f000575d6b5","6213cb6a1fdacc292045f204","7","","","","","0","1"
"null","","","null","","","","html-keyboard-response","398","973207","0.0-398.0","55e7b91341988f000575d6b5","6213cb6a1fdacc292045f204","","","","","<p style=""color:darkgreen;font-size:24px;"">Correct :)</p>","",""
"2586","key","v","v","16.819512987012715","500","250","psychophysics","399","975800","0.0-399.0","55e7b91341988f000575d6b5","6213cb6a1fdacc292045f204","7","","","","","1","1"
"null","","","null","","","","html-keyboard-response","400","976302","0.0-400.0","55e7b91341988f000575d6b5","6213cb6a1fdacc292045f204","","","","","<p style=""color:darkgreen;font-size:24px;"">Correct :)</p>","",""
"2578","key","v","v","16.820222222221883","500","250","psychophysics","401","978887","0.0-401.0","55e7b91341988f000575d6b5","6213cb6a1fdacc292045f204","7","","","","","0","1"
"null","","","null","","","","html-keyboard-response","402","979389","0.0-402.0","55e7b91341988f000575d6b5","6213cb6a1fdacc292045f204","","","","","<p style=""color:darkgreen;font-size:24px;"">Correct :)</p>","",""
"2930","key","n","n","16.71191954023028","500","250","psychophysics","403","982328","0.0-403.0","55e7b91341988f000575d6b5","6213cb6a1fdacc292045f204","7","","","","","1","6"
"null","","","null","","","","html-keyboard-response","404","982832","0.0-404.0","55e7b91341988f000575d6b5","6213cb6a1fdacc292045f204","","","","","<p style=""color:darkgreen;font-size:24px;"">Correct :)</p>","",""
"2533","key","v","v","16.711000000000286","500","250","psychophysics","405","985373","0.0-405.0","55e7b91341988f000575d6b5","6213cb6a1fdacc292045f204","7","","","","","1","2"
"null","","","null","","","","html-keyboard-response","406","985876","0.0-406.0","55e7b91341988f000575d6b5","6213cb6a1fdacc292045f204","","","","","<p style=""color:darkgreen;font-size:24px;"">Correct :)</p>","",""
"2781","key","v","v","16.71099999999979","500","250","psychophysics","407","988665","0.0-407.0","55e7b91341988f000575d6b5","6213cb6a1fdacc292045f204","7","","","","","0","1"
"null","","","null","","","","html-keyboard-response","408","989169","0.0-408.0","55e7b91341988f000575d6b5","6213cb6a1fdacc292045f204","","","","","<p style=""color:darkgreen;font-size:24px;"">Correct :)</p>","",""
"2780","key","n","n","16.71187349397574","500","250","psychophysics","409","991959","0.0-409.0","55e7b91341988f000575d6b5","6213cb6a1fdacc292045f204","7","","","","","0","2"
"null","","","null","","","","html-keyboard-response","410","992461","0.0-410.0","55e7b91341988f000575d6b5","6213cb6a1fdacc292045f204","","","","","<p style=""color:darkgreen;font-size:24px;"">Correct :)</p>","",""
"2995","key","v","v","16.71099999999984","500","250","psychophysics","411","995466","0.0-411.0","55e7b91341988f000575d6b5","6213cb6a1fdacc292045f204","7","","","","","1","3"
"null","","","null","","","","html-keyboard-response","412","995968","0.0-412.0","55e7b91341988f000575d6b5","6213cb6a1fdacc292045f204","","","","","<p style=""color:darkgreen;font-size:24px;"">Correct :)</p>","",""
"2998","key","n","n","16.710999999999895","500","250","psychophysics","413","998975","0.0-413.0","55e7b91341988f000575d6b5","6213cb6a1fdacc292045f204","7","","","","","0","6"
"null","","","null","","","","html-keyboard-response","414","999479","0.0-414.0","55e7b91341988f000575d6b5","6213cb6a1fdacc292045f204","","","","","<p style=""color:darkgreen;font-size:24px;"">Correct :)</p>","",""
"3228","key","v","v","16.71202590673561","500","250","psychophysics","415","1002716","0.0-415.0","55e7b91341988f000575d6b5","6213cb6a1fdacc292045f204","7","","","","","1","4"
"null","","","null","","","","html-keyboard-response","416","1003217","0.0-416.0","55e7b91341988f000575d6b5","6213cb6a1fdacc292045f204","","","","","<p style=""color:darkgreen;font-size:24px;"">Correct :)</p>","",""
"2799","key","n","n","16.71099999999985","500","250","psychophysics","417","1006025","0.0-417.0","55e7b91341988f000575d6b5","6213cb6a1fdacc292045f204","7","","","","","1","7"
"null","","","null","","","","html-keyboard-response","418","1006527","0.0-418.0","55e7b91341988f000575d6b5","6213cb6a1fdacc292045f204","","","","","<p style=""color:darkgreen;font-size:24px;"">Correct :)</p>","",""
"2734","key","v","v","16.711000000000308","500","250","psychophysics","419","1009270","0.0-419.0","55e7b91341988f000575d6b5","6213cb6a1fdacc292045f204","7","","","","","1","1"
"null","","","null","","","","html-keyboard-response","420","1009771","0.0-420.0","55e7b91341988f000575d6b5","6213cb6a1fdacc292045f204","","","","","<p style=""color:darkgreen;font-size:24px;"">Correct :)</p>","",""
"2665","key","v","v","16.7118553459123","500","250","psychophysics","421","1012446","0.0-421.0","55e7b91341988f000575d6b5","6213cb6a1fdacc292045f204","7","","","","","0","2"
"null","","","null","","","","html-keyboard-response","422","1012948","0.0-422.0","55e7b91341988f000575d6b5","6213cb6a1fdacc292045f204","","","","","<p style=""color:red;font-size:24px;"">Error :(</p>","",""
"2603","key","v","v","16.71099999999973","500","250","psychophysics","423","1015560","0.0-423.0","55e7b91341988f000575d6b5","6213cb6a1fdacc292045f204","7","","","","","0","1"
"null","","","null","","","","html-keyboard-response","424","1016063","0.0-424.0","55e7b91341988f000575d6b5","6213cb6a1fdacc292045f204","","","","","<p style=""color:darkgreen;font-size:24px;"">Correct :)</p>","",""
"2938","key","v","v","16.71099999999966","500","250","psychophysics","425","1019010","0.0-425.0","55e7b91341988f000575d6b5","6213cb6a1fdacc292045f204","7","","","","","1","2"
"null","","","null","","","","html-keyboard-response","426","1019512","0.0-426.0","55e7b91341988f000575d6b5","6213cb6a1fdacc292045f204","","","","","<p style=""color:darkgreen;font-size:24px;"">Correct :)</p>","",""
"3006","key","n","n","16.8055027932964","500","250","psychophysics","427","1022528","0.0-427.0","55e7b91341988f000575d6b5","6213cb6a1fdacc292045f204","7","","","","","0","2"
"null","","","null","","","","html-keyboard-response","428","1023034","0.0-428.0","55e7b91341988f000575d6b5","6213cb6a1fdacc292045f204","","","","","<p style=""color:darkgreen;font-size:24px;"">Correct :)</p>","",""
"2690","key","v","v","16.711000000000123","500","250","psychophysics","429","1025733","0.0-429.0","55e7b91341988f000575d6b5","6213cb6a1fdacc292045f204","7","","","","","1","1"
"null","","","null","","","","html-keyboard-response","430","1026238","0.0-430.0","55e7b91341988f000575d6b5","6213cb6a1fdacc292045f204","","","","","<p style=""color:darkgreen;font-size:24px;"">Correct :)</p>","",""
"2810","key","n","n","16.71099999999985","500","250","psychophysics","431","1029053","0.0-431.0","55e7b91341988f000575d6b5","6213cb6a1fdacc292045f204","7","","","","","0","4"
"null","","","null","","","","html-keyboard-response","432","1029554","0.0-432.0","55e7b91341988f000575d6b5","6213cb6a1fdacc292045f204","","","","","<p style=""color:darkgreen;font-size:24px;"">Correct :)</p>","",""
"2694","key","n","n","16.711906832297945","500","250","psychophysics","433","1032257","0.0-433.0","55e7b91341988f000575d6b5","6213cb6a1fdacc292045f204","7","","","","","0","2"
"null","","","null","","","","html-keyboard-response","434","1032759","0.0-434.0","55e7b91341988f000575d6b5","6213cb6a1fdacc292045f204","","","","","<p style=""color:darkgreen;font-size:24px;"">Correct :)</p>","",""
"2971","key","v","v","16.80541242937897","500","250","psychophysics","435","1035741","0.0-435.0","55e7b91341988f000575d6b5","6213cb6a1fdacc292045f204","7","","","","","0","7"
"null","","","null","","","","html-keyboard-response","436","1036243","0.0-436.0","55e7b91341988f000575d6b5","6213cb6a1fdacc292045f204","","","","","<p style=""color:darkgreen;font-size:24px;"">Correct :)</p>","",""
"2845","key","v","v","16.711000000000034","500","250","psychophysics","437","1039096","0.0-437.0","55e7b91341988f000575d6b5","6213cb6a1fdacc292045f204","7","","","","","1","3"
"null","","","null","","","","html-keyboard-response","438","1039599","0.0-438.0","55e7b91341988f000575d6b5","6213cb6a1fdacc292045f204","","","","","<p style=""color:darkgreen;font-size:24px;"">Correct :)</p>","",""
"2893","key","v","v","16.71258959537601","500","250","psychophysics","439","1042501","0.0-439.0","55e7b91341988f000575d6b5","6213cb6a1fdacc292045f204","7","","","","","0","3"
"null","","","null","","","","html-keyboard-response","440","1043004","0.0-440.0","55e7b91341988f000575d6b5","6213cb6a1fdacc292045f204","","","","","<p style=""color:darkgreen;font-size:24px;"">Correct :)</p>","",""
"2620","key","n","n","16.818121794871658","500","250","psychophysics","441","1045633","0.0-441.0","55e7b91341988f000575d6b5","6213cb6a1fdacc292045f204","7","","","","","0","4"
"null","","","null","","","","html-keyboard-response","442","1046134","0.0-442.0","55e7b91341988f000575d6b5","6213cb6a1fdacc292045f204","","","","","<p style=""color:darkgreen;font-size:24px;"">Correct :)</p>","",""
"2880","key","n","n","16.710999999999476","500","250","psychophysics","443","1049023","0.0-443.0","55e7b91341988f000575d6b5","6213cb6a1fdacc292045f204","7","","","","","1","6"
"null","","","null","","","","html-keyboard-response","444","1049526","0.0-444.0","55e7b91341988f000575d6b5","6213cb6a1fdacc292045f204","","","","","<p style=""color:darkgreen;font-size:24px;"">Correct :)</p>","",""
"2433","key","v","v","16.71200684931493","500","250","psychophysics","445","1051967","0.0-445.0","55e7b91341988f000575d6b5","6213cb6a1fdacc292045f204","7","","","","","1","2"
"null","","","null","","","","html-keyboard-response","446","1052471","0.0-446.0","55e7b91341988f000575d6b5","6213cb6a1fdacc292045f204","","","","","<p style=""color:darkgreen;font-size:24px;"">Correct :)</p>","",""
"2994","key","n","n","17.825066666666306","500","250","psychophysics","447","1055473","0.0-447.0","55e7b91341988f000575d6b5","6213cb6a1fdacc292045f204","7","","","","","1","6"
"null","","","null","","","","html-keyboard-response","448","1055978","0.0-448.0","55e7b91341988f000575d6b5","6213cb6a1fdacc292045f204","","","","","<p style=""color:darkgreen;font-size:24px;"">Correct :)</p>","",""
"2707","key","v","v","18.45172916666747","500","250","psychophysics","449","1058694","0.0-449.0","55e7b91341988f000575d6b5","6213cb6a1fdacc292045f204","7","","","","","0","1"
"null","","","null","","","","html-keyboard-response","450","1059206","0.0-450.0","55e7b91341988f000575d6b5","6213cb6a1fdacc292045f204","","","","","<p style=""color:darkgreen;font-size:24px;"">Correct :)</p>","",""
"2732","key","n","n","22.01149593495832","500","250","psychophysics","451","1061947","0.0-451.0","55e7b91341988f000575d6b5","6213cb6a1fdacc292045f204","7","","","","","0","4"
"null","","","null","","","","html-keyboard-response","452","1062458","0.0-452.0","55e7b91341988f000575d6b5","6213cb6a1fdacc292045f204","","","","","<p style=""color:darkgreen;font-size:24px;"">Correct :)</p>","",""
"3032","key","n","n","21.004798611111863","500","250","psychophysics","453","1065500","0.0-453.0","55e7b91341988f000575d6b5","6213cb6a1fdacc292045f204","7","","","","","1","6"
"null","","","null","","","","html-keyboard-response","454","1066005","0.0-454.0","55e7b91341988f000575d6b5","6213cb6a1fdacc292045f204","","","","","<p style=""color:darkgreen;font-size:24px;"">Correct :)</p>","",""
"2884","key","n","n","20.558136690647522","500","250","psychophysics","455","1068897","0.0-455.0","55e7b91341988f000575d6b5","6213cb6a1fdacc292045f204","7","","","","","0","6"
"null","","","null","","","","html-keyboard-response","456","1069416","0.0-456.0","55e7b91341988f000575d6b5","6213cb6a1fdacc292045f204","","","","","<p style=""color:darkgreen;font-size:24px;"">Correct :)</p>","",""
"3029","key","n","n","20.718308219179026","500","250","psychophysics","457","1072463","0.0-457.0","55e7b91341988f000575d6b5","6213cb6a1fdacc292045f204","7","","","","","1","7"
"null","","","null","","","","html-keyboard-response","458","1072967","0.0-458.0","55e7b91341988f000575d6b5","6213cb6a1fdacc292045f204","","","","","<p style=""color:darkgreen;font-size:24px;"">Correct :)</p>","",""
"2952","key","v","v","22.79950387596853","500","250","psychophysics","459","1075928","0.0-459.0","55e7b91341988f000575d6b5","6213cb6a1fdacc292045f204","7","","","","","1","2"
"null","","","null","","","","html-keyboard-response","460","1076437","0.0-460.0","55e7b91341988f000575d6b5","6213cb6a1fdacc292045f204","","","","","<p style=""color:darkgreen;font-size:24px;"">Correct :)</p>","",""
"3199","key","n","n","21.309328859059402","500","250","psychophysics","461","1079645","0.0-461.0","55e7b91341988f000575d6b5","6213cb6a1fdacc292045f204","7","","","","","0","4"
"null","","","null","","","","html-keyboard-response","462","1080149","0.0-462.0","55e7b91341988f000575d6b5","6213cb6a1fdacc292045f204","","","","","<p style=""color:darkgreen;font-size:24px;"">Correct :)</p>","",""
"3130","key","n","n","23.37159398496256","500","250","psychophysics","463","1083288","0.0-463.0","55e7b91341988f000575d6b5","6213cb6a1fdacc292045f204","7","","","","","0","4"
"null","","","null","","","","html-keyboard-response","464","1083793","0.0-464.0","55e7b91341988f000575d6b5","6213cb6a1fdacc292045f204","","","","","<p style=""color:darkgreen;font-size:24px;"">Correct :)</p>","",""
"2885","key","n","n","21.16726666666671","500","250","psychophysics","465","1086687","0.0-465.0","55e7b91341988f000575d6b5","6213cb6a1fdacc292045f204","7","","","","","1","6"
"null","","","null","","","","html-keyboard-response","466","1087193","0.0-466.0","55e7b91341988f000575d6b5","6213cb6a1fdacc292045f204","","","","","<p style=""color:darkgreen;font-size:24px;"">Correct :)</p>","",""
"3337","key","v","v","21.07749044585967","500","250","psychophysics","467","1090542","0.0-467.0","55e7b91341988f000575d6b5","6213cb6a1fdacc292045f204","7","","","","","1","1"
"null","","","null","","","","html-keyboard-response","468","1091047","0.0-468.0","55e7b91341988f000575d6b5","6213cb6a1fdacc292045f204","","","","","<p style=""color:darkgreen;font-size:24px;"">Correct :)</p>","",""
"3028","key","v","v","20.34876870748359","500","250","psychophysics","469","1094083","0.0-469.0","55e7b91341988f000575d6b5","6213cb6a1fdacc292045f204","7","","","","","0","1"
"null","","","null","","","","html-keyboard-response","470","1094588","0.0-470.0","55e7b91341988f000575d6b5","6213cb6a1fdacc292045f204","","","","","<p style=""color:darkgreen;font-size:24px;"">Correct :)</p>","",""
"2660","key","n","n","21.95908264462713","500","250","psychophysics","471","1097256","0.0-471.0","55e7b91341988f000575d6b5","6213cb6a1fdacc292045f204","7","","","","","0","6"
"null","","","null","","","","html-keyboard-response","472","1097765","0.0-472.0","55e7b91341988f000575d6b5","6213cb6a1fdacc292045f204","","","","","<p style=""color:darkgreen;font-size:24px;"">Correct :)</p>","",""
"3049","key","v","v","20.689380952381992","500","250","psychophysics","473","1100822","0.0-473.0","55e7b91341988f000575d6b5","6213cb6a1fdacc292045f204","7","","","","","0","7"
"null","","","null","","","","html-keyboard-response","474","1101325","0.0-474.0","55e7b91341988f000575d6b5","6213cb6a1fdacc292045f204","","","","","<p style=""color:darkgreen;font-size:24px;"">Correct :)</p>","",""
"2947","key","n","n","21.78619259259215","500","250","psychophysics","475","1104279","0.0-475.0","55e7b91341988f000575d6b5","6213cb6a1fdacc292045f204","7","","","","","0","6"
"null","","","null","","","","html-keyboard-response","476","1104783","0.0-476.0","55e7b91341988f000575d6b5","6213cb6a1fdacc292045f204","","","","","<p style=""color:darkgreen;font-size:24px;"">Correct :)</p>","",""
"2722","key","v","v","20.985906976744417","500","250","psychophysics","477","1107516","0.0-477.0","55e7b91341988f000575d6b5","6213cb6a1fdacc292045f204","7","","","","","1","1"
"null","","","null","","","","html-keyboard-response","478","1108030","0.0-478.0","55e7b91341988f000575d6b5","6213cb6a1fdacc292045f204","","","","","<p style=""color:darkgreen;font-size:24px;"">Correct :)</p>","",""
"3103","key","v","v","19.94659999999999","500","250","psychophysics","479","1111141","0.0-479.0","55e7b91341988f000575d6b5","6213cb6a1fdacc292045f204","7","","","","","0","3"
"null","","","null","","","","html-keyboard-response","480","1111652","0.0-480.0","55e7b91341988f000575d6b5","6213cb6a1fdacc292045f204","","","","","<p style=""color:darkgreen;font-size:24px;"">Correct :)</p>","",""
"3002","key","n","n","21.399697841728013","500","250","psychophysics","481","1114662","0.0-481.0","55e7b91341988f000575d6b5","6213cb6a1fdacc292045f204","7","","","","","1","7"
"null","","","null","","","","html-keyboard-response","482","1115167","0.0-482.0","55e7b91341988f000575d6b5","6213cb6a1fdacc292045f204","","","","","<p style=""color:darkgreen;font-size:24px;"">Correct :)</p>","",""
"2695","key","v","v","20.567384615384686","500","250","psychophysics","483","1117874","0.0-483.0","55e7b91341988f000575d6b5","6213cb6a1fdacc292045f204","7","","","","","0","1"
"null","","","null","","","","html-keyboard-response","484","1118381","0.0-484.0","55e7b91341988f000575d6b5","6213cb6a1fdacc292045f204","","","","","<p style=""color:darkgreen;font-size:24px;"">Correct :)</p>","",""
"2691","key","n","n","19.829708955224618","500","250","psychophysics","485","1121081","0.0-485.0","55e7b91341988f000575d6b5","6213cb6a1fdacc292045f204","7","","","","","0","4"
"null","","","null","","","","html-keyboard-response","486","1121588","0.0-486.0","55e7b91341988f000575d6b5","6213cb6a1fdacc292045f204","","","","","<p style=""color:darkgreen;font-size:24px;"">Correct :)</p>","",""
"3281","key","v","v","18.213112359549953","500","250","psychophysics","487","1124877","0.0-487.0","55e7b91341988f000575d6b5","6213cb6a1fdacc292045f204","7","","","","","1","3"
"null","","","null","","","","html-keyboard-response","488","1125392","0.0-488.0","55e7b91341988f000575d6b5","6213cb6a1fdacc292045f204","","","","","<p style=""color:darkgreen;font-size:24px;"">Correct :)</p>","",""
"4424","key","v","v","21.049432692308283","500","250","psychophysics","489","1129825","0.0-489.0","55e7b91341988f000575d6b5","6213cb6a1fdacc292045f204","7","","","","","1","3"
"null","","","null","","","","html-keyboard-response","490","1130332","0.0-490.0","55e7b91341988f000575d6b5","6213cb6a1fdacc292045f204","","","","","<p style=""color:darkgreen;font-size:24px;"">Correct :)</p>","",""
"2892","key","v","v","19.55465306122439","500","250","psychophysics","491","1133232","0.0-491.0","55e7b91341988f000575d6b5","6213cb6a1fdacc292045f204","7","","","","","1","3"
"null","","","null","","","","html-keyboard-response","492","1133738","0.0-492.0","55e7b91341988f000575d6b5","6213cb6a1fdacc292045f204","","","","","<p style=""color:darkgreen;font-size:24px;"">Correct :)</p>","",""
"3843","key","v","v","20.159301587301627","500","250","psychophysics","493","1137590","0.0-493.0","55e7b91341988f000575d6b5","6213cb6a1fdacc292045f204","7","","","","","1","3"
"null","","","null","","","","html-keyboard-response","494","1138097","0.0-494.0","55e7b91341988f000575d6b5","6213cb6a1fdacc292045f204","","","","","<p style=""color:darkgreen;font-size:24px;"">Correct :)</p>","",""
"3021","key","v","v","19.551620915032974","500","250","psychophysics","495","1141126","0.0-495.0","55e7b91341988f000575d6b5","6213cb6a1fdacc292045f204","7","","","","","0","1"
"null","","","null","","","","html-keyboard-response","496","1141631","0.0-496.0","55e7b91341988f000575d6b5","6213cb6a1fdacc292045f204","","","","","<p style=""color:darkgreen;font-size:24px;"">Correct :)</p>","",""
