"rt","response_type","key_press","response","avg_frame_time","center_x","center_y","trial_type","trial_index","time_elapsed","internal_node_id","pid","sid","phase","guide","targ","resp","stimulus","is5","stim"
"4615","key"," "," ","16.673169675090254","500","250","psychophysics","0","4632","0.0-0.0","5ade6f4709eae2000112e9e2","6213d2cb9af98c3cd3476cb9","","","","","","",""
"1936","key"," "," ","16.67333043478261","500","250","psychophysics","1","6571","0.0-1.0","5ade6f4709eae2000112e9e2","6213d2cb9af98c3cd3476cb9","","","","","","",""
"2522","key"," "," ","16.673086666666666","500","250","psychophysics","2","9096","0.0-2.0","5ade6f4709eae2000112e9e2","6213d2cb9af98c3cd3476cb9","","","","","","",""
"904","key"," "," ","16.675425925925925","500","250","psychophysics","3","10001","0.0-3.0","5ade6f4709eae2000112e9e2","6213d2cb9af98c3cd3476cb9","","","","","","",""
"2449","key"," "," ","16.672417808219183","500","250","psychophysics","4","12454","0.0-4.0","5ade6f4709eae2000112e9e2","6213d2cb9af98c3cd3476cb9","","","","","","",""
"2455","key"," "," ","16.673075342465754","500","250","psychophysics","5","14910","0.0-5.0","5ade6f4709eae2000112e9e2","6213d2cb9af98c3cd3476cb9","","","","","","",""
"1882","key"," "," ","16.673196428571423","500","250","psychophysics","6","16795","0.0-6.0","5ade6f4709eae2000112e9e2","6213d2cb9af98c3cd3476cb9","","","","","","",""
"4031","key"," "," ","16.6729377593361","500","250","psychophysics","7","20828","0.0-7.0","5ade6f4709eae2000112e9e2","6213d2cb9af98c3cd3476cb9","","","","","","",""
"4345","key"," "," ","16.673211538461537","500","250","psychophysics","8","25177","0.0-8.0","5ade6f4709eae2000112e9e2","6213d2cb9af98c3cd3476cb9","0","0","38","38","","",""
"2369","key"," "," ","16.673333333333325","500","250","psychophysics","9","27548","0.0-9.0","5ade6f4709eae2000112e9e2","6213d2cb9af98c3cd3476cb9","","","","","","",""
"633","key"," "," ","16.672378378378394","500","250","psychophysics","10","28182","0.0-10.0","5ade6f4709eae2000112e9e2","6213d2cb9af98c3cd3476cb9","","","","","","",""
"2157","key"," "," ","16.673302325581393","500","250","psychophysics","11","30341","0.0-11.0","5ade6f4709eae2000112e9e2","6213d2cb9af98c3cd3476cb9","","","","","","",""
"860","key"," "," ","16.672180000000008","500","250","psychophysics","12","31205","0.0-12.0","5ade6f4709eae2000112e9e2","6213d2cb9af98c3cd3476cb9","","","","","","",""
"1385","key"," "," ","16.673783132530108","500","250","psychophysics","13","32592","0.0-13.0","5ade6f4709eae2000112e9e2","6213d2cb9af98c3cd3476cb9","","","","","","",""
"1391","key"," "," ","16.673231707317093","500","250","psychophysics","14","33986","0.0-14.0","5ade6f4709eae2000112e9e2","6213d2cb9af98c3cd3476cb9","","","","","","",""
"2512","key"," "," ","16.673553333333356","500","250","psychophysics","15","36500","0.0-15.0","5ade6f4709eae2000112e9e2","6213d2cb9af98c3cd3476cb9","","","","","","",""
"551","key"," "," ","16.67056249999996","500","250","psychophysics","16","37054","0.0-16.0","5ade6f4709eae2000112e9e2","6213d2cb9af98c3cd3476cb9","","","","","","",""
"2938","key"," "," ","16.672948863636353","500","250","psychophysics","17","39994","0.0-17.0","5ade6f4709eae2000112e9e2","6213d2cb9af98c3cd3476cb9","1","0","26","33","","",""
"3662","key"," "," ","16.672701834862373","500","250","psychophysics","18","43658","0.0-18.0","5ade6f4709eae2000112e9e2","6213d2cb9af98c3cd3476cb9","1","5","41","42","","",""
"2644","key"," "," ","16.672974683544314","500","250","psychophysics","19","46304","0.0-19.0","5ade6f4709eae2000112e9e2","6213d2cb9af98c3cd3476cb9","1","0","24","28","","",""
"3426","key"," "," ","16.672926829268313","500","250","psychophysics","20","49733","0.0-20.0","5ade6f4709eae2000112e9e2","6213d2cb9af98c3cd3476cb9","1","5","34","37","","",""
"3047","key"," "," ","16.67291758241757","500","250","psychophysics","21","52782","0.0-21.0","5ade6f4709eae2000112e9e2","6213d2cb9af98c3cd3476cb9","1","0","32","34","","",""
"4041","key"," "," ","16.67326141078839","500","250","psychophysics","22","56826","0.0-22.0","5ade6f4709eae2000112e9e2","6213d2cb9af98c3cd3476cb9","1","5","41","48","","",""
"4069","key"," "," ","16.672823045267517","500","250","psychophysics","23","60897","0.0-23.0","5ade6f4709eae2000112e9e2","6213d2cb9af98c3cd3476cb9","1","0","59","80","","",""
"3420","key"," "," ","16.673170731707316","500","250","psychophysics","24","64320","0.0-24.0","5ade6f4709eae2000112e9e2","6213d2cb9af98c3cd3476cb9","1","5","53","62","","",""
"3517","key"," "," ","16.673409523809546","500","250","psychophysics","25","67838","0.0-25.0","5ade6f4709eae2000112e9e2","6213d2cb9af98c3cd3476cb9","1","0","39","60","","",""
"3573","key"," "," ","16.672605633802814","500","250","psychophysics","26","71412","0.0-26.0","5ade6f4709eae2000112e9e2","6213d2cb9af98c3cd3476cb9","1","5","50","62","","",""
"2628","key"," "," ","16.673216560509598","500","250","psychophysics","27","74041","0.0-27.0","5ade6f4709eae2000112e9e2","6213d2cb9af98c3cd3476cb9","1","0","39","61","","",""
"1992","key"," "," ","16.672449152542267","500","250","psychophysics","28","76035","0.0-28.0","5ade6f4709eae2000112e9e2","6213d2cb9af98c3cd3476cb9","1","5","34","40","","",""
"2198","key"," "," ","16.673114503816794","500","250","psychophysics","29","78234","0.0-29.0","5ade6f4709eae2000112e9e2","6213d2cb9af98c3cd3476cb9","1","0","23","40","","",""
"4130","key"," "," ","16.672769230769227","500","250","psychophysics","30","82366","0.0-30.0","5ade6f4709eae2000112e9e2","6213d2cb9af98c3cd3476cb9","1","5","57","79","","",""
"5226","key"," "," ","16.67302236421726","500","250","psychophysics","31","87595","0.0-31.0","5ade6f4709eae2000112e9e2","6213d2cb9af98c3cd3476cb9","1","0","36","54","","",""
"2004","key"," "," ","16.673075630252143","500","250","psychophysics","32","89600","0.0-32.0","5ade6f4709eae2000112e9e2","6213d2cb9af98c3cd3476cb9","1","5","32","47","","",""
"3426","key"," "," ","16.672804878048794","500","250","psychophysics","33","93030","0.0-33.0","5ade6f4709eae2000112e9e2","6213d2cb9af98c3cd3476cb9","1","0","37","76","","",""
"2659","key"," "," ","16.673094936708875","500","250","psychophysics","34","95691","0.0-34.0","5ade6f4709eae2000112e9e2","6213d2cb9af98c3cd3476cb9","1","5","45","55","","",""
"6982","key"," "," ","16.672976076555","500","250","psychophysics","35","102676","0.0-35.0","5ade6f4709eae2000112e9e2","6213d2cb9af98c3cd3476cb9","1","0","46","77","","",""
"4008","key"," "," ","16.673079166666685","500","250","psychophysics","36","106686","0.0-36.0","5ade6f4709eae2000112e9e2","6213d2cb9af98c3cd3476cb9","1","5","57","73","","",""
"11442","key"," "," ","30.619485254691686","500","250","psychophysics","37","118130","0.0-37.0","5ade6f4709eae2000112e9e2","6213d2cb9af98c3cd3476cb9","","","","","","",""
"1205","key"," "," ","16.672577464788894","500","250","psychophysics","38","119336","0.0-38.0","5ade6f4709eae2000112e9e2","6213d2cb9af98c3cd3476cb9","","","","","","",""
"638","key"," "," ","16.675131578947337","500","250","psychophysics","39","119975","0.0-39.0","5ade6f4709eae2000112e9e2","6213d2cb9af98c3cd3476cb9","","","","","","",""
"3551","key"," "," ","16.67312735849054","500","250","psychophysics","40","123530","0.0-40.0","5ade6f4709eae2000112e9e2","6213d2cb9af98c3cd3476cb9","2","0","44","66","","",""
"1613","key"," "," ","16.672916666666726","500","250","psychophysics","41","125144","0.0-41.0","5ade6f4709eae2000112e9e2","6213d2cb9af98c3cd3476cb9","","","","","","",""
"2432","key"," "," ","16.672510344827657","500","250","psychophysics","42","127578","0.0-42.0","5ade6f4709eae2000112e9e2","6213d2cb9af98c3cd3476cb9","2","0","22","33","","",""
"992","key"," "," ","16.671862068965403","500","250","psychophysics","43","128573","0.0-43.0","5ade6f4709eae2000112e9e2","6213d2cb9af98c3cd3476cb9","","","","","","",""
"3277","key"," "," ","16.673040816326516","500","250","psychophysics","44","131852","0.0-44.0","5ade6f4709eae2000112e9e2","6213d2cb9af98c3cd3476cb9","2","0","47","83","","",""
"928","key"," "," ","16.673745454545664","500","250","psychophysics","45","132782","0.0-45.0","5ade6f4709eae2000112e9e2","6213d2cb9af98c3cd3476cb9","","","","","","",""
"2255","key"," "," ","16.673111940298618","500","250","psychophysics","46","135039","0.0-46.0","5ade6f4709eae2000112e9e2","6213d2cb9af98c3cd3476cb9","2","0","23","35","","",""
"994","key"," "," ","16.672711864406818","500","250","psychophysics","47","136036","0.0-47.0","5ade6f4709eae2000112e9e2","6213d2cb9af98c3cd3476cb9","","","","","","",""
"3530","key"," "," ","16.752628571428552","500","250","psychophysics","48","139569","0.0-48.0","5ade6f4709eae2000112e9e2","6213d2cb9af98c3cd3476cb9","2","0","40","60","","",""
"1015","key"," "," ","16.673099999999977","500","250","psychophysics","49","140587","0.0-49.0","5ade6f4709eae2000112e9e2","6213d2cb9af98c3cd3476cb9","","","","","","",""
"2153","key"," "," ","16.672726562499975","500","250","psychophysics","50","142743","0.0-50.0","5ade6f4709eae2000112e9e2","6213d2cb9af98c3cd3476cb9","2","0","52","56","","",""
"953","key"," "," ","16.671750000000298","500","250","psychophysics","51","143697","0.0-51.0","5ade6f4709eae2000112e9e2","6213d2cb9af98c3cd3476cb9","","","","","","",""
"2839","key"," "," ","16.673388235294087","500","250","psychophysics","52","146538","0.0-52.0","5ade6f4709eae2000112e9e2","6213d2cb9af98c3cd3476cb9","2","0","53","82","","",""
"1055","key"," "," ","16.673080645161285","500","250","psychophysics","53","147595","0.0-53.0","5ade6f4709eae2000112e9e2","6213d2cb9af98c3cd3476cb9","","","","","","",""
"4035","key"," "," ","16.67287966804975","500","250","psychophysics","54","151633","0.0-54.0","5ade6f4709eae2000112e9e2","6213d2cb9af98c3cd3476cb9","2","0","57","72","","",""
"1112","key"," "," ","16.673893939394144","500","250","psychophysics","55","152748","0.0-55.0","5ade6f4709eae2000112e9e2","6213d2cb9af98c3cd3476cb9","","","","","","",""
"2021","key"," "," ","16.672000000000043","500","250","psychophysics","56","154770","0.0-56.0","5ade6f4709eae2000112e9e2","6213d2cb9af98c3cd3476cb9","2","0","26","10","","",""
"1304","key"," "," ","16.673779220779142","500","250","psychophysics","57","156077","0.0-57.0","5ade6f4709eae2000112e9e2","6213d2cb9af98c3cd3476cb9","","","","","","",""
"7384","key"," "," ","16.67297058823525","500","250","psychophysics","58","163462","0.0-58.0","5ade6f4709eae2000112e9e2","6213d2cb9af98c3cd3476cb9","2","0","31","44","","",""
"883","key"," "," ","16.67401923076921","500","250","psychophysics","59","164348","0.0-59.0","5ade6f4709eae2000112e9e2","6213d2cb9af98c3cd3476cb9","","","","","","",""
"2764","key"," "," ","16.672884848484923","500","250","psychophysics","60","167114","0.0-60.0","5ade6f4709eae2000112e9e2","6213d2cb9af98c3cd3476cb9","2","0","51","69","","",""
"752","key"," "," ","16.67513636363649","500","250","psychophysics","61","167868","0.0-61.0","5ade6f4709eae2000112e9e2","6213d2cb9af98c3cd3476cb9","","","","","","",""
"1808","key"," "," ","16.672379629629614","500","250","psychophysics","62","169678","0.0-62.0","5ade6f4709eae2000112e9e2","6213d2cb9af98c3cd3476cb9","2","0","43","47","","",""
"853","key"," "," ","16.673300000000165","500","250","psychophysics","63","170533","0.0-63.0","5ade6f4709eae2000112e9e2","6213d2cb9af98c3cd3476cb9","","","","","","",""
"2109","key"," "," ","16.673246031746014","500","250","psychophysics","64","172645","0.0-64.0","5ade6f4709eae2000112e9e2","6213d2cb9af98c3cd3476cb9","2","0","39","57","","",""
"608","key"," "," ","16.67494285714264","500","250","psychophysics","65","173254","0.0-65.0","5ade6f4709eae2000112e9e2","6213d2cb9af98c3cd3476cb9","","","","","","",""
"2863","key"," "," ","16.672994152046755","500","250","psychophysics","66","176120","0.0-66.0","5ade6f4709eae2000112e9e2","6213d2cb9af98c3cd3476cb9","2","0","58","76","","",""
"862","key"," "," ","16.67401960784314","500","250","psychophysics","67","176984","0.0-67.0","5ade6f4709eae2000112e9e2","6213d2cb9af98c3cd3476cb9","","","","","","",""
"1714","key"," "," ","16.673627450980312","500","250","psychophysics","68","178701","0.0-68.0","5ade6f4709eae2000112e9e2","6213d2cb9af98c3cd3476cb9","2","0","36","44","","",""
"680","key"," "," ","16.672750000000086","500","250","psychophysics","69","179383","0.0-69.0","5ade6f4709eae2000112e9e2","6213d2cb9af98c3cd3476cb9","","","","","","",""
"3049","key"," "," ","16.673137362637355","500","250","psychophysics","70","182435","0.0-70.0","5ade6f4709eae2000112e9e2","6213d2cb9af98c3cd3476cb9","","","","","","",""
"1950","key"," "," ","16.672931034482737","500","250","psychophysics","71","184388","0.0-71.0","5ade6f4709eae2000112e9e2","6213d2cb9af98c3cd3476cb9","","","","","","",""
"2385","key"," "," ","16.673309859155037","500","250","psychophysics","72","186775","0.0-72.0","5ade6f4709eae2000112e9e2","6213d2cb9af98c3cd3476cb9","3","5","46","47","","",""
"1690","key"," "," ","16.672900990099187","500","250","psychophysics","73","188476","0.0-73.0","5ade6f4709eae2000112e9e2","6213d2cb9af98c3cd3476cb9","3","0","38","36","","",""
"1640","key"," "," ","16.672765306122564","500","250","psychophysics","74","190118","0.0-74.0","5ade6f4709eae2000112e9e2","6213d2cb9af98c3cd3476cb9","3","5","32","31","","",""
"1613","key"," "," ","16.672600000000276","500","250","psychophysics","75","191733","0.0-75.0","5ade6f4709eae2000112e9e2","6213d2cb9af98c3cd3476cb9","3","0","26","31","","",""
"1537","key"," "," ","16.673108695652246","500","250","psychophysics","76","193273","0.0-76.0","5ade6f4709eae2000112e9e2","6213d2cb9af98c3cd3476cb9","3","5","25","32","","",""
"1580","key"," "," ","16.672723404255365","500","250","psychophysics","77","194855","0.0-77.0","5ade6f4709eae2000112e9e2","6213d2cb9af98c3cd3476cb9","3","0","46","34","","",""
"1541","key"," "," ","16.673439560439515","500","250","psychophysics","78","196399","0.0-78.0","5ade6f4709eae2000112e9e2","6213d2cb9af98c3cd3476cb9","3","5","32","30","","",""
"1727","key"," "," ","16.673038834951495","500","250","psychophysics","79","198129","0.0-79.0","5ade6f4709eae2000112e9e2","6213d2cb9af98c3cd3476cb9","3","0","25","37","","",""
"1850","key"," "," ","16.67270909090902","500","250","psychophysics","80","199981","0.0-80.0","5ade6f4709eae2000112e9e2","6213d2cb9af98c3cd3476cb9","3","5","60","43","","",""
"5080","key"," "," ","16.673194078947315","500","250","psychophysics","81","205063","0.0-81.0","5ade6f4709eae2000112e9e2","6213d2cb9af98c3cd3476cb9","3","0","24","52","","",""
"1205","key"," "," ","16.672746478873435","500","250","psychophysics","82","206270","0.0-82.0","5ade6f4709eae2000112e9e2","6213d2cb9af98c3cd3476cb9","3","5","23","18","","",""
"2176","key"," "," ","16.673384615384677","500","250","psychophysics","83","208448","0.0-83.0","5ade6f4709eae2000112e9e2","6213d2cb9af98c3cd3476cb9","3","0","21","34","","",""
"1622","key"," "," ","16.67259374999988","500","250","psychophysics","84","210073","0.0-84.0","5ade6f4709eae2000112e9e2","6213d2cb9af98c3cd3476cb9","3","5","23","22","","",""
"2162","key"," "," ","16.672612403100942","500","250","psychophysics","85","212238","0.0-85.0","5ade6f4709eae2000112e9e2","6213d2cb9af98c3cd3476cb9","3","0","53","44","","",""
"1302","key"," "," ","16.673363636363472","500","250","psychophysics","86","213543","0.0-86.0","5ade6f4709eae2000112e9e2","6213d2cb9af98c3cd3476cb9","3","5","20","26","","",""
"3104","key"," "," ","16.673327956989255","500","250","psychophysics","87","216649","0.0-87.0","5ade6f4709eae2000112e9e2","6213d2cb9af98c3cd3476cb9","3","0","32","54","","",""
"2104","key"," "," ","16.673055999999868","500","250","psychophysics","88","218756","0.0-88.0","5ade6f4709eae2000112e9e2","6213d2cb9af98c3cd3476cb9","3","5","47","53","","",""
"2918","key"," "," ","16.67271264367814","500","250","psychophysics","89","221677","0.0-89.0","5ade6f4709eae2000112e9e2","6213d2cb9af98c3cd3476cb9","3","0","55","75","","",""
"2340","key"," "," ","16.672749999999983","500","250","psychophysics","90","224019","0.0-90.0","5ade6f4709eae2000112e9e2","6213d2cb9af98c3cd3476cb9","3","5","48","33","","",""
"4483","key"," "," ","16.67310074626867","500","250","psychophysics","91","228505","0.0-91.0","5ade6f4709eae2000112e9e2","6213d2cb9af98c3cd3476cb9","3","0","53","130","","",""
"2489","key"," "," ","16.672527027027122","500","250","psychophysics","92","230996","0.0-92.0","5ade6f4709eae2000112e9e2","6213d2cb9af98c3cd3476cb9","","","","","","",""
"57529","","","v","","","","html-keyboard-response","93","288526","0.0-93.0","5ade6f4709eae2000112e9e2","6213d2cb9af98c3cd3476cb9","","","","","<p> In this part of the experiment, we are going present digits 1, 2, 3, 4, 6, 7, 8, and 9.  Notice that 5 is missing.  Your job is to say whether the presented digit is less than or greater than 5.  For example, 3 is less than 5 and 7 is greater than 5.  If the digit is less than 5, press the v key; if it is greater than 5, press the n key. We are going to do 200 of these in total, but only 50 righ now. They go real fast.</p>  <br><br>  Ready? (press v or n)","",""
"2917","key","v","v","16.673198863636404","500","250","psychophysics","94","291458","0.0-94.0","5ade6f4709eae2000112e9e2","6213d2cb9af98c3cd3476cb9","4","","","","","1","1"
"null","","","null","","","","html-keyboard-response","95","291959","0.0-95.0","5ade6f4709eae2000112e9e2","6213d2cb9af98c3cd3476cb9","","","","","<p style=""color:darkgreen;font-size:24px;"">Correct :)</p>","",""
"2449","key","v","v","16.67310884353771","500","250","psychophysics","96","294409","0.0-96.0","5ade6f4709eae2000112e9e2","6213d2cb9af98c3cd3476cb9","4","","","","","1","1"
"null","","","null","","","","html-keyboard-response","97","294910","0.0-97.0","5ade6f4709eae2000112e9e2","6213d2cb9af98c3cd3476cb9","","","","","<p style=""color:darkgreen;font-size:24px;"">Correct :)</p>","",""
"2385","key","v","v","16.672734265734274","500","250","psychophysics","98","297296","0.0-98.0","5ade6f4709eae2000112e9e2","6213d2cb9af98c3cd3476cb9","4","","","","","1","3"
"null","","","null","","","","html-keyboard-response","99","297797","0.0-99.0","5ade6f4709eae2000112e9e2","6213d2cb9af98c3cd3476cb9","","","","","<p style=""color:darkgreen;font-size:24px;"">Correct :)</p>","",""
"2439","key","v","v","16.6728835616441","500","250","psychophysics","100","300238","0.0-100.0","5ade6f4709eae2000112e9e2","6213d2cb9af98c3cd3476cb9","4","","","","","1","2"
"null","","","null","","","","html-keyboard-response","101","300739","0.0-101.0","5ade6f4709eae2000112e9e2","6213d2cb9af98c3cd3476cb9","","","","","<p style=""color:darkgreen;font-size:24px;"">Correct :)</p>","",""
"2458","key","n","n","16.672804054054133","500","250","psychophysics","102","303198","0.0-102.0","5ade6f4709eae2000112e9e2","6213d2cb9af98c3cd3476cb9","4","","","","","1","6"
"null","","","null","","","","html-keyboard-response","103","303699","0.0-103.0","5ade6f4709eae2000112e9e2","6213d2cb9af98c3cd3476cb9","","","","","<p style=""color:darkgreen;font-size:24px;"">Correct :)</p>","",""
"2565","key","v","v","16.67253896103894","500","250","psychophysics","104","306266","0.0-104.0","5ade6f4709eae2000112e9e2","6213d2cb9af98c3cd3476cb9","4","","","","","1","1"
"null","","","null","","","","html-keyboard-response","105","306767","0.0-105.0","5ade6f4709eae2000112e9e2","6213d2cb9af98c3cd3476cb9","","","","","<p style=""color:darkgreen;font-size:24px;"">Correct :)</p>","",""
"2454","key","v","v","16.672612244897635","500","250","psychophysics","106","309224","0.0-106.0","5ade6f4709eae2000112e9e2","6213d2cb9af98c3cd3476cb9","4","","","","","1","1"
"null","","","null","","","","html-keyboard-response","107","309726","0.0-107.0","5ade6f4709eae2000112e9e2","6213d2cb9af98c3cd3476cb9","","","","","<p style=""color:darkgreen;font-size:24px;"">Correct :)</p>","",""
"2539","key","v","v","16.673751633987134","500","250","psychophysics","108","312267","0.0-108.0","5ade6f4709eae2000112e9e2","6213d2cb9af98c3cd3476cb9","4","","","","","1","2"
"null","","","null","","","","html-keyboard-response","109","312773","0.0-109.0","5ade6f4709eae2000112e9e2","6213d2cb9af98c3cd3476cb9","","","","","<p style=""color:darkgreen;font-size:24px;"">Correct :)</p>","",""
"2656","key","n","n","16.673018750000118","500","250","psychophysics","110","315431","0.0-110.0","5ade6f4709eae2000112e9e2","6213d2cb9af98c3cd3476cb9","4","","","","","1","6"
"null","","","null","","","","html-keyboard-response","111","315934","0.0-111.0","5ade6f4709eae2000112e9e2","6213d2cb9af98c3cd3476cb9","","","","","<p style=""color:darkgreen;font-size:24px;"">Correct :)</p>","",""
"2374","key","v","v","16.672274647887246","500","250","psychophysics","112","318310","0.0-112.0","5ade6f4709eae2000112e9e2","6213d2cb9af98c3cd3476cb9","4","","","","","1","2"
"null","","","null","","","","html-keyboard-response","113","318815","0.0-113.0","5ade6f4709eae2000112e9e2","6213d2cb9af98c3cd3476cb9","","","","","<p style=""color:darkgreen;font-size:24px;"">Correct :)</p>","",""
"2577","key","n","n","16.67279870129854","500","250","psychophysics","114","321393","0.0-114.0","5ade6f4709eae2000112e9e2","6213d2cb9af98c3cd3476cb9","4","","","","","1","6"
"null","","","null","","","","html-keyboard-response","115","321895","0.0-115.0","5ade6f4709eae2000112e9e2","6213d2cb9af98c3cd3476cb9","","","","","<p style=""color:darkgreen;font-size:24px;"">Correct :)</p>","",""
"2549","key","n","n","16.67279738562069","500","250","psychophysics","116","324446","0.0-116.0","5ade6f4709eae2000112e9e2","6213d2cb9af98c3cd3476cb9","4","","","","","1","8"
"null","","","null","","","","html-keyboard-response","117","324947","0.0-117.0","5ade6f4709eae2000112e9e2","6213d2cb9af98c3cd3476cb9","","","","","<p style=""color:darkgreen;font-size:24px;"">Correct :)</p>","",""
"2635","key","v","v","16.672898734177025","500","250","psychophysics","118","327584","0.0-118.0","5ade6f4709eae2000112e9e2","6213d2cb9af98c3cd3476cb9","4","","","","","1","2"
"null","","","null","","","","html-keyboard-response","119","328085","0.0-119.0","5ade6f4709eae2000112e9e2","6213d2cb9af98c3cd3476cb9","","","","","<p style=""color:darkgreen;font-size:24px;"">Correct :)</p>","",""
"2592","key","v","v","16.672858064516163","500","250","psychophysics","120","330678","0.0-120.0","5ade6f4709eae2000112e9e2","6213d2cb9af98c3cd3476cb9","4","","","","","1","4"
"null","","","null","","","","html-keyboard-response","121","331179","0.0-121.0","5ade6f4709eae2000112e9e2","6213d2cb9af98c3cd3476cb9","","","","","<p style=""color:darkgreen;font-size:24px;"">Correct :)</p>","",""
"2492","key","v","v","16.672413333333484","500","250","psychophysics","122","333673","0.0-122.0","5ade6f4709eae2000112e9e2","6213d2cb9af98c3cd3476cb9","4","","","","","1","1"
"null","","","null","","","","html-keyboard-response","123","334175","0.0-123.0","5ade6f4709eae2000112e9e2","6213d2cb9af98c3cd3476cb9","","","","","<p style=""color:darkgreen;font-size:24px;"">Correct :)</p>","",""
"2542","key","n","n","16.67306578947357","500","250","psychophysics","124","336718","0.0-124.0","5ade6f4709eae2000112e9e2","6213d2cb9af98c3cd3476cb9","4","","","","","1","7"
"null","","","null","","","","html-keyboard-response","125","337219","0.0-125.0","5ade6f4709eae2000112e9e2","6213d2cb9af98c3cd3476cb9","","","","","<p style=""color:darkgreen;font-size:24px;"">Correct :)</p>","",""
"2432","key","v","v","16.673232876712436","500","250","psychophysics","126","339653","0.0-126.0","5ade6f4709eae2000112e9e2","6213d2cb9af98c3cd3476cb9","4","","","","","1","1"
"null","","","null","","","","html-keyboard-response","127","340154","0.0-127.0","5ade6f4709eae2000112e9e2","6213d2cb9af98c3cd3476cb9","","","","","<p style=""color:darkgreen;font-size:24px;"">Correct :)</p>","",""
"2571","key","n","n","16.67275483870969","500","250","psychophysics","128","342727","0.0-128.0","5ade6f4709eae2000112e9e2","6213d2cb9af98c3cd3476cb9","4","","","","","1","9"
"null","","","null","","","","html-keyboard-response","129","343227","0.0-129.0","5ade6f4709eae2000112e9e2","6213d2cb9af98c3cd3476cb9","","","","","<p style=""color:darkgreen;font-size:24px;"">Correct :)</p>","",""
"2481","key","v","v","16.673355704698096","500","250","psychophysics","130","345710","0.0-130.0","5ade6f4709eae2000112e9e2","6213d2cb9af98c3cd3476cb9","4","","","","","1","3"
"null","","","null","","","","html-keyboard-response","131","346213","0.0-131.0","5ade6f4709eae2000112e9e2","6213d2cb9af98c3cd3476cb9","","","","","<p style=""color:darkgreen;font-size:24px;"">Correct :)</p>","",""
"2496","key","v","v","16.67273999999976","500","250","psychophysics","132","348711","0.0-132.0","5ade6f4709eae2000112e9e2","6213d2cb9af98c3cd3476cb9","4","","","","","1","4"
"null","","","null","","","","html-keyboard-response","133","349214","0.0-133.0","5ade6f4709eae2000112e9e2","6213d2cb9af98c3cd3476cb9","","","","","<p style=""color:darkgreen;font-size:24px;"">Correct :)</p>","",""
"2472","key","v","v","16.673020270270392","500","250","psychophysics","134","351687","0.0-134.0","5ade6f4709eae2000112e9e2","6213d2cb9af98c3cd3476cb9","4","","","","","1","1"
"null","","","null","","","","html-keyboard-response","135","352188","0.0-135.0","5ade6f4709eae2000112e9e2","6213d2cb9af98c3cd3476cb9","","","","","<p style=""color:darkgreen;font-size:24px;"">Correct :)</p>","",""
"2424","key","v","v","16.672856164383717","500","250","psychophysics","136","354613","0.0-136.0","5ade6f4709eae2000112e9e2","6213d2cb9af98c3cd3476cb9","4","","","","","1","2"
"null","","","null","","","","html-keyboard-response","137","355114","0.0-137.0","5ade6f4709eae2000112e9e2","6213d2cb9af98c3cd3476cb9","","","","","<p style=""color:darkgreen;font-size:24px;"">Correct :)</p>","",""
"2624","key","n","n","16.6733630573248","500","250","psychophysics","138","357740","0.0-138.0","5ade6f4709eae2000112e9e2","6213d2cb9af98c3cd3476cb9","4","","","","","1","7"
"null","","","null","","","","html-keyboard-response","139","358242","0.0-139.0","5ade6f4709eae2000112e9e2","6213d2cb9af98c3cd3476cb9","","","","","<p style=""color:darkgreen;font-size:24px;"">Correct :)</p>","",""
"2546","key","n","n","16.67302614379084","500","250","psychophysics","140","360789","0.0-140.0","5ade6f4709eae2000112e9e2","6213d2cb9af98c3cd3476cb9","4","","","","","1","8"
"null","","","null","","","","html-keyboard-response","141","361291","0.0-141.0","5ade6f4709eae2000112e9e2","6213d2cb9af98c3cd3476cb9","","","","","<p style=""color:darkgreen;font-size:24px;"">Correct :)</p>","",""
"2671","key","n","n","16.672724999999993","500","250","psychophysics","142","363963","0.0-142.0","5ade6f4709eae2000112e9e2","6213d2cb9af98c3cd3476cb9","4","","","","","1","7"
"null","","","null","","","","html-keyboard-response","143","364464","0.0-143.0","5ade6f4709eae2000112e9e2","6213d2cb9af98c3cd3476cb9","","","","","<p style=""color:darkgreen;font-size:24px;"">Correct :)</p>","",""
"2583","key","v","v","16.673309677419056","500","250","psychophysics","144","367049","0.0-144.0","5ade6f4709eae2000112e9e2","6213d2cb9af98c3cd3476cb9","4","","","","","1","3"
"null","","","null","","","","html-keyboard-response","145","367550","0.0-145.0","5ade6f4709eae2000112e9e2","6213d2cb9af98c3cd3476cb9","","","","","<p style=""color:darkgreen;font-size:24px;"">Correct :)</p>","",""
"2550","key","n","n","16.782209150326892","500","250","psychophysics","146","370102","0.0-146.0","5ade6f4709eae2000112e9e2","6213d2cb9af98c3cd3476cb9","4","","","","","1","9"
"null","","","null","","","","html-keyboard-response","147","370604","0.0-147.0","5ade6f4709eae2000112e9e2","6213d2cb9af98c3cd3476cb9","","","","","<p style=""color:darkgreen;font-size:24px;"">Correct :)</p>","",""
"2615","key","n","n","16.67291082802546","500","250","psychophysics","148","373222","0.0-148.0","5ade6f4709eae2000112e9e2","6213d2cb9af98c3cd3476cb9","4","","","","","1","6"
"null","","","null","","","","html-keyboard-response","149","373725","0.0-149.0","5ade6f4709eae2000112e9e2","6213d2cb9af98c3cd3476cb9","","","","","<p style=""color:darkgreen;font-size:24px;"">Correct :)</p>","",""
"2630","key","n","n","16.67343670886107","500","250","psychophysics","150","376357","0.0-150.0","5ade6f4709eae2000112e9e2","6213d2cb9af98c3cd3476cb9","4","","","","","1","7"
"null","","","null","","","","html-keyboard-response","151","376871","0.0-151.0","5ade6f4709eae2000112e9e2","6213d2cb9af98c3cd3476cb9","","","","","<p style=""color:darkgreen;font-size:24px;"">Correct :)</p>","",""
"2687","key","n","n","16.672664596273286","500","250","psychophysics","152","379559","0.0-152.0","5ade6f4709eae2000112e9e2","6213d2cb9af98c3cd3476cb9","4","","","","","1","9"
"null","","","null","","","","html-keyboard-response","153","380060","0.0-153.0","5ade6f4709eae2000112e9e2","6213d2cb9af98c3cd3476cb9","","","","","<p style=""color:darkgreen;font-size:24px;"">Correct :)</p>","",""
"2565","key","n","n","16.673506493506313","500","250","psychophysics","154","382627","0.0-154.0","5ade6f4709eae2000112e9e2","6213d2cb9af98c3cd3476cb9","4","","","","","1","6"
"null","","","null","","","","html-keyboard-response","155","383129","0.0-155.0","5ade6f4709eae2000112e9e2","6213d2cb9af98c3cd3476cb9","","","","","<p style=""color:darkgreen;font-size:24px;"">Correct :)</p>","",""
"2534","key","v","v","16.673460526315658","500","250","psychophysics","156","385664","0.0-156.0","5ade6f4709eae2000112e9e2","6213d2cb9af98c3cd3476cb9","4","","","","","1","2"
"null","","","null","","","","html-keyboard-response","157","386167","0.0-157.0","5ade6f4709eae2000112e9e2","6213d2cb9af98c3cd3476cb9","","","","","<p style=""color:darkgreen;font-size:24px;"">Correct :)</p>","",""
"2468","key","v","v","16.673425675675784","500","250","psychophysics","158","388636","0.0-158.0","5ade6f4709eae2000112e9e2","6213d2cb9af98c3cd3476cb9","4","","","","","1","1"
"null","","","null","","","","html-keyboard-response","159","389137","0.0-159.0","5ade6f4709eae2000112e9e2","6213d2cb9af98c3cd3476cb9","","","","","<p style=""color:darkgreen;font-size:24px;"">Correct :)</p>","",""
"2401","key","v","v","16.67171527777787","500","250","psychophysics","160","391540","0.0-160.0","5ade6f4709eae2000112e9e2","6213d2cb9af98c3cd3476cb9","4","","","","","1","2"
"null","","","null","","","","html-keyboard-response","161","392041","0.0-161.0","5ade6f4709eae2000112e9e2","6213d2cb9af98c3cd3476cb9","","","","","<p style=""color:darkgreen;font-size:24px;"">Correct :)</p>","",""
"2565","key","n","n","16.78175163398698","500","250","psychophysics","162","394607","0.0-162.0","5ade6f4709eae2000112e9e2","6213d2cb9af98c3cd3476cb9","4","","","","","1","6"
"null","","","null","","","","html-keyboard-response","163","395108","0.0-163.0","5ade6f4709eae2000112e9e2","6213d2cb9af98c3cd3476cb9","","","","","<p style=""color:darkgreen;font-size:24px;"">Correct :)</p>","",""
"2654","key","v","v","16.672781250000117","500","250","psychophysics","164","397764","0.0-164.0","5ade6f4709eae2000112e9e2","6213d2cb9af98c3cd3476cb9","4","","","","","1","4"
"null","","","null","","","","html-keyboard-response","165","398265","0.0-165.0","5ade6f4709eae2000112e9e2","6213d2cb9af98c3cd3476cb9","","","","","<p style=""color:darkgreen;font-size:24px;"">Correct :)</p>","",""
"2650","key","n","n","16.67352830188652","500","250","psychophysics","166","400917","0.0-166.0","5ade6f4709eae2000112e9e2","6213d2cb9af98c3cd3476cb9","4","","","","","1","7"
"null","","","null","","","","html-keyboard-response","167","401419","0.0-167.0","5ade6f4709eae2000112e9e2","6213d2cb9af98c3cd3476cb9","","","","","<p style=""color:darkgreen;font-size:24px;"">Correct :)</p>","",""
"2830","key","v","v","16.672570588235292","500","250","psychophysics","168","404250","0.0-168.0","5ade6f4709eae2000112e9e2","6213d2cb9af98c3cd3476cb9","4","","","","","1","6"
"null","","","null","","","","html-keyboard-response","169","404752","0.0-169.0","5ade6f4709eae2000112e9e2","6213d2cb9af98c3cd3476cb9","","","","","<p style=""color:red;font-size:24px;"">Error :(</p>","",""
"2525","key","v","v","16.672602649006393","500","250","psychophysics","170","407278","0.0-170.0","5ade6f4709eae2000112e9e2","6213d2cb9af98c3cd3476cb9","4","","","","","1","1"
"null","","","null","","","","html-keyboard-response","171","407779","0.0-171.0","5ade6f4709eae2000112e9e2","6213d2cb9af98c3cd3476cb9","","","","","<p style=""color:darkgreen;font-size:24px;"">Correct :)</p>","",""
"2812","key","v","v","16.673047337278078","500","250","psychophysics","172","410593","0.0-172.0","5ade6f4709eae2000112e9e2","6213d2cb9af98c3cd3476cb9","4","","","","","1","4"
"null","","","null","","","","html-keyboard-response","173","411094","0.0-173.0","5ade6f4709eae2000112e9e2","6213d2cb9af98c3cd3476cb9","","","","","<p style=""color:darkgreen;font-size:24px;"">Correct :)</p>","",""
"2547","key","v","v","16.67300653594791","500","250","psychophysics","174","413642","0.0-174.0","5ade6f4709eae2000112e9e2","6213d2cb9af98c3cd3476cb9","4","","","","","1","4"
"null","","","null","","","","html-keyboard-response","175","414144","0.0-175.0","5ade6f4709eae2000112e9e2","6213d2cb9af98c3cd3476cb9","","","","","<p style=""color:darkgreen;font-size:24px;"">Correct :)</p>","",""
"2646","key","n","n","16.673213836478155","500","250","psychophysics","176","416792","0.0-176.0","5ade6f4709eae2000112e9e2","6213d2cb9af98c3cd3476cb9","4","","","","","1","7"
"null","","","null","","","","html-keyboard-response","177","417292","0.0-177.0","5ade6f4709eae2000112e9e2","6213d2cb9af98c3cd3476cb9","","","","","<p style=""color:darkgreen;font-size:24px;"">Correct :)</p>","",""
"2538","key","v","v","16.6730131578948","500","250","psychophysics","178","419832","0.0-178.0","5ade6f4709eae2000112e9e2","6213d2cb9af98c3cd3476cb9","4","","","","","1","3"
"null","","","null","","","","html-keyboard-response","179","420333","0.0-179.0","5ade6f4709eae2000112e9e2","6213d2cb9af98c3cd3476cb9","","","","","<p style=""color:darkgreen;font-size:24px;"">Correct :)</p>","",""
"2506","key","n","n","16.67280132450327","500","250","psychophysics","180","422841","0.0-180.0","5ade6f4709eae2000112e9e2","6213d2cb9af98c3cd3476cb9","4","","","","","1","7"
"null","","","null","","","","html-keyboard-response","181","423341","0.0-181.0","5ade6f4709eae2000112e9e2","6213d2cb9af98c3cd3476cb9","","","","","<p style=""color:darkgreen;font-size:24px;"">Correct :)</p>","",""
"2412","key","v","v","16.672902777778088","500","250","psychophysics","182","425756","0.0-182.0","5ade6f4709eae2000112e9e2","6213d2cb9af98c3cd3476cb9","4","","","","","1","2"
"null","","","null","","","","html-keyboard-response","183","426258","0.0-183.0","5ade6f4709eae2000112e9e2","6213d2cb9af98c3cd3476cb9","","","","","<p style=""color:darkgreen;font-size:24px;"">Correct :)</p>","",""
"2624","key","v","v","16.672885350318357","500","250","psychophysics","184","428883","0.0-184.0","5ade6f4709eae2000112e9e2","6213d2cb9af98c3cd3476cb9","4","","","","","1","3"
"null","","","null","","","","html-keyboard-response","185","429384","0.0-185.0","5ade6f4709eae2000112e9e2","6213d2cb9af98c3cd3476cb9","","","","","<p style=""color:darkgreen;font-size:24px;"">Correct :)</p>","",""
"2424","key","v","v","16.673342465753556","500","250","psychophysics","186","431810","0.0-186.0","5ade6f4709eae2000112e9e2","6213d2cb9af98c3cd3476cb9","4","","","","","1","2"
"null","","","null","","","","html-keyboard-response","187","432311","0.0-187.0","5ade6f4709eae2000112e9e2","6213d2cb9af98c3cd3476cb9","","","","","<p style=""color:darkgreen;font-size:24px;"">Correct :)</p>","",""
"2528","key","n","n","16.67283443708608","500","250","psychophysics","188","434841","0.0-188.0","5ade6f4709eae2000112e9e2","6213d2cb9af98c3cd3476cb9","4","","","","","1","9"
"null","","","null","","","","html-keyboard-response","189","435344","0.0-189.0","5ade6f4709eae2000112e9e2","6213d2cb9af98c3cd3476cb9","","","","","<p style=""color:darkgreen;font-size:24px;"">Correct :)</p>","",""
"2604","key","n","n","16.672891025640777","500","250","psychophysics","190","437950","0.0-190.0","5ade6f4709eae2000112e9e2","6213d2cb9af98c3cd3476cb9","4","","","","","1","8"
"null","","","null","","","","html-keyboard-response","191","438451","0.0-191.0","5ade6f4709eae2000112e9e2","6213d2cb9af98c3cd3476cb9","","","","","<p style=""color:darkgreen;font-size:24px;"">Correct :)</p>","",""
"2701","key","n","n","16.6727962962964","500","250","psychophysics","192","441154","0.0-192.0","5ade6f4709eae2000112e9e2","6213d2cb9af98c3cd3476cb9","4","","","","","1","8"
"null","","","null","","","","html-keyboard-response","193","441654","0.0-193.0","5ade6f4709eae2000112e9e2","6213d2cb9af98c3cd3476cb9","","","","","<p style=""color:darkgreen;font-size:24px;"">Correct :)</p>","",""
"21652","","","n","","","","html-keyboard-response","194","463306","0.0-194.0","5ade6f4709eae2000112e9e2","6213d2cb9af98c3cd3476cb9","","","","","<p> Ok, now we are going present the same digits as before.  Your job is to say whether the digit is even or odd  If the digit is odd, press to v key; if it is even, press the n key. We are going to do 50 of these.  </p>  <br><br>  Ready? (press v or n)","",""
"2605","key","v","v","16.673371794871994","500","250","psychophysics","195","465913","0.0-195.0","5ade6f4709eae2000112e9e2","6213d2cb9af98c3cd3476cb9","5","","","","","0","3"
"null","","","null","","","","html-keyboard-response","196","466427","0.0-196.0","5ade6f4709eae2000112e9e2","6213d2cb9af98c3cd3476cb9","","","","","<p style=""color:darkgreen;font-size:24px;"">Correct :)</p>","",""
"2591","key","v","v","16.67320645161296","500","250","psychophysics","197","469019","0.0-197.0","5ade6f4709eae2000112e9e2","6213d2cb9af98c3cd3476cb9","5","","","","","0","3"
"null","","","null","","","","html-keyboard-response","198","469519","0.0-198.0","5ade6f4709eae2000112e9e2","6213d2cb9af98c3cd3476cb9","","","","","<p style=""color:darkgreen;font-size:24px;"">Correct :)</p>","",""
"2521","key","v","v","16.672914473684184","500","250","psychophysics","199","472043","0.0-199.0","5ade6f4709eae2000112e9e2","6213d2cb9af98c3cd3476cb9","5","","","","","0","1"
"null","","","null","","","","html-keyboard-response","200","472545","0.0-200.0","5ade6f4709eae2000112e9e2","6213d2cb9af98c3cd3476cb9","","","","","<p style=""color:darkgreen;font-size:24px;"">Correct :)</p>","",""
"2508","key","v","v","16.673200000000264","500","250","psychophysics","201","475055","0.0-201.0","5ade6f4709eae2000112e9e2","6213d2cb9af98c3cd3476cb9","5","","","","","0","3"
"null","","","null","","","","html-keyboard-response","202","475556","0.0-202.0","5ade6f4709eae2000112e9e2","6213d2cb9af98c3cd3476cb9","","","","","<p style=""color:darkgreen;font-size:24px;"">Correct :)</p>","",""
"2484","key","v","v","16.67244295302025","500","250","psychophysics","203","478042","0.0-203.0","5ade6f4709eae2000112e9e2","6213d2cb9af98c3cd3476cb9","5","","","","","0","2"
"null","","","null","","","","html-keyboard-response","204","478543","0.0-204.0","5ade6f4709eae2000112e9e2","6213d2cb9af98c3cd3476cb9","","","","","<p style=""color:red;font-size:24px;"">Error :(</p>","",""
"2589","key","v","v","16.672825806451616","500","250","psychophysics","205","481134","0.0-205.0","5ade6f4709eae2000112e9e2","6213d2cb9af98c3cd3476cb9","5","","","","","0","4"
"null","","","null","","","","html-keyboard-response","206","481635","0.0-206.0","5ade6f4709eae2000112e9e2","6213d2cb9af98c3cd3476cb9","","","","","<p style=""color:red;font-size:24px;"">Error :(</p>","",""
"3207","key","v","v","16.67269270833337","500","250","psychophysics","207","484843","0.0-207.0","5ade6f4709eae2000112e9e2","6213d2cb9af98c3cd3476cb9","5","","","","","0","9"
"null","","","null","","","","html-keyboard-response","208","485344","0.0-208.0","5ade6f4709eae2000112e9e2","6213d2cb9af98c3cd3476cb9","","","","","<p style=""color:darkgreen;font-size:24px;"">Correct :)</p>","",""
"2496","key","n","n","16.784510067114045","500","250","psychophysics","209","487842","0.0-209.0","5ade6f4709eae2000112e9e2","6213d2cb9af98c3cd3476cb9","5","","","","","0","4"
"null","","","null","","","","html-keyboard-response","210","488343","0.0-210.0","5ade6f4709eae2000112e9e2","6213d2cb9af98c3cd3476cb9","","","","","<p style=""color:darkgreen;font-size:24px;"">Correct :)</p>","",""
"2754","key","v","v","16.672963855421685","500","250","psychophysics","211","491100","0.0-211.0","5ade6f4709eae2000112e9e2","6213d2cb9af98c3cd3476cb9","5","","","","","0","9"
"null","","","null","","","","html-keyboard-response","212","491616","0.0-212.0","5ade6f4709eae2000112e9e2","6213d2cb9af98c3cd3476cb9","","","","","<p style=""color:darkgreen;font-size:24px;"">Correct :)</p>","",""
"2573","key","v","v","16.673435064934893","500","250","psychophysics","213","494191","0.0-213.0","5ade6f4709eae2000112e9e2","6213d2cb9af98c3cd3476cb9","5","","","","","0","7"
"null","","","null","","","","html-keyboard-response","214","494692","0.0-214.0","5ade6f4709eae2000112e9e2","6213d2cb9af98c3cd3476cb9","","","","","<p style=""color:darkgreen;font-size:24px;"">Correct :)</p>","",""
"2563","key","v","v","16.67290909090926","500","250","psychophysics","215","497257","0.0-215.0","5ade6f4709eae2000112e9e2","6213d2cb9af98c3cd3476cb9","5","","","","","0","9"
"null","","","null","","","","html-keyboard-response","216","497759","0.0-216.0","5ade6f4709eae2000112e9e2","6213d2cb9af98c3cd3476cb9","","","","","<p style=""color:darkgreen;font-size:24px;"">Correct :)</p>","",""
"2579","key","n","n","16.673148387096703","500","250","psychophysics","217","500340","0.0-217.0","5ade6f4709eae2000112e9e2","6213d2cb9af98c3cd3476cb9","5","","","","","0","8"
"null","","","null","","","","html-keyboard-response","218","500841","0.0-218.0","5ade6f4709eae2000112e9e2","6213d2cb9af98c3cd3476cb9","","","","","<p style=""color:darkgreen;font-size:24px;"">Correct :)</p>","",""
"2746","key","n","n","16.673006060605896","500","250","psychophysics","219","503590","0.0-219.0","5ade6f4709eae2000112e9e2","6213d2cb9af98c3cd3476cb9","5","","","","","0","8"
"null","","","null","","","","html-keyboard-response","220","504091","0.0-220.0","5ade6f4709eae2000112e9e2","6213d2cb9af98c3cd3476cb9","","","","","<p style=""color:darkgreen;font-size:24px;"">Correct :)</p>","",""
"2737","key","v","v","16.672835365853842","500","250","psychophysics","221","506831","0.0-221.0","5ade6f4709eae2000112e9e2","6213d2cb9af98c3cd3476cb9","5","","","","","0","7"
"null","","","null","","","","html-keyboard-response","222","507331","0.0-222.0","5ade6f4709eae2000112e9e2","6213d2cb9af98c3cd3476cb9","","","","","<p style=""color:darkgreen;font-size:24px;"">Correct :)</p>","",""
"2947","key","v","v","16.67296045197741","500","250","psychophysics","223","510280","0.0-223.0","5ade6f4709eae2000112e9e2","6213d2cb9af98c3cd3476cb9","5","","","","","0","3"
"null","","","null","","","","html-keyboard-response","224","510782","0.0-224.0","5ade6f4709eae2000112e9e2","6213d2cb9af98c3cd3476cb9","","","","","<p style=""color:darkgreen;font-size:24px;"">Correct :)</p>","",""
"2670","key","v","v","16.672843750000176","500","250","psychophysics","225","513454","0.0-225.0","5ade6f4709eae2000112e9e2","6213d2cb9af98c3cd3476cb9","5","","","","","0","3"
"null","","","null","","","","html-keyboard-response","226","513955","0.0-226.0","5ade6f4709eae2000112e9e2","6213d2cb9af98c3cd3476cb9","","","","","<p style=""color:darkgreen;font-size:24px;"">Correct :)</p>","",""
"2650","key","n","n","16.778816455695925","500","250","psychophysics","227","516607","0.0-227.0","5ade6f4709eae2000112e9e2","6213d2cb9af98c3cd3476cb9","5","","","","","0","8"
"null","","","null","","","","html-keyboard-response","228","517108","0.0-228.0","5ade6f4709eae2000112e9e2","6213d2cb9af98c3cd3476cb9","","","","","<p style=""color:darkgreen;font-size:24px;"">Correct :)</p>","",""
"2779","key","v","v","16.67288554216881","500","250","psychophysics","229","519889","0.0-229.0","5ade6f4709eae2000112e9e2","6213d2cb9af98c3cd3476cb9","5","","","","","0","9"
"null","","","null","","","","html-keyboard-response","230","520390","0.0-230.0","5ade6f4709eae2000112e9e2","6213d2cb9af98c3cd3476cb9","","","","","<p style=""color:darkgreen;font-size:24px;"">Correct :)</p>","",""
"2655","key","n","n","16.6734375","500","250","psychophysics","231","523046","0.0-231.0","5ade6f4709eae2000112e9e2","6213d2cb9af98c3cd3476cb9","5","","","","","0","8"
"null","","","null","","","","html-keyboard-response","232","523550","0.0-232.0","5ade6f4709eae2000112e9e2","6213d2cb9af98c3cd3476cb9","","","","","<p style=""color:darkgreen;font-size:24px;"">Correct :)</p>","",""
"2640","key","n","n","16.673202531645074","500","250","psychophysics","233","526191","0.0-233.0","5ade6f4709eae2000112e9e2","6213d2cb9af98c3cd3476cb9","5","","","","","0","6"
"null","","","null","","","","html-keyboard-response","234","526692","0.0-234.0","5ade6f4709eae2000112e9e2","6213d2cb9af98c3cd3476cb9","","","","","<p style=""color:darkgreen;font-size:24px;"">Correct :)</p>","",""
"2468","key","n","n","16.673324324324337","500","250","psychophysics","235","529161","0.0-235.0","5ade6f4709eae2000112e9e2","6213d2cb9af98c3cd3476cb9","5","","","","","0","4"
"null","","","null","","","","html-keyboard-response","236","529662","0.0-236.0","5ade6f4709eae2000112e9e2","6213d2cb9af98c3cd3476cb9","","","","","<p style=""color:darkgreen;font-size:24px;"">Correct :)</p>","",""
"2444","key","n","n","16.67256164383574","500","250","psychophysics","237","532108","0.0-237.0","5ade6f4709eae2000112e9e2","6213d2cb9af98c3cd3476cb9","5","","","","","0","6"
"null","","","null","","","","html-keyboard-response","238","532609","0.0-238.0","5ade6f4709eae2000112e9e2","6213d2cb9af98c3cd3476cb9","","","","","<p style=""color:darkgreen;font-size:24px;"">Correct :)</p>","",""
"2505","key","v","v","16.673211920529987","500","250","psychophysics","239","535115","0.0-239.0","5ade6f4709eae2000112e9e2","6213d2cb9af98c3cd3476cb9","5","","","","","0","1"
"null","","","null","","","","html-keyboard-response","240","535618","0.0-240.0","5ade6f4709eae2000112e9e2","6213d2cb9af98c3cd3476cb9","","","","","<p style=""color:darkgreen;font-size:24px;"">Correct :)</p>","",""
"2896","key","v","v","16.672816091953727","500","250","psychophysics","241","538518","0.0-241.0","5ade6f4709eae2000112e9e2","6213d2cb9af98c3cd3476cb9","5","","","","","0","7"
"null","","","null","","","","html-keyboard-response","242","539019","0.0-242.0","5ade6f4709eae2000112e9e2","6213d2cb9af98c3cd3476cb9","","","","","<p style=""color:darkgreen;font-size:24px;"">Correct :)</p>","",""
"2624","key","n","n","16.673235668789648","500","250","psychophysics","243","541645","0.0-243.0","5ade6f4709eae2000112e9e2","6213d2cb9af98c3cd3476cb9","5","","","","","0","8"
"null","","","null","","","","html-keyboard-response","244","542146","0.0-244.0","5ade6f4709eae2000112e9e2","6213d2cb9af98c3cd3476cb9","","","","","<p style=""color:darkgreen;font-size:24px;"">Correct :)</p>","",""
"2541","key","n","n","16.67316993464049","500","250","psychophysics","245","544689","0.0-245.0","5ade6f4709eae2000112e9e2","6213d2cb9af98c3cd3476cb9","5","","","","","0","8"
"null","","","null","","","","html-keyboard-response","246","545202","0.0-246.0","5ade6f4709eae2000112e9e2","6213d2cb9af98c3cd3476cb9","","","","","<p style=""color:darkgreen;font-size:24px;"">Correct :)</p>","",""
"2647","key","v","v","16.672936708860902","500","250","psychophysics","247","547850","0.0-247.0","5ade6f4709eae2000112e9e2","6213d2cb9af98c3cd3476cb9","5","","","","","0","9"
"null","","","null","","","","html-keyboard-response","248","548351","0.0-248.0","5ade6f4709eae2000112e9e2","6213d2cb9af98c3cd3476cb9","","","","","<p style=""color:darkgreen;font-size:24px;"">Correct :)</p>","",""
"3216","key","n","n","16.759942708333256","500","250","psychophysics","249","551570","0.0-249.0","5ade6f4709eae2000112e9e2","6213d2cb9af98c3cd3476cb9","5","","","","","0","2"
"null","","","null","","","","html-keyboard-response","250","552071","0.0-250.0","5ade6f4709eae2000112e9e2","6213d2cb9af98c3cd3476cb9","","","","","<p style=""color:darkgreen;font-size:24px;"">Correct :)</p>","",""
"2686","key","v","v","16.67270807453405","500","250","psychophysics","251","554758","0.0-251.0","5ade6f4709eae2000112e9e2","6213d2cb9af98c3cd3476cb9","5","","","","","0","7"
"null","","","null","","","","html-keyboard-response","252","555259","0.0-252.0","5ade6f4709eae2000112e9e2","6213d2cb9af98c3cd3476cb9","","","","","<p style=""color:darkgreen;font-size:24px;"">Correct :)</p>","",""
"2728","key","v","v","16.673429447852584","500","250","psychophysics","253","557988","0.0-253.0","5ade6f4709eae2000112e9e2","6213d2cb9af98c3cd3476cb9","5","","","","","0","7"
"null","","","null","","","","html-keyboard-response","254","558489","0.0-254.0","5ade6f4709eae2000112e9e2","6213d2cb9af98c3cd3476cb9","","","","","<p style=""color:darkgreen;font-size:24px;"">Correct :)</p>","",""
"2681","key","v","v","16.67334999999948","500","250","psychophysics","255","561174","0.0-255.0","5ade6f4709eae2000112e9e2","6213d2cb9af98c3cd3476cb9","5","","","","","0","9"
"null","","","null","","","","html-keyboard-response","256","561675","0.0-256.0","5ade6f4709eae2000112e9e2","6213d2cb9af98c3cd3476cb9","","","","","<p style=""color:darkgreen;font-size:24px;"">Correct :)</p>","",""
"2659","key","v","v","16.6728364779876","500","250","psychophysics","257","564337","0.0-257.0","5ade6f4709eae2000112e9e2","6213d2cb9af98c3cd3476cb9","5","","","","","0","9"
"null","","","null","","","","html-keyboard-response","258","564839","0.0-258.0","5ade6f4709eae2000112e9e2","6213d2cb9af98c3cd3476cb9","","","","","<p style=""color:darkgreen;font-size:24px;"">Correct :)</p>","",""
"2500","key","v","v","16.674079999999766","500","250","psychophysics","259","567341","0.0-259.0","5ade6f4709eae2000112e9e2","6213d2cb9af98c3cd3476cb9","5","","","","","0","9"
"null","","","null","","","","html-keyboard-response","260","567842","0.0-260.0","5ade6f4709eae2000112e9e2","6213d2cb9af98c3cd3476cb9","","","","","<p style=""color:darkgreen;font-size:24px;"">Correct :)</p>","",""
"2487","key","v","v","16.785114093959464","500","250","psychophysics","261","570331","0.0-261.0","5ade6f4709eae2000112e9e2","6213d2cb9af98c3cd3476cb9","5","","","","","0","9"
"null","","","null","","","","html-keyboard-response","262","570831","0.0-262.0","5ade6f4709eae2000112e9e2","6213d2cb9af98c3cd3476cb9","","","","","<p style=""color:darkgreen;font-size:24px;"">Correct :)</p>","",""
"2693","key","n","n","16.67267080745298","500","250","psychophysics","263","573528","0.0-263.0","5ade6f4709eae2000112e9e2","6213d2cb9af98c3cd3476cb9","5","","","","","0","8"
"null","","","null","","","","html-keyboard-response","264","574030","0.0-264.0","5ade6f4709eae2000112e9e2","6213d2cb9af98c3cd3476cb9","","","","","<p style=""color:darkgreen;font-size:24px;"">Correct :)</p>","",""
"2576","key","v","v","16.67320129870174","500","250","psychophysics","265","576607","0.0-265.0","5ade6f4709eae2000112e9e2","6213d2cb9af98c3cd3476cb9","5","","","","","0","3"
"null","","","null","","","","html-keyboard-response","266","577109","0.0-266.0","5ade6f4709eae2000112e9e2","6213d2cb9af98c3cd3476cb9","","","","","<p style=""color:darkgreen;font-size:24px;"">Correct :)</p>","",""
"2516","key","v","v","16.673046357615924","500","250","psychophysics","267","579627","0.0-267.0","5ade6f4709eae2000112e9e2","6213d2cb9af98c3cd3476cb9","5","","","","","0","9"
"null","","","null","","","","html-keyboard-response","268","580128","0.0-268.0","5ade6f4709eae2000112e9e2","6213d2cb9af98c3cd3476cb9","","","","","<p style=""color:darkgreen;font-size:24px;"">Correct :)</p>","",""
"2539","key","v","v","16.67423529411724","500","250","psychophysics","269","582669","0.0-269.0","5ade6f4709eae2000112e9e2","6213d2cb9af98c3cd3476cb9","5","","","","","0","3"
"null","","","null","","","","html-keyboard-response","270","583170","0.0-270.0","5ade6f4709eae2000112e9e2","6213d2cb9af98c3cd3476cb9","","","","","<p style=""color:darkgreen;font-size:24px;"">Correct :)</p>","",""
"2681","key","n","n","16.672509316770036","500","250","psychophysics","271","585852","0.0-271.0","5ade6f4709eae2000112e9e2","6213d2cb9af98c3cd3476cb9","5","","","","","0","2"
"null","","","null","","","","html-keyboard-response","272","586353","0.0-272.0","5ade6f4709eae2000112e9e2","6213d2cb9af98c3cd3476cb9","","","","","<p style=""color:darkgreen;font-size:24px;"">Correct :)</p>","",""
"2695","key","v","v","16.672975155279786","500","250","psychophysics","273","589049","0.0-273.0","5ade6f4709eae2000112e9e2","6213d2cb9af98c3cd3476cb9","5","","","","","0","9"
"null","","","null","","","","html-keyboard-response","274","589550","0.0-274.0","5ade6f4709eae2000112e9e2","6213d2cb9af98c3cd3476cb9","","","","","<p style=""color:darkgreen;font-size:24px;"">Correct :)</p>","",""
"2614","key","v","v","16.77943589743555","500","250","psychophysics","275","592166","0.0-275.0","5ade6f4709eae2000112e9e2","6213d2cb9af98c3cd3476cb9","5","","","","","0","7"
"null","","","null","","","","html-keyboard-response","276","592668","0.0-276.0","5ade6f4709eae2000112e9e2","6213d2cb9af98c3cd3476cb9","","","","","<p style=""color:darkgreen;font-size:24px;"">Correct :)</p>","",""
"2545","key","n","n","16.78252631578959","500","250","psychophysics","277","595214","0.0-277.0","5ade6f4709eae2000112e9e2","6213d2cb9af98c3cd3476cb9","5","","","","","0","8"
"null","","","null","","","","html-keyboard-response","278","595715","0.0-278.0","5ade6f4709eae2000112e9e2","6213d2cb9af98c3cd3476cb9","","","","","<p style=""color:darkgreen;font-size:24px;"">Correct :)</p>","",""
"2585","key","v","v","16.672864516128996","500","250","psychophysics","279","598302","0.0-279.0","5ade6f4709eae2000112e9e2","6213d2cb9af98c3cd3476cb9","5","","","","","0","9"
"null","","","null","","","","html-keyboard-response","280","598804","0.0-280.0","5ade6f4709eae2000112e9e2","6213d2cb9af98c3cd3476cb9","","","","","<p style=""color:darkgreen;font-size:24px;"">Correct :)</p>","",""
"2494","key","v","v","16.784651006711023","500","250","psychophysics","281","601300","0.0-281.0","5ade6f4709eae2000112e9e2","6213d2cb9af98c3cd3476cb9","5","","","","","0","3"
"null","","","null","","","","html-keyboard-response","282","601801","0.0-282.0","5ade6f4709eae2000112e9e2","6213d2cb9af98c3cd3476cb9","","","","","<p style=""color:darkgreen;font-size:24px;"">Correct :)</p>","",""
"2518","key","n","n","16.67325827814577","500","250","psychophysics","283","604320","0.0-283.0","5ade6f4709eae2000112e9e2","6213d2cb9af98c3cd3476cb9","5","","","","","0","2"
"null","","","null","","","","html-keyboard-response","284","604821","0.0-284.0","5ade6f4709eae2000112e9e2","6213d2cb9af98c3cd3476cb9","","","","","<p style=""color:darkgreen;font-size:24px;"">Correct :)</p>","",""
"2464","key","v","v","16.672972972972815","500","250","psychophysics","285","607287","0.0-285.0","5ade6f4709eae2000112e9e2","6213d2cb9af98c3cd3476cb9","5","","","","","0","1"
"null","","","null","","","","html-keyboard-response","286","607789","0.0-286.0","5ade6f4709eae2000112e9e2","6213d2cb9af98c3cd3476cb9","","","","","<p style=""color:darkgreen;font-size:24px;"">Correct :)</p>","",""
"3288","key","n","n","16.672727272727627","500","250","psychophysics","287","611078","0.0-287.0","5ade6f4709eae2000112e9e2","6213d2cb9af98c3cd3476cb9","5","","","","","0","8"
"null","","","null","","","","html-keyboard-response","288","611581","0.0-288.0","5ade6f4709eae2000112e9e2","6213d2cb9af98c3cd3476cb9","","","","","<p style=""color:darkgreen;font-size:24px;"">Correct :)</p>","",""
"2813","key","v","v","16.673053254437434","500","250","psychophysics","289","614395","0.0-289.0","5ade6f4709eae2000112e9e2","6213d2cb9af98c3cd3476cb9","5","","","","","0","9"
"null","","","null","","","","html-keyboard-response","290","614901","0.0-290.0","5ade6f4709eae2000112e9e2","6213d2cb9af98c3cd3476cb9","","","","","<p style=""color:darkgreen;font-size:24px;"">Correct :)</p>","",""
"2645","key","n","n","16.673157232704444","500","250","psychophysics","291","617548","0.0-291.0","5ade6f4709eae2000112e9e2","6213d2cb9af98c3cd3476cb9","5","","","","","0","4"
"null","","","null","","","","html-keyboard-response","292","618049","0.0-292.0","5ade6f4709eae2000112e9e2","6213d2cb9af98c3cd3476cb9","","","","","<p style=""color:darkgreen;font-size:24px;"">Correct :)</p>","",""
"2464","key","n","n","16.672540540540297","500","250","psychophysics","293","620515","0.0-293.0","5ade6f4709eae2000112e9e2","6213d2cb9af98c3cd3476cb9","5","","","","","0","4"
"null","","","null","","","","html-keyboard-response","294","621018","0.0-294.0","5ade6f4709eae2000112e9e2","6213d2cb9af98c3cd3476cb9","","","","","<p style=""color:darkgreen;font-size:24px;"">Correct :)</p>","",""
"28438","","","v","","","","html-keyboard-response","295","649457","0.0-295.0","5ade6f4709eae2000112e9e2","6213d2cb9af98c3cd3476cb9","","","","","<p> Here, the tasks are going to switch.  For some trials, your job is to decide if the digit is less than or greater than 5.  For others, it is to decide if the digit is even or odd.  You will be told which type of trial the current one is.  But, pay attention, the type of trial changes too.  We are going to do 50 of these.  </p>  <br><br>  Ready? (press v or n)","",""
"3156","key","n","n","16.761423280423816","500","250","psychophysics","296","652616","0.0-296.0","5ade6f4709eae2000112e9e2","6213d2cb9af98c3cd3476cb9","6","","","","","0","8"
"null","","","null","","","","html-keyboard-response","297","653116","0.0-297.0","5ade6f4709eae2000112e9e2","6213d2cb9af98c3cd3476cb9","","","","","<p style=""color:darkgreen;font-size:24px;"">Correct :)</p>","",""
"2618","key","n","n","16.67284076433157","500","250","psychophysics","298","655736","0.0-298.0","5ade6f4709eae2000112e9e2","6213d2cb9af98c3cd3476cb9","6","","","","","0","6"
"null","","","null","","","","html-keyboard-response","299","656237","0.0-299.0","5ade6f4709eae2000112e9e2","6213d2cb9af98c3cd3476cb9","","","","","<p style=""color:darkgreen;font-size:24px;"">Correct :)</p>","",""
"3456","key","v","v","16.672942028985503","500","250","psychophysics","300","659694","0.0-300.0","5ade6f4709eae2000112e9e2","6213d2cb9af98c3cd3476cb9","6","","","","","1","4"
"null","","","null","","","","html-keyboard-response","301","660196","0.0-301.0","5ade6f4709eae2000112e9e2","6213d2cb9af98c3cd3476cb9","","","","","<p style=""color:darkgreen;font-size:24px;"">Correct :)</p>","",""
"2735","key","n","n","16.67302439024419","500","250","psychophysics","302","662932","0.0-302.0","5ade6f4709eae2000112e9e2","6213d2cb9af98c3cd3476cb9","6","","","","","1","8"
"null","","","null","","","","html-keyboard-response","303","663433","0.0-303.0","5ade6f4709eae2000112e9e2","6213d2cb9af98c3cd3476cb9","","","","","<p style=""color:darkgreen;font-size:24px;"">Correct :)</p>","",""
"2555","key","n","n","16.672660130718295","500","250","psychophysics","304","665990","0.0-304.0","5ade6f4709eae2000112e9e2","6213d2cb9af98c3cd3476cb9","6","","","","","0","2"
"null","","","null","","","","html-keyboard-response","305","666506","0.0-305.0","5ade6f4709eae2000112e9e2","6213d2cb9af98c3cd3476cb9","","","","","<p style=""color:darkgreen;font-size:24px;"">Correct :)</p>","",""
"2669","key","n","n","16.673312500000613","500","250","psychophysics","306","669176","0.0-306.0","5ade6f4709eae2000112e9e2","6213d2cb9af98c3cd3476cb9","6","","","","","1","9"
"null","","","null","","","","html-keyboard-response","307","669677","0.0-307.0","5ade6f4709eae2000112e9e2","6213d2cb9af98c3cd3476cb9","","","","","<p style=""color:darkgreen;font-size:24px;"">Correct :)</p>","",""
"2479","key","n","n","16.67285234899332","500","250","psychophysics","308","672157","0.0-308.0","5ade6f4709eae2000112e9e2","6213d2cb9af98c3cd3476cb9","6","","","","","0","9"
"null","","","null","","","","html-keyboard-response","309","672658","0.0-309.0","5ade6f4709eae2000112e9e2","6213d2cb9af98c3cd3476cb9","","","","","<p style=""color:red;font-size:24px;"">Error :(</p>","",""
"2466","key","v","v","16.673033783783367","500","250","psychophysics","310","675126","0.0-310.0","5ade6f4709eae2000112e9e2","6213d2cb9af98c3cd3476cb9","6","","","","","1","3"
"null","","","null","","","","html-keyboard-response","311","675627","0.0-311.0","5ade6f4709eae2000112e9e2","6213d2cb9af98c3cd3476cb9","","","","","<p style=""color:darkgreen;font-size:24px;"">Correct :)</p>","",""
"2799","key","v","v","16.67288095238092","500","250","psychophysics","312","678427","0.0-312.0","5ade6f4709eae2000112e9e2","6213d2cb9af98c3cd3476cb9","6","","","","","0","9"
"null","","","null","","","","html-keyboard-response","313","678930","0.0-313.0","5ade6f4709eae2000112e9e2","6213d2cb9af98c3cd3476cb9","","","","","<p style=""color:darkgreen;font-size:24px;"">Correct :)</p>","",""
"2899","key","v","v","16.672816091953727","500","250","psychophysics","314","681831","0.0-314.0","5ade6f4709eae2000112e9e2","6213d2cb9af98c3cd3476cb9","6","","","","","1","4"
"null","","","null","","","","html-keyboard-response","315","682332","0.0-315.0","5ade6f4709eae2000112e9e2","6213d2cb9af98c3cd3476cb9","","","","","<p style=""color:darkgreen;font-size:24px;"">Correct :)</p>","",""
"2774","key","v","v","16.673113772455284","500","250","psychophysics","316","685109","0.0-316.0","5ade6f4709eae2000112e9e2","6213d2cb9af98c3cd3476cb9","6","","","","","0","2"
"null","","","null","","","","html-keyboard-response","317","685611","0.0-317.0","5ade6f4709eae2000112e9e2","6213d2cb9af98c3cd3476cb9","","","","","<p style=""color:red;font-size:24px;"">Error :(</p>","",""
"3107","key","n","n","16.672741935483895","500","250","psychophysics","318","688720","0.0-318.0","5ade6f4709eae2000112e9e2","6213d2cb9af98c3cd3476cb9","6","","","","","0","6"
"null","","","null","","","","html-keyboard-response","319","689220","0.0-319.0","5ade6f4709eae2000112e9e2","6213d2cb9af98c3cd3476cb9","","","","","<p style=""color:darkgreen;font-size:24px;"">Correct :)</p>","",""
"2626","key","v","v","16.673075949367213","500","250","psychophysics","320","691847","0.0-320.0","5ade6f4709eae2000112e9e2","6213d2cb9af98c3cd3476cb9","6","","","","","1","4"
"null","","","null","","","","html-keyboard-response","321","692348","0.0-321.0","5ade6f4709eae2000112e9e2","6213d2cb9af98c3cd3476cb9","","","","","<p style=""color:darkgreen;font-size:24px;"">Correct :)</p>","",""
"3228","key","n","n","16.673757731958926","500","250","psychophysics","322","695578","0.0-322.0","5ade6f4709eae2000112e9e2","6213d2cb9af98c3cd3476cb9","6","","","","","1","6"
"null","","","null","","","","html-keyboard-response","323","696079","0.0-323.0","5ade6f4709eae2000112e9e2","6213d2cb9af98c3cd3476cb9","","","","","<p style=""color:darkgreen;font-size:24px;"">Correct :)</p>","",""
"2593","key","n","n","16.67326451612922","500","250","psychophysics","324","698674","0.0-324.0","5ade6f4709eae2000112e9e2","6213d2cb9af98c3cd3476cb9","6","","","","","0","8"
"null","","","null","","","","html-keyboard-response","325","699175","0.0-325.0","5ade6f4709eae2000112e9e2","6213d2cb9af98c3cd3476cb9","","","","","<p style=""color:darkgreen;font-size:24px;"">Correct :)</p>","",""
"2840","key","v","v","16.771217647058588","500","250","psychophysics","326","702017","0.0-326.0","5ade6f4709eae2000112e9e2","6213d2cb9af98c3cd3476cb9","6","","","","","0","2"
"null","","","null","","","","html-keyboard-response","327","702519","0.0-327.0","5ade6f4709eae2000112e9e2","6213d2cb9af98c3cd3476cb9","","","","","<p style=""color:red;font-size:24px;"">Error :(</p>","",""
"2765","key","v","v","16.672861445782825","500","250","psychophysics","328","705286","0.0-328.0","5ade6f4709eae2000112e9e2","6213d2cb9af98c3cd3476cb9","6","","","","","1","3"
"null","","","null","","","","html-keyboard-response","329","705788","0.0-329.0","5ade6f4709eae2000112e9e2","6213d2cb9af98c3cd3476cb9","","","","","<p style=""color:darkgreen;font-size:24px;"">Correct :)</p>","",""
"3293","key","v","v","16.67340404040361","500","250","psychophysics","330","709083","0.0-330.0","5ade6f4709eae2000112e9e2","6213d2cb9af98c3cd3476cb9","6","","","","","1","2"
"null","","","null","","","","html-keyboard-response","331","709584","0.0-331.0","5ade6f4709eae2000112e9e2","6213d2cb9af98c3cd3476cb9","","","","","<p style=""color:darkgreen;font-size:24px;"">Correct :)</p>","",""
"3323","key","v","v","16.67298994974839","500","250","psychophysics","332","712909","0.0-332.0","5ade6f4709eae2000112e9e2","6213d2cb9af98c3cd3476cb9","6","","","","","0","7"
"null","","","null","","","","html-keyboard-response","333","713411","0.0-333.0","5ade6f4709eae2000112e9e2","6213d2cb9af98c3cd3476cb9","","","","","<p style=""color:darkgreen;font-size:24px;"">Correct :)</p>","",""
"3190","key","v","v","16.67340104166639","500","250","psychophysics","334","716603","0.0-334.0","5ade6f4709eae2000112e9e2","6213d2cb9af98c3cd3476cb9","6","","","","","1","2"
"null","","","null","","","","html-keyboard-response","335","717104","0.0-335.0","5ade6f4709eae2000112e9e2","6213d2cb9af98c3cd3476cb9","","","","","<p style=""color:darkgreen;font-size:24px;"">Correct :)</p>","",""
"2757","key","v","v","16.672351515152013","500","250","psychophysics","336","719863","0.0-336.0","5ade6f4709eae2000112e9e2","6213d2cb9af98c3cd3476cb9","6","","","","","0","1"
"null","","","null","","","","html-keyboard-response","337","720375","0.0-337.0","5ade6f4709eae2000112e9e2","6213d2cb9af98c3cd3476cb9","","","","","<p style=""color:darkgreen;font-size:24px;"">Correct :)</p>","",""
"2971","key","n","n","16.673853932584247","500","250","psychophysics","338","723348","0.0-338.0","5ade6f4709eae2000112e9e2","6213d2cb9af98c3cd3476cb9","6","","","","","0","8"
"null","","","null","","","","html-keyboard-response","339","723849","0.0-339.0","5ade6f4709eae2000112e9e2","6213d2cb9af98c3cd3476cb9","","","","","<p style=""color:darkgreen;font-size:24px;"">Correct :)</p>","",""
"2880","key","n","n","16.67312138728297","500","250","psychophysics","340","726731","0.0-340.0","5ade6f4709eae2000112e9e2","6213d2cb9af98c3cd3476cb9","6","","","","","0","6"
"null","","","null","","","","html-keyboard-response","341","727232","0.0-341.0","5ade6f4709eae2000112e9e2","6213d2cb9af98c3cd3476cb9","","","","","<p style=""color:darkgreen;font-size:24px;"">Correct :)</p>","",""
"2826","key","v","v","16.67292941176497","500","250","psychophysics","342","730060","0.0-342.0","5ade6f4709eae2000112e9e2","6213d2cb9af98c3cd3476cb9","6","","","","","1","2"
"null","","","null","","","","html-keyboard-response","343","730561","0.0-343.0","5ade6f4709eae2000112e9e2","6213d2cb9af98c3cd3476cb9","","","","","<p style=""color:darkgreen;font-size:24px;"">Correct :)</p>","",""
"2462","key","v","v","16.673472972972966","500","250","psychophysics","344","733024","0.0-344.0","5ade6f4709eae2000112e9e2","6213d2cb9af98c3cd3476cb9","6","","","","","1","3"
"null","","","null","","","","html-keyboard-response","345","733535","0.0-345.0","5ade6f4709eae2000112e9e2","6213d2cb9af98c3cd3476cb9","","","","","<p style=""color:darkgreen;font-size:24px;"">Correct :)</p>","",""
"2513","key","v","v","16.673284768211712","500","250","psychophysics","346","736050","0.0-346.0","5ade6f4709eae2000112e9e2","6213d2cb9af98c3cd3476cb9","6","","","","","0","1"
"null","","","null","","","","html-keyboard-response","347","736551","0.0-347.0","5ade6f4709eae2000112e9e2","6213d2cb9af98c3cd3476cb9","","","","","<p style=""color:darkgreen;font-size:24px;"">Correct :)</p>","",""
"2486","key","v","v","16.673060402685103","500","250","psychophysics","348","739039","0.0-348.0","5ade6f4709eae2000112e9e2","6213d2cb9af98c3cd3476cb9","6","","","","","0","1"
"null","","","null","","","","html-keyboard-response","349","739541","0.0-349.0","5ade6f4709eae2000112e9e2","6213d2cb9af98c3cd3476cb9","","","","","<p style=""color:darkgreen;font-size:24px;"">Correct :)</p>","",""
"2765","key","n","n","16.7745151515147","500","250","psychophysics","350","742307","0.0-350.0","5ade6f4709eae2000112e9e2","6213d2cb9af98c3cd3476cb9","6","","","","","0","2"
"null","","","null","","","","html-keyboard-response","351","742808","0.0-351.0","5ade6f4709eae2000112e9e2","6213d2cb9af98c3cd3476cb9","","","","","<p style=""color:darkgreen;font-size:24px;"">Correct :)</p>","",""
"2494","key","v","v","16.78497986577142","500","250","psychophysics","352","745304","0.0-352.0","5ade6f4709eae2000112e9e2","6213d2cb9af98c3cd3476cb9","6","","","","","1","4"
"null","","","null","","","","html-keyboard-response","353","745804","0.0-353.0","5ade6f4709eae2000112e9e2","6213d2cb9af98c3cd3476cb9","","","","","<p style=""color:darkgreen;font-size:24px;"">Correct :)</p>","",""
"2885","key","n","n","16.67309826589593","500","250","psychophysics","354","748690","0.0-354.0","5ade6f4709eae2000112e9e2","6213d2cb9af98c3cd3476cb9","6","","","","","1","8"
"null","","","null","","","","html-keyboard-response","355","749191","0.0-355.0","5ade6f4709eae2000112e9e2","6213d2cb9af98c3cd3476cb9","","","","","<p style=""color:darkgreen;font-size:24px;"">Correct :)</p>","",""
"2590","key","v","v","16.672576923077056","500","250","psychophysics","356","751783","0.0-356.0","5ade6f4709eae2000112e9e2","6213d2cb9af98c3cd3476cb9","6","","","","","0","7"
"null","","","null","","","","html-keyboard-response","357","752284","0.0-357.0","5ade6f4709eae2000112e9e2","6213d2cb9af98c3cd3476cb9","","","","","<p style=""color:darkgreen;font-size:24px;"">Correct :)</p>","",""
"2870","key","v","v","16.67309883720956","500","250","psychophysics","358","755156","0.0-358.0","5ade6f4709eae2000112e9e2","6213d2cb9af98c3cd3476cb9","6","","","","","1","1"
"null","","","null","","","","html-keyboard-response","359","755657","0.0-359.0","5ade6f4709eae2000112e9e2","6213d2cb9af98c3cd3476cb9","","","","","<p style=""color:darkgreen;font-size:24px;"">Correct :)</p>","",""
"2987","key","n","n","16.67313966480495","500","250","psychophysics","360","758645","0.0-360.0","5ade6f4709eae2000112e9e2","6213d2cb9af98c3cd3476cb9","6","","","","","1","8"
"null","","","null","","","","html-keyboard-response","361","759146","0.0-361.0","5ade6f4709eae2000112e9e2","6213d2cb9af98c3cd3476cb9","","","","","<p style=""color:darkgreen;font-size:24px;"">Correct :)</p>","",""
"2949","key","v","v","16.673429378530663","500","250","psychophysics","362","762097","0.0-362.0","5ade6f4709eae2000112e9e2","6213d2cb9af98c3cd3476cb9","6","","","","","1","4"
"null","","","null","","","","html-keyboard-response","363","762599","0.0-363.0","5ade6f4709eae2000112e9e2","6213d2cb9af98c3cd3476cb9","","","","","<p style=""color:darkgreen;font-size:24px;"">Correct :)</p>","",""
"2808","key","v","v","16.77234523809498","500","250","psychophysics","364","765408","0.0-364.0","5ade6f4709eae2000112e9e2","6213d2cb9af98c3cd3476cb9","6","","","","","0","2"
"null","","","null","","","","html-keyboard-response","365","765910","0.0-365.0","5ade6f4709eae2000112e9e2","6213d2cb9af98c3cd3476cb9","","","","","<p style=""color:red;font-size:24px;"">Error :(</p>","",""
"2901","key","v","v","16.672999999999742","500","250","psychophysics","366","768812","0.0-366.0","5ade6f4709eae2000112e9e2","6213d2cb9af98c3cd3476cb9","6","","","","","0","7"
"null","","","null","","","","html-keyboard-response","367","769314","0.0-367.0","5ade6f4709eae2000112e9e2","6213d2cb9af98c3cd3476cb9","","","","","<p style=""color:darkgreen;font-size:24px;"">Correct :)</p>","",""
"2705","key","v","v","16.673154320987518","500","250","psychophysics","368","772021","0.0-368.0","5ade6f4709eae2000112e9e2","6213d2cb9af98c3cd3476cb9","6","","","","","0","9"
"null","","","null","","","","html-keyboard-response","369","772523","0.0-369.0","5ade6f4709eae2000112e9e2","6213d2cb9af98c3cd3476cb9","","","","","<p style=""color:darkgreen;font-size:24px;"">Correct :)</p>","",""
"3604","key","v","v","16.67312037037024","500","250","psychophysics","370","776129","0.0-370.0","5ade6f4709eae2000112e9e2","6213d2cb9af98c3cd3476cb9","6","","","","","0","7"
"null","","","null","","","","html-keyboard-response","371","776630","0.0-371.0","5ade6f4709eae2000112e9e2","6213d2cb9af98c3cd3476cb9","","","","","<p style=""color:darkgreen;font-size:24px;"">Correct :)</p>","",""
"2559","key","v","v","16.67340909090882","500","250","psychophysics","372","779191","0.0-372.0","5ade6f4709eae2000112e9e2","6213d2cb9af98c3cd3476cb9","6","","","","","0","9"
"null","","","null","","","","html-keyboard-response","373","779693","0.0-373.0","5ade6f4709eae2000112e9e2","6213d2cb9af98c3cd3476cb9","","","","","<p style=""color:darkgreen;font-size:24px;"">Correct :)</p>","",""
"2401","key","v","v","16.67254861111077","500","250","psychophysics","374","782096","0.0-374.0","5ade6f4709eae2000112e9e2","6213d2cb9af98c3cd3476cb9","6","","","","","0","3"
"null","","","null","","","","html-keyboard-response","375","782597","0.0-375.0","5ade6f4709eae2000112e9e2","6213d2cb9af98c3cd3476cb9","","","","","<p style=""color:darkgreen;font-size:24px;"">Correct :)</p>","",""
"2505","key","v","v","16.673160000000305","500","250","psychophysics","376","785106","0.0-376.0","5ade6f4709eae2000112e9e2","6213d2cb9af98c3cd3476cb9","6","","","","","1","4"
"null","","","null","","","","html-keyboard-response","377","785607","0.0-377.0","5ade6f4709eae2000112e9e2","6213d2cb9af98c3cd3476cb9","","","","","<p style=""color:darkgreen;font-size:24px;"">Correct :)</p>","",""
"2537","key","v","v","16.673470588235087","500","250","psychophysics","378","788147","0.0-378.0","5ade6f4709eae2000112e9e2","6213d2cb9af98c3cd3476cb9","6","","","","","0","1"
"null","","","null","","","","html-keyboard-response","379","788650","0.0-379.0","5ade6f4709eae2000112e9e2","6213d2cb9af98c3cd3476cb9","","","","","<p style=""color:darkgreen;font-size:24px;"">Correct :)</p>","",""
"2649","key","v","v","16.672383647798647","500","250","psychophysics","380","791301","0.0-380.0","5ade6f4709eae2000112e9e2","6213d2cb9af98c3cd3476cb9","6","","","","","1","6"
"null","","","null","","","","html-keyboard-response","381","791803","0.0-381.0","5ade6f4709eae2000112e9e2","6213d2cb9af98c3cd3476cb9","","","","","<p style=""color:red;font-size:24px;"">Error :(</p>","",""
"3046","key","n","n","16.673480874316798","500","250","psychophysics","382","794850","0.0-382.0","5ade6f4709eae2000112e9e2","6213d2cb9af98c3cd3476cb9","6","","","","","0","8"
"null","","","null","","","","html-keyboard-response","383","795350","0.0-383.0","5ade6f4709eae2000112e9e2","6213d2cb9af98c3cd3476cb9","","","","","<p style=""color:darkgreen;font-size:24px;"">Correct :)</p>","",""
"2505","key","v","v","16.673819999999832","500","250","psychophysics","384","797857","0.0-384.0","5ade6f4709eae2000112e9e2","6213d2cb9af98c3cd3476cb9","6","","","","","0","3"
"null","","","null","","","","html-keyboard-response","385","798358","0.0-385.0","5ade6f4709eae2000112e9e2","6213d2cb9af98c3cd3476cb9","","","","","<p style=""color:darkgreen;font-size:24px;"">Correct :)</p>","",""
"2979","key","n","n","16.67349720670381","500","250","psychophysics","386","801338","0.0-386.0","5ade6f4709eae2000112e9e2","6213d2cb9af98c3cd3476cb9","6","","","","","0","4"
"null","","","null","","","","html-keyboard-response","387","801839","0.0-387.0","5ade6f4709eae2000112e9e2","6213d2cb9af98c3cd3476cb9","","","","","<p style=""color:darkgreen;font-size:24px;"">Correct :)</p>","",""
"2666","key","v","v","16.672493750000285","500","250","psychophysics","388","804507","0.0-388.0","5ade6f4709eae2000112e9e2","6213d2cb9af98c3cd3476cb9","6","","","","","0","1"
"null","","","null","","","","html-keyboard-response","389","805008","0.0-389.0","5ade6f4709eae2000112e9e2","6213d2cb9af98c3cd3476cb9","","","","","<p style=""color:darkgreen;font-size:24px;"">Correct :)</p>","",""
"2568","key","n","n","16.6730519480521","500","250","psychophysics","390","807577","0.0-390.0","5ade6f4709eae2000112e9e2","6213d2cb9af98c3cd3476cb9","6","","","","","0","2"
"null","","","null","","","","html-keyboard-response","391","808078","0.0-391.0","5ade6f4709eae2000112e9e2","6213d2cb9af98c3cd3476cb9","","","","","<p style=""color:darkgreen;font-size:24px;"">Correct :)</p>","",""
"2645","key","n","n","16.673094339623358","500","250","psychophysics","392","810725","0.0-392.0","5ade6f4709eae2000112e9e2","6213d2cb9af98c3cd3476cb9","6","","","","","1","6"
"null","","","null","","","","html-keyboard-response","393","811225","0.0-393.0","5ade6f4709eae2000112e9e2","6213d2cb9af98c3cd3476cb9","","","","","<p style=""color:darkgreen;font-size:24px;"">Correct :)</p>","",""
"2505","key","v","v","16.67273999999976","500","250","psychophysics","394","813732","0.0-394.0","5ade6f4709eae2000112e9e2","6213d2cb9af98c3cd3476cb9","6","","","","","0","3"
"null","","","null","","","","html-keyboard-response","395","814233","0.0-395.0","5ade6f4709eae2000112e9e2","6213d2cb9af98c3cd3476cb9","","","","","<p style=""color:darkgreen;font-size:24px;"">Correct :)</p>","",""
"9152","","","n","","","","html-keyboard-response","396","823386","0.0-396.0","5ade6f4709eae2000112e9e2","6213d2cb9af98c3cd3476cb9","","","","","<p> Last set of trials.  Here, the tasks are going to switch once again.  We are going to do 50 of these.  And then you are done with the experiment.  </p>  <br><br>  Ready? (press v or n)","",""
"3427","key","v","v","16.67298543689325","500","250","psychophysics","397","826814","0.0-397.0","5ade6f4709eae2000112e9e2","6213d2cb9af98c3cd3476cb9","7","","","","","0","7"
"null","","","null","","","","html-keyboard-response","398","827315","0.0-398.0","5ade6f4709eae2000112e9e2","6213d2cb9af98c3cd3476cb9","","","","","<p style=""color:darkgreen;font-size:24px;"">Correct :)</p>","",""
"3103","key","v","v","16.673064516128733","500","250","psychophysics","399","830419","0.0-399.0","5ade6f4709eae2000112e9e2","6213d2cb9af98c3cd3476cb9","7","","","","","1","4"
"null","","","null","","","","html-keyboard-response","400","830920","0.0-400.0","5ade6f4709eae2000112e9e2","6213d2cb9af98c3cd3476cb9","","","","","<p style=""color:darkgreen;font-size:24px;"">Correct :)</p>","",""
"5171","key","v","v","21.35807851239681","500","250","psychophysics","401","836094","0.0-401.0","5ade6f4709eae2000112e9e2","6213d2cb9af98c3cd3476cb9","7","","","","","1","1"
"null","","","null","","","","html-keyboard-response","402","836596","0.0-402.0","5ade6f4709eae2000112e9e2","6213d2cb9af98c3cd3476cb9","","","","","<p style=""color:darkgreen;font-size:24px;"">Correct :)</p>","",""
"5484","key","n","n","33.967236024844574","500","250","psychophysics","403","842081","0.0-403.0","5ade6f4709eae2000112e9e2","6213d2cb9af98c3cd3476cb9","7","","","","","0","6"
"null","","","null","","","","html-keyboard-response","404","842583","0.0-404.0","5ade6f4709eae2000112e9e2","6213d2cb9af98c3cd3476cb9","","","","","<p style=""color:darkgreen;font-size:24px;"">Correct :)</p>","",""
"2605","key","n","n","16.673480769231293","500","250","psychophysics","405","845190","0.0-405.0","5ade6f4709eae2000112e9e2","6213d2cb9af98c3cd3476cb9","7","","","","","0","6"
"null","","","null","","","","html-keyboard-response","406","845691","0.0-406.0","5ade6f4709eae2000112e9e2","6213d2cb9af98c3cd3476cb9","","","","","<p style=""color:darkgreen;font-size:24px;"">Correct :)</p>","",""
"2364","key","v","v","16.672859154929387","500","250","psychophysics","407","848057","0.0-407.0","5ade6f4709eae2000112e9e2","6213d2cb9af98c3cd3476cb9","7","","","","","0","7"
"null","","","null","","","","html-keyboard-response","408","848563","0.0-408.0","5ade6f4709eae2000112e9e2","6213d2cb9af98c3cd3476cb9","","","","","<p style=""color:darkgreen;font-size:24px;"">Correct :)</p>","",""
"2408","key","v","v","16.672882758621288","500","250","psychophysics","409","850973","0.0-409.0","5ade6f4709eae2000112e9e2","6213d2cb9af98c3cd3476cb9","7","","","","","1","1"
"null","","","null","","","","html-keyboard-response","410","851473","0.0-410.0","5ade6f4709eae2000112e9e2","6213d2cb9af98c3cd3476cb9","","","","","<p style=""color:darkgreen;font-size:24px;"">Correct :)</p>","",""
"2508","key","n","n","16.673293333333763","500","250","psychophysics","411","853983","0.0-411.0","5ade6f4709eae2000112e9e2","6213d2cb9af98c3cd3476cb9","7","","","","","0","2"
"null","","","null","","","","html-keyboard-response","412","854484","0.0-412.0","5ade6f4709eae2000112e9e2","6213d2cb9af98c3cd3476cb9","","","","","<p style=""color:darkgreen;font-size:24px;"">Correct :)</p>","",""
"2627","key","v","v","16.779254777070022","500","250","psychophysics","413","857112","0.0-413.0","5ade6f4709eae2000112e9e2","6213d2cb9af98c3cd3476cb9","7","","","","","0","7"
"null","","","null","","","","html-keyboard-response","414","857614","0.0-414.0","5ade6f4709eae2000112e9e2","6213d2cb9af98c3cd3476cb9","","","","","<p style=""color:darkgreen;font-size:24px;"">Correct :)</p>","",""
"2910","key","n","n","16.672879999999754","500","250","psychophysics","415","860526","0.0-415.0","5ade6f4709eae2000112e9e2","6213d2cb9af98c3cd3476cb9","7","","","","","1","7"
"null","","","null","","","","html-keyboard-response","416","861027","0.0-416.0","5ade6f4709eae2000112e9e2","6213d2cb9af98c3cd3476cb9","","","","","<p style=""color:darkgreen;font-size:24px;"">Correct :)</p>","",""
"2957","key","n","n","16.672802259887064","500","250","psychophysics","417","863985","0.0-417.0","5ade6f4709eae2000112e9e2","6213d2cb9af98c3cd3476cb9","7","","","","","1","6"
"null","","","null","","","","html-keyboard-response","418","864487","0.0-418.0","5ade6f4709eae2000112e9e2","6213d2cb9af98c3cd3476cb9","","","","","<p style=""color:darkgreen;font-size:24px;"">Correct :)</p>","",""
"2618","key","v","v","16.673318471337645","500","250","psychophysics","419","867107","0.0-419.0","5ade6f4709eae2000112e9e2","6213d2cb9af98c3cd3476cb9","7","","","","","1","1"
"null","","","null","","","","html-keyboard-response","420","867608","0.0-420.0","5ade6f4709eae2000112e9e2","6213d2cb9af98c3cd3476cb9","","","","","<p style=""color:darkgreen;font-size:24px;"">Correct :)</p>","",""
"2891","key","n","n","16.67294219653176","500","250","psychophysics","421","870501","0.0-421.0","5ade6f4709eae2000112e9e2","6213d2cb9af98c3cd3476cb9","7","","","","","0","2"
"null","","","null","","","","html-keyboard-response","422","871002","0.0-422.0","5ade6f4709eae2000112e9e2","6213d2cb9af98c3cd3476cb9","","","","","<p style=""color:darkgreen;font-size:24px;"">Correct :)</p>","",""
"3138","key","v","v","16.67271808510649","500","250","psychophysics","423","874141","0.0-423.0","5ade6f4709eae2000112e9e2","6213d2cb9af98c3cd3476cb9","7","","","","","1","4"
"null","","","null","","","","html-keyboard-response","424","874643","0.0-424.0","5ade6f4709eae2000112e9e2","6213d2cb9af98c3cd3476cb9","","","","","<p style=""color:darkgreen;font-size:24px;"">Correct :)</p>","",""
"2564","key","v","v","16.672339869281156","500","250","psychophysics","425","877209","0.0-425.0","5ade6f4709eae2000112e9e2","6213d2cb9af98c3cd3476cb9","7","","","","","1","1"
"null","","","null","","","","html-keyboard-response","426","877710","0.0-426.0","5ade6f4709eae2000112e9e2","6213d2cb9af98c3cd3476cb9","","","","","<p style=""color:darkgreen;font-size:24px;"">Correct :)</p>","",""
"2956","key","n","n","16.767254237288157","500","250","psychophysics","427","880668","0.0-427.0","5ade6f4709eae2000112e9e2","6213d2cb9af98c3cd3476cb9","7","","","","","1","2"
"null","","","null","","","","html-keyboard-response","428","881169","0.0-428.0","5ade6f4709eae2000112e9e2","6213d2cb9af98c3cd3476cb9","","","","","<p style=""color:red;font-size:24px;"">Error :(</p>","",""
"3252","key","v","v","16.672958974359343","500","250","psychophysics","429","884423","0.0-429.0","5ade6f4709eae2000112e9e2","6213d2cb9af98c3cd3476cb9","7","","","","","1","4"
"null","","","null","","","","html-keyboard-response","430","884924","0.0-430.0","5ade6f4709eae2000112e9e2","6213d2cb9af98c3cd3476cb9","","","","","<p style=""color:darkgreen;font-size:24px;"">Correct :)</p>","",""
"2742","key","v","v","16.67346666666651","500","250","psychophysics","431","887668","0.0-431.0","5ade6f4709eae2000112e9e2","6213d2cb9af98c3cd3476cb9","7","","","","","0","3"
"null","","","null","","","","html-keyboard-response","432","888170","0.0-432.0","5ade6f4709eae2000112e9e2","6213d2cb9af98c3cd3476cb9","","","","","<p style=""color:darkgreen;font-size:24px;"">Correct :)</p>","",""
"2788","key","n","n","16.67298802395259","500","250","psychophysics","433","890960","0.0-433.0","5ade6f4709eae2000112e9e2","6213d2cb9af98c3cd3476cb9","7","","","","","1","6"
"null","","","null","","","","html-keyboard-response","434","891461","0.0-434.0","5ade6f4709eae2000112e9e2","6213d2cb9af98c3cd3476cb9","","","","","<p style=""color:darkgreen;font-size:24px;"">Correct :)</p>","",""
"2946","key","n","n","16.673000000000243","500","250","psychophysics","435","894409","0.0-435.0","5ade6f4709eae2000112e9e2","6213d2cb9af98c3cd3476cb9","7","","","","","1","6"
"null","","","null","","","","html-keyboard-response","436","894910","0.0-436.0","5ade6f4709eae2000112e9e2","6213d2cb9af98c3cd3476cb9","","","","","<p style=""color:darkgreen;font-size:24px;"">Correct :)</p>","",""
"3147","key","v","v","16.673058201058733","500","250","psychophysics","437","898059","0.0-437.0","5ade6f4709eae2000112e9e2","6213d2cb9af98c3cd3476cb9","7","","","","","1","4"
"null","","","null","","","","html-keyboard-response","438","898562","0.0-438.0","5ade6f4709eae2000112e9e2","6213d2cb9af98c3cd3476cb9","","","","","<p style=""color:darkgreen;font-size:24px;"">Correct :)</p>","",""
"2642","key","n","n","16.672779874213525","500","250","psychophysics","439","901206","0.0-439.0","5ade6f4709eae2000112e9e2","6213d2cb9af98c3cd3476cb9","7","","","","","1","7"
"null","","","null","","","","html-keyboard-response","440","901707","0.0-440.0","5ade6f4709eae2000112e9e2","6213d2cb9af98c3cd3476cb9","","","","","<p style=""color:darkgreen;font-size:24px;"">Correct :)</p>","",""
"2801","key","v","v","16.6729880952383","500","250","psychophysics","441","904509","0.0-441.0","5ade6f4709eae2000112e9e2","6213d2cb9af98c3cd3476cb9","7","","","","","1","3"
"null","","","null","","","","html-keyboard-response","442","905010","0.0-442.0","5ade6f4709eae2000112e9e2","6213d2cb9af98c3cd3476cb9","","","","","<p style=""color:darkgreen;font-size:24px;"">Correct :)</p>","",""
"2738","key","v","v","16.672750000000033","500","250","psychophysics","443","907750","0.0-443.0","5ade6f4709eae2000112e9e2","6213d2cb9af98c3cd3476cb9","7","","","","","0","3"
"null","","","null","","","","html-keyboard-response","444","908263","0.0-444.0","5ade6f4709eae2000112e9e2","6213d2cb9af98c3cd3476cb9","","","","","<p style=""color:darkgreen;font-size:24px;"">Correct :)</p>","",""
"2662","key","v","v","16.67328750000015","500","250","psychophysics","445","910927","0.0-445.0","5ade6f4709eae2000112e9e2","6213d2cb9af98c3cd3476cb9","7","","","","","0","2"
"null","","","null","","","","html-keyboard-response","446","911428","0.0-446.0","5ade6f4709eae2000112e9e2","6213d2cb9af98c3cd3476cb9","","","","","<p style=""color:red;font-size:24px;"">Error :(</p>","",""
"2844","key","n","n","16.67256470588241","500","250","psychophysics","447","914274","0.0-447.0","5ade6f4709eae2000112e9e2","6213d2cb9af98c3cd3476cb9","7","","","","","0","6"
"null","","","null","","","","html-keyboard-response","448","914785","0.0-448.0","5ade6f4709eae2000112e9e2","6213d2cb9af98c3cd3476cb9","","","","","<p style=""color:darkgreen;font-size:24px;"">Correct :)</p>","",""
"2932","key","n","n","16.67274999999989","500","250","psychophysics","449","917719","0.0-449.0","5ade6f4709eae2000112e9e2","6213d2cb9af98c3cd3476cb9","7","","","","","0","6"
"null","","","null","","","","html-keyboard-response","450","918220","0.0-450.0","5ade6f4709eae2000112e9e2","6213d2cb9af98c3cd3476cb9","","","","","<p style=""color:darkgreen;font-size:24px;"">Correct :)</p>","",""
"3348","key","n","n","16.67294527363178","500","250","psychophysics","451","921570","0.0-451.0","5ade6f4709eae2000112e9e2","6213d2cb9af98c3cd3476cb9","7","","","","","0","4"
"null","","","null","","","","html-keyboard-response","452","922071","0.0-452.0","5ade6f4709eae2000112e9e2","6213d2cb9af98c3cd3476cb9","","","","","<p style=""color:darkgreen;font-size:24px;"">Correct :)</p>","",""
"2922","key","v","v","16.67254857142855","500","250","psychophysics","453","924995","0.0-453.0","5ade6f4709eae2000112e9e2","6213d2cb9af98c3cd3476cb9","7","","","","","1","2"
"null","","","null","","","","html-keyboard-response","454","925497","0.0-454.0","5ade6f4709eae2000112e9e2","6213d2cb9af98c3cd3476cb9","","","","","<p style=""color:darkgreen;font-size:24px;"">Correct :)</p>","",""
"3105","key","v","v","16.673284946236713","500","250","psychophysics","455","928605","0.0-455.0","5ade6f4709eae2000112e9e2","6213d2cb9af98c3cd3476cb9","7","","","","","0","1"
"null","","","null","","","","html-keyboard-response","456","929110","0.0-456.0","5ade6f4709eae2000112e9e2","6213d2cb9af98c3cd3476cb9","","","","","<p style=""color:darkgreen;font-size:24px;"">Correct :)</p>","",""
"2690","key","v","v","16.67306790123464","500","250","psychophysics","457","931802","0.0-457.0","5ade6f4709eae2000112e9e2","6213d2cb9af98c3cd3476cb9","7","","","","","0","3"
"null","","","null","","","","html-keyboard-response","458","932304","0.0-458.0","5ade6f4709eae2000112e9e2","6213d2cb9af98c3cd3476cb9","","","","","<p style=""color:darkgreen;font-size:24px;"">Correct :)</p>","",""
"2831","key","n","n","16.67307647058795","500","250","psychophysics","459","935137","0.0-459.0","5ade6f4709eae2000112e9e2","6213d2cb9af98c3cd3476cb9","7","","","","","0","2"
"null","","","null","","","","html-keyboard-response","460","935637","0.0-460.0","5ade6f4709eae2000112e9e2","6213d2cb9af98c3cd3476cb9","","","","","<p style=""color:darkgreen;font-size:24px;"">Correct :)</p>","",""
"3006","key","v","v","16.672805555555453","500","250","psychophysics","461","938645","0.0-461.0","5ade6f4709eae2000112e9e2","6213d2cb9af98c3cd3476cb9","7","","","","","0","3"
"null","","","null","","","","html-keyboard-response","462","939146","0.0-462.0","5ade6f4709eae2000112e9e2","6213d2cb9af98c3cd3476cb9","","","","","<p style=""color:darkgreen;font-size:24px;"">Correct :)</p>","",""
"3041","key","v","v","16.672736263736073","500","250","psychophysics","463","942190","0.0-463.0","5ade6f4709eae2000112e9e2","6213d2cb9af98c3cd3476cb9","7","","","","","1","4"
"null","","","null","","","","html-keyboard-response","464","942691","0.0-464.0","5ade6f4709eae2000112e9e2","6213d2cb9af98c3cd3476cb9","","","","","<p style=""color:darkgreen;font-size:24px;"">Correct :)</p>","",""
"3158","key","v","v","16.67288888888877","500","250","psychophysics","465","945851","0.0-465.0","5ade6f4709eae2000112e9e2","6213d2cb9af98c3cd3476cb9","7","","","","","1","2"
"null","","","null","","","","html-keyboard-response","466","946352","0.0-466.0","5ade6f4709eae2000112e9e2","6213d2cb9af98c3cd3476cb9","","","","","<p style=""color:darkgreen;font-size:24px;"">Correct :)</p>","",""
"2625","key","v","v","16.77926751592339","500","250","psychophysics","467","948980","0.0-467.0","5ade6f4709eae2000112e9e2","6213d2cb9af98c3cd3476cb9","7","","","","","1","1"
"null","","","null","","","","html-keyboard-response","468","949480","0.0-468.0","5ade6f4709eae2000112e9e2","6213d2cb9af98c3cd3476cb9","","","","","<p style=""color:darkgreen;font-size:24px;"">Correct :)</p>","",""
"2926","key","n","n","16.67274999999989","500","250","psychophysics","469","952408","0.0-469.0","5ade6f4709eae2000112e9e2","6213d2cb9af98c3cd3476cb9","7","","","","","1","7"
"null","","","null","","","","html-keyboard-response","470","952909","0.0-470.0","5ade6f4709eae2000112e9e2","6213d2cb9af98c3cd3476cb9","","","","","<p style=""color:darkgreen;font-size:24px;"">Correct :)</p>","",""
"2490","key","n","n","16.673241610738025","500","250","psychophysics","471","955401","0.0-471.0","5ade6f4709eae2000112e9e2","6213d2cb9af98c3cd3476cb9","7","","","","","1","7"
"null","","","null","","","","html-keyboard-response","472","955902","0.0-472.0","5ade6f4709eae2000112e9e2","6213d2cb9af98c3cd3476cb9","","","","","<p style=""color:darkgreen;font-size:24px;"">Correct :)</p>","",""
"2557","key","v","v","16.672422077921794","500","250","psychophysics","473","958461","0.0-473.0","5ade6f4709eae2000112e9e2","6213d2cb9af98c3cd3476cb9","7","","","","","1","1"
"null","","","null","","","","html-keyboard-response","474","958962","0.0-474.0","5ade6f4709eae2000112e9e2","6213d2cb9af98c3cd3476cb9","","","","","<p style=""color:darkgreen;font-size:24px;"">Correct :)</p>","",""
"2539","key","v","v","16.67336184210542","500","250","psychophysics","475","961503","0.0-475.0","5ade6f4709eae2000112e9e2","6213d2cb9af98c3cd3476cb9","7","","","","","0","1"
"null","","","null","","","","html-keyboard-response","476","962004","0.0-476.0","5ade6f4709eae2000112e9e2","6213d2cb9af98c3cd3476cb9","","","","","<p style=""color:darkgreen;font-size:24px;"">Correct :)</p>","",""
"2682","key","n","n","16.672608695652404","500","250","psychophysics","477","964688","0.0-477.0","5ade6f4709eae2000112e9e2","6213d2cb9af98c3cd3476cb9","7","","","","","1","7"
"null","","","null","","","","html-keyboard-response","478","965188","0.0-478.0","5ade6f4709eae2000112e9e2","6213d2cb9af98c3cd3476cb9","","","","","<p style=""color:darkgreen;font-size:24px;"">Correct :)</p>","",""
"3025","key","v","v","16.673071428571806","500","250","psychophysics","479","968215","0.0-479.0","5ade6f4709eae2000112e9e2","6213d2cb9af98c3cd3476cb9","7","","","","","0","3"
"null","","","null","","","","html-keyboard-response","480","968723","0.0-480.0","5ade6f4709eae2000112e9e2","6213d2cb9af98c3cd3476cb9","","","","","<p style=""color:darkgreen;font-size:24px;"">Correct :)</p>","",""
"2469","key","v","v","16.673040540541233","500","250","psychophysics","481","971194","0.0-481.0","5ade6f4709eae2000112e9e2","6213d2cb9af98c3cd3476cb9","7","","","","","0","1"
"null","","","null","","","","html-keyboard-response","482","971695","0.0-482.0","5ade6f4709eae2000112e9e2","6213d2cb9af98c3cd3476cb9","","","","","<p style=""color:darkgreen;font-size:24px;"">Correct :)</p>","",""
"2542","key","n","n","16.6731895424838","500","250","psychophysics","483","974239","0.0-483.0","5ade6f4709eae2000112e9e2","6213d2cb9af98c3cd3476cb9","7","","","","","0","2"
"null","","","null","","","","html-keyboard-response","484","974741","0.0-484.0","5ade6f4709eae2000112e9e2","6213d2cb9af98c3cd3476cb9","","","","","<p style=""color:darkgreen;font-size:24px;"">Correct :)</p>","",""
"2414","key","v","v","16.673034482758396","500","250","psychophysics","485","977157","0.0-485.0","5ade6f4709eae2000112e9e2","6213d2cb9af98c3cd3476cb9","7","","","","","0","1"
"null","","","null","","","","html-keyboard-response","486","977658","0.0-486.0","5ade6f4709eae2000112e9e2","6213d2cb9af98c3cd3476cb9","","","","","<p style=""color:darkgreen;font-size:24px;"">Correct :)</p>","",""
"2386","key","v","v","16.673181818181916","500","250","psychophysics","487","980046","0.0-487.0","5ade6f4709eae2000112e9e2","6213d2cb9af98c3cd3476cb9","7","","","","","1","2"
"null","","","null","","","","html-keyboard-response","488","980547","0.0-488.0","5ade6f4709eae2000112e9e2","6213d2cb9af98c3cd3476cb9","","","","","<p style=""color:darkgreen;font-size:24px;"">Correct :)</p>","",""
"2526","key","n","n","16.673039473684376","500","250","psychophysics","489","983074","0.0-489.0","5ade6f4709eae2000112e9e2","6213d2cb9af98c3cd3476cb9","7","","","","","0","6"
"null","","","null","","","","html-keyboard-response","490","983575","0.0-490.0","5ade6f4709eae2000112e9e2","6213d2cb9af98c3cd3476cb9","","","","","<p style=""color:darkgreen;font-size:24px;"">Correct :)</p>","",""
"3082","key","n","n","16.67287567567546","500","250","psychophysics","491","986658","0.0-491.0","5ade6f4709eae2000112e9e2","6213d2cb9af98c3cd3476cb9","7","","","","","1","6"
"null","","","null","","","","html-keyboard-response","492","987159","0.0-492.0","5ade6f4709eae2000112e9e2","6213d2cb9af98c3cd3476cb9","","","","","<p style=""color:darkgreen;font-size:24px;"">Correct :)</p>","",""
"3997","key","v","v","16.673045833333163","500","250","psychophysics","493","991158","0.0-493.0","5ade6f4709eae2000112e9e2","6213d2cb9af98c3cd3476cb9","7","","","","","0","2"
"null","","","null","","","","html-keyboard-response","494","991660","0.0-494.0","5ade6f4709eae2000112e9e2","6213d2cb9af98c3cd3476cb9","","","","","<p style=""color:red;font-size:24px;"">Error :(</p>","",""
"2735","key","n","n","16.672682926828955","500","250","psychophysics","495","994397","0.0-495.0","5ade6f4709eae2000112e9e2","6213d2cb9af98c3cd3476cb9","7","","","","","1","7"
"null","","","null","","","","html-keyboard-response","496","994898","0.0-496.0","5ade6f4709eae2000112e9e2","6213d2cb9af98c3cd3476cb9","","","","","<p style=""color:darkgreen;font-size:24px;"">Correct :)</p>","",""
