"rt","response_type","key_press","response","avg_frame_time","center_x","center_y","trial_type","trial_index","time_elapsed","internal_node_id","pid","sid","phase","guide","targ","resp","stimulus","is5","stim"
"3999","key"," "," ","17.091302127659574","500","250","psychophysics","0","4025","0.0-0.0","60fe4ee92d2a050caa391eb8","6213c917523e6fed07a1d209","","","","","","",""
"1658","key"," "," ","16.66524489795918","500","250","psychophysics","1","5689","0.0-1.0","60fe4ee92d2a050caa391eb8","6213c917523e6fed07a1d209","","","","","","",""
"1604","key"," "," ","16.66644791666667","500","250","psychophysics","2","7301","0.0-2.0","60fe4ee92d2a050caa391eb8","6213c917523e6fed07a1d209","","","","","","",""
"1266","key"," "," ","16.90073333333334","500","250","psychophysics","3","8575","0.0-3.0","60fe4ee92d2a050caa391eb8","6213c917523e6fed07a1d209","","","","","","",""
"3903","key"," "," ","16.884669565217393","500","250","psychophysics","4","12484","0.0-4.0","60fe4ee92d2a050caa391eb8","6213c917523e6fed07a1d209","","","","","","",""
"9668","key"," "," ","16.81133739130435","500","250","psychophysics","5","22158","0.0-5.0","60fe4ee92d2a050caa391eb8","6213c917523e6fed07a1d209","","","","","","",""
"3779","key"," "," ","16.661955555555565","500","250","psychophysics","6","25942","0.0-6.0","60fe4ee92d2a050caa391eb8","6213c917523e6fed07a1d209","","","","","","",""
"4710","key"," "," ","16.72499999999999","500","250","psychophysics","7","30656","0.0-7.0","60fe4ee92d2a050caa391eb8","6213c917523e6fed07a1d209","","","","","","",""
"5829","key"," "," ","16.81091304347827","500","250","psychophysics","8","36490","0.0-8.0","60fe4ee92d2a050caa391eb8","6213c917523e6fed07a1d209","0","0","45","43","","",""
"2961","key"," "," ","16.854625000000024","500","250","psychophysics","9","39456","0.0-9.0","60fe4ee92d2a050caa391eb8","6213c917523e6fed07a1d209","","","","","","",""
"4386","key"," "," ","16.73198467432951","500","250","psychophysics","10","43849","0.0-10.0","60fe4ee92d2a050caa391eb8","6213c917523e6fed07a1d209","","","","","","",""
"4117","key"," "," ","16.733951219512207","500","250","psychophysics","11","47974","0.0-11.0","60fe4ee92d2a050caa391eb8","6213c917523e6fed07a1d209","","","","","","",""
"1590","key"," "," ","16.666074468085075","500","250","psychophysics","12","49569","0.0-12.0","60fe4ee92d2a050caa391eb8","6213c917523e6fed07a1d209","","","","","","",""
"1761","key"," "," ","16.988339805825234","500","250","psychophysics","13","51334","0.0-13.0","60fe4ee92d2a050caa391eb8","6213c917523e6fed07a1d209","","","","","","",""
"3081","key"," "," ","16.66488648648649","500","250","psychophysics","14","54423","0.0-14.0","60fe4ee92d2a050caa391eb8","6213c917523e6fed07a1d209","","","","","","",""
"2679","key"," "," ","16.984378205128216","500","250","psychophysics","15","57106","0.0-15.0","60fe4ee92d2a050caa391eb8","6213c917523e6fed07a1d209","","","","","","",""
"3587","key"," "," ","16.98246445497628","500","250","psychophysics","16","60698","0.0-16.0","60fe4ee92d2a050caa391eb8","6213c917523e6fed07a1d209","","","","","","",""
"8333","key"," "," ","16.86867206477732","500","250","psychophysics","17","69039","0.0-17.0","60fe4ee92d2a050caa391eb8","6213c917523e6fed07a1d209","1","0","49","54","","",""
"5630","key"," "," ","16.91713554216868","500","250","psychophysics","18","74674","0.0-18.0","60fe4ee92d2a050caa391eb8","6213c917523e6fed07a1d209","1","5","60","60","","",""
"3933","key"," "," ","16.954588744588786","500","250","psychophysics","19","78613","0.0-19.0","60fe4ee92d2a050caa391eb8","6213c917523e6fed07a1d209","1","0","26","25","","",""
"5091","key"," "," ","16.83179139072848","500","250","psychophysics","20","83709","0.0-20.0","60fe4ee92d2a050caa391eb8","6213c917523e6fed07a1d209","1","5","34","32","","",""
"5079","key"," "," ","16.666226973684246","500","250","psychophysics","21","88791","0.0-21.0","60fe4ee92d2a050caa391eb8","6213c917523e6fed07a1d209","1","0","31","30","","",""
"3366","key"," "," ","16.664915000000036","500","250","psychophysics","22","92162","0.0-22.0","60fe4ee92d2a050caa391eb8","6213c917523e6fed07a1d209","1","5","48","52","","",""
"3498","key"," "," ","16.988570048309207","500","250","psychophysics","23","95672","0.0-23.0","60fe4ee92d2a050caa391eb8","6213c917523e6fed07a1d209","1","0","26","27","","",""
"3378","key"," "," ","16.750109999999985","500","250","psychophysics","24","99056","0.0-24.0","60fe4ee92d2a050caa391eb8","6213c917523e6fed07a1d209","1","5","30","28","","",""
"5094","key"," "," ","16.72044262295082","500","250","psychophysics","25","104154","0.0-25.0","60fe4ee92d2a050caa391eb8","6213c917523e6fed07a1d209","1","0","41","42","","",""
"4458","key"," "," ","16.72910566037737","500","250","psychophysics","26","108617","0.0-26.0","60fe4ee92d2a050caa391eb8","6213c917523e6fed07a1d209","1","5","45","46","","",""
"4639","key"," "," ","16.78605755395685","500","250","psychophysics","27","113286","0.0-27.0","60fe4ee92d2a050caa391eb8","6213c917523e6fed07a1d209","1","0","42","47","","",""
"4378","key"," "," ","16.72938314176242","500","250","psychophysics","28","117668","0.0-28.0","60fe4ee92d2a050caa391eb8","6213c917523e6fed07a1d209","1","5","25","27","","",""
"3386","key"," "," ","16.74892039801","500","250","psychophysics","29","121059","0.0-29.0","60fe4ee92d2a050caa391eb8","6213c917523e6fed07a1d209","1","0","22","25","","",""
"4959","key"," "," ","16.779142372881335","500","250","psychophysics","30","126028","0.0-30.0","60fe4ee92d2a050caa391eb8","6213c917523e6fed07a1d209","1","5","33","34","","",""
"3630","key"," "," ","16.74292129629632","500","250","psychophysics","31","129662","0.0-31.0","60fe4ee92d2a050caa391eb8","6213c917523e6fed07a1d209","1","0","32","30","","",""
"3115","key"," "," ","16.665411764705887","500","250","psychophysics","32","132785","0.0-32.0","60fe4ee92d2a050caa391eb8","6213c917523e6fed07a1d209","1","5","21","23","","",""
"4345","key"," "," ","16.730216216216174","500","250","psychophysics","33","137134","0.0-33.0","60fe4ee92d2a050caa391eb8","6213c917523e6fed07a1d209","1","0","20","22","","",""
"4681","key"," "," ","16.78530935251806","500","250","psychophysics","34","141819","0.0-34.0","60fe4ee92d2a050caa391eb8","6213c917523e6fed07a1d209","1","5","44","51","","",""
"6304","key"," "," ","16.711327127659505","500","250","psychophysics","35","148127","0.0-35.0","60fe4ee92d2a050caa391eb8","6213c917523e6fed07a1d209","1","0","29","28","","",""
"5863","key"," "," ","16.666708571428565","500","250","psychophysics","36","153994","0.0-36.0","60fe4ee92d2a050caa391eb8","6213c917523e6fed07a1d209","1","5","51","52","","",""
"2404","key"," "," ","16.666096551724156","500","250","psychophysics","37","156407","0.0-37.0","60fe4ee92d2a050caa391eb8","6213c917523e6fed07a1d209","","","","","","",""
"2995","key"," "," ","16.7602584269663","500","250","psychophysics","38","159406","0.0-38.0","60fe4ee92d2a050caa391eb8","6213c917523e6fed07a1d209","","","","","","",""
"1975","key"," "," ","16.665711864406813","500","250","psychophysics","39","161385","0.0-39.0","60fe4ee92d2a050caa391eb8","6213c917523e6fed07a1d209","","","","","","",""
"4210","key"," "," ","16.73078087649405","500","250","psychophysics","40","165600","0.0-40.0","60fe4ee92d2a050caa391eb8","6213c917523e6fed07a1d209","2","0","31","35","","",""
"2287","key"," "," ","16.665757352941","500","250","psychophysics","41","167891","0.0-41.0","60fe4ee92d2a050caa391eb8","6213c917523e6fed07a1d209","","","","","","",""
"5013","key"," "," ","16.72209698996648","500","250","psychophysics","42","172909","0.0-42.0","60fe4ee92d2a050caa391eb8","6213c917523e6fed07a1d209","2","0","33","33","","",""
"1464","key"," "," ","17.057070588235238","500","250","psychophysics","43","174381","0.0-43.0","60fe4ee92d2a050caa391eb8","6213c917523e6fed07a1d209","","","","","","",""
"6742","key"," "," ","16.70726054590574","500","250","psychophysics","44","181128","0.0-44.0","60fe4ee92d2a050caa391eb8","6213c917523e6fed07a1d209","2","0","54","59","","",""
"1501","key"," "," ","16.664233333333524","500","250","psychophysics","45","182633","0.0-45.0","60fe4ee92d2a050caa391eb8","6213c917523e6fed07a1d209","","","","","","",""
"4748","key"," "," ","16.904328571428568","500","250","psychophysics","46","187385","0.0-46.0","60fe4ee92d2a050caa391eb8","6213c917523e6fed07a1d209","2","0","29","31","","",""
"1548","key"," "," ","16.84547252747279","500","250","psychophysics","47","188937","0.0-47.0","60fe4ee92d2a050caa391eb8","6213c917523e6fed07a1d209","","","","","","",""
"5235","key"," "," ","16.882071197410994","500","250","psychophysics","48","194177","0.0-48.0","60fe4ee92d2a050caa391eb8","6213c917523e6fed07a1d209","2","0","52","55","","",""
"1100","key"," "," ","16.929218750000018","500","250","psychophysics","49","195283","0.0-49.0","60fe4ee92d2a050caa391eb8","6213c917523e6fed07a1d209","","","","","","",""
"6451","key"," "," ","16.709559585492265","500","250","psychophysics","50","201739","0.0-50.0","60fe4ee92d2a050caa391eb8","6213c917523e6fed07a1d209","2","0","49","52","","",""
"1340","key"," "," ","16.667312499999753","500","250","psychophysics","51","203083","0.0-51.0","60fe4ee92d2a050caa391eb8","6213c917523e6fed07a1d209","","","","","","",""
"4339","key"," "," ","16.66604633204631","500","250","psychophysics","52","207427","0.0-52.0","60fe4ee92d2a050caa391eb8","6213c917523e6fed07a1d209","2","0","59","55","","",""
"1363","key"," "," ","16.66720987654314","500","250","psychophysics","53","208797","0.0-53.0","60fe4ee92d2a050caa391eb8","6213c917523e6fed07a1d209","","","","","","",""
"5098","key"," "," ","16.77809868421058","500","250","psychophysics","54","213900","0.0-54.0","60fe4ee92d2a050caa391eb8","6213c917523e6fed07a1d209","2","0","50","50","","",""
"1192","key"," "," ","16.907318840579862","500","250","psychophysics","55","215097","0.0-55.0","60fe4ee92d2a050caa391eb8","6213c917523e6fed07a1d209","","","","","","",""
"3777","key"," "," ","16.89004910714279","500","250","psychophysics","56","218883","0.0-56.0","60fe4ee92d2a050caa391eb8","6213c917523e6fed07a1d209","2","0","21","23","","",""
"1005","key"," "," ","16.95603448275882","500","250","psychophysics","57","219892","0.0-57.0","60fe4ee92d2a050caa391eb8","6213c917523e6fed07a1d209","","","","","","",""
"4653","key"," "," ","16.726263537906096","500","250","psychophysics","58","224553","0.0-58.0","60fe4ee92d2a050caa391eb8","6213c917523e6fed07a1d209","2","0","54","53","","",""
"1120","key"," "," ","16.91331343283597","500","250","psychophysics","59","225686","0.0-59.0","60fe4ee92d2a050caa391eb8","6213c917523e6fed07a1d209","","","","","","",""
"4617","key"," "," ","16.72650181818182","500","250","psychophysics","60","230307","0.0-60.0","60fe4ee92d2a050caa391eb8","6213c917523e6fed07a1d209","2","0","53","55","","",""
"2862","key"," "," ","16.86337869822481","500","250","psychophysics","61","233172","0.0-61.0","60fe4ee92d2a050caa391eb8","6213c917523e6fed07a1d209","","","","","","",""
"4933","key"," "," ","16.723425170067948","500","250","psychophysics","62","238109","0.0-62.0","60fe4ee92d2a050caa391eb8","6213c917523e6fed07a1d209","2","0","60","64","","",""
"1057","key"," "," ","16.669793650793423","500","250","psychophysics","63","239171","0.0-63.0","60fe4ee92d2a050caa391eb8","6213c917523e6fed07a1d209","","","","","","",""
"3913","key"," "," ","16.66651282051285","500","250","psychophysics","64","243088","0.0-64.0","60fe4ee92d2a050caa391eb8","6213c917523e6fed07a1d209","2","0","20","20","","",""
"974","key"," "," ","16.957842105263314","500","250","psychophysics","65","244066","0.0-65.0","60fe4ee92d2a050caa391eb8","6213c917523e6fed07a1d209","","","","","","",""
"3028","key"," "," ","16.8514748603353","500","250","psychophysics","66","247100","0.0-66.0","60fe4ee92d2a050caa391eb8","6213c917523e6fed07a1d209","2","0","36","38","","",""
"1014","key"," "," ","16.66838333333338","500","250","psychophysics","67","248119","0.0-67.0","60fe4ee92d2a050caa391eb8","6213c917523e6fed07a1d209","","","","","","",""
"3707","key"," "," ","16.819368181818174","500","250","psychophysics","68","251831","0.0-68.0","60fe4ee92d2a050caa391eb8","6213c917523e6fed07a1d209","2","0","41","34","","",""
"1054","key"," "," ","16.664245901639347","500","250","psychophysics","69","252888","0.0-69.0","60fe4ee92d2a050caa391eb8","6213c917523e6fed07a1d209","","","","","","",""
"2780","key"," "," ","16.868127272727328","500","250","psychophysics","70","255677","0.0-70.0","60fe4ee92d2a050caa391eb8","6213c917523e6fed07a1d209","","","","","","",""
"1265","key"," "," ","17.1255342465756","500","250","psychophysics","71","256950","0.0-71.0","60fe4ee92d2a050caa391eb8","6213c917523e6fed07a1d209","","","","","","",""
"4433","key"," "," ","16.728966037735983","500","250","psychophysics","72","261388","0.0-72.0","60fe4ee92d2a050caa391eb8","6213c917523e6fed07a1d209","3","5","46","48","","",""
"761","key"," "," ","16.668499999999767","500","250","psychophysics","73","262155","0.0-73.0","60fe4ee92d2a050caa391eb8","6213c917523e6fed07a1d209","3","0","54","10","","",""
"3114","key"," "," ","16.6664278074868","500","250","psychophysics","74","265278","0.0-74.0","60fe4ee92d2a050caa391eb8","6213c917523e6fed07a1d209","3","5","20","19","","",""
"2769","key"," "," ","16.773545454545513","500","250","psychophysics","75","268052","0.0-75.0","60fe4ee92d2a050caa391eb8","6213c917523e6fed07a1d209","3","0","33","34","","",""
"3595","key"," "," ","16.74381308411232","500","250","psychophysics","76","271651","0.0-76.0","60fe4ee92d2a050caa391eb8","6213c917523e6fed07a1d209","3","5","31","30","","",""
"2582","key"," "," ","16.665771241829763","500","250","psychophysics","77","274238","0.0-77.0","60fe4ee92d2a050caa391eb8","6213c917523e6fed07a1d209","3","0","31","28","","",""
"3278","key"," "," ","16.751369230769193","500","250","psychophysics","78","277520","0.0-78.0","60fe4ee92d2a050caa391eb8","6213c917523e6fed07a1d209","3","5","31","30","","",""
"5214","key"," "," ","16.666032051282134","500","250","psychophysics","79","282738","0.0-79.0","60fe4ee92d2a050caa391eb8","6213c917523e6fed07a1d209","3","0","55","61","","",""
"4073","key"," "," ","16.80436514522827","500","250","psychophysics","80","286815","0.0-80.0","60fe4ee92d2a050caa391eb8","6213c917523e6fed07a1d209","3","5","43","45","","",""
"4475","key"," "," ","16.665757462686603","500","250","psychophysics","81","291296","0.0-81.0","60fe4ee92d2a050caa391eb8","6213c917523e6fed07a1d209","3","0","54","59","","",""
"3193","key"," "," ","16.665968586387496","500","250","psychophysics","82","294497","0.0-82.0","60fe4ee92d2a050caa391eb8","6213c917523e6fed07a1d209","3","5","32","31","","",""
"3660","key"," "," ","16.665963636363582","500","250","psychophysics","83","298162","0.0-83.0","60fe4ee92d2a050caa391eb8","6213c917523e6fed07a1d209","3","0","42","44","","",""
"4839","key"," "," ","16.66597231833915","500","250","psychophysics","84","303006","0.0-84.0","60fe4ee92d2a050caa391eb8","6213c917523e6fed07a1d209","3","5","37","37","","",""
"2383","key"," "," ","16.78181690140873","500","250","psychophysics","85","305397","0.0-85.0","60fe4ee92d2a050caa391eb8","6213c917523e6fed07a1d209","3","0","28","30","","",""
"3031","key"," "," ","16.75831111111135","500","250","psychophysics","86","308432","0.0-86.0","60fe4ee92d2a050caa391eb8","6213c917523e6fed07a1d209","3","5","29","26","","",""
"3326","key"," "," ","16.835614213197868","500","250","psychophysics","87","311763","0.0-87.0","60fe4ee92d2a050caa391eb8","6213c917523e6fed07a1d209","3","0","37","37","","",""
"2796","key"," "," ","16.868472727272785","500","250","psychophysics","88","314563","0.0-88.0","60fe4ee92d2a050caa391eb8","6213c917523e6fed07a1d209","3","5","21","22","","",""
"2717","key"," "," ","16.874131249999845","500","250","psychophysics","89","317285","0.0-89.0","60fe4ee92d2a050caa391eb8","6213c917523e6fed07a1d209","3","0","24","24","","",""
"4781","key"," "," ","16.787158450704275","500","250","psychophysics","90","322071","0.0-90.0","60fe4ee92d2a050caa391eb8","6213c917523e6fed07a1d209","3","5","52","50","","",""
"4637","key"," "," ","16.726028880866586","500","250","psychophysics","91","326718","0.0-91.0","60fe4ee92d2a050caa391eb8","6213c917523e6fed07a1d209","3","0","48","55","","",""
"2618","key"," "," ","16.6654679487181","500","250","psychophysics","92","329339","0.0-92.0","60fe4ee92d2a050caa391eb8","6213c917523e6fed07a1d209","","","","","","",""
"33475","","","v","","","","html-keyboard-response","93","362817","0.0-93.0","60fe4ee92d2a050caa391eb8","6213c917523e6fed07a1d209","","","","","<p> In this part of the experiment, we are going present digits 1, 2, 3, 4, 6, 7, 8, and 9.  Notice that 5 is missing.  Your job is to say whether the presented digit is less than or greater than 5.  For example, 3 is less than 5 and 7 is greater than 5.  If the digit is less than 5, press the v key; if it is greater than 5, press the n key. We are going to do 200 of these in total, but only 50 righ now. They go real fast.</p>  <br><br>  Ready? (press v or n)","",""
"6526","key","v","v","16.83838917525769","500","250","psychophysics","94","369353","0.0-94.0","60fe4ee92d2a050caa391eb8","6213c917523e6fed07a1d209","4","","","","","1","2"
"null","","","null","","","","html-keyboard-response","95","369855","0.0-95.0","60fe4ee92d2a050caa391eb8","6213c917523e6fed07a1d209","","","","","<p style=""color:darkgreen;font-size:24px;"">Correct :)</p>","",""
"4564","key","v","v","16.726882783882832","500","250","psychophysics","96","374425","0.0-96.0","60fe4ee92d2a050caa391eb8","6213c917523e6fed07a1d209","4","","","","","1","4"
"null","","","null","","","","html-keyboard-response","97","374928","0.0-97.0","60fe4ee92d2a050caa391eb8","6213c917523e6fed07a1d209","","","","","<p style=""color:darkgreen;font-size:24px;"">Correct :)</p>","",""
"3158","key","v","v","16.93314438502654","500","250","psychophysics","98","378091","0.0-98.0","60fe4ee92d2a050caa391eb8","6213c917523e6fed07a1d209","4","","","","","1","3"
"null","","","null","","","","html-keyboard-response","99","378594","0.0-99.0","60fe4ee92d2a050caa391eb8","6213c917523e6fed07a1d209","","","","","<p style=""color:darkgreen;font-size:24px;"">Correct :)</p>","",""
"2567","key","n","n","16.665506493506193","500","250","psychophysics","100","381167","0.0-100.0","60fe4ee92d2a050caa391eb8","6213c917523e6fed07a1d209","4","","","","","1","6"
"null","","","null","","","","html-keyboard-response","101","381669","0.0-101.0","60fe4ee92d2a050caa391eb8","6213c917523e6fed07a1d209","","","","","<p style=""color:darkgreen;font-size:24px;"">Correct :)</p>","",""
"2664","key","v","v","16.7612784810127","500","250","psychophysics","102","384336","0.0-102.0","60fe4ee92d2a050caa391eb8","6213c917523e6fed07a1d209","4","","","","","1","3"
"null","","","null","","","","html-keyboard-response","103","384840","0.0-103.0","60fe4ee92d2a050caa391eb8","6213c917523e6fed07a1d209","","","","","<p style=""color:darkgreen;font-size:24px;"">Correct :)</p>","",""
"2556","key","n","n","16.77644370860938","500","250","psychophysics","104","387402","0.0-104.0","60fe4ee92d2a050caa391eb8","6213c917523e6fed07a1d209","4","","","","","1","6"
"null","","","null","","","","html-keyboard-response","105","387906","0.0-105.0","60fe4ee92d2a050caa391eb8","6213c917523e6fed07a1d209","","","","","<p style=""color:darkgreen;font-size:24px;"">Correct :)</p>","",""
"2492","key","n","n","16.77683108108082","500","250","psychophysics","106","390405","0.0-106.0","60fe4ee92d2a050caa391eb8","6213c917523e6fed07a1d209","4","","","","","1","8"
"null","","","null","","","","html-keyboard-response","107","390912","0.0-107.0","60fe4ee92d2a050caa391eb8","6213c917523e6fed07a1d209","","","","","<p style=""color:darkgreen;font-size:24px;"">Correct :)</p>","",""
"2641","key","v","v","16.665408805031372","500","250","psychophysics","108","393559","0.0-108.0","60fe4ee92d2a050caa391eb8","6213c917523e6fed07a1d209","4","","","","","1","1"
"null","","","null","","","","html-keyboard-response","109","394062","0.0-109.0","60fe4ee92d2a050caa391eb8","6213c917523e6fed07a1d209","","","","","<p style=""color:darkgreen;font-size:24px;"">Correct :)</p>","",""
"2577","key","v","v","16.666522580645452","500","250","psychophysics","110","396645","0.0-110.0","60fe4ee92d2a050caa391eb8","6213c917523e6fed07a1d209","4","","","","","1","1"
"null","","","null","","","","html-keyboard-response","111","397158","0.0-111.0","60fe4ee92d2a050caa391eb8","6213c917523e6fed07a1d209","","","","","<p style=""color:darkgreen;font-size:24px;"">Correct :)</p>","",""
"2614","key","n","n","16.771987179487134","500","250","psychophysics","112","399778","0.0-112.0","60fe4ee92d2a050caa391eb8","6213c917523e6fed07a1d209","4","","","","","1","9"
"null","","","null","","","","html-keyboard-response","113","400279","0.0-113.0","60fe4ee92d2a050caa391eb8","6213c917523e6fed07a1d209","","","","","<p style=""color:darkgreen;font-size:24px;"">Correct :)</p>","",""
"2512","key","n","n","16.77683333333349","500","250","psychophysics","114","402797","0.0-114.0","60fe4ee92d2a050caa391eb8","6213c917523e6fed07a1d209","4","","","","","1","6"
"null","","","null","","","","html-keyboard-response","115","403299","0.0-115.0","60fe4ee92d2a050caa391eb8","6213c917523e6fed07a1d209","","","","","<p style=""color:darkgreen;font-size:24px;"">Correct :)</p>","",""
"2546","key","v","v","16.666477124182755","500","250","psychophysics","116","405851","0.0-116.0","60fe4ee92d2a050caa391eb8","6213c917523e6fed07a1d209","4","","","","","1","2"
"null","","","null","","","","html-keyboard-response","117","406355","0.0-117.0","60fe4ee92d2a050caa391eb8","6213c917523e6fed07a1d209","","","","","<p style=""color:darkgreen;font-size:24px;"">Correct :)</p>","",""
"2580","key","v","v","16.66672258064519","500","250","psychophysics","118","408942","0.0-118.0","60fe4ee92d2a050caa391eb8","6213c917523e6fed07a1d209","4","","","","","1","2"
"null","","","null","","","","html-keyboard-response","119","409445","0.0-119.0","60fe4ee92d2a050caa391eb8","6213c917523e6fed07a1d209","","","","","<p style=""color:darkgreen;font-size:24px;"">Correct :)</p>","",""
"2671","key","n","n","16.66489999999976","500","250","psychophysics","120","412121","0.0-120.0","60fe4ee92d2a050caa391eb8","6213c917523e6fed07a1d209","4","","","","","1","7"
"null","","","null","","","","html-keyboard-response","121","412624","0.0-121.0","60fe4ee92d2a050caa391eb8","6213c917523e6fed07a1d209","","","","","<p style=""color:darkgreen;font-size:24px;"">Correct :)</p>","",""
"2524","key","n","n","16.66644370860909","500","250","psychophysics","122","415155","0.0-122.0","60fe4ee92d2a050caa391eb8","6213c917523e6fed07a1d209","4","","","","","1","8"
"null","","","null","","","","html-keyboard-response","123","415657","0.0-123.0","60fe4ee92d2a050caa391eb8","6213c917523e6fed07a1d209","","","","","<p style=""color:darkgreen;font-size:24px;"">Correct :)</p>","",""
"2467","key","v","v","16.779006802721256","500","250","psychophysics","124","418133","0.0-124.0","60fe4ee92d2a050caa391eb8","6213c917523e6fed07a1d209","4","","","","","1","3"
"null","","","null","","","","html-keyboard-response","125","418646","0.0-125.0","60fe4ee92d2a050caa391eb8","6213c917523e6fed07a1d209","","","","","<p style=""color:darkgreen;font-size:24px;"">Correct :)</p>","",""
"2525","key","v","v","16.774999999999768","500","250","psychophysics","126","421178","0.0-126.0","60fe4ee92d2a050caa391eb8","6213c917523e6fed07a1d209","4","","","","","1","2"
"null","","","null","","","","html-keyboard-response","127","421680","0.0-127.0","60fe4ee92d2a050caa391eb8","6213c917523e6fed07a1d209","","","","","<p style=""color:darkgreen;font-size:24px;"">Correct :)</p>","",""
"2496","key","v","v","16.77742953020134","500","250","psychophysics","128","424183","0.0-128.0","60fe4ee92d2a050caa391eb8","6213c917523e6fed07a1d209","4","","","","","1","3"
"null","","","null","","","","html-keyboard-response","129","424685","0.0-129.0","60fe4ee92d2a050caa391eb8","6213c917523e6fed07a1d209","","","","","<p style=""color:darkgreen;font-size:24px;"">Correct :)</p>","",""
"2566","key","n","n","16.77415584415566","500","250","psychophysics","130","427258","0.0-130.0","60fe4ee92d2a050caa391eb8","6213c917523e6fed07a1d209","4","","","","","1","7"
"null","","","null","","","","html-keyboard-response","131","427760","0.0-131.0","60fe4ee92d2a050caa391eb8","6213c917523e6fed07a1d209","","","","","<p style=""color:darkgreen;font-size:24px;"">Correct :)</p>","",""
"2550","key","v","v","16.664359477124165","500","250","psychophysics","132","430316","0.0-132.0","60fe4ee92d2a050caa391eb8","6213c917523e6fed07a1d209","4","","","","","1","4"
"null","","","null","","","","html-keyboard-response","133","430817","0.0-133.0","60fe4ee92d2a050caa391eb8","6213c917523e6fed07a1d209","","","","","<p style=""color:darkgreen;font-size:24px;"">Correct :)</p>","",""
"2468","key","v","v","16.89274149659869","500","250","psychophysics","134","433291","0.0-134.0","60fe4ee92d2a050caa391eb8","6213c917523e6fed07a1d209","4","","","","","1","1"
"null","","","null","","","","html-keyboard-response","135","433794","0.0-135.0","60fe4ee92d2a050caa391eb8","6213c917523e6fed07a1d209","","","","","<p style=""color:darkgreen;font-size:24px;"">Correct :)</p>","",""
"2509","key","n","n","16.66728476821198","500","250","psychophysics","136","436308","0.0-136.0","60fe4ee92d2a050caa391eb8","6213c917523e6fed07a1d209","4","","","","","1","8"
"null","","","null","","","","html-keyboard-response","137","436812","0.0-137.0","60fe4ee92d2a050caa391eb8","6213c917523e6fed07a1d209","","","","","<p style=""color:darkgreen;font-size:24px;"">Correct :)</p>","",""
"2601","key","v","v","17.21869536423832","500","250","psychophysics","138","439417","0.0-138.0","60fe4ee92d2a050caa391eb8","6213c917523e6fed07a1d209","4","","","","","1","6"
"null","","","null","","","","html-keyboard-response","139","439919","0.0-139.0","60fe4ee92d2a050caa391eb8","6213c917523e6fed07a1d209","","","","","<p style=""color:red;font-size:24px;"">Error :(</p>","",""
"2505","key","n","n","16.777724832214723","500","250","psychophysics","140","442431","0.0-140.0","60fe4ee92d2a050caa391eb8","6213c917523e6fed07a1d209","4","","","","","1","7"
"null","","","null","","","","html-keyboard-response","141","442932","0.0-141.0","60fe4ee92d2a050caa391eb8","6213c917523e6fed07a1d209","","","","","<p style=""color:darkgreen;font-size:24px;"">Correct :)</p>","",""
"2490","key","v","v","16.664653333333167","500","250","psychophysics","142","445429","0.0-142.0","60fe4ee92d2a050caa391eb8","6213c917523e6fed07a1d209","4","","","","","1","2"
"null","","","null","","","","html-keyboard-response","143","445932","0.0-143.0","60fe4ee92d2a050caa391eb8","6213c917523e6fed07a1d209","","","","","<p style=""color:darkgreen;font-size:24px;"">Correct :)</p>","",""
"2510","key","n","n","16.666593333333342","500","250","psychophysics","144","448445","0.0-144.0","60fe4ee92d2a050caa391eb8","6213c917523e6fed07a1d209","4","","","","","1","7"
"null","","","null","","","","html-keyboard-response","145","448947","0.0-145.0","60fe4ee92d2a050caa391eb8","6213c917523e6fed07a1d209","","","","","<p style=""color:darkgreen;font-size:24px;"">Correct :)</p>","",""
"2660","key","v","v","16.77106289308168","500","250","psychophysics","146","451615","0.0-146.0","60fe4ee92d2a050caa391eb8","6213c917523e6fed07a1d209","4","","","","","1","1"
"null","","","null","","","","html-keyboard-response","147","452116","0.0-147.0","60fe4ee92d2a050caa391eb8","6213c917523e6fed07a1d209","","","","","<p style=""color:darkgreen;font-size:24px;"">Correct :)</p>","",""
"2535","key","v","v","16.666313725490173","500","250","psychophysics","148","454657","0.0-148.0","60fe4ee92d2a050caa391eb8","6213c917523e6fed07a1d209","4","","","","","1","3"
"null","","","null","","","","html-keyboard-response","149","455159","0.0-149.0","60fe4ee92d2a050caa391eb8","6213c917523e6fed07a1d209","","","","","<p style=""color:darkgreen;font-size:24px;"">Correct :)</p>","",""
"2664","key","n","n","16.771031847133546","500","250","psychophysics","150","457827","0.0-150.0","60fe4ee92d2a050caa391eb8","6213c917523e6fed07a1d209","4","","","","","1","9"
"null","","","null","","","","html-keyboard-response","151","458329","0.0-151.0","60fe4ee92d2a050caa391eb8","6213c917523e6fed07a1d209","","","","","<p style=""color:darkgreen;font-size:24px;"">Correct :)</p>","",""
"2524","key","n","n","16.664539473684272","500","250","psychophysics","152","460858","0.0-152.0","60fe4ee92d2a050caa391eb8","6213c917523e6fed07a1d209","4","","","","","1","8"
"null","","","null","","","","html-keyboard-response","153","461361","0.0-153.0","60fe4ee92d2a050caa391eb8","6213c917523e6fed07a1d209","","","","","<p style=""color:darkgreen;font-size:24px;"">Correct :)</p>","",""
"2740","key","v","v","16.665769696969427","500","250","psychophysics","154","464107","0.0-154.0","60fe4ee92d2a050caa391eb8","6213c917523e6fed07a1d209","4","","","","","1","4"
"null","","","null","","","","html-keyboard-response","155","464608","0.0-155.0","60fe4ee92d2a050caa391eb8","6213c917523e6fed07a1d209","","","","","<p style=""color:darkgreen;font-size:24px;"">Correct :)</p>","",""
"2478","key","n","n","16.777344594594734","500","250","psychophysics","156","467092","0.0-156.0","60fe4ee92d2a050caa391eb8","6213c917523e6fed07a1d209","4","","","","","1","7"
"null","","","null","","","","html-keyboard-response","157","467600","0.0-157.0","60fe4ee92d2a050caa391eb8","6213c917523e6fed07a1d209","","","","","<p style=""color:darkgreen;font-size:24px;"">Correct :)</p>","",""
"2557","key","n","n","16.665045454545556","500","250","psychophysics","158","470162","0.0-158.0","60fe4ee92d2a050caa391eb8","6213c917523e6fed07a1d209","4","","","","","1","9"
"null","","","null","","","","html-keyboard-response","159","470663","0.0-159.0","60fe4ee92d2a050caa391eb8","6213c917523e6fed07a1d209","","","","","<p style=""color:darkgreen;font-size:24px;"">Correct :)</p>","",""
"2511","key","v","v","16.77893918918916","500","250","psychophysics","160","473177","0.0-160.0","60fe4ee92d2a050caa391eb8","6213c917523e6fed07a1d209","4","","","","","1","3"
"null","","","null","","","","html-keyboard-response","161","473679","0.0-161.0","60fe4ee92d2a050caa391eb8","6213c917523e6fed07a1d209","","","","","<p style=""color:darkgreen;font-size:24px;"">Correct :)</p>","",""
"2528","key","v","v","16.66530263157888","500","250","psychophysics","162","476214","0.0-162.0","60fe4ee92d2a050caa391eb8","6213c917523e6fed07a1d209","4","","","","","1","1"
"null","","","null","","","","html-keyboard-response","163","476716","0.0-163.0","60fe4ee92d2a050caa391eb8","6213c917523e6fed07a1d209","","","","","<p style=""color:darkgreen;font-size:24px;"">Correct :)</p>","",""
"2510","key","n","n","16.667006622516514","500","250","psychophysics","164","479233","0.0-164.0","60fe4ee92d2a050caa391eb8","6213c917523e6fed07a1d209","4","","","","","1","6"
"null","","","null","","","","html-keyboard-response","165","479735","0.0-165.0","60fe4ee92d2a050caa391eb8","6213c917523e6fed07a1d209","","","","","<p style=""color:darkgreen;font-size:24px;"">Correct :)</p>","",""
"2507","key","n","n","16.790006711409465","500","250","psychophysics","166","482248","0.0-166.0","60fe4ee92d2a050caa391eb8","6213c917523e6fed07a1d209","4","","","","","1","9"
"null","","","null","","","","html-keyboard-response","167","482749","0.0-167.0","60fe4ee92d2a050caa391eb8","6213c917523e6fed07a1d209","","","","","<p style=""color:darkgreen;font-size:24px;"">Correct :)</p>","",""
"2579","key","v","v","16.66600645161309","500","250","psychophysics","168","485334","0.0-168.0","60fe4ee92d2a050caa391eb8","6213c917523e6fed07a1d209","4","","","","","1","4"
"null","","","null","","","","html-keyboard-response","169","485836","0.0-169.0","60fe4ee92d2a050caa391eb8","6213c917523e6fed07a1d209","","","","","<p style=""color:darkgreen;font-size:24px;"">Correct :)</p>","",""
"2517","key","v","v","16.67283443708608","500","250","psychophysics","170","488359","0.0-170.0","60fe4ee92d2a050caa391eb8","6213c917523e6fed07a1d209","4","","","","","1","2"
"null","","","null","","","","html-keyboard-response","171","488860","0.0-171.0","60fe4ee92d2a050caa391eb8","6213c917523e6fed07a1d209","","","","","<p style=""color:darkgreen;font-size:24px;"">Correct :)</p>","",""
"2622","key","v","v","16.666791139240523","500","250","psychophysics","172","491488","0.0-172.0","60fe4ee92d2a050caa391eb8","6213c917523e6fed07a1d209","4","","","","","1","2"
"null","","","null","","","","html-keyboard-response","173","491991","0.0-173.0","60fe4ee92d2a050caa391eb8","6213c917523e6fed07a1d209","","","","","<p style=""color:darkgreen;font-size:24px;"">Correct :)</p>","",""
"2834","key","v","v","16.863869047619076","500","250","psychophysics","174","494831","0.0-174.0","60fe4ee92d2a050caa391eb8","6213c917523e6fed07a1d209","4","","","","","1","2"
"null","","","null","","","","html-keyboard-response","175","495334","0.0-175.0","60fe4ee92d2a050caa391eb8","6213c917523e6fed07a1d209","","","","","<p style=""color:darkgreen;font-size:24px;"">Correct :)</p>","",""
"2639","key","n","n","16.66548101265828","500","250","psychophysics","176","497978","0.0-176.0","60fe4ee92d2a050caa391eb8","6213c917523e6fed07a1d209","4","","","","","1","6"
"null","","","null","","","","html-keyboard-response","177","498479","0.0-177.0","60fe4ee92d2a050caa391eb8","6213c917523e6fed07a1d209","","","","","<p style=""color:darkgreen;font-size:24px;"">Correct :)</p>","",""
"2547","key","v","v","16.666058823529454","500","250","psychophysics","178","501032","0.0-178.0","60fe4ee92d2a050caa391eb8","6213c917523e6fed07a1d209","4","","","","","1","3"
"null","","","null","","","","html-keyboard-response","179","501535","0.0-179.0","60fe4ee92d2a050caa391eb8","6213c917523e6fed07a1d209","","","","","<p style=""color:darkgreen;font-size:24px;"">Correct :)</p>","",""
"2685","key","v","v","16.66614906832298","500","250","psychophysics","180","504227","0.0-180.0","60fe4ee92d2a050caa391eb8","6213c917523e6fed07a1d209","4","","","","","1","3"
"null","","","null","","","","html-keyboard-response","181","504730","0.0-181.0","60fe4ee92d2a050caa391eb8","6213c917523e6fed07a1d209","","","","","<p style=""color:darkgreen;font-size:24px;"">Correct :)</p>","",""
"2530","key","v","v","16.887979999999903","500","250","psychophysics","182","507266","0.0-182.0","60fe4ee92d2a050caa391eb8","6213c917523e6fed07a1d209","4","","","","","1","3"
"null","","","null","","","","html-keyboard-response","183","507768","0.0-183.0","60fe4ee92d2a050caa391eb8","6213c917523e6fed07a1d209","","","","","<p style=""color:darkgreen;font-size:24px;"">Correct :)</p>","",""
"2574","key","v","v","16.666402597402527","500","250","psychophysics","184","510347","0.0-184.0","60fe4ee92d2a050caa391eb8","6213c917523e6fed07a1d209","4","","","","","1","4"
"null","","","null","","","","html-keyboard-response","185","510848","0.0-185.0","60fe4ee92d2a050caa391eb8","6213c917523e6fed07a1d209","","","","","<p style=""color:darkgreen;font-size:24px;"">Correct :)</p>","",""
"2624","key","n","n","16.666240506329135","500","250","psychophysics","186","513478","0.0-186.0","60fe4ee92d2a050caa391eb8","6213c917523e6fed07a1d209","4","","","","","1","8"
"null","","","null","","","","html-keyboard-response","187","513981","0.0-187.0","60fe4ee92d2a050caa391eb8","6213c917523e6fed07a1d209","","","","","<p style=""color:darkgreen;font-size:24px;"">Correct :)</p>","",""
"2517","key","n","n","16.655039473684155","500","250","psychophysics","188","516504","0.0-188.0","60fe4ee92d2a050caa391eb8","6213c917523e6fed07a1d209","4","","","","","1","9"
"null","","","null","","","","html-keyboard-response","189","517017","0.0-189.0","60fe4ee92d2a050caa391eb8","6213c917523e6fed07a1d209","","","","","<p style=""color:darkgreen;font-size:24px;"">Correct :)</p>","",""
"2500","key","v","v","16.66742000000008","500","250","psychophysics","190","519523","0.0-190.0","60fe4ee92d2a050caa391eb8","6213c917523e6fed07a1d209","4","","","","","1","2"
"null","","","null","","","","html-keyboard-response","191","520025","0.0-191.0","60fe4ee92d2a050caa391eb8","6213c917523e6fed07a1d209","","","","","<p style=""color:darkgreen;font-size:24px;"">Correct :)</p>","",""
"2572","key","v","v","16.774070967741746","500","250","psychophysics","192","522621","0.0-192.0","60fe4ee92d2a050caa391eb8","6213c917523e6fed07a1d209","4","","","","","1","4"
"null","","","null","","","","html-keyboard-response","193","523123","0.0-193.0","60fe4ee92d2a050caa391eb8","6213c917523e6fed07a1d209","","","","","<p style=""color:darkgreen;font-size:24px;"">Correct :)</p>","",""
"9740","","","v","","","","html-keyboard-response","194","532864","0.0-194.0","60fe4ee92d2a050caa391eb8","6213c917523e6fed07a1d209","","","","","<p> Ok, now we are going present the same digits as before.  Your job is to say whether the digit is even or odd  If the digit is odd, press to v key; if it is even, press the n key. We are going to do 50 of these.  </p>  <br><br>  Ready? (press v or n)","",""
"2626","key","n","n","16.879923076922587","500","250","psychophysics","195","535496","0.0-195.0","60fe4ee92d2a050caa391eb8","6213c917523e6fed07a1d209","5","","","","","0","2"
"null","","","null","","","","html-keyboard-response","196","535999","0.0-196.0","60fe4ee92d2a050caa391eb8","6213c917523e6fed07a1d209","","","","","<p style=""color:darkgreen;font-size:24px;"">Correct :)</p>","",""
"2615","key","n","n","16.670853503184855","500","250","psychophysics","197","538621","0.0-197.0","60fe4ee92d2a050caa391eb8","6213c917523e6fed07a1d209","5","","","","","0","6"
"null","","","null","","","","html-keyboard-response","198","539123","0.0-198.0","60fe4ee92d2a050caa391eb8","6213c917523e6fed07a1d209","","","","","<p style=""color:darkgreen;font-size:24px;"">Correct :)</p>","",""
"2499","key","n","n","16.66597999999998","500","250","psychophysics","199","541627","0.0-199.0","60fe4ee92d2a050caa391eb8","6213c917523e6fed07a1d209","5","","","","","0","4"
"null","","","null","","","","html-keyboard-response","200","542130","0.0-200.0","60fe4ee92d2a050caa391eb8","6213c917523e6fed07a1d209","","","","","<p style=""color:darkgreen;font-size:24px;"">Correct :)</p>","",""
"2493","key","n","n","16.894891891891223","500","250","psychophysics","201","544629","0.0-201.0","60fe4ee92d2a050caa391eb8","6213c917523e6fed07a1d209","5","","","","","0","8"
"null","","","null","","","","html-keyboard-response","202","545130","0.0-202.0","60fe4ee92d2a050caa391eb8","6213c917523e6fed07a1d209","","","","","<p style=""color:darkgreen;font-size:24px;"">Correct :)</p>","",""
"2453","key","v","v","16.66624324324358","500","250","psychophysics","203","547589","0.0-203.0","60fe4ee92d2a050caa391eb8","6213c917523e6fed07a1d209","5","","","","","0","1"
"null","","","null","","","","html-keyboard-response","204","548092","0.0-204.0","60fe4ee92d2a050caa391eb8","6213c917523e6fed07a1d209","","","","","<p style=""color:darkgreen;font-size:24px;"">Correct :)</p>","",""
"2500","key","v","v","16.666966666666948","500","250","psychophysics","205","550600","0.0-205.0","60fe4ee92d2a050caa391eb8","6213c917523e6fed07a1d209","5","","","","","0","3"
"null","","","null","","","","html-keyboard-response","206","551103","0.0-206.0","60fe4ee92d2a050caa391eb8","6213c917523e6fed07a1d209","","","","","<p style=""color:darkgreen;font-size:24px;"">Correct :)</p>","",""
"2616","key","v","v","16.66538216560489","500","250","psychophysics","207","553724","0.0-207.0","60fe4ee92d2a050caa391eb8","6213c917523e6fed07a1d209","5","","","","","0","7"
"null","","","null","","","","html-keyboard-response","208","554230","0.0-208.0","60fe4ee92d2a050caa391eb8","6213c917523e6fed07a1d209","","","","","<p style=""color:darkgreen;font-size:24px;"">Correct :)</p>","",""
"2484","key","v","v","16.777778523489708","500","250","psychophysics","209","556722","0.0-209.0","60fe4ee92d2a050caa391eb8","6213c917523e6fed07a1d209","5","","","","","0","3"
"null","","","null","","","","html-keyboard-response","210","557225","0.0-210.0","60fe4ee92d2a050caa391eb8","6213c917523e6fed07a1d209","","","","","<p style=""color:darkgreen;font-size:24px;"">Correct :)</p>","",""
"2577","key","n","n","16.666909090909265","500","250","psychophysics","211","559805","0.0-211.0","60fe4ee92d2a050caa391eb8","6213c917523e6fed07a1d209","5","","","","","0","4"
"null","","","null","","","","html-keyboard-response","212","560309","0.0-212.0","60fe4ee92d2a050caa391eb8","6213c917523e6fed07a1d209","","","","","<p style=""color:darkgreen;font-size:24px;"">Correct :)</p>","",""
"2533","key","n","n","16.665927631579077","500","250","psychophysics","213","562848","0.0-213.0","60fe4ee92d2a050caa391eb8","6213c917523e6fed07a1d209","5","","","","","0","6"
"null","","","null","","","","html-keyboard-response","214","563350","0.0-214.0","60fe4ee92d2a050caa391eb8","6213c917523e6fed07a1d209","","","","","<p style=""color:darkgreen;font-size:24px;"">Correct :)</p>","",""
"2595","key","v","v","16.7696948051944","500","250","psychophysics","215","565949","0.0-215.0","60fe4ee92d2a050caa391eb8","6213c917523e6fed07a1d209","5","","","","","0","9"
"null","","","null","","","","html-keyboard-response","216","566453","0.0-216.0","60fe4ee92d2a050caa391eb8","6213c917523e6fed07a1d209","","","","","<p style=""color:darkgreen;font-size:24px;"">Correct :)</p>","",""
"2660","key","n","n","16.769704402515917","500","250","psychophysics","217","569118","0.0-217.0","60fe4ee92d2a050caa391eb8","6213c917523e6fed07a1d209","5","","","","","0","6"
"null","","","null","","","","html-keyboard-response","218","569620","0.0-218.0","60fe4ee92d2a050caa391eb8","6213c917523e6fed07a1d209","","","","","<p style=""color:darkgreen;font-size:24px;"">Correct :)</p>","",""
"2498","key","n","n","16.666860000000646","500","250","psychophysics","219","572123","0.0-219.0","60fe4ee92d2a050caa391eb8","6213c917523e6fed07a1d209","5","","","","","0","2"
"null","","","null","","","","html-keyboard-response","220","572625","0.0-220.0","60fe4ee92d2a050caa391eb8","6213c917523e6fed07a1d209","","","","","<p style=""color:darkgreen;font-size:24px;"">Correct :)</p>","",""
"2507","key","n","n","16.666426666666908","500","250","psychophysics","221","575134","0.0-221.0","60fe4ee92d2a050caa391eb8","6213c917523e6fed07a1d209","5","","","","","0","6"
"null","","","null","","","","html-keyboard-response","222","575637","0.0-222.0","60fe4ee92d2a050caa391eb8","6213c917523e6fed07a1d209","","","","","<p style=""color:darkgreen;font-size:24px;"">Correct :)</p>","",""
"2514","key","n","n","16.66652000000002","500","250","psychophysics","223","578154","0.0-223.0","60fe4ee92d2a050caa391eb8","6213c917523e6fed07a1d209","5","","","","","0","8"
"null","","","null","","","","html-keyboard-response","224","578656","0.0-224.0","60fe4ee92d2a050caa391eb8","6213c917523e6fed07a1d209","","","","","<p style=""color:darkgreen;font-size:24px;"">Correct :)</p>","",""
"2489","key","n","n","16.77129054054023","500","250","psychophysics","225","581148","0.0-225.0","60fe4ee92d2a050caa391eb8","6213c917523e6fed07a1d209","5","","","","","0","8"
"null","","","null","","","","html-keyboard-response","226","581650","0.0-226.0","60fe4ee92d2a050caa391eb8","6213c917523e6fed07a1d209","","","","","<p style=""color:darkgreen;font-size:24px;"">Correct :)</p>","",""
"2641","key","n","n","16.88206493506486","500","250","psychophysics","227","584294","0.0-227.0","60fe4ee92d2a050caa391eb8","6213c917523e6fed07a1d209","5","","","","","0","2"
"null","","","null","","","","html-keyboard-response","228","584796","0.0-228.0","60fe4ee92d2a050caa391eb8","6213c917523e6fed07a1d209","","","","","<p style=""color:darkgreen;font-size:24px;"">Correct :)</p>","",""
"2634","key","v","v","16.653899371069006","500","250","psychophysics","229","587436","0.0-229.0","60fe4ee92d2a050caa391eb8","6213c917523e6fed07a1d209","5","","","","","0","3"
"null","","","null","","","","html-keyboard-response","230","587940","0.0-230.0","60fe4ee92d2a050caa391eb8","6213c917523e6fed07a1d209","","","","","<p style=""color:darkgreen;font-size:24px;"">Correct :)</p>","",""
"2524","key","v","v","16.6659078947368","500","250","psychophysics","231","590469","0.0-231.0","60fe4ee92d2a050caa391eb8","6213c917523e6fed07a1d209","5","","","","","0","9"
"null","","","null","","","","html-keyboard-response","232","590972","0.0-232.0","60fe4ee92d2a050caa391eb8","6213c917523e6fed07a1d209","","","","","<p style=""color:darkgreen;font-size:24px;"">Correct :)</p>","",""
"2592","key","n","n","16.776237179487136","500","250","psychophysics","233","593586","0.0-233.0","60fe4ee92d2a050caa391eb8","6213c917523e6fed07a1d209","5","","","","","0","6"
"null","","","null","","","","html-keyboard-response","234","594089","0.0-234.0","60fe4ee92d2a050caa391eb8","6213c917523e6fed07a1d209","","","","","<p style=""color:darkgreen;font-size:24px;"">Correct :)</p>","",""
"2513","key","v","v","16.889409395973136","500","250","psychophysics","235","596607","0.0-235.0","60fe4ee92d2a050caa391eb8","6213c917523e6fed07a1d209","5","","","","","0","7"
"null","","","null","","","","html-keyboard-response","236","597109","0.0-236.0","60fe4ee92d2a050caa391eb8","6213c917523e6fed07a1d209","","","","","<p style=""color:darkgreen;font-size:24px;"">Correct :)</p>","",""
"2566","key","v","v","16.657431372549397","500","250","psychophysics","237","599678","0.0-237.0","60fe4ee92d2a050caa391eb8","6213c917523e6fed07a1d209","5","","","","","0","3"
"null","","","null","","","","html-keyboard-response","238","600181","0.0-238.0","60fe4ee92d2a050caa391eb8","6213c917523e6fed07a1d209","","","","","<p style=""color:darkgreen;font-size:24px;"">Correct :)</p>","",""
"2531","key","n","n","16.777079470198917","500","250","psychophysics","239","602717","0.0-239.0","60fe4ee92d2a050caa391eb8","6213c917523e6fed07a1d209","5","","","","","0","2"
"null","","","null","","","","html-keyboard-response","240","603221","0.0-240.0","60fe4ee92d2a050caa391eb8","6213c917523e6fed07a1d209","","","","","<p style=""color:darkgreen;font-size:24px;"">Correct :)</p>","",""
"2580","key","n","n","16.77657516339864","500","250","psychophysics","241","605804","0.0-241.0","60fe4ee92d2a050caa391eb8","6213c917523e6fed07a1d209","5","","","","","0","6"
"null","","","null","","","","html-keyboard-response","242","606314","0.0-242.0","60fe4ee92d2a050caa391eb8","6213c917523e6fed07a1d209","","","","","<p style=""color:darkgreen;font-size:24px;"">Correct :)</p>","",""
"2496","key","v","v","16.891346938775055","500","250","psychophysics","243","608815","0.0-243.0","60fe4ee92d2a050caa391eb8","6213c917523e6fed07a1d209","5","","","","","0","3"
"null","","","null","","","","html-keyboard-response","244","609317","0.0-244.0","60fe4ee92d2a050caa391eb8","6213c917523e6fed07a1d209","","","","","<p style=""color:darkgreen;font-size:24px;"">Correct :)</p>","",""
"2443","key","n","n","16.6651027397259","500","250","psychophysics","245","611765","0.0-245.0","60fe4ee92d2a050caa391eb8","6213c917523e6fed07a1d209","5","","","","","0","6"
"null","","","null","","","","html-keyboard-response","246","612267","0.0-246.0","60fe4ee92d2a050caa391eb8","6213c917523e6fed07a1d209","","","","","<p style=""color:darkgreen;font-size:24px;"">Correct :)</p>","",""
"2575","key","v","v","16.775209150326535","500","250","psychophysics","247","614847","0.0-247.0","60fe4ee92d2a050caa391eb8","6213c917523e6fed07a1d209","5","","","","","0","7"
"null","","","null","","","","html-keyboard-response","248","615350","0.0-248.0","60fe4ee92d2a050caa391eb8","6213c917523e6fed07a1d209","","","","","<p style=""color:darkgreen;font-size:24px;"">Correct :)</p>","",""
"2531","key","n","n","16.776781456953607","500","250","psychophysics","249","617886","0.0-249.0","60fe4ee92d2a050caa391eb8","6213c917523e6fed07a1d209","5","","","","","0","2"
"null","","","null","","","","html-keyboard-response","250","618389","0.0-250.0","60fe4ee92d2a050caa391eb8","6213c917523e6fed07a1d209","","","","","<p style=""color:darkgreen;font-size:24px;"">Correct :)</p>","",""
"2526","key","v","v","16.66503311258306","500","250","psychophysics","251","620917","0.0-251.0","60fe4ee92d2a050caa391eb8","6213c917523e6fed07a1d209","5","","","","","0","1"
"null","","","null","","","","html-keyboard-response","252","621421","0.0-252.0","60fe4ee92d2a050caa391eb8","6213c917523e6fed07a1d209","","","","","<p style=""color:darkgreen;font-size:24px;"">Correct :)</p>","",""
"2772","key","n","n","16.76713253012073","500","250","psychophysics","253","624201","0.0-253.0","60fe4ee92d2a050caa391eb8","6213c917523e6fed07a1d209","5","","","","","0","4"
"null","","","null","","","","html-keyboard-response","254","624703","0.0-254.0","60fe4ee92d2a050caa391eb8","6213c917523e6fed07a1d209","","","","","<p style=""color:darkgreen;font-size:24px;"">Correct :)</p>","",""
"2443","key","n","n","16.666564625850246","500","250","psychophysics","255","627151","0.0-255.0","60fe4ee92d2a050caa391eb8","6213c917523e6fed07a1d209","5","","","","","0","4"
"null","","","null","","","","html-keyboard-response","256","627654","0.0-256.0","60fe4ee92d2a050caa391eb8","6213c917523e6fed07a1d209","","","","","<p style=""color:darkgreen;font-size:24px;"">Correct :)</p>","",""
"2508","key","v","v","16.891317567567818","500","250","psychophysics","257","630166","0.0-257.0","60fe4ee92d2a050caa391eb8","6213c917523e6fed07a1d209","5","","","","","0","3"
"null","","","null","","","","html-keyboard-response","258","630668","0.0-258.0","60fe4ee92d2a050caa391eb8","6213c917523e6fed07a1d209","","","","","<p style=""color:darkgreen;font-size:24px;"">Correct :)</p>","",""
"2634","key","v","v","16.665784810126695","500","250","psychophysics","259","633308","0.0-259.0","60fe4ee92d2a050caa391eb8","6213c917523e6fed07a1d209","5","","","","","0","3"
"null","","","null","","","","html-keyboard-response","260","633810","0.0-260.0","60fe4ee92d2a050caa391eb8","6213c917523e6fed07a1d209","","","","","<p style=""color:darkgreen;font-size:24px;"">Correct :)</p>","",""
"2500","key","n","n","16.776826666667283","500","250","psychophysics","261","636317","0.0-261.0","60fe4ee92d2a050caa391eb8","6213c917523e6fed07a1d209","5","","","","","0","9"
"null","","","null","","","","html-keyboard-response","262","636820","0.0-262.0","60fe4ee92d2a050caa391eb8","6213c917523e6fed07a1d209","","","","","<p style=""color:red;font-size:24px;"">Error :(</p>","",""
"2381","key","n","n","16.665076923077127","500","250","psychophysics","263","639206","0.0-263.0","60fe4ee92d2a050caa391eb8","6213c917523e6fed07a1d209","5","","","","","0","6"
"null","","","null","","","","html-keyboard-response","264","639708","0.0-264.0","60fe4ee92d2a050caa391eb8","6213c917523e6fed07a1d209","","","","","<p style=""color:darkgreen;font-size:24px;"">Correct :)</p>","",""
"2504","key","n","n","16.777900000000372","500","250","psychophysics","265","642217","0.0-265.0","60fe4ee92d2a050caa391eb8","6213c917523e6fed07a1d209","5","","","","","0","6"
"null","","","null","","","","html-keyboard-response","266","642721","0.0-266.0","60fe4ee92d2a050caa391eb8","6213c917523e6fed07a1d209","","","","","<p style=""color:darkgreen;font-size:24px;"">Correct :)</p>","",""
"2709","key","v","v","16.773549382715704","500","250","psychophysics","267","645435","0.0-267.0","60fe4ee92d2a050caa391eb8","6213c917523e6fed07a1d209","5","","","","","0","7"
"null","","","null","","","","html-keyboard-response","268","645938","0.0-268.0","60fe4ee92d2a050caa391eb8","6213c917523e6fed07a1d209","","","","","<p style=""color:darkgreen;font-size:24px;"">Correct :)</p>","",""
"2541","key","v","v","16.885953642383978","500","250","psychophysics","269","648484","0.0-269.0","60fe4ee92d2a050caa391eb8","6213c917523e6fed07a1d209","5","","","","","0","7"
"null","","","null","","","","html-keyboard-response","270","648986","0.0-270.0","60fe4ee92d2a050caa391eb8","6213c917523e6fed07a1d209","","","","","<p style=""color:darkgreen;font-size:24px;"">Correct :)</p>","",""
"2829","key","n","n","16.765922619047895","500","250","psychophysics","271","651820","0.0-271.0","60fe4ee92d2a050caa391eb8","6213c917523e6fed07a1d209","5","","","","","0","2"
"null","","","null","","","","html-keyboard-response","272","652323","0.0-272.0","60fe4ee92d2a050caa391eb8","6213c917523e6fed07a1d209","","","","","<p style=""color:darkgreen;font-size:24px;"">Correct :)</p>","",""
"2651","key","n","n","16.666603773584846","500","250","psychophysics","273","654979","0.0-273.0","60fe4ee92d2a050caa391eb8","6213c917523e6fed07a1d209","5","","","","","0","2"
"null","","","null","","","","html-keyboard-response","274","655482","0.0-274.0","60fe4ee92d2a050caa391eb8","6213c917523e6fed07a1d209","","","","","<p style=""color:darkgreen;font-size:24px;"">Correct :)</p>","",""
"2617","key","n","n","16.992718954247977","500","250","psychophysics","275","658104","0.0-275.0","60fe4ee92d2a050caa391eb8","6213c917523e6fed07a1d209","5","","","","","0","8"
"null","","","null","","","","html-keyboard-response","276","658607","0.0-276.0","60fe4ee92d2a050caa391eb8","6213c917523e6fed07a1d209","","","","","<p style=""color:darkgreen;font-size:24px;"">Correct :)</p>","",""
"2480","key","n","n","16.65513422818786","500","250","psychophysics","277","661093","0.0-277.0","60fe4ee92d2a050caa391eb8","6213c917523e6fed07a1d209","5","","","","","0","2"
"null","","","null","","","","html-keyboard-response","278","661606","0.0-278.0","60fe4ee92d2a050caa391eb8","6213c917523e6fed07a1d209","","","","","<p style=""color:darkgreen;font-size:24px;"">Correct :)</p>","",""
"2500","key","n","n","16.665563758389226","500","250","psychophysics","279","664109","0.0-279.0","60fe4ee92d2a050caa391eb8","6213c917523e6fed07a1d209","5","","","","","0","8"
"null","","","null","","","","html-keyboard-response","280","664611","0.0-280.0","60fe4ee92d2a050caa391eb8","6213c917523e6fed07a1d209","","","","","<p style=""color:darkgreen;font-size:24px;"">Correct :)</p>","",""
"2573","key","n","n","16.666110389610427","500","250","psychophysics","281","667190","0.0-281.0","60fe4ee92d2a050caa391eb8","6213c917523e6fed07a1d209","5","","","","","0","2"
"null","","","null","","","","html-keyboard-response","282","667693","0.0-282.0","60fe4ee92d2a050caa391eb8","6213c917523e6fed07a1d209","","","","","<p style=""color:darkgreen;font-size:24px;"">Correct :)</p>","",""
"2519","key","n","n","16.777533333333363","500","250","psychophysics","283","670218","0.0-283.0","60fe4ee92d2a050caa391eb8","6213c917523e6fed07a1d209","5","","","","","0","8"
"null","","","null","","","","html-keyboard-response","284","670721","0.0-284.0","60fe4ee92d2a050caa391eb8","6213c917523e6fed07a1d209","","","","","<p style=""color:darkgreen;font-size:24px;"">Correct :)</p>","",""
"2524","key","n","n","16.66610000000025","500","250","psychophysics","285","673247","0.0-285.0","60fe4ee92d2a050caa391eb8","6213c917523e6fed07a1d209","5","","","","","0","8"
"null","","","null","","","","html-keyboard-response","286","673750","0.0-286.0","60fe4ee92d2a050caa391eb8","6213c917523e6fed07a1d209","","","","","<p style=""color:darkgreen;font-size:24px;"">Correct :)</p>","",""
"2532","key","v","v","16.66975657894708","500","250","psychophysics","287","676286","0.0-287.0","60fe4ee92d2a050caa391eb8","6213c917523e6fed07a1d209","5","","","","","0","2"
"null","","","null","","","","html-keyboard-response","288","676795","0.0-288.0","60fe4ee92d2a050caa391eb8","6213c917523e6fed07a1d209","","","","","<p style=""color:red;font-size:24px;"">Error :(</p>","",""
"2473","key","n","n","16.778428571428595","500","250","psychophysics","289","679273","0.0-289.0","60fe4ee92d2a050caa391eb8","6213c917523e6fed07a1d209","5","","","","","0","6"
"null","","","null","","","","html-keyboard-response","290","679775","0.0-290.0","60fe4ee92d2a050caa391eb8","6213c917523e6fed07a1d209","","","","","<p style=""color:darkgreen;font-size:24px;"">Correct :)</p>","",""
"2461","key","n","n","16.666979729729654","500","250","psychophysics","291","682241","0.0-291.0","60fe4ee92d2a050caa391eb8","6213c917523e6fed07a1d209","5","","","","","0","6"
"null","","","null","","","","html-keyboard-response","292","682744","0.0-292.0","60fe4ee92d2a050caa391eb8","6213c917523e6fed07a1d209","","","","","<p style=""color:darkgreen;font-size:24px;"">Correct :)</p>","",""
"2502","key","v","v","16.667255033557648","500","250","psychophysics","293","685252","0.0-293.0","60fe4ee92d2a050caa391eb8","6213c917523e6fed07a1d209","5","","","","","0","7"
"null","","","null","","","","html-keyboard-response","294","685754","0.0-294.0","60fe4ee92d2a050caa391eb8","6213c917523e6fed07a1d209","","","","","<p style=""color:darkgreen;font-size:24px;"">Correct :)</p>","",""
"27025","","","v","","","","html-keyboard-response","295","712780","0.0-295.0","60fe4ee92d2a050caa391eb8","6213c917523e6fed07a1d209","","","","","<p> Here, the tasks are going to switch.  For some trials, your job is to decide if the digit is less than or greater than 5.  For others, it is to decide if the digit is even or odd.  You will be told which type of trial the current one is.  But, pay attention, the type of trial changes too.  We are going to do 50 of these.  </p>  <br><br>  Ready? (press v or n)","",""
"2663","key","v","v","16.667793749999692","500","250","psychophysics","296","715449","0.0-296.0","60fe4ee92d2a050caa391eb8","6213c917523e6fed07a1d209","6","","","","","0","3"
"null","","","null","","","","html-keyboard-response","297","715951","0.0-297.0","60fe4ee92d2a050caa391eb8","6213c917523e6fed07a1d209","","","","","<p style=""color:darkgreen;font-size:24px;"">Correct :)</p>","",""
"2518","key","n","n","16.66594039735119","500","250","psychophysics","298","718475","0.0-298.0","60fe4ee92d2a050caa391eb8","6213c917523e6fed07a1d209","6","","","","","1","4"
"null","","","null","","","","html-keyboard-response","299","718977","0.0-299.0","60fe4ee92d2a050caa391eb8","6213c917523e6fed07a1d209","","","","","<p style=""color:red;font-size:24px;"">Error :(</p>","",""
"2932","key","v","v","16.66639204545473","500","250","psychophysics","300","721915","0.0-300.0","60fe4ee92d2a050caa391eb8","6213c917523e6fed07a1d209","6","","","","","1","1"
"null","","","null","","","","html-keyboard-response","301","722418","0.0-301.0","60fe4ee92d2a050caa391eb8","6213c917523e6fed07a1d209","","","","","<p style=""color:darkgreen;font-size:24px;"">Correct :)</p>","",""
"2579","key","n","n","16.77486363636381","500","250","psychophysics","302","725003","0.0-302.0","60fe4ee92d2a050caa391eb8","6213c917523e6fed07a1d209","6","","","","","0","2"
"null","","","null","","","","html-keyboard-response","303","725507","0.0-303.0","60fe4ee92d2a050caa391eb8","6213c917523e6fed07a1d209","","","","","<p style=""color:darkgreen;font-size:24px;"">Correct :)</p>","",""
"2703","key","n","n","16.76948148148123","500","250","psychophysics","304","728216","0.0-304.0","60fe4ee92d2a050caa391eb8","6213c917523e6fed07a1d209","6","","","","","1","6"
"null","","","null","","","","html-keyboard-response","305","728719","0.0-305.0","60fe4ee92d2a050caa391eb8","6213c917523e6fed07a1d209","","","","","<p style=""color:darkgreen;font-size:24px;"">Correct :)</p>","",""
"3011","key","n","n","16.853073033707588","500","250","psychophysics","306","731735","0.0-306.0","60fe4ee92d2a050caa391eb8","6213c917523e6fed07a1d209","6","","","","","1","6"
"null","","","null","","","","html-keyboard-response","307","732238","0.0-307.0","60fe4ee92d2a050caa391eb8","6213c917523e6fed07a1d209","","","","","<p style=""color:darkgreen;font-size:24px;"">Correct :)</p>","",""
"2663","key","v","v","16.864607594936757","500","250","psychophysics","308","734906","0.0-308.0","60fe4ee92d2a050caa391eb8","6213c917523e6fed07a1d209","6","","","","","0","3"
"null","","","null","","","","html-keyboard-response","309","735416","0.0-309.0","60fe4ee92d2a050caa391eb8","6213c917523e6fed07a1d209","","","","","<p style=""color:darkgreen;font-size:24px;"">Correct :)</p>","",""
"2544","key","n","n","16.66532894736845","500","250","psychophysics","310","737964","0.0-310.0","60fe4ee92d2a050caa391eb8","6213c917523e6fed07a1d209","6","","","","","1","6"
"null","","","null","","","","html-keyboard-response","311","738466","0.0-311.0","60fe4ee92d2a050caa391eb8","6213c917523e6fed07a1d209","","","","","<p style=""color:darkgreen;font-size:24px;"">Correct :)</p>","",""
"2583","key","n","n","16.66612987012932","500","250","psychophysics","312","741053","0.0-312.0","60fe4ee92d2a050caa391eb8","6213c917523e6fed07a1d209","6","","","","","0","2"
"null","","","null","","","","html-keyboard-response","313","741554","0.0-313.0","60fe4ee92d2a050caa391eb8","6213c917523e6fed07a1d209","","","","","<p style=""color:darkgreen;font-size:24px;"">Correct :)</p>","",""
"2496","key","v","v","16.777201342282368","500","250","psychophysics","314","744057","0.0-314.0","60fe4ee92d2a050caa391eb8","6213c917523e6fed07a1d209","6","","","","","0","1"
"null","","","null","","","","html-keyboard-response","315","744559","0.0-315.0","60fe4ee92d2a050caa391eb8","6213c917523e6fed07a1d209","","","","","<p style=""color:darkgreen;font-size:24px;"">Correct :)</p>","",""
"3055","key","v","v","16.757807692307544","500","250","psychophysics","316","747620","0.0-316.0","60fe4ee92d2a050caa391eb8","6213c917523e6fed07a1d209","6","","","","","0","1"
"null","","","null","","","","html-keyboard-response","317","748123","0.0-317.0","60fe4ee92d2a050caa391eb8","6213c917523e6fed07a1d209","","","","","<p style=""color:darkgreen;font-size:24px;"">Correct :)</p>","",""
"2528","key","n","n","17.00122818791998","500","250","psychophysics","318","750656","0.0-318.0","60fe4ee92d2a050caa391eb8","6213c917523e6fed07a1d209","6","","","","","1","9"
"null","","","null","","","","html-keyboard-response","319","751160","0.0-319.0","60fe4ee92d2a050caa391eb8","6213c917523e6fed07a1d209","","","","","<p style=""color:darkgreen;font-size:24px;"">Correct :)</p>","",""
"2676","key","v","v","16.667293749999953","500","250","psychophysics","320","753840","0.0-320.0","60fe4ee92d2a050caa391eb8","6213c917523e6fed07a1d209","6","","","","","0","2"
"null","","","null","","","","html-keyboard-response","321","754344","0.0-321.0","60fe4ee92d2a050caa391eb8","6213c917523e6fed07a1d209","","","","","<p style=""color:red;font-size:24px;"">Error :(</p>","",""
"3095","key","n","n","16.667016129031957","500","250","psychophysics","322","757445","0.0-322.0","60fe4ee92d2a050caa391eb8","6213c917523e6fed07a1d209","6","","","","","0","8"
"null","","","null","","","","html-keyboard-response","323","757949","0.0-323.0","60fe4ee92d2a050caa391eb8","6213c917523e6fed07a1d209","","","","","<p style=""color:darkgreen;font-size:24px;"">Correct :)</p>","",""
"2811","key","v","v","16.66611834319471","500","250","psychophysics","324","760767","0.0-324.0","60fe4ee92d2a050caa391eb8","6213c917523e6fed07a1d209","6","","","","","0","1"
"null","","","null","","","","html-keyboard-response","325","761270","0.0-325.0","60fe4ee92d2a050caa391eb8","6213c917523e6fed07a1d209","","","","","<p style=""color:darkgreen;font-size:24px;"">Correct :)</p>","",""
"3042","key","v","v","16.66577595628447","500","250","psychophysics","326","764318","0.0-326.0","60fe4ee92d2a050caa391eb8","6213c917523e6fed07a1d209","6","","","","","1","2"
"null","","","null","","","","html-keyboard-response","327","764820","0.0-327.0","60fe4ee92d2a050caa391eb8","6213c917523e6fed07a1d209","","","","","<p style=""color:darkgreen;font-size:24px;"">Correct :)</p>","",""
"2664","key","v","v","16.87681645569627","500","250","psychophysics","328","767490","0.0-328.0","60fe4ee92d2a050caa391eb8","6213c917523e6fed07a1d209","6","","","","","0","7"
"null","","","null","","","","html-keyboard-response","329","767993","0.0-329.0","60fe4ee92d2a050caa391eb8","6213c917523e6fed07a1d209","","","","","<p style=""color:darkgreen;font-size:24px;"">Correct :)</p>","",""
"2564","key","v","v","16.666344155844712","500","250","psychophysics","330","770563","0.0-330.0","60fe4ee92d2a050caa391eb8","6213c917523e6fed07a1d209","6","","","","","1","3"
"null","","","null","","","","html-keyboard-response","331","771068","0.0-331.0","60fe4ee92d2a050caa391eb8","6213c917523e6fed07a1d209","","","","","<p style=""color:darkgreen;font-size:24px;"">Correct :)</p>","",""
"2501","key","n","n","16.77927027027063","500","250","psychophysics","332","773572","0.0-332.0","60fe4ee92d2a050caa391eb8","6213c917523e6fed07a1d209","6","","","","","1","9"
"null","","","null","","","","html-keyboard-response","333","774074","0.0-333.0","60fe4ee92d2a050caa391eb8","6213c917523e6fed07a1d209","","","","","<p style=""color:darkgreen;font-size:24px;"">Correct :)</p>","",""
"3220","key","n","n","16.66555440414533","500","250","psychophysics","334","777302","0.0-334.0","60fe4ee92d2a050caa391eb8","6213c917523e6fed07a1d209","6","","","","","1","8"
"null","","","null","","","","html-keyboard-response","335","777804","0.0-335.0","60fe4ee92d2a050caa391eb8","6213c917523e6fed07a1d209","","","","","<p style=""color:darkgreen;font-size:24px;"">Correct :)</p>","",""
"2937","key","v","v","16.760880681818392","500","250","psychophysics","336","780747","0.0-336.0","60fe4ee92d2a050caa391eb8","6213c917523e6fed07a1d209","6","","","","","1","1"
"null","","","null","","","","html-keyboard-response","337","781249","0.0-337.0","60fe4ee92d2a050caa391eb8","6213c917523e6fed07a1d209","","","","","<p style=""color:darkgreen;font-size:24px;"">Correct :)</p>","",""
"2522","key","v","v","16.665947368421353","500","250","psychophysics","338","783777","0.0-338.0","60fe4ee92d2a050caa391eb8","6213c917523e6fed07a1d209","6","","","","","1","4"
"null","","","null","","","","html-keyboard-response","339","784279","0.0-339.0","60fe4ee92d2a050caa391eb8","6213c917523e6fed07a1d209","","","","","<p style=""color:darkgreen;font-size:24px;"">Correct :)</p>","",""
"2737","key","v","v","16.666591463414612","500","250","psychophysics","340","787021","0.0-340.0","60fe4ee92d2a050caa391eb8","6213c917523e6fed07a1d209","6","","","","","1","4"
"null","","","null","","","","html-keyboard-response","341","787524","0.0-341.0","60fe4ee92d2a050caa391eb8","6213c917523e6fed07a1d209","","","","","<p style=""color:darkgreen;font-size:24px;"">Correct :)</p>","",""
"2722","key","v","v","16.769679012345467","500","250","psychophysics","342","790251","0.0-342.0","60fe4ee92d2a050caa391eb8","6213c917523e6fed07a1d209","6","","","","","0","3"
"null","","","null","","","","html-keyboard-response","343","790753","0.0-343.0","60fe4ee92d2a050caa391eb8","6213c917523e6fed07a1d209","","","","","<p style=""color:darkgreen;font-size:24px;"">Correct :)</p>","",""
"2879","key","n","n","16.664606936415925","500","250","psychophysics","344","793640","0.0-344.0","60fe4ee92d2a050caa391eb8","6213c917523e6fed07a1d209","6","","","","","1","6"
"null","","","null","","","","html-keyboard-response","345","794143","0.0-345.0","60fe4ee92d2a050caa391eb8","6213c917523e6fed07a1d209","","","","","<p style=""color:darkgreen;font-size:24px;"">Correct :)</p>","",""
"3005","key","n","n","16.759290502793625","500","250","psychophysics","346","797153","0.0-346.0","60fe4ee92d2a050caa391eb8","6213c917523e6fed07a1d209","6","","","","","1","8"
"null","","","null","","","","html-keyboard-response","347","797656","0.0-347.0","60fe4ee92d2a050caa391eb8","6213c917523e6fed07a1d209","","","","","<p style=""color:darkgreen;font-size:24px;"">Correct :)</p>","",""
"2694","key","v","v","16.665180124223856","500","250","psychophysics","348","800355","0.0-348.0","60fe4ee92d2a050caa391eb8","6213c917523e6fed07a1d209","6","","","","","1","2"
"null","","","null","","","","html-keyboard-response","349","800869","0.0-349.0","60fe4ee92d2a050caa391eb8","6213c917523e6fed07a1d209","","","","","<p style=""color:darkgreen;font-size:24px;"">Correct :)</p>","",""
"2755","key","v","v","16.767719512195583","500","250","psychophysics","350","803630","0.0-350.0","60fe4ee92d2a050caa391eb8","6213c917523e6fed07a1d209","6","","","","","1","1"
"null","","","null","","","","html-keyboard-response","351","804134","0.0-351.0","60fe4ee92d2a050caa391eb8","6213c917523e6fed07a1d209","","","","","<p style=""color:darkgreen;font-size:24px;"">Correct :)</p>","",""
"2665","key","v","v","16.658837499999937","500","250","psychophysics","352","806807","0.0-352.0","60fe4ee92d2a050caa391eb8","6213c917523e6fed07a1d209","6","","","","","1","3"
"null","","","null","","","","html-keyboard-response","353","807309","0.0-353.0","60fe4ee92d2a050caa391eb8","6213c917523e6fed07a1d209","","","","","<p style=""color:darkgreen;font-size:24px;"">Correct :)</p>","",""
"2561","key","v","v","16.77571895424797","500","250","psychophysics","354","809878","0.0-354.0","60fe4ee92d2a050caa391eb8","6213c917523e6fed07a1d209","6","","","","","1","4"
"null","","","null","","","","html-keyboard-response","355","810381","0.0-355.0","60fe4ee92d2a050caa391eb8","6213c917523e6fed07a1d209","","","","","<p style=""color:darkgreen;font-size:24px;"">Correct :)</p>","",""
"3010","key","n","n","16.75956666666639","500","250","psychophysics","356","813396","0.0-356.0","60fe4ee92d2a050caa391eb8","6213c917523e6fed07a1d209","6","","","","","0","4"
"null","","","null","","","","html-keyboard-response","357","813899","0.0-357.0","60fe4ee92d2a050caa391eb8","6213c917523e6fed07a1d209","","","","","<p style=""color:darkgreen;font-size:24px;"">Correct :)</p>","",""
"2946","key","n","n","16.665553672316793","500","250","psychophysics","358","816850","0.0-358.0","60fe4ee92d2a050caa391eb8","6213c917523e6fed07a1d209","6","","","","","0","6"
"null","","","null","","","","html-keyboard-response","359","817354","0.0-359.0","60fe4ee92d2a050caa391eb8","6213c917523e6fed07a1d209","","","","","<p style=""color:darkgreen;font-size:24px;"">Correct :)</p>","",""
"2920","key","v","v","16.760862857143263","500","250","psychophysics","360","820280","0.0-360.0","60fe4ee92d2a050caa391eb8","6213c917523e6fed07a1d209","6","","","","","1","4"
"null","","","null","","","","html-keyboard-response","361","820782","0.0-361.0","60fe4ee92d2a050caa391eb8","6213c917523e6fed07a1d209","","","","","<p style=""color:darkgreen;font-size:24px;"">Correct :)</p>","",""
"2574","key","n","n","16.666212903226036","500","250","psychophysics","362","823362","0.0-362.0","60fe4ee92d2a050caa391eb8","6213c917523e6fed07a1d209","6","","","","","1","6"
"null","","","null","","","","html-keyboard-response","363","823864","0.0-363.0","60fe4ee92d2a050caa391eb8","6213c917523e6fed07a1d209","","","","","<p style=""color:darkgreen;font-size:24px;"">Correct :)</p>","",""
"2815","key","v","v","16.765267857142526","500","250","psychophysics","364","826685","0.0-364.0","60fe4ee92d2a050caa391eb8","6213c917523e6fed07a1d209","6","","","","","1","1"
"null","","","null","","","","html-keyboard-response","365","827187","0.0-365.0","60fe4ee92d2a050caa391eb8","6213c917523e6fed07a1d209","","","","","<p style=""color:darkgreen;font-size:24px;"">Correct :)</p>","",""
"2483","key","v","v","16.665791946308588","500","250","psychophysics","366","829678","0.0-366.0","60fe4ee92d2a050caa391eb8","6213c917523e6fed07a1d209","6","","","","","0","3"
"null","","","null","","","","html-keyboard-response","367","830180","0.0-367.0","60fe4ee92d2a050caa391eb8","6213c917523e6fed07a1d209","","","","","<p style=""color:darkgreen;font-size:24px;"">Correct :)</p>","",""
"2562","key","n","n","16.666831168830665","500","250","psychophysics","368","832748","0.0-368.0","60fe4ee92d2a050caa391eb8","6213c917523e6fed07a1d209","6","","","","","0","6"
"null","","","null","","","","html-keyboard-response","369","833250","0.0-369.0","60fe4ee92d2a050caa391eb8","6213c917523e6fed07a1d209","","","","","<p style=""color:darkgreen;font-size:24px;"">Correct :)</p>","",""
"2854","key","v","v","16.765596491228163","500","250","psychophysics","370","836112","0.0-370.0","60fe4ee92d2a050caa391eb8","6213c917523e6fed07a1d209","6","","","","","0","1"
"null","","","null","","","","html-keyboard-response","371","836615","0.0-371.0","60fe4ee92d2a050caa391eb8","6213c917523e6fed07a1d209","","","","","<p style=""color:darkgreen;font-size:24px;"">Correct :)</p>","",""
"2741","key","v","v","16.666296969697047","500","250","psychophysics","372","839362","0.0-372.0","60fe4ee92d2a050caa391eb8","6213c917523e6fed07a1d209","6","","","","","0","1"
"null","","","null","","","","html-keyboard-response","373","839864","0.0-373.0","60fe4ee92d2a050caa391eb8","6213c917523e6fed07a1d209","","","","","<p style=""color:darkgreen;font-size:24px;"">Correct :)</p>","",""
"2714","key","v","v","16.66610429447824","500","250","psychophysics","374","842584","0.0-374.0","60fe4ee92d2a050caa391eb8","6213c917523e6fed07a1d209","6","","","","","1","1"
"null","","","null","","","","html-keyboard-response","375","843097","0.0-375.0","60fe4ee92d2a050caa391eb8","6213c917523e6fed07a1d209","","","","","<p style=""color:darkgreen;font-size:24px;"">Correct :)</p>","",""
"2428","key","n","n","17.014566433566323","500","250","psychophysics","376","845530","0.0-376.0","60fe4ee92d2a050caa391eb8","6213c917523e6fed07a1d209","6","","","","","0","8"
"null","","","null","","","","html-keyboard-response","377","846033","0.0-377.0","60fe4ee92d2a050caa391eb8","6213c917523e6fed07a1d209","","","","","<p style=""color:darkgreen;font-size:24px;"">Correct :)</p>","",""
"3073","key","v","v","16.66697297297305","500","250","psychophysics","378","849112","0.0-378.0","60fe4ee92d2a050caa391eb8","6213c917523e6fed07a1d209","6","","","","","0","9"
"null","","","null","","","","html-keyboard-response","379","849615","0.0-379.0","60fe4ee92d2a050caa391eb8","6213c917523e6fed07a1d209","","","","","<p style=""color:darkgreen;font-size:24px;"">Correct :)</p>","",""
"2590","key","v","v","16.66481935483884","500","250","psychophysics","380","852208","0.0-380.0","60fe4ee92d2a050caa391eb8","6213c917523e6fed07a1d209","6","","","","","1","4"
"null","","","null","","","","html-keyboard-response","381","852710","0.0-381.0","60fe4ee92d2a050caa391eb8","6213c917523e6fed07a1d209","","","","","<p style=""color:darkgreen;font-size:24px;"">Correct :)</p>","",""
"2572","key","n","n","16.997582781457016","500","250","psychophysics","382","855289","0.0-382.0","60fe4ee92d2a050caa391eb8","6213c917523e6fed07a1d209","6","","","","","1","6"
"null","","","null","","","","html-keyboard-response","383","855792","0.0-383.0","60fe4ee92d2a050caa391eb8","6213c917523e6fed07a1d209","","","","","<p style=""color:darkgreen;font-size:24px;"">Correct :)</p>","",""
"2633","key","n","n","16.66663694267523","500","250","psychophysics","384","858430","0.0-384.0","60fe4ee92d2a050caa391eb8","6213c917523e6fed07a1d209","6","","","","","0","8"
"null","","","null","","","","html-keyboard-response","385","858933","0.0-385.0","60fe4ee92d2a050caa391eb8","6213c917523e6fed07a1d209","","","","","<p style=""color:darkgreen;font-size:24px;"">Correct :)</p>","",""
"2879","key","n","n","16.675855491329873","500","250","psychophysics","386","861818","0.0-386.0","60fe4ee92d2a050caa391eb8","6213c917523e6fed07a1d209","6","","","","","0","2"
"null","","","null","","","","html-keyboard-response","387","862319","0.0-387.0","60fe4ee92d2a050caa391eb8","6213c917523e6fed07a1d209","","","","","<p style=""color:darkgreen;font-size:24px;"">Correct :)</p>","",""
"2889","key","v","v","16.665097701149836","500","250","psychophysics","388","865214","0.0-388.0","60fe4ee92d2a050caa391eb8","6213c917523e6fed07a1d209","6","","","","","1","2"
"null","","","null","","","","html-keyboard-response","389","865715","0.0-389.0","60fe4ee92d2a050caa391eb8","6213c917523e6fed07a1d209","","","","","<p style=""color:darkgreen;font-size:24px;"">Correct :)</p>","",""
"2621","key","v","v","16.767675159235818","500","250","psychophysics","390","868343","0.0-390.0","60fe4ee92d2a050caa391eb8","6213c917523e6fed07a1d209","6","","","","","1","3"
"null","","","null","","","","html-keyboard-response","391","868846","0.0-391.0","60fe4ee92d2a050caa391eb8","6213c917523e6fed07a1d209","","","","","<p style=""color:darkgreen;font-size:24px;"">Correct :)</p>","",""
"2493","key","n","n","16.665846666666525","500","250","psychophysics","392","871346","0.0-392.0","60fe4ee92d2a050caa391eb8","6213c917523e6fed07a1d209","6","","","","","1","7"
"null","","","null","","","","html-keyboard-response","393","871848","0.0-393.0","60fe4ee92d2a050caa391eb8","6213c917523e6fed07a1d209","","","","","<p style=""color:darkgreen;font-size:24px;"">Correct :)</p>","",""
"2580","key","v","v","16.66592857142829","500","250","psychophysics","394","874432","0.0-394.0","60fe4ee92d2a050caa391eb8","6213c917523e6fed07a1d209","6","","","","","1","2"
"null","","","null","","","","html-keyboard-response","395","874934","0.0-395.0","60fe4ee92d2a050caa391eb8","6213c917523e6fed07a1d209","","","","","<p style=""color:darkgreen;font-size:24px;"">Correct :)</p>","",""
"4783","","","v","","","","html-keyboard-response","396","879719","0.0-396.0","60fe4ee92d2a050caa391eb8","6213c917523e6fed07a1d209","","","","","<p> Last set of trials.  Here, the tasks are going to switch once again.  We are going to do 50 of these.  And then you are done with the experiment.  </p>  <br><br>  Ready? (press v or n)","",""
"2560","key","n","n","16.7746993464051","500","250","psychophysics","397","882284","0.0-397.0","60fe4ee92d2a050caa391eb8","6213c917523e6fed07a1d209","7","","","","","1","6"
"null","","","null","","","","html-keyboard-response","398","882798","0.0-398.0","60fe4ee92d2a050caa391eb8","6213c917523e6fed07a1d209","","","","","<p style=""color:darkgreen;font-size:24px;"">Correct :)</p>","",""
"2574","key","v","v","16.653740259740115","500","250","psychophysics","399","885377","0.0-399.0","60fe4ee92d2a050caa391eb8","6213c917523e6fed07a1d209","7","","","","","1","1"
"null","","","null","","","","html-keyboard-response","400","885879","0.0-400.0","60fe4ee92d2a050caa391eb8","6213c917523e6fed07a1d209","","","","","<p style=""color:darkgreen;font-size:24px;"">Correct :)</p>","",""
"2874","key","v","v","16.66579768786172","500","250","psychophysics","401","888762","0.0-401.0","60fe4ee92d2a050caa391eb8","6213c917523e6fed07a1d209","7","","","","","0","7"
"null","","","null","","","","html-keyboard-response","402","889264","0.0-402.0","60fe4ee92d2a050caa391eb8","6213c917523e6fed07a1d209","","","","","<p style=""color:darkgreen;font-size:24px;"">Correct :)</p>","",""
"2650","key","n","n","16.6663018867927","500","250","psychophysics","403","891920","0.0-403.0","60fe4ee92d2a050caa391eb8","6213c917523e6fed07a1d209","7","","","","","0","2"
"null","","","null","","","","html-keyboard-response","404","892422","0.0-404.0","60fe4ee92d2a050caa391eb8","6213c917523e6fed07a1d209","","","","","<p style=""color:darkgreen;font-size:24px;"">Correct :)</p>","",""
"2660","key","n","n","16.77122151898736","500","250","psychophysics","405","895087","0.0-405.0","60fe4ee92d2a050caa391eb8","6213c917523e6fed07a1d209","7","","","","","0","2"
"null","","","null","","","","html-keyboard-response","406","895590","0.0-406.0","60fe4ee92d2a050caa391eb8","6213c917523e6fed07a1d209","","","","","<p style=""color:darkgreen;font-size:24px;"">Correct :)</p>","",""
"2518","key","n","n","16.66592715231822","500","250","psychophysics","407","898114","0.0-407.0","60fe4ee92d2a050caa391eb8","6213c917523e6fed07a1d209","7","","","","","0","4"
"null","","","null","","","","html-keyboard-response","408","898617","0.0-408.0","60fe4ee92d2a050caa391eb8","6213c917523e6fed07a1d209","","","","","<p style=""color:darkgreen;font-size:24px;"">Correct :)</p>","",""
"2911","key","v","v","16.957569767441466","500","250","psychophysics","409","901534","0.0-409.0","60fe4ee92d2a050caa391eb8","6213c917523e6fed07a1d209","7","","","","","1","2"
"null","","","null","","","","html-keyboard-response","410","902035","0.0-410.0","60fe4ee92d2a050caa391eb8","6213c917523e6fed07a1d209","","","","","<p style=""color:darkgreen;font-size:24px;"">Correct :)</p>","",""
"3102","key","v","v","16.755940540540788","500","250","psychophysics","411","905140","0.0-411.0","60fe4ee92d2a050caa391eb8","6213c917523e6fed07a1d209","7","","","","","0","7"
"null","","","null","","","","html-keyboard-response","412","905644","0.0-412.0","60fe4ee92d2a050caa391eb8","6213c917523e6fed07a1d209","","","","","<p style=""color:darkgreen;font-size:24px;"">Correct :)</p>","",""
"2818","key","n","n","16.665757396449223","500","250","psychophysics","413","908467","0.0-413.0","60fe4ee92d2a050caa391eb8","6213c917523e6fed07a1d209","7","","","","","1","6"
"null","","","null","","","","html-keyboard-response","414","908971","0.0-414.0","60fe4ee92d2a050caa391eb8","6213c917523e6fed07a1d209","","","","","<p style=""color:darkgreen;font-size:24px;"">Correct :)</p>","",""
"2915","key","n","n","16.666505747126823","500","250","psychophysics","415","911890","0.0-415.0","60fe4ee92d2a050caa391eb8","6213c917523e6fed07a1d209","7","","","","","0","2"
"null","","","null","","","","html-keyboard-response","416","912393","0.0-416.0","60fe4ee92d2a050caa391eb8","6213c917523e6fed07a1d209","","","","","<p style=""color:darkgreen;font-size:24px;"">Correct :)</p>","",""
"2907","key","v","v","16.66605714285746","500","250","psychophysics","417","915306","0.0-417.0","60fe4ee92d2a050caa391eb8","6213c917523e6fed07a1d209","7","","","","","1","2"
"null","","","null","","","","html-keyboard-response","418","915813","0.0-418.0","60fe4ee92d2a050caa391eb8","6213c917523e6fed07a1d209","","","","","<p style=""color:darkgreen;font-size:24px;"">Correct :)</p>","",""
"2736","key","v","v","16.66522424242417","500","250","psychophysics","419","918555","0.0-419.0","60fe4ee92d2a050caa391eb8","6213c917523e6fed07a1d209","7","","","","","1","3"
"null","","","null","","","","html-keyboard-response","420","919058","0.0-420.0","60fe4ee92d2a050caa391eb8","6213c917523e6fed07a1d209","","","","","<p style=""color:darkgreen;font-size:24px;"">Correct :)</p>","",""
"3146","key","n","n","16.936432432432383","500","250","psychophysics","421","922209","0.0-421.0","60fe4ee92d2a050caa391eb8","6213c917523e6fed07a1d209","7","","","","","1","7"
"null","","","null","","","","html-keyboard-response","422","922711","0.0-422.0","60fe4ee92d2a050caa391eb8","6213c917523e6fed07a1d209","","","","","<p style=""color:darkgreen;font-size:24px;"">Correct :)</p>","",""
"2597","key","v","v","16.993921052631585","500","250","psychophysics","423","925312","0.0-423.0","60fe4ee92d2a050caa391eb8","6213c917523e6fed07a1d209","7","","","","","1","4"
"null","","","null","","","","html-keyboard-response","424","925814","0.0-424.0","60fe4ee92d2a050caa391eb8","6213c917523e6fed07a1d209","","","","","<p style=""color:darkgreen;font-size:24px;"">Correct :)</p>","",""
"3107","key","n","n","16.747548913043474","500","250","psychophysics","425","928924","0.0-425.0","60fe4ee92d2a050caa391eb8","6213c917523e6fed07a1d209","7","","","","","0","2"
"null","","","null","","","","html-keyboard-response","426","929427","0.0-426.0","60fe4ee92d2a050caa391eb8","6213c917523e6fed07a1d209","","","","","<p style=""color:darkgreen;font-size:24px;"">Correct :)</p>","",""
"2773","key","v","v","16.655670658683174","500","250","psychophysics","427","932207","0.0-427.0","60fe4ee92d2a050caa391eb8","6213c917523e6fed07a1d209","7","","","","","0","3"
"null","","","null","","","","html-keyboard-response","428","932708","0.0-428.0","60fe4ee92d2a050caa391eb8","6213c917523e6fed07a1d209","","","","","<p style=""color:darkgreen;font-size:24px;"">Correct :)</p>","",""
"2634","key","v","v","16.88008333333374","500","250","psychophysics","429","935348","0.0-429.0","60fe4ee92d2a050caa391eb8","6213c917523e6fed07a1d209","7","","","","","0","7"
"null","","","null","","","","html-keyboard-response","430","935851","0.0-430.0","60fe4ee92d2a050caa391eb8","6213c917523e6fed07a1d209","","","","","<p style=""color:darkgreen;font-size:24px;"">Correct :)</p>","",""
"2442","key","v","v","16.66673972602768","500","250","psychophysics","431","938298","0.0-431.0","60fe4ee92d2a050caa391eb8","6213c917523e6fed07a1d209","7","","","","","1","1"
"null","","","null","","","","html-keyboard-response","432","938800","0.0-432.0","60fe4ee92d2a050caa391eb8","6213c917523e6fed07a1d209","","","","","<p style=""color:darkgreen;font-size:24px;"">Correct :)</p>","",""
"2992","key","n","n","16.655999999999995","500","250","psychophysics","433","941798","0.0-433.0","60fe4ee92d2a050caa391eb8","6213c917523e6fed07a1d209","7","","","","","1","2"
"null","","","null","","","","html-keyboard-response","434","942301","0.0-434.0","60fe4ee92d2a050caa391eb8","6213c917523e6fed07a1d209","","","","","<p style=""color:red;font-size:24px;"">Error :(</p>","",""
"2887","key","n","n","16.762930232558404","500","250","psychophysics","435","945193","0.0-435.0","60fe4ee92d2a050caa391eb8","6213c917523e6fed07a1d209","7","","","","","0","2"
"null","","","null","","","","html-keyboard-response","436","945695","0.0-436.0","60fe4ee92d2a050caa391eb8","6213c917523e6fed07a1d209","","","","","<p style=""color:darkgreen;font-size:24px;"">Correct :)</p>","",""
"2971","key","n","n","16.76080898876404","500","250","psychophysics","437","948671","0.0-437.0","60fe4ee92d2a050caa391eb8","6213c917523e6fed07a1d209","7","","","","","1","7"
"null","","","null","","","","html-keyboard-response","438","949173","0.0-438.0","60fe4ee92d2a050caa391eb8","6213c917523e6fed07a1d209","","","","","<p style=""color:darkgreen;font-size:24px;"">Correct :)</p>","",""
"2617","key","v","v","16.77465806451566","500","250","psychophysics","439","951795","0.0-439.0","60fe4ee92d2a050caa391eb8","6213c917523e6fed07a1d209","7","","","","","0","1"
"null","","","null","","","","html-keyboard-response","440","952298","0.0-440.0","60fe4ee92d2a050caa391eb8","6213c917523e6fed07a1d209","","","","","<p style=""color:darkgreen;font-size:24px;"">Correct :)</p>","",""
"2587","key","v","v","16.762206451612855","500","250","psychophysics","441","954892","0.0-441.0","60fe4ee92d2a050caa391eb8","6213c917523e6fed07a1d209","7","","","","","1","4"
"null","","","null","","","","html-keyboard-response","442","955393","0.0-442.0","60fe4ee92d2a050caa391eb8","6213c917523e6fed07a1d209","","","","","<p style=""color:darkgreen;font-size:24px;"">Correct :)</p>","",""
"2629","key","v","v","16.88039354838716","500","250","psychophysics","443","958028","0.0-443.0","60fe4ee92d2a050caa391eb8","6213c917523e6fed07a1d209","7","","","","","1","3"
"null","","","null","","","","html-keyboard-response","444","958531","0.0-444.0","60fe4ee92d2a050caa391eb8","6213c917523e6fed07a1d209","","","","","<p style=""color:darkgreen;font-size:24px;"">Correct :)</p>","",""
"3018","key","n","n","16.665972527472817","500","250","psychophysics","445","961555","0.0-445.0","60fe4ee92d2a050caa391eb8","6213c917523e6fed07a1d209","7","","","","","0","1"
"null","","","null","","","","html-keyboard-response","446","962056","0.0-446.0","60fe4ee92d2a050caa391eb8","6213c917523e6fed07a1d209","","","","","<p style=""color:red;font-size:24px;"">Error :(</p>","",""
"2931","key","n","n","16.665542857142697","500","250","psychophysics","447","964992","0.0-447.0","60fe4ee92d2a050caa391eb8","6213c917523e6fed07a1d209","7","","","","","1","6"
"null","","","null","","","","html-keyboard-response","448","965495","0.0-448.0","60fe4ee92d2a050caa391eb8","6213c917523e6fed07a1d209","","","","","<p style=""color:darkgreen;font-size:24px;"">Correct :)</p>","",""
"2988","key","n","n","16.65682777777806","500","250","psychophysics","449","968489","0.0-449.0","60fe4ee92d2a050caa391eb8","6213c917523e6fed07a1d209","7","","","","","1","7"
"null","","","null","","","","html-keyboard-response","450","968991","0.0-450.0","60fe4ee92d2a050caa391eb8","6213c917523e6fed07a1d209","","","","","<p style=""color:darkgreen;font-size:24px;"">Correct :)</p>","",""
"2934","key","n","n","16.66649431818157","500","250","psychophysics","451","971931","0.0-451.0","60fe4ee92d2a050caa391eb8","6213c917523e6fed07a1d209","7","","","","","1","6"
"null","","","null","","","","html-keyboard-response","452","972434","0.0-452.0","60fe4ee92d2a050caa391eb8","6213c917523e6fed07a1d209","","","","","<p style=""color:darkgreen;font-size:24px;"">Correct :)</p>","",""
"2691","key","n","n","16.77089374999996","500","250","psychophysics","453","975131","0.0-453.0","60fe4ee92d2a050caa391eb8","6213c917523e6fed07a1d209","7","","","","","0","6"
"null","","","null","","","","html-keyboard-response","454","975633","0.0-454.0","60fe4ee92d2a050caa391eb8","6213c917523e6fed07a1d209","","","","","<p style=""color:darkgreen;font-size:24px;"">Correct :)</p>","",""
"2548","key","v","v","16.775506578947226","500","250","psychophysics","455","978192","0.0-455.0","60fe4ee92d2a050caa391eb8","6213c917523e6fed07a1d209","7","","","","","1","4"
"null","","","null","","","","html-keyboard-response","456","978694","0.0-456.0","60fe4ee92d2a050caa391eb8","6213c917523e6fed07a1d209","","","","","<p style=""color:darkgreen;font-size:24px;"">Correct :)</p>","",""
"2820","key","n","n","16.665341176470633","500","250","psychophysics","457","981520","0.0-457.0","60fe4ee92d2a050caa391eb8","6213c917523e6fed07a1d209","7","","","","","0","7"
"null","","","null","","","","html-keyboard-response","458","982023","0.0-458.0","60fe4ee92d2a050caa391eb8","6213c917523e6fed07a1d209","","","","","<p style=""color:red;font-size:24px;"">Error :(</p>","",""
"3244","key","n","n","16.665419689119055","500","250","psychophysics","459","985270","0.0-459.0","60fe4ee92d2a050caa391eb8","6213c917523e6fed07a1d209","7","","","","","0","2"
"null","","","null","","","","html-keyboard-response","460","985785","0.0-460.0","60fe4ee92d2a050caa391eb8","6213c917523e6fed07a1d209","","","","","<p style=""color:darkgreen;font-size:24px;"">Correct :)</p>","",""
"2888","key","v","v","16.862654970760037","500","250","psychophysics","461","988680","0.0-461.0","60fe4ee92d2a050caa391eb8","6213c917523e6fed07a1d209","7","","","","","0","7"
"null","","","null","","","","html-keyboard-response","462","989182","0.0-462.0","60fe4ee92d2a050caa391eb8","6213c917523e6fed07a1d209","","","","","<p style=""color:darkgreen;font-size:24px;"">Correct :)</p>","",""
"2849","key","v","v","16.665356725145934","500","250","psychophysics","463","992039","0.0-463.0","60fe4ee92d2a050caa391eb8","6213c917523e6fed07a1d209","7","","","","","0","1"
"null","","","null","","","","html-keyboard-response","464","992540","0.0-464.0","60fe4ee92d2a050caa391eb8","6213c917523e6fed07a1d209","","","","","<p style=""color:darkgreen;font-size:24px;"">Correct :)</p>","",""
"2776","key","v","v","16.76677710843393","500","250","psychophysics","465","995322","0.0-465.0","60fe4ee92d2a050caa391eb8","6213c917523e6fed07a1d209","7","","","","","0","3"
"null","","","null","","","","html-keyboard-response","466","995825","0.0-466.0","60fe4ee92d2a050caa391eb8","6213c917523e6fed07a1d209","","","","","<p style=""color:darkgreen;font-size:24px;"">Correct :)</p>","",""
"3018","key","n","n","16.75873333333293","500","250","psychophysics","467","998848","0.0-467.0","60fe4ee92d2a050caa391eb8","6213c917523e6fed07a1d209","7","","","","","0","4"
"null","","","null","","","","html-keyboard-response","468","999349","0.0-468.0","60fe4ee92d2a050caa391eb8","6213c917523e6fed07a1d209","","","","","<p style=""color:darkgreen;font-size:24px;"">Correct :)</p>","",""
"2725","key","v","v","16.768018518518485","500","250","psychophysics","469","1002080","0.0-469.0","60fe4ee92d2a050caa391eb8","6213c917523e6fed07a1d209","7","","","","","0","7"
"null","","","null","","","","html-keyboard-response","470","1002582","0.0-470.0","60fe4ee92d2a050caa391eb8","6213c917523e6fed07a1d209","","","","","<p style=""color:darkgreen;font-size:24px;"">Correct :)</p>","",""
"2604","key","v","v","16.66561538461545","500","250","psychophysics","471","1005192","0.0-471.0","60fe4ee92d2a050caa391eb8","6213c917523e6fed07a1d209","7","","","","","0","1"
"null","","","null","","","","html-keyboard-response","472","1005695","0.0-472.0","60fe4ee92d2a050caa391eb8","6213c917523e6fed07a1d209","","","","","<p style=""color:darkgreen;font-size:24px;"">Correct :)</p>","",""
"2531","key","v","v","16.666046052631206","500","250","psychophysics","473","1008231","0.0-473.0","60fe4ee92d2a050caa391eb8","6213c917523e6fed07a1d209","7","","","","","1","3"
"null","","","null","","","","html-keyboard-response","474","1008734","0.0-474.0","60fe4ee92d2a050caa391eb8","6213c917523e6fed07a1d209","","","","","<p style=""color:darkgreen;font-size:24px;"">Correct :)</p>","",""
"2575","key","n","n","16.66722077922064","500","250","psychophysics","475","1011314","0.0-475.0","60fe4ee92d2a050caa391eb8","6213c917523e6fed07a1d209","7","","","","","0","4"
"null","","","null","","","","html-keyboard-response","476","1011816","0.0-476.0","60fe4ee92d2a050caa391eb8","6213c917523e6fed07a1d209","","","","","<p style=""color:darkgreen;font-size:24px;"">Correct :)</p>","",""
"2614","key","n","n","16.666191082802946","500","250","psychophysics","477","1014436","0.0-477.0","60fe4ee92d2a050caa391eb8","6213c917523e6fed07a1d209","7","","","","","1","7"
"null","","","null","","","","html-keyboard-response","478","1014937","0.0-478.0","60fe4ee92d2a050caa391eb8","6213c917523e6fed07a1d209","","","","","<p style=""color:darkgreen;font-size:24px;"">Correct :)</p>","",""
"2691","key","n","n","16.665714285713882","500","250","psychophysics","479","1017634","0.0-479.0","60fe4ee92d2a050caa391eb8","6213c917523e6fed07a1d209","7","","","","","0","6"
"null","","","null","","","","html-keyboard-response","480","1018137","0.0-480.0","60fe4ee92d2a050caa391eb8","6213c917523e6fed07a1d209","","","","","<p style=""color:darkgreen;font-size:24px;"">Correct :)</p>","",""
"2682","key","n","n","16.666757763975145","500","250","psychophysics","481","1020825","0.0-481.0","60fe4ee92d2a050caa391eb8","6213c917523e6fed07a1d209","7","","","","","1","6"
"null","","","null","","","","html-keyboard-response","482","1021328","0.0-482.0","60fe4ee92d2a050caa391eb8","6213c917523e6fed07a1d209","","","","","<p style=""color:darkgreen;font-size:24px;"">Correct :)</p>","",""
"2489","key","v","v","16.66490666666689","500","250","psychophysics","483","1023823","0.0-483.0","60fe4ee92d2a050caa391eb8","6213c917523e6fed07a1d209","7","","","","","0","3"
"null","","","null","","","","html-keyboard-response","484","1024334","0.0-484.0","60fe4ee92d2a050caa391eb8","6213c917523e6fed07a1d209","","","","","<p style=""color:darkgreen;font-size:24px;"">Correct :)</p>","",""
"2545","key","v","v","16.99852000000033","500","250","psychophysics","485","1026884","0.0-485.0","60fe4ee92d2a050caa391eb8","6213c917523e6fed07a1d209","7","","","","","1","3"
"null","","","null","","","","html-keyboard-response","486","1027402","0.0-486.0","60fe4ee92d2a050caa391eb8","6213c917523e6fed07a1d209","","","","","<p style=""color:darkgreen;font-size:24px;"">Correct :)</p>","",""
"2501","key","n","n","16.6598933333337","500","250","psychophysics","487","1029907","0.0-487.0","60fe4ee92d2a050caa391eb8","6213c917523e6fed07a1d209","7","","","","","0","4"
"null","","","null","","","","html-keyboard-response","488","1030410","0.0-488.0","60fe4ee92d2a050caa391eb8","6213c917523e6fed07a1d209","","","","","<p style=""color:darkgreen;font-size:24px;"">Correct :)</p>","",""
"2527","key","v","v","16.776953642384537","500","250","psychophysics","489","1032942","0.0-489.0","60fe4ee92d2a050caa391eb8","6213c917523e6fed07a1d209","7","","","","","0","1"
"null","","","null","","","","html-keyboard-response","490","1033445","0.0-490.0","60fe4ee92d2a050caa391eb8","6213c917523e6fed07a1d209","","","","","<p style=""color:darkgreen;font-size:24px;"">Correct :)</p>","",""
"2742","key","n","n","16.766999999999648","500","250","psychophysics","491","1036192","0.0-491.0","60fe4ee92d2a050caa391eb8","6213c917523e6fed07a1d209","7","","","","","0","6"
"null","","","null","","","","html-keyboard-response","492","1036695","0.0-492.0","60fe4ee92d2a050caa391eb8","6213c917523e6fed07a1d209","","","","","<p style=""color:darkgreen;font-size:24px;"">Correct :)</p>","",""
"2787","key","n","n","16.766602409638867","500","250","psychophysics","493","1039489","0.0-493.0","60fe4ee92d2a050caa391eb8","6213c917523e6fed07a1d209","7","","","","","1","4"
"null","","","null","","","","html-keyboard-response","494","1039991","0.0-494.0","60fe4ee92d2a050caa391eb8","6213c917523e6fed07a1d209","","","","","<p style=""color:red;font-size:24px;"">Error :(</p>","",""
"2895","key","v","v","16.76261271676318","500","250","psychophysics","495","1042893","0.0-495.0","60fe4ee92d2a050caa391eb8","6213c917523e6fed07a1d209","7","","","","","1","3"
"null","","","null","","","","html-keyboard-response","496","1043395","0.0-496.0","60fe4ee92d2a050caa391eb8","6213c917523e6fed07a1d209","","","","","<p style=""color:darkgreen;font-size:24px;"">Correct :)</p>","",""
