"rt","response_type","key_press","response","avg_frame_time","center_x","center_y","trial_type","trial_index","time_elapsed","internal_node_id","pid","sid","phase","guide","targ","resp","stimulus","is5","stim"
"4120","key"," "," ","16.961697580645158","500","250","psychophysics","0","4202","0.0-0.0","5b101f7830d562000155a139","6213d213cf47f5c80707b383","","","","","","",""
"4686","key"," "," ","17.30639033457249","500","250","psychophysics","1","8892","0.0-1.0","5b101f7830d562000155a139","6213d213cf47f5c80707b383","","","","","","",""
"2902","key"," "," ","16.626359999999995","500","250","psychophysics","2","11801","0.0-2.0","5b101f7830d562000155a139","6213d213cf47f5c80707b383","","","","","","",""
"1398","key"," "," ","16.626433734939745","500","250","psychophysics","3","13201","0.0-3.0","5b101f7830d562000155a139","6213d213cf47f5c80707b383","","","","","","",""
"4066","key"," "," ","16.6263975409836","500","250","psychophysics","4","17273","0.0-4.0","5b101f7830d562000155a139","6213d213cf47f5c80707b383","","","","","","",""
"4317","key"," "," ","16.626416988416995","500","250","psychophysics","5","21592","0.0-5.0","5b101f7830d562000155a139","6213d213cf47f5c80707b383","","","","","","",""
"3445","key"," "," ","16.626572815533983","500","250","psychophysics","6","25041","0.0-6.0","5b101f7830d562000155a139","6213d213cf47f5c80707b383","","","","","","",""
"4051","key"," "," ","16.62632098765432","500","250","psychophysics","7","29096","0.0-7.0","5b101f7830d562000155a139","6213d213cf47f5c80707b383","","","","","","",""
"9411","key"," "," ","16.626351590106","500","250","psychophysics","8","38513","0.0-8.0","5b101f7830d562000155a139","6213d213cf47f5c80707b383","0","0","45","44","","",""
"5502","key"," "," ","16.6263878787879","500","250","psychophysics","9","44016","0.0-9.0","5b101f7830d562000155a139","6213d213cf47f5c80707b383","","","","","","",""
"5268","key"," "," ","16.6263924050633","500","250","psychophysics","10","49289","0.0-10.0","5b101f7830d562000155a139","6213d213cf47f5c80707b383","","","","","","",""
"6125","key"," "," ","16.62626158038146","500","250","psychophysics","11","55416","0.0-11.0","5b101f7830d562000155a139","6213d213cf47f5c80707b383","","","","","","",""
"3233","key"," "," ","16.626613402061867","500","250","psychophysics","12","58656","0.0-12.0","5b101f7830d562000155a139","6213d213cf47f5c80707b383","","","","","","",""
"2964","key"," "," ","16.626646067415717","500","250","psychophysics","13","61624","0.0-13.0","5b101f7830d562000155a139","6213d213cf47f5c80707b383","","","","","","",""
"3524","key"," "," ","16.626047393364885","500","250","psychophysics","14","65152","0.0-14.0","5b101f7830d562000155a139","6213d213cf47f5c80707b383","","","","","","",""
"3589","key"," "," ","16.626274418604673","500","250","psychophysics","15","68744","0.0-15.0","5b101f7830d562000155a139","6213d213cf47f5c80707b383","","","","","","",""
"2958","key"," "," ","16.626418079096066","500","250","psychophysics","16","71703","0.0-16.0","5b101f7830d562000155a139","6213d213cf47f5c80707b383","","","","","","",""
"10684","key"," "," ","16.62642523364485","500","250","psychophysics","17","82391","0.0-17.0","5b101f7830d562000155a139","6213d213cf47f5c80707b383","1","0","22","38","","",""
"8477","key"," "," ","16.626412573673864","500","250","psychophysics","18","90871","0.0-18.0","5b101f7830d562000155a139","6213d213cf47f5c80707b383","1","5","43","48","","",""
"14636","key"," "," ","16.626316268486924","500","250","psychophysics","19","105511","0.0-19.0","5b101f7830d562000155a139","6213d213cf47f5c80707b383","1","0","60","89","","",""
"4297","key"," "," ","16.626251937984513","500","250","psychophysics","20","109815","0.0-20.0","5b101f7830d562000155a139","6213d213cf47f5c80707b383","1","5","33","36","","",""
"10278","key"," "," ","16.626393203883477","500","250","psychophysics","21","120095","0.0-21.0","5b101f7830d562000155a139","6213d213cf47f5c80707b383","1","0","52","89","","",""
"5596","key"," "," ","16.626244776119407","500","250","psychophysics","22","125695","0.0-22.0","5b101f7830d562000155a139","6213d213cf47f5c80707b383","1","5","57","56","","",""
"6794","key"," "," ","16.626338235294124","500","250","psychophysics","23","132495","0.0-23.0","5b101f7830d562000155a139","6213d213cf47f5c80707b383","1","0","53","85","","",""
"6346","key"," "," ","16.626265091863488","500","250","psychophysics","24","138846","0.0-24.0","5b101f7830d562000155a139","6213d213cf47f5c80707b383","1","5","52","58","","",""
"8189","key"," "," ","16.626399594320493","500","250","psychophysics","25","147047","0.0-25.0","5b101f7830d562000155a139","6213d213cf47f5c80707b383","1","0","41","58","","",""
"4908","key"," "," ","16.625996598639475","500","250","psychophysics","26","151958","0.0-26.0","5b101f7830d562000155a139","6213d213cf47f5c80707b383","1","5","47","49","","",""
"7517","key"," "," ","16.626376940133067","500","250","psychophysics","27","159478","0.0-27.0","5b101f7830d562000155a139","6213d213cf47f5c80707b383","1","0","33","47","","",""
"4390","key"," "," ","16.62646387832703","500","250","psychophysics","28","163871","0.0-28.0","5b101f7830d562000155a139","6213d213cf47f5c80707b383","1","5","36","39","","",""
"6151","key"," "," ","16.626537837837887","500","250","psychophysics","29","170030","0.0-29.0","5b101f7830d562000155a139","6213d213cf47f5c80707b383","1","0","22","33","","",""
"5047","key"," "," ","16.626429042904256","500","250","psychophysics","30","175079","0.0-30.0","5b101f7830d562000155a139","6213d213cf47f5c80707b383","1","5","24","28","","",""
"5581","key"," "," ","16.62638922155691","500","250","psychophysics","31","180663","0.0-31.0","5b101f7830d562000155a139","6213d213cf47f5c80707b383","1","0","49","62","","",""
"4738","key"," "," ","16.626238596491238","500","250","psychophysics","32","185406","0.0-32.0","5b101f7830d562000155a139","6213d213cf47f5c80707b383","1","5","50","49","","",""
"3461","key"," "," ","16.626381642512044","500","250","psychophysics","33","188870","0.0-33.0","5b101f7830d562000155a139","6213d213cf47f5c80707b383","1","0","33","45","","",""
"3902","key"," "," ","16.626632478632406","500","250","psychophysics","34","192775","0.0-34.0","5b101f7830d562000155a139","6213d213cf47f5c80707b383","1","5","23","25","","",""
"4686","key"," "," ","16.62628469750891","500","250","psychophysics","35","197463","0.0-35.0","5b101f7830d562000155a139","6213d213cf47f5c80707b383","1","0","35","45","","",""
"7229","key"," "," ","16.62635023041477","500","250","psychophysics","36","204695","0.0-36.0","5b101f7830d562000155a139","6213d213cf47f5c80707b383","1","5","36","35","","",""
"2708","key"," "," ","16.626432098765363","500","250","psychophysics","37","207407","0.0-37.0","5b101f7830d562000155a139","6213d213cf47f5c80707b383","","","","","","",""
"5438","key"," "," ","16.626450920245393","500","250","psychophysics","38","212847","0.0-38.0","5b101f7830d562000155a139","6213d213cf47f5c80707b383","","","","","","",""
"2029","key"," "," ","16.62639669421483","500","250","psychophysics","39","214878","0.0-39.0","5b101f7830d562000155a139","6213d213cf47f5c80707b383","","","","","","",""
"6058","key"," "," ","16.62632967032966","500","250","psychophysics","40","220943","0.0-40.0","5b101f7830d562000155a139","6213d213cf47f5c80707b383","2","0","28","36","","",""
"3030","key"," "," ","16.626397790055233","500","250","psychophysics","41","223975","0.0-41.0","5b101f7830d562000155a139","6213d213cf47f5c80707b383","","","","","","",""
"4594","key"," "," ","16.626315217391348","500","250","psychophysics","42","228575","0.0-42.0","5b101f7830d562000155a139","6213d213cf47f5c80707b383","2","0","27","29","","",""
"2118","key"," "," ","16.626212598425273","500","250","psychophysics","43","230695","0.0-43.0","5b101f7830d562000155a139","6213d213cf47f5c80707b383","","","","","","",""
"4597","key"," "," ","16.626469090909126","500","250","psychophysics","44","235295","0.0-44.0","5b101f7830d562000155a139","6213d213cf47f5c80707b383","2","0","37","41","","",""
"1557","key"," "," ","16.62699999999986","500","250","psychophysics","45","236854","0.0-45.0","5b101f7830d562000155a139","6213d213cf47f5c80707b383","","","","","","",""
"8245","key"," "," ","16.626436363636383","500","250","psychophysics","46","245102","0.0-46.0","5b101f7830d562000155a139","6213d213cf47f5c80707b383","2","0","56","66","","",""
"1471","key"," "," ","16.626420454545453","500","250","psychophysics","47","246575","0.0-47.0","5b101f7830d562000155a139","6213d213cf47f5c80707b383","","","","","","",""
"6373","key"," "," ","16.626376963350744","500","250","psychophysics","48","252950","0.0-48.0","5b101f7830d562000155a139","6213d213cf47f5c80707b383","2","0","50","53","","",""
"1445","key"," "," ","16.62609302325595","500","250","psychophysics","49","254398","0.0-49.0","5b101f7830d562000155a139","6213d213cf47f5c80707b383","","","","","","",""
"3741","key"," "," ","16.626227678571404","500","250","psychophysics","50","258142","0.0-50.0","5b101f7830d562000155a139","6213d213cf47f5c80707b383","2","0","32","31","","",""
"1139","key"," "," ","16.626294117647323","500","250","psychophysics","51","259286","0.0-51.0","5b101f7830d562000155a139","6213d213cf47f5c80707b383","","","","","","",""
"2614","key"," "," ","16.626414012738724","500","250","psychophysics","52","261903","0.0-52.0","5b101f7830d562000155a139","6213d213cf47f5c80707b383","2","0","21","25","","",""
"981","key"," "," ","16.627103448275413","500","250","psychophysics","53","262886","0.0-53.0","5b101f7830d562000155a139","6213d213cf47f5c80707b383","","","","","","",""
"7118","key"," "," ","16.626433255269376","500","250","psychophysics","54","270006","0.0-54.0","5b101f7830d562000155a139","6213d213cf47f5c80707b383","2","0","55","73","","",""
"1166","key"," "," ","16.626376811593797","500","250","psychophysics","55","271174","0.0-55.0","5b101f7830d562000155a139","6213d213cf47f5c80707b383","","","","","","",""
"4893","key"," "," ","16.626343537414833","500","250","psychophysics","56","276070","0.0-56.0","5b101f7830d562000155a139","6213d213cf47f5c80707b383","2","0","44","50","","",""
"981","key"," "," ","16.625534482757914","500","250","psychophysics","57","277054","0.0-57.0","5b101f7830d562000155a139","6213d213cf47f5c80707b383","","","","","","",""
"3846","key"," "," ","16.62663043478261","500","250","psychophysics","58","280902","0.0-58.0","5b101f7830d562000155a139","6213d213cf47f5c80707b383","2","0","46","37","","",""
"1091","key"," "," ","16.626399999999332","500","250","psychophysics","59","281998","0.0-59.0","5b101f7830d562000155a139","6213d213cf47f5c80707b383","","","","","","",""
"5469","key"," "," ","16.62643292682936","500","250","psychophysics","60","287470","0.0-60.0","5b101f7830d562000155a139","6213d213cf47f5c80707b383","2","0","56","56","","",""
"1396","key"," "," ","16.626178571428422","500","250","psychophysics","61","288871","0.0-61.0","5b101f7830d562000155a139","6213d213cf47f5c80707b383","","","","","","",""
"4277","key"," "," ","16.62631250000004","500","250","psychophysics","62","293150","0.0-62.0","5b101f7830d562000155a139","6213d213cf47f5c80707b383","2","0","37","29","","",""
"1061","key"," "," ","16.626380952380945","500","250","psychophysics","63","294214","0.0-63.0","5b101f7830d562000155a139","6213d213cf47f5c80707b383","","","","","","",""
"2790","key"," "," ","16.62622155688604","500","250","psychophysics","64","297006","0.0-64.0","5b101f7830d562000155a139","6213d213cf47f5c80707b383","2","0","32","37","","",""
"990","key"," "," ","16.626016949152504","500","250","psychophysics","65","297998","0.0-65.0","5b101f7830d562000155a139","6213d213cf47f5c80707b383","","","","","","",""
"6260","key"," "," ","16.626448000000014","500","250","psychophysics","66","304261","0.0-66.0","5b101f7830d562000155a139","6213d213cf47f5c80707b383","2","0","43","48","","",""
"957","key"," "," ","16.627736842104543","500","250","psychophysics","67","305222","0.0-67.0","5b101f7830d562000155a139","6213d213cf47f5c80707b383","","","","","","",""
"2031","key"," "," ","16.626380165289387","500","250","psychophysics","68","307255","0.0-68.0","5b101f7830d562000155a139","6213d213cf47f5c80707b383","2","0","21","26","","",""
"1199","key"," "," ","16.626513888888844","500","250","psychophysics","69","308462","0.0-69.0","5b101f7830d562000155a139","6213d213cf47f5c80707b383","","","","","","",""
"2694","key"," "," ","16.625937888198838","500","250","psychophysics","70","311158","0.0-70.0","5b101f7830d562000155a139","6213d213cf47f5c80707b383","","","","","","",""
"2149","key"," "," ","16.62628124999992","500","250","psychophysics","71","313310","0.0-71.0","5b101f7830d562000155a139","6213d213cf47f5c80707b383","","","","","","",""
"2620","key"," "," ","16.62622929936324","500","250","psychophysics","72","315934","0.0-72.0","5b101f7830d562000155a139","6213d213cf47f5c80707b383","3","5","33","24","","",""
"4115","key"," "," ","16.626408906882585","500","250","psychophysics","73","320054","0.0-73.0","5b101f7830d562000155a139","6213d213cf47f5c80707b383","3","0","42","38","","",""
"4126","key"," "," ","16.626400809716444","500","250","psychophysics","74","324181","0.0-74.0","5b101f7830d562000155a139","6213d213cf47f5c80707b383","3","5","52","39","","",""
"3811","key"," "," ","16.62609606986895","500","250","psychophysics","75","327998","0.0-75.0","5b101f7830d562000155a139","6213d213cf47f5c80707b383","3","0","48","46","","",""
"4134","key"," "," ","16.626431451612827","500","250","psychophysics","76","332134","0.0-76.0","5b101f7830d562000155a139","6213d213cf47f5c80707b383","3","5","39","28","","",""
"2622","key"," "," ","16.626458598726064","500","250","psychophysics","77","334759","0.0-77.0","5b101f7830d562000155a139","6213d213cf47f5c80707b383","3","0","21","22","","",""
"2300","key"," "," ","16.626379562043464","500","250","psychophysics","78","337061","0.0-78.0","5b101f7830d562000155a139","6213d213cf47f5c80707b383","3","5","24","24","","",""
"5679","key"," "," ","16.626340175953064","500","250","psychophysics","79","342742","0.0-79.0","5b101f7830d562000155a139","6213d213cf47f5c80707b383","3","0","39","41","","",""
"5092","key"," "," ","16.626383606557443","500","250","psychophysics","80","347837","0.0-80.0","5b101f7830d562000155a139","6213d213cf47f5c80707b383","3","5","21","21","","",""
"4630","key"," "," ","16.626352517985573","500","250","psychophysics","81","352469","0.0-81.0","5b101f7830d562000155a139","6213d213cf47f5c80707b383","3","0","30","30","","",""
"4677","key"," "," ","16.626353571428627","500","250","psychophysics","82","357149","0.0-82.0","5b101f7830d562000155a139","6213d213cf47f5c80707b383","3","5","53","42","","",""
"6471","key"," "," ","16.626377892030757","500","250","psychophysics","83","363623","0.0-83.0","5b101f7830d562000155a139","6213d213cf47f5c80707b383","3","0","44","51","","",""
"3171","key"," "," ","16.62648148148132","500","250","psychophysics","84","366797","0.0-84.0","5b101f7830d562000155a139","6213d213cf47f5c80707b383","3","5","28","23","","",""
"7044","key"," "," ","16.626520094562604","500","250","psychophysics","85","373846","0.0-85.0","5b101f7830d562000155a139","6213d213cf47f5c80707b383","3","0","21","29","","",""
"2081","key"," "," ","16.626056000000332","500","250","psychophysics","86","375933","0.0-86.0","5b101f7830d562000155a139","6213d213cf47f5c80707b383","3","5","32","22","","",""
"2781","key"," "," ","16.626295180722696","500","250","psychophysics","87","378717","0.0-87.0","5b101f7830d562000155a139","6213d213cf47f5c80707b383","3","0","26","30","","",""
"4699","key"," "," ","16.626219858155967","500","250","psychophysics","88","383421","0.0-88.0","5b101f7830d562000155a139","6213d213cf47f5c80707b383","3","5","42","23","","",""
"4963","key"," "," ","16.62649999999995","500","250","psychophysics","89","388389","0.0-89.0","5b101f7830d562000155a139","6213d213cf47f5c80707b383","3","0","41","48","","",""
"5174","key"," "," ","16.626367741935482","500","250","psychophysics","90","393565","0.0-90.0","5b101f7830d562000155a139","6213d213cf47f5c80707b383","3","5","34","24","","",""
"5467","key"," "," ","16.626097264437792","500","250","psychophysics","91","399037","0.0-91.0","5b101f7830d562000155a139","6213d213cf47f5c80707b383","3","0","34","40","","",""
"2238","key"," "," ","16.626308270676684","500","250","psychophysics","92","401277","0.0-92.0","5b101f7830d562000155a139","6213d213cf47f5c80707b383","","","","","","",""
"38719","","","v","","","","html-keyboard-response","93","439996","0.0-93.0","5b101f7830d562000155a139","6213d213cf47f5c80707b383","","","","","<p> In this part of the experiment, we are going present digits 1, 2, 3, 4, 6, 7, 8, and 9.  Notice that 5 is missing.  Your job is to say whether the presented digit is less than or greater than 5.  For example, 3 is less than 5 and 7 is greater than 5.  If the digit is less than 5, press the v key; if it is greater than 5, press the n key. We are going to do 200 of these in total, but only 50 righ now. They go real fast.</p>  <br><br>  Ready? (press v or n)","",""
"3238","key","v","v","16.586369230769254","500","250","psychophysics","94","443244","0.0-94.0","5b101f7830d562000155a139","6213d213cf47f5c80707b383","4","","","","","1","1"
"null","","","null","","","","html-keyboard-response","95","443746","0.0-95.0","5b101f7830d562000155a139","6213d213cf47f5c80707b383","","","","","<p style=""color:darkgreen;font-size:24px;"">Correct :)</p>","",""
"2790","key","v","v","16.61775595238093","500","250","psychophysics","96","446540","0.0-96.0","5b101f7830d562000155a139","6213d213cf47f5c80707b383","4","","","","","1","6"
"null","","","null","","","","html-keyboard-response","97","447042","0.0-97.0","5b101f7830d562000155a139","6213d213cf47f5c80707b383","","","","","<p style=""color:red;font-size:24px;"">Error :(</p>","",""
"2863","key","n","n","16.61830813953481","500","250","psychophysics","98","449908","0.0-98.0","5b101f7830d562000155a139","6213d213cf47f5c80707b383","4","","","","","1","8"
"null","","","null","","","","html-keyboard-response","99","450411","0.0-99.0","5b101f7830d562000155a139","6213d213cf47f5c80707b383","","","","","<p style=""color:darkgreen;font-size:24px;"">Correct :)</p>","",""
"2615","key","v","v","16.616961783439198","500","250","psychophysics","100","453028","0.0-100.0","5b101f7830d562000155a139","6213d213cf47f5c80707b383","4","","","","","1","3"
"null","","","null","","","","html-keyboard-response","101","453530","0.0-101.0","5b101f7830d562000155a139","6213d213cf47f5c80707b383","","","","","<p style=""color:darkgreen;font-size:24px;"">Correct :)</p>","",""
"2632","key","v","v","16.617641509434065","500","250","psychophysics","102","456164","0.0-102.0","5b101f7830d562000155a139","6213d213cf47f5c80707b383","4","","","","","1","1"
"null","","","null","","","","html-keyboard-response","103","456666","0.0-103.0","5b101f7830d562000155a139","6213d213cf47f5c80707b383","","","","","<p style=""color:darkgreen;font-size:24px;"">Correct :)</p>","",""
"2463","key","n","n","16.617033783783757","500","250","psychophysics","104","459132","0.0-104.0","5b101f7830d562000155a139","6213d213cf47f5c80707b383","4","","","","","1","7"
"null","","","null","","","","html-keyboard-response","105","459634","0.0-105.0","5b101f7830d562000155a139","6213d213cf47f5c80707b383","","","","","<p style=""color:darkgreen;font-size:24px;"">Correct :)</p>","",""
"2671","key","v","v","16.617801242235757","500","250","psychophysics","106","462308","0.0-106.0","5b101f7830d562000155a139","6213d213cf47f5c80707b383","4","","","","","1","2"
"null","","","null","","","","html-keyboard-response","107","462809","0.0-107.0","5b101f7830d562000155a139","6213d213cf47f5c80707b383","","","","","<p style=""color:darkgreen;font-size:24px;"">Correct :)</p>","",""
"2583","key","v","v","16.617480769230706","500","250","psychophysics","108","465396","0.0-108.0","5b101f7830d562000155a139","6213d213cf47f5c80707b383","4","","","","","1","2"
"null","","","null","","","","html-keyboard-response","109","465899","0.0-109.0","5b101f7830d562000155a139","6213d213cf47f5c80707b383","","","","","<p style=""color:darkgreen;font-size:24px;"">Correct :)</p>","",""
"2590","key","n","n","16.617711538461617","500","250","psychophysics","110","468492","0.0-110.0","5b101f7830d562000155a139","6213d213cf47f5c80707b383","4","","","","","1","8"
"null","","","null","","","","html-keyboard-response","111","468993","0.0-111.0","5b101f7830d562000155a139","6213d213cf47f5c80707b383","","","","","<p style=""color:darkgreen;font-size:24px;"">Correct :)</p>","",""
"2584","key","v","v","16.617314102564333","500","250","psychophysics","112","471580","0.0-112.0","5b101f7830d562000155a139","6213d213cf47f5c80707b383","4","","","","","1","3"
"null","","","null","","","","html-keyboard-response","113","472082","0.0-113.0","5b101f7830d562000155a139","6213d213cf47f5c80707b383","","","","","<p style=""color:darkgreen;font-size:24px;"">Correct :)</p>","",""
"2567","key","v","v","16.617270967742098","500","250","psychophysics","114","474652","0.0-114.0","5b101f7830d562000155a139","6213d213cf47f5c80707b383","4","","","","","1","4"
"null","","","null","","","","html-keyboard-response","115","475154","0.0-115.0","5b101f7830d562000155a139","6213d213cf47f5c80707b383","","","","","<p style=""color:darkgreen;font-size:24px;"">Correct :)</p>","",""
"2544","key","v","v","16.617111111111143","500","250","psychophysics","116","477700","0.0-116.0","5b101f7830d562000155a139","6213d213cf47f5c80707b383","4","","","","","1","1"
"null","","","null","","","","html-keyboard-response","117","478203","0.0-117.0","5b101f7830d562000155a139","6213d213cf47f5c80707b383","","","","","<p style=""color:darkgreen;font-size:24px;"">Correct :)</p>","",""
"2487","key","n","n","16.617299999999815","500","250","psychophysics","118","480692","0.0-118.0","5b101f7830d562000155a139","6213d213cf47f5c80707b383","4","","","","","1","6"
"null","","","null","","","","html-keyboard-response","119","481193","0.0-119.0","5b101f7830d562000155a139","6213d213cf47f5c80707b383","","","","","<p style=""color:darkgreen;font-size:24px;"">Correct :)</p>","",""
"2543","key","v","v","16.61696732026149","500","250","psychophysics","120","483740","0.0-120.0","5b101f7830d562000155a139","6213d213cf47f5c80707b383","4","","","","","1","1"
"null","","","null","","","","html-keyboard-response","121","484242","0.0-121.0","5b101f7830d562000155a139","6213d213cf47f5c80707b383","","","","","<p style=""color:darkgreen;font-size:24px;"">Correct :)</p>","",""
"2550","key","v","v","16.6171363636363","500","250","psychophysics","122","486796","0.0-122.0","5b101f7830d562000155a139","6213d213cf47f5c80707b383","4","","","","","1","3"
"null","","","null","","","","html-keyboard-response","123","487298","0.0-123.0","5b101f7830d562000155a139","6213d213cf47f5c80707b383","","","","","<p style=""color:darkgreen;font-size:24px;"">Correct :)</p>","",""
"2647","key","n","n","16.61791823899341","500","250","psychophysics","124","489948","0.0-124.0","5b101f7830d562000155a139","6213d213cf47f5c80707b383","4","","","","","1","9"
"null","","","null","","","","html-keyboard-response","125","490449","0.0-125.0","5b101f7830d562000155a139","6213d213cf47f5c80707b383","","","","","<p style=""color:darkgreen;font-size:24px;"">Correct :)</p>","",""
"2559","key","n","n","16.616876623376694","500","250","psychophysics","126","493012","0.0-126.0","5b101f7830d562000155a139","6213d213cf47f5c80707b383","4","","","","","1","8"
"null","","","null","","","","html-keyboard-response","127","493514","0.0-127.0","5b101f7830d562000155a139","6213d213cf47f5c80707b383","","","","","<p style=""color:darkgreen;font-size:24px;"">Correct :)</p>","",""
"2671","key","v","v","16.617732919254397","500","250","psychophysics","128","496188","0.0-128.0","5b101f7830d562000155a139","6213d213cf47f5c80707b383","4","","","","","1","4"
"null","","","null","","","","html-keyboard-response","129","496689","0.0-129.0","5b101f7830d562000155a139","6213d213cf47f5c80707b383","","","","","<p style=""color:darkgreen;font-size:24px;"">Correct :)</p>","",""
"2568","key","v","v","16.617551948051965","500","250","psychophysics","130","499260","0.0-130.0","5b101f7830d562000155a139","6213d213cf47f5c80707b383","4","","","","","1","1"
"null","","","null","","","","html-keyboard-response","131","499762","0.0-131.0","5b101f7830d562000155a139","6213d213cf47f5c80707b383","","","","","<p style=""color:darkgreen;font-size:24px;"">Correct :)</p>","",""
"2567","key","n","n","16.61700000000026","500","250","psychophysics","132","502332","0.0-132.0","5b101f7830d562000155a139","6213d213cf47f5c80707b383","4","","","","","1","9"
"null","","","null","","","","html-keyboard-response","133","502833","0.0-133.0","5b101f7830d562000155a139","6213d213cf47f5c80707b383","","","","","<p style=""color:darkgreen;font-size:24px;"">Correct :)</p>","",""
"2469","key","v","v","16.616513513513553","500","250","psychophysics","134","505307","0.0-134.0","5b101f7830d562000155a139","6213d213cf47f5c80707b383","4","","","","","1","3"
"null","","","null","","","","html-keyboard-response","135","505811","0.0-135.0","5b101f7830d562000155a139","6213d213cf47f5c80707b383","","","","","<p style=""color:darkgreen;font-size:24px;"">Correct :)</p>","",""
"2626","key","n","n","16.617386075949497","500","250","psychophysics","136","508443","0.0-136.0","5b101f7830d562000155a139","6213d213cf47f5c80707b383","4","","","","","1","9"
"null","","","null","","","","html-keyboard-response","137","508945","0.0-137.0","5b101f7830d562000155a139","6213d213cf47f5c80707b383","","","","","<p style=""color:darkgreen;font-size:24px;"">Correct :)</p>","",""
"2519","key","n","n","16.617309210526354","500","250","psychophysics","138","511467","0.0-138.0","5b101f7830d562000155a139","6213d213cf47f5c80707b383","4","","","","","1","8"
"null","","","null","","","","html-keyboard-response","139","511970","0.0-139.0","5b101f7830d562000155a139","6213d213cf47f5c80707b383","","","","","<p style=""color:darkgreen;font-size:24px;"">Correct :)</p>","",""
"2584","key","v","v","16.617384615384463","500","250","psychophysics","140","514556","0.0-140.0","5b101f7830d562000155a139","6213d213cf47f5c80707b383","4","","","","","1","4"
"null","","","null","","","","html-keyboard-response","141","515059","0.0-141.0","5b101f7830d562000155a139","6213d213cf47f5c80707b383","","","","","<p style=""color:darkgreen;font-size:24px;"">Correct :)</p>","",""
"2492","key","v","v","16.617086666666825","500","250","psychophysics","142","517555","0.0-142.0","5b101f7830d562000155a139","6213d213cf47f5c80707b383","4","","","","","1","4"
"null","","","null","","","","html-keyboard-response","143","518057","0.0-143.0","5b101f7830d562000155a139","6213d213cf47f5c80707b383","","","","","<p style=""color:darkgreen;font-size:24px;"">Correct :)</p>","",""
"2481","key","v","v","16.617073333333636","500","250","psychophysics","144","520541","0.0-144.0","5b101f7830d562000155a139","6213d213cf47f5c80707b383","4","","","","","1","1"
"null","","","null","","","","html-keyboard-response","145","521043","0.0-145.0","5b101f7830d562000155a139","6213d213cf47f5c80707b383","","","","","<p style=""color:darkgreen;font-size:24px;"">Correct :)</p>","",""
"2485","key","n","n","16.617234899328814","500","250","psychophysics","146","523531","0.0-146.0","5b101f7830d562000155a139","6213d213cf47f5c80707b383","4","","","","","1","9"
"null","","","null","","","","html-keyboard-response","147","524033","0.0-147.0","5b101f7830d562000155a139","6213d213cf47f5c80707b383","","","","","<p style=""color:darkgreen;font-size:24px;"">Correct :)</p>","",""
"2591","key","v","v","16.617173076922953","500","250","psychophysics","148","526628","0.0-148.0","5b101f7830d562000155a139","6213d213cf47f5c80707b383","4","","","","","1","2"
"null","","","null","","","","html-keyboard-response","149","527131","0.0-149.0","5b101f7830d562000155a139","6213d213cf47f5c80707b383","","","","","<p style=""color:darkgreen;font-size:24px;"">Correct :)</p>","",""
"2909","key","v","v","16.618377142857227","500","250","psychophysics","150","530043","0.0-150.0","5b101f7830d562000155a139","6213d213cf47f5c80707b383","4","","","","","1","4"
"null","","","null","","","","html-keyboard-response","151","530545","0.0-151.0","5b101f7830d562000155a139","6213d213cf47f5c80707b383","","","","","<p style=""color:darkgreen;font-size:24px;"">Correct :)</p>","",""
"2496","key","n","n","16.61694701986745","500","250","psychophysics","152","533044","0.0-152.0","5b101f7830d562000155a139","6213d213cf47f5c80707b383","4","","","","","1","8"
"null","","","null","","","","html-keyboard-response","153","533551","0.0-153.0","5b101f7830d562000155a139","6213d213cf47f5c80707b383","","","","","<p style=""color:darkgreen;font-size:24px;"">Correct :)</p>","",""
"2473","key","v","v","16.617389261745224","500","250","psychophysics","154","536027","0.0-154.0","5b101f7830d562000155a139","6213d213cf47f5c80707b383","4","","","","","1","1"
"null","","","null","","","","html-keyboard-response","155","536529","0.0-155.0","5b101f7830d562000155a139","6213d213cf47f5c80707b383","","","","","<p style=""color:darkgreen;font-size:24px;"">Correct :)</p>","",""
"2528","key","v","v","16.617223684211098","500","250","psychophysics","156","539060","0.0-156.0","5b101f7830d562000155a139","6213d213cf47f5c80707b383","4","","","","","1","3"
"null","","","null","","","","html-keyboard-response","157","539561","0.0-157.0","5b101f7830d562000155a139","6213d213cf47f5c80707b383","","","","","<p style=""color:darkgreen;font-size:24px;"">Correct :)</p>","",""
"2527","key","v","v","16.61678947368407","500","250","psychophysics","158","542091","0.0-158.0","5b101f7830d562000155a139","6213d213cf47f5c80707b383","4","","","","","1","2"
"null","","","null","","","","html-keyboard-response","159","542594","0.0-159.0","5b101f7830d562000155a139","6213d213cf47f5c80707b383","","","","","<p style=""color:darkgreen;font-size:24px;"">Correct :)</p>","",""
"2551","key","v","v","16.61714379085012","500","250","psychophysics","160","545148","0.0-160.0","5b101f7830d562000155a139","6213d213cf47f5c80707b383","4","","","","","1","4"
"null","","","null","","","","html-keyboard-response","161","545650","0.0-161.0","5b101f7830d562000155a139","6213d213cf47f5c80707b383","","","","","<p style=""color:darkgreen;font-size:24px;"">Correct :)</p>","",""
"2519","key","v","v","16.616602649006357","500","250","psychophysics","162","548171","0.0-162.0","5b101f7830d562000155a139","6213d213cf47f5c80707b383","4","","","","","1","3"
"null","","","null","","","","html-keyboard-response","163","548672","0.0-163.0","5b101f7830d562000155a139","6213d213cf47f5c80707b383","","","","","<p style=""color:darkgreen;font-size:24px;"">Correct :)</p>","",""
"2456","key","v","v","16.61720945945991","500","250","psychophysics","164","551131","0.0-164.0","5b101f7830d562000155a139","6213d213cf47f5c80707b383","4","","","","","1","1"
"null","","","null","","","","html-keyboard-response","165","551636","0.0-165.0","5b101f7830d562000155a139","6213d213cf47f5c80707b383","","","","","<p style=""color:darkgreen;font-size:24px;"">Correct :)</p>","",""
"2452","key","v","v","16.616551020408373","500","250","psychophysics","166","554091","0.0-166.0","5b101f7830d562000155a139","6213d213cf47f5c80707b383","4","","","","","1","2"
"null","","","null","","","","html-keyboard-response","167","554593","0.0-167.0","5b101f7830d562000155a139","6213d213cf47f5c80707b383","","","","","<p style=""color:darkgreen;font-size:24px;"">Correct :)</p>","",""
"2504","key","v","v","16.616806666667106","500","250","psychophysics","168","557099","0.0-168.0","5b101f7830d562000155a139","6213d213cf47f5c80707b383","4","","","","","1","1"
"null","","","null","","","","html-keyboard-response","169","557601","0.0-169.0","5b101f7830d562000155a139","6213d213cf47f5c80707b383","","","","","<p style=""color:darkgreen;font-size:24px;"">Correct :)</p>","",""
"2583","key","v","v","16.617045161290275","500","250","psychophysics","170","560187","0.0-170.0","5b101f7830d562000155a139","6213d213cf47f5c80707b383","4","","","","","1","3"
"null","","","null","","","","html-keyboard-response","171","560688","0.0-171.0","5b101f7830d562000155a139","6213d213cf47f5c80707b383","","","","","<p style=""color:darkgreen;font-size:24px;"">Correct :)</p>","",""
"2377","key","v","v","16.616608391608718","500","250","psychophysics","172","563067","0.0-172.0","5b101f7830d562000155a139","6213d213cf47f5c80707b383","4","","","","","1","3"
"null","","","null","","","","html-keyboard-response","173","563569","0.0-173.0","5b101f7830d562000155a139","6213d213cf47f5c80707b383","","","","","<p style=""color:darkgreen;font-size:24px;"">Correct :)</p>","",""
"2696","key","n","n","16.617987730061103","500","250","psychophysics","174","566267","0.0-174.0","5b101f7830d562000155a139","6213d213cf47f5c80707b383","4","","","","","1","7"
"null","","","null","","","","html-keyboard-response","175","566769","0.0-175.0","5b101f7830d562000155a139","6213d213cf47f5c80707b383","","","","","<p style=""color:darkgreen;font-size:24px;"">Correct :)</p>","",""
"2459","key","n","n","16.617351351351466","500","250","psychophysics","176","569235","0.0-176.0","5b101f7830d562000155a139","6213d213cf47f5c80707b383","4","","","","","1","9"
"null","","","null","","","","html-keyboard-response","177","569738","0.0-177.0","5b101f7830d562000155a139","6213d213cf47f5c80707b383","","","","","<p style=""color:darkgreen;font-size:24px;"">Correct :)</p>","",""
"2822","key","v","v","16.618311764705954","500","250","psychophysics","178","572563","0.0-178.0","5b101f7830d562000155a139","6213d213cf47f5c80707b383","4","","","","","1","9"
"null","","","null","","","","html-keyboard-response","179","573067","0.0-179.0","5b101f7830d562000155a139","6213d213cf47f5c80707b383","","","","","<p style=""color:red;font-size:24px;"">Error :(</p>","",""
"27","key","n","n","15.917499999981374","500","250","psychophysics","180","573100","0.0-180.0","5b101f7830d562000155a139","6213d213cf47f5c80707b383","4","","","","","1","7"
"null","","","null","","","","html-keyboard-response","181","573602","0.0-181.0","5b101f7830d562000155a139","6213d213cf47f5c80707b383","","","","","<p style=""color:darkgreen;font-size:24px;"">Correct :)</p>","",""
"2647","key","n","n","16.617327044024602","500","250","psychophysics","182","576251","0.0-182.0","5b101f7830d562000155a139","6213d213cf47f5c80707b383","4","","","","","1","9"
"null","","","null","","","","html-keyboard-response","183","576753","0.0-183.0","5b101f7830d562000155a139","6213d213cf47f5c80707b383","","","","","<p style=""color:darkgreen;font-size:24px;"">Correct :)</p>","",""
"2598","key","v","v","16.61762420382131","500","250","psychophysics","184","579355","0.0-184.0","5b101f7830d562000155a139","6213d213cf47f5c80707b383","4","","","","","1","1"
"null","","","null","","","","html-keyboard-response","185","579856","0.0-185.0","5b101f7830d562000155a139","6213d213cf47f5c80707b383","","","","","<p style=""color:darkgreen;font-size:24px;"">Correct :)</p>","",""
"2489","key","v","v","16.617393333332924","500","250","psychophysics","186","582347","0.0-186.0","5b101f7830d562000155a139","6213d213cf47f5c80707b383","4","","","","","1","1"
"null","","","null","","","","html-keyboard-response","187","582849","0.0-187.0","5b101f7830d562000155a139","6213d213cf47f5c80707b383","","","","","<p style=""color:darkgreen;font-size:24px;"">Correct :)</p>","",""
"2552","key","v","v","16.61712337662345","500","250","psychophysics","188","585404","0.0-188.0","5b101f7830d562000155a139","6213d213cf47f5c80707b383","4","","","","","1","3"
"null","","","null","","","","html-keyboard-response","189","585904","0.0-189.0","5b101f7830d562000155a139","6213d213cf47f5c80707b383","","","","","<p style=""color:darkgreen;font-size:24px;"">Correct :)</p>","",""
"2424","key","v","v","16.616705479451984","500","250","psychophysics","190","588331","0.0-190.0","5b101f7830d562000155a139","6213d213cf47f5c80707b383","4","","","","","1","1"
"null","","","null","","","","html-keyboard-response","191","588834","0.0-191.0","5b101f7830d562000155a139","6213d213cf47f5c80707b383","","","","","<p style=""color:darkgreen;font-size:24px;"">Correct :)</p>","",""
"2469","key","v","v","16.617134228187783","500","250","psychophysics","192","591307","0.0-192.0","5b101f7830d562000155a139","6213d213cf47f5c80707b383","4","","","","","1","1"
"null","","","null","","","","html-keyboard-response","193","591808","0.0-193.0","5b101f7830d562000155a139","6213d213cf47f5c80707b383","","","","","<p style=""color:darkgreen;font-size:24px;"">Correct :)</p>","",""
"11306","","","v","","","","html-keyboard-response","194","603115","0.0-194.0","5b101f7830d562000155a139","6213d213cf47f5c80707b383","","","","","<p> Ok, now we are going present the same digits as before.  Your job is to say whether the digit is even or odd  If the digit is odd, press to v key; if it is even, press the n key. We are going to do 50 of these.  </p>  <br><br>  Ready? (press v or n)","",""
"2740","key","v","v","16.608563636363993","500","250","psychophysics","195","605859","0.0-195.0","5b101f7830d562000155a139","6213d213cf47f5c80707b383","5","","","","","0","7"
"null","","","null","","","","html-keyboard-response","196","606361","0.0-196.0","5b101f7830d562000155a139","6213d213cf47f5c80707b383","","","","","<p style=""color:darkgreen;font-size:24px;"">Correct :)</p>","",""
"2671","key","n","n","16.61793788819883","500","250","psychophysics","197","609034","0.0-197.0","5b101f7830d562000155a139","6213d213cf47f5c80707b383","5","","","","","0","4"
"null","","","null","","","","html-keyboard-response","198","609535","0.0-198.0","5b101f7830d562000155a139","6213d213cf47f5c80707b383","","","","","<p style=""color:darkgreen;font-size:24px;"">Correct :)</p>","",""
"2761","key","n","n","16.617939759036723","500","250","psychophysics","199","612300","0.0-199.0","5b101f7830d562000155a139","6213d213cf47f5c80707b383","5","","","","","0","4"
"null","","","null","","","","html-keyboard-response","200","612803","0.0-200.0","5b101f7830d562000155a139","6213d213cf47f5c80707b383","","","","","<p style=""color:darkgreen;font-size:24px;"">Correct :)</p>","",""
"2630","key","v","v","16.617417721519146","500","250","psychophysics","201","615435","0.0-201.0","5b101f7830d562000155a139","6213d213cf47f5c80707b383","5","","","","","0","3"
"null","","","null","","","","html-keyboard-response","202","615950","0.0-202.0","5b101f7830d562000155a139","6213d213cf47f5c80707b383","","","","","<p style=""color:darkgreen;font-size:24px;"">Correct :)</p>","",""
"2738","key","n","n","16.617636363635857","500","250","psychophysics","203","618691","0.0-203.0","5b101f7830d562000155a139","6213d213cf47f5c80707b383","5","","","","","0","4"
"null","","","null","","","","html-keyboard-response","204","619191","0.0-204.0","5b101f7830d562000155a139","6213d213cf47f5c80707b383","","","","","<p style=""color:darkgreen;font-size:24px;"">Correct :)</p>","",""
"2537","key","v","v","16.617320261437605","500","250","psychophysics","205","621731","0.0-205.0","5b101f7830d562000155a139","6213d213cf47f5c80707b383","5","","","","","0","7"
"null","","","null","","","","html-keyboard-response","206","622232","0.0-206.0","5b101f7830d562000155a139","6213d213cf47f5c80707b383","","","","","<p style=""color:darkgreen;font-size:24px;"">Correct :)</p>","",""
"2792","key","n","n","16.618113095238055","500","250","psychophysics","207","625027","0.0-207.0","5b101f7830d562000155a139","6213d213cf47f5c80707b383","5","","","","","0","3"
"null","","","null","","","","html-keyboard-response","208","625528","0.0-208.0","5b101f7830d562000155a139","6213d213cf47f5c80707b383","","","","","<p style=""color:red;font-size:24px;"">Error :(</p>","",""
"2800","key","n","n","16.61821893491085","500","250","psychophysics","209","628330","0.0-209.0","5b101f7830d562000155a139","6213d213cf47f5c80707b383","5","","","","","0","4"
"null","","","null","","","","html-keyboard-response","210","628832","0.0-210.0","5b101f7830d562000155a139","6213d213cf47f5c80707b383","","","","","<p style=""color:darkgreen;font-size:24px;"">Correct :)</p>","",""
"2624","key","v","v","16.617556962025457","500","250","psychophysics","211","631459","0.0-211.0","5b101f7830d562000155a139","6213d213cf47f5c80707b383","5","","","","","0","9"
"null","","","null","","","","html-keyboard-response","212","631960","0.0-212.0","5b101f7830d562000155a139","6213d213cf47f5c80707b383","","","","","<p style=""color:darkgreen;font-size:24px;"">Correct :)</p>","",""
"2543","key","n","n","16.617555555555775","500","250","psychophysics","213","634506","0.0-213.0","5b101f7830d562000155a139","6213d213cf47f5c80707b383","5","","","","","0","2"
"null","","","null","","","","html-keyboard-response","214","635007","0.0-214.0","5b101f7830d562000155a139","6213d213cf47f5c80707b383","","","","","<p style=""color:darkgreen;font-size:24px;"">Correct :)</p>","",""
"2585","key","n","n","16.61743589743557","500","250","psychophysics","215","637595","0.0-215.0","5b101f7830d562000155a139","6213d213cf47f5c80707b383","5","","","","","0","2"
"null","","","null","","","","html-keyboard-response","216","638096","0.0-216.0","5b101f7830d562000155a139","6213d213cf47f5c80707b383","","","","","<p style=""color:darkgreen;font-size:24px;"">Correct :)</p>","",""
"2431","key","n","n","16.616842465753482","500","250","psychophysics","217","640530","0.0-217.0","5b101f7830d562000155a139","6213d213cf47f5c80707b383","5","","","","","0","2"
"null","","","null","","","","html-keyboard-response","218","641032","0.0-218.0","5b101f7830d562000155a139","6213d213cf47f5c80707b383","","","","","<p style=""color:darkgreen;font-size:24px;"">Correct :)</p>","",""
"2503","key","v","v","16.616900000000218","500","250","psychophysics","219","643538","0.0-219.0","5b101f7830d562000155a139","6213d213cf47f5c80707b383","5","","","","","0","7"
"null","","","null","","","","html-keyboard-response","220","644041","0.0-220.0","5b101f7830d562000155a139","6213d213cf47f5c80707b383","","","","","<p style=""color:darkgreen;font-size:24px;"">Correct :)</p>","",""
"2614","key","v","v","16.61726582278512","500","250","psychophysics","221","646659","0.0-221.0","5b101f7830d562000155a139","6213d213cf47f5c80707b383","5","","","","","0","7"
"null","","","null","","","","html-keyboard-response","222","647161","0.0-222.0","5b101f7830d562000155a139","6213d213cf47f5c80707b383","","","","","<p style=""color:darkgreen;font-size:24px;"">Correct :)</p>","",""
"2679","key","v","v","16.618111801242616","500","250","psychophysics","223","649843","0.0-223.0","5b101f7830d562000155a139","6213d213cf47f5c80707b383","5","","","","","0","1"
"null","","","null","","","","html-keyboard-response","224","650345","0.0-224.0","5b101f7830d562000155a139","6213d213cf47f5c80707b383","","","","","<p style=""color:darkgreen;font-size:24px;"">Correct :)</p>","",""
"2623","key","v","v","16.617398734177208","500","250","psychophysics","225","652971","0.0-225.0","5b101f7830d562000155a139","6213d213cf47f5c80707b383","5","","","","","0","9"
"null","","","null","","","","html-keyboard-response","226","653472","0.0-226.0","5b101f7830d562000155a139","6213d213cf47f5c80707b383","","","","","<p style=""color:darkgreen;font-size:24px;"">Correct :)</p>","",""
"2455","key","v","v","16.616601351352024","500","250","psychophysics","227","655930","0.0-227.0","5b101f7830d562000155a139","6213d213cf47f5c80707b383","5","","","","","0","8"
"null","","","null","","","","html-keyboard-response","228","656433","0.0-228.0","5b101f7830d562000155a139","6213d213cf47f5c80707b383","","","","","<p style=""color:red;font-size:24px;"">Error :(</p>","",""
"2462","key","n","n","16.616986486486574","500","250","psychophysics","229","658898","0.0-229.0","5b101f7830d562000155a139","6213d213cf47f5c80707b383","5","","","","","0","8"
"null","","","null","","","","html-keyboard-response","230","659399","0.0-230.0","5b101f7830d562000155a139","6213d213cf47f5c80707b383","","","","","<p style=""color:darkgreen;font-size:24px;"">Correct :)</p>","",""
"2466","key","n","n","16.616986577181088","500","250","psychophysics","231","661867","0.0-231.0","5b101f7830d562000155a139","6213d213cf47f5c80707b383","5","","","","","0","8"
"null","","","null","","","","html-keyboard-response","232","662369","0.0-232.0","5b101f7830d562000155a139","6213d213cf47f5c80707b383","","","","","<p style=""color:darkgreen;font-size:24px;"">Correct :)</p>","",""
"2630","key","v","v","16.617537974683522","500","250","psychophysics","233","665002","0.0-233.0","5b101f7830d562000155a139","6213d213cf47f5c80707b383","5","","","","","0","7"
"null","","","null","","","","html-keyboard-response","234","665505","0.0-234.0","5b101f7830d562000155a139","6213d213cf47f5c80707b383","","","","","<p style=""color:darkgreen;font-size:24px;"">Correct :)</p>","",""
"2839","key","v","v","16.618274853801033","500","250","psychophysics","235","668346","0.0-235.0","5b101f7830d562000155a139","6213d213cf47f5c80707b383","5","","","","","0","1"
"null","","","null","","","","html-keyboard-response","236","668847","0.0-236.0","5b101f7830d562000155a139","6213d213cf47f5c80707b383","","","","","<p style=""color:darkgreen;font-size:24px;"">Correct :)</p>","",""
"2698","key","n","n","16.618086419753116","500","250","psychophysics","237","671548","0.0-237.0","5b101f7830d562000155a139","6213d213cf47f5c80707b383","5","","","","","0","8"
"null","","","null","","","","html-keyboard-response","238","672056","0.0-238.0","5b101f7830d562000155a139","6213d213cf47f5c80707b383","","","","","<p style=""color:darkgreen;font-size:24px;"">Correct :)</p>","",""
"2932","key","v","v","16.618305084746105","500","250","psychophysics","239","674994","0.0-239.0","5b101f7830d562000155a139","6213d213cf47f5c80707b383","5","","","","","0","1"
"null","","","null","","","","html-keyboard-response","240","675496","0.0-240.0","5b101f7830d562000155a139","6213d213cf47f5c80707b383","","","","","<p style=""color:darkgreen;font-size:24px;"">Correct :)</p>","",""
"2680","key","n","n","16.618154320987315","500","250","psychophysics","241","678178","0.0-241.0","5b101f7830d562000155a139","6213d213cf47f5c80707b383","5","","","","","0","8"
"null","","","null","","","","html-keyboard-response","242","678681","0.0-242.0","5b101f7830d562000155a139","6213d213cf47f5c80707b383","","","","","<p style=""color:darkgreen;font-size:24px;"">Correct :)</p>","",""
"2966","key","v","v","16.618926966292104","500","250","psychophysics","243","681650","0.0-243.0","5b101f7830d562000155a139","6213d213cf47f5c80707b383","5","","","","","0","2"
"null","","","null","","","","html-keyboard-response","244","682153","0.0-244.0","5b101f7830d562000155a139","6213d213cf47f5c80707b383","","","","","<p style=""color:red;font-size:24px;"">Error :(</p>","",""
"2646","key","n","n","16.61715094339609","500","250","psychophysics","245","684802","0.0-245.0","5b101f7830d562000155a139","6213d213cf47f5c80707b383","5","","","","","0","8"
"null","","","null","","","","html-keyboard-response","246","685305","0.0-246.0","5b101f7830d562000155a139","6213d213cf47f5c80707b383","","","","","<p style=""color:darkgreen;font-size:24px;"">Correct :)</p>","",""
"2791","key","n","n","16.618005952380674","500","250","psychophysics","247","688099","0.0-247.0","5b101f7830d562000155a139","6213d213cf47f5c80707b383","5","","","","","0","6"
"null","","","null","","","","html-keyboard-response","248","688600","0.0-248.0","5b101f7830d562000155a139","6213d213cf47f5c80707b383","","","","","<p style=""color:darkgreen;font-size:24px;"">Correct :)</p>","",""
"2486","key","n","n","16.617026666666693","500","250","psychophysics","249","691090","0.0-249.0","5b101f7830d562000155a139","6213d213cf47f5c80707b383","5","","","","","0","6"
"null","","","null","","","","html-keyboard-response","250","691593","0.0-250.0","5b101f7830d562000155a139","6213d213cf47f5c80707b383","","","","","<p style=""color:darkgreen;font-size:24px;"">Correct :)</p>","",""
"2574","key","n","n","16.617493506493773","500","250","psychophysics","251","694170","0.0-251.0","5b101f7830d562000155a139","6213d213cf47f5c80707b383","5","","","","","0","6"
"null","","","null","","","","html-keyboard-response","252","694672","0.0-252.0","5b101f7830d562000155a139","6213d213cf47f5c80707b383","","","","","<p style=""color:darkgreen;font-size:24px;"">Correct :)</p>","",""
"2664","key","n","n","16.617343749999417","500","250","psychophysics","253","697338","0.0-253.0","5b101f7830d562000155a139","6213d213cf47f5c80707b383","5","","","","","0","8"
"null","","","null","","","","html-keyboard-response","254","697840","0.0-254.0","5b101f7830d562000155a139","6213d213cf47f5c80707b383","","","","","<p style=""color:darkgreen;font-size:24px;"">Correct :)</p>","",""
"2648","key","n","n","16.617681249999443","500","250","psychophysics","255","700491","0.0-255.0","5b101f7830d562000155a139","6213d213cf47f5c80707b383","5","","","","","0","2"
"null","","","null","","","","html-keyboard-response","256","700994","0.0-256.0","5b101f7830d562000155a139","6213d213cf47f5c80707b383","","","","","<p style=""color:darkgreen;font-size:24px;"">Correct :)</p>","",""
"2702","key","v","v","16.617797546012277","500","250","psychophysics","257","703699","0.0-257.0","5b101f7830d562000155a139","6213d213cf47f5c80707b383","5","","","","","0","1"
"null","","","null","","","","html-keyboard-response","258","704201","0.0-258.0","5b101f7830d562000155a139","6213d213cf47f5c80707b383","","","","","<p style=""color:darkgreen;font-size:24px;"">Correct :)</p>","",""
"2579","key","v","v","16.617410256410203","500","250","psychophysics","259","706794","0.0-259.0","5b101f7830d562000155a139","6213d213cf47f5c80707b383","5","","","","","0","1"
"null","","","null","","","","html-keyboard-response","260","707296","0.0-260.0","5b101f7830d562000155a139","6213d213cf47f5c80707b383","","","","","<p style=""color:darkgreen;font-size:24px;"">Correct :)</p>","",""
"2639","key","v","v","16.617622641509005","500","250","psychophysics","261","709938","0.0-261.0","5b101f7830d562000155a139","6213d213cf47f5c80707b383","5","","","","","0","9"
"null","","","null","","","","html-keyboard-response","262","710440","0.0-262.0","5b101f7830d562000155a139","6213d213cf47f5c80707b383","","","","","<p style=""color:darkgreen;font-size:24px;"">Correct :)</p>","",""
"2688","key","n","n","16.61787654321","500","250","psychophysics","263","713130","0.0-263.0","5b101f7830d562000155a139","6213d213cf47f5c80707b383","5","","","","","0","8"
"null","","","null","","","","html-keyboard-response","264","713632","0.0-264.0","5b101f7830d562000155a139","6213d213cf47f5c80707b383","","","","","<p style=""color:darkgreen;font-size:24px;"">Correct :)</p>","",""
"2696","key","v","v","16.61759876543196","500","250","psychophysics","265","716330","0.0-265.0","5b101f7830d562000155a139","6213d213cf47f5c80707b383","5","","","","","0","3"
"null","","","null","","","","html-keyboard-response","266","716832","0.0-266.0","5b101f7830d562000155a139","6213d213cf47f5c80707b383","","","","","<p style=""color:darkgreen;font-size:24px;"">Correct :)</p>","",""
"2559","key","v","v","16.61752597402627","500","250","psychophysics","267","719394","0.0-267.0","5b101f7830d562000155a139","6213d213cf47f5c80707b383","5","","","","","0","1"
"null","","","null","","","","html-keyboard-response","268","719897","0.0-268.0","5b101f7830d562000155a139","6213d213cf47f5c80707b383","","","","","<p style=""color:darkgreen;font-size:24px;"">Correct :)</p>","",""
"2584","key","v","v","16.617474358974366","500","250","psychophysics","269","722490","0.0-269.0","5b101f7830d562000155a139","6213d213cf47f5c80707b383","5","","","","","0","3"
"null","","","null","","","","html-keyboard-response","270","722992","0.0-270.0","5b101f7830d562000155a139","6213d213cf47f5c80707b383","","","","","<p style=""color:darkgreen;font-size:24px;"">Correct :)</p>","",""
"2639","key","n","n","16.617540880502496","500","250","psychophysics","271","725634","0.0-271.0","5b101f7830d562000155a139","6213d213cf47f5c80707b383","5","","","","","0","4"
"null","","","null","","","","html-keyboard-response","272","726135","0.0-272.0","5b101f7830d562000155a139","6213d213cf47f5c80707b383","","","","","<p style=""color:darkgreen;font-size:24px;"">Correct :)</p>","",""
"2568","key","n","n","16.617348387096857","500","250","psychophysics","273","728706","0.0-273.0","5b101f7830d562000155a139","6213d213cf47f5c80707b383","5","","","","","0","6"
"null","","","null","","","","html-keyboard-response","274","729209","0.0-274.0","5b101f7830d562000155a139","6213d213cf47f5c80707b383","","","","","<p style=""color:darkgreen;font-size:24px;"">Correct :)</p>","",""
"2517","key","n","n","16.617322368421714","500","250","psychophysics","275","731738","0.0-275.0","5b101f7830d562000155a139","6213d213cf47f5c80707b383","5","","","","","0","4"
"null","","","null","","","","html-keyboard-response","276","732241","0.0-276.0","5b101f7830d562000155a139","6213d213cf47f5c80707b383","","","","","<p style=""color:darkgreen;font-size:24px;"">Correct :)</p>","",""
"2541","key","n","n","16.616862745098068","500","250","psychophysics","277","734785","0.0-277.0","5b101f7830d562000155a139","6213d213cf47f5c80707b383","5","","","","","0","4"
"null","","","null","","","","html-keyboard-response","278","735287","0.0-278.0","5b101f7830d562000155a139","6213d213cf47f5c80707b383","","","","","<p style=""color:darkgreen;font-size:24px;"">Correct :)</p>","",""
"2503","key","n","n","16.61758552631593","500","250","psychophysics","279","737802","0.0-279.0","5b101f7830d562000155a139","6213d213cf47f5c80707b383","5","","","","","0","6"
"null","","","null","","","","html-keyboard-response","280","738304","0.0-280.0","5b101f7830d562000155a139","6213d213cf47f5c80707b383","","","","","<p style=""color:darkgreen;font-size:24px;"">Correct :)</p>","",""
"2623","key","n","n","16.618025316455242","500","250","psychophysics","281","740930","0.0-281.0","5b101f7830d562000155a139","6213d213cf47f5c80707b383","5","","","","","0","6"
"null","","","null","","","","html-keyboard-response","282","741431","0.0-282.0","5b101f7830d562000155a139","6213d213cf47f5c80707b383","","","","","<p style=""color:darkgreen;font-size:24px;"">Correct :)</p>","",""
"2528","key","n","n","16.617315789473267","500","250","psychophysics","283","743961","0.0-283.0","5b101f7830d562000155a139","6213d213cf47f5c80707b383","5","","","","","0","8"
"null","","","null","","","","html-keyboard-response","284","744463","0.0-284.0","5b101f7830d562000155a139","6213d213cf47f5c80707b383","","","","","<p style=""color:darkgreen;font-size:24px;"">Correct :)</p>","",""
"2511","key","n","n","16.617355263157823","500","250","psychophysics","285","746978","0.0-285.0","5b101f7830d562000155a139","6213d213cf47f5c80707b383","5","","","","","0","4"
"null","","","null","","","","html-keyboard-response","286","747479","0.0-286.0","5b101f7830d562000155a139","6213d213cf47f5c80707b383","","","","","<p style=""color:darkgreen;font-size:24px;"">Correct :)</p>","",""
"2657","key","v","v","16.618006250000327","500","250","psychophysics","287","750138","0.0-287.0","5b101f7830d562000155a139","6213d213cf47f5c80707b383","5","","","","","0","3"
"null","","","null","","","","html-keyboard-response","288","750639","0.0-288.0","5b101f7830d562000155a139","6213d213cf47f5c80707b383","","","","","<p style=""color:darkgreen;font-size:24px;"">Correct :)</p>","",""
"2512","key","v","v","16.616834437086045","500","250","psychophysics","289","753154","0.0-289.0","5b101f7830d562000155a139","6213d213cf47f5c80707b383","5","","","","","0","1"
"null","","","null","","","","html-keyboard-response","290","753655","0.0-290.0","5b101f7830d562000155a139","6213d213cf47f5c80707b383","","","","","<p style=""color:darkgreen;font-size:24px;"">Correct :)</p>","",""
"2472","key","v","v","16.61693959731543","500","250","psychophysics","291","756130","0.0-291.0","5b101f7830d562000155a139","6213d213cf47f5c80707b383","5","","","","","0","3"
"null","","","null","","","","html-keyboard-response","292","756631","0.0-292.0","5b101f7830d562000155a139","6213d213cf47f5c80707b383","","","","","<p style=""color:darkgreen;font-size:24px;"">Correct :)</p>","",""
"2641","key","n","n","16.617471698113665","500","250","psychophysics","293","759274","0.0-293.0","5b101f7830d562000155a139","6213d213cf47f5c80707b383","5","","","","","0","8"
"null","","","null","","","","html-keyboard-response","294","759775","0.0-294.0","5b101f7830d562000155a139","6213d213cf47f5c80707b383","","","","","<p style=""color:darkgreen;font-size:24px;"">Correct :)</p>","",""
"12802","","","v","","","","html-keyboard-response","295","772578","0.0-295.0","5b101f7830d562000155a139","6213d213cf47f5c80707b383","","","","","<p> Here, the tasks are going to switch.  For some trials, your job is to decide if the digit is less than or greater than 5.  For others, it is to decide if the digit is even or odd.  You will be told which type of trial the current one is.  But, pay attention, the type of trial changes too.  We are going to do 50 of these.  </p>  <br><br>  Ready? (press v or n)","",""
"3221","key","n","n","16.58666494845403","500","250","psychophysics","296","775801","0.0-296.0","5b101f7830d562000155a139","6213d213cf47f5c80707b383","6","","","","","1","7"
"null","","","null","","","","html-keyboard-response","297","776303","0.0-297.0","5b101f7830d562000155a139","6213d213cf47f5c80707b383","","","","","<p style=""color:darkgreen;font-size:24px;"">Correct :)</p>","",""
"2600","key","v","v","16.61736942675101","500","250","psychophysics","298","778905","0.0-298.0","5b101f7830d562000155a139","6213d213cf47f5c80707b383","6","","","","","0","1"
"null","","","null","","","","html-keyboard-response","299","779407","0.0-299.0","5b101f7830d562000155a139","6213d213cf47f5c80707b383","","","","","<p style=""color:darkgreen;font-size:24px;"">Correct :)</p>","",""
"2848","key","n","n","16.618645348837248","500","250","psychophysics","300","782258","0.0-300.0","5b101f7830d562000155a139","6213d213cf47f5c80707b383","6","","","","","1","6"
"null","","","null","","","","html-keyboard-response","301","782761","0.0-301.0","5b101f7830d562000155a139","6213d213cf47f5c80707b383","","","","","<p style=""color:darkgreen;font-size:24px;"">Correct :)</p>","",""
"2597","key","n","n","16.61752866242069","500","250","psychophysics","302","785370","0.0-302.0","5b101f7830d562000155a139","6213d213cf47f5c80707b383","6","","","","","0","2"
"null","","","null","","","","html-keyboard-response","303","785871","0.0-303.0","5b101f7830d562000155a139","6213d213cf47f5c80707b383","","","","","<p style=""color:darkgreen;font-size:24px;"">Correct :)</p>","",""
"2672","key","n","n","16.617739130434817","500","250","psychophysics","304","788546","0.0-304.0","5b101f7830d562000155a139","6213d213cf47f5c80707b383","6","","","","","0","8"
"null","","","null","","","","html-keyboard-response","305","789047","0.0-305.0","5b101f7830d562000155a139","6213d213cf47f5c80707b383","","","","","<p style=""color:darkgreen;font-size:24px;"">Correct :)</p>","",""
"2520","key","v","v","16.617269736842566","500","250","psychophysics","306","791569","0.0-306.0","5b101f7830d562000155a139","6213d213cf47f5c80707b383","6","","","","","0","7"
"null","","","null","","","","html-keyboard-response","307","792071","0.0-307.0","5b101f7830d562000155a139","6213d213cf47f5c80707b383","","","","","<p style=""color:darkgreen;font-size:24px;"">Correct :)</p>","",""
"2751","key","v","v","16.618121212121157","500","250","psychophysics","308","794825","0.0-308.0","5b101f7830d562000155a139","6213d213cf47f5c80707b383","6","","","","","1","1"
"null","","","null","","","","html-keyboard-response","309","795327","0.0-309.0","5b101f7830d562000155a139","6213d213cf47f5c80707b383","","","","","<p style=""color:darkgreen;font-size:24px;"">Correct :)</p>","",""
"2808","key","n","n","16.61788757396421","500","250","psychophysics","310","798139","0.0-310.0","5b101f7830d562000155a139","6213d213cf47f5c80707b383","6","","","","","1","9"
"null","","","null","","","","html-keyboard-response","311","798642","0.0-311.0","5b101f7830d562000155a139","6213d213cf47f5c80707b383","","","","","<p style=""color:darkgreen;font-size:24px;"">Correct :)</p>","",""
"3924","key","v","v","16.620432203389917","500","250","psychophysics","312","802569","0.0-312.0","5b101f7830d562000155a139","6213d213cf47f5c80707b383","6","","","","","1","8"
"null","","","null","","","","html-keyboard-response","313","803071","0.0-313.0","5b101f7830d562000155a139","6213d213cf47f5c80707b383","","","","","<p style=""color:red;font-size:24px;"">Error :(</p>","",""
"2664","key","n","n","16.617726708074702","500","250","psychophysics","314","805737","0.0-314.0","5b101f7830d562000155a139","6213d213cf47f5c80707b383","6","","","","","0","4"
"null","","","null","","","","html-keyboard-response","315","806240","0.0-315.0","5b101f7830d562000155a139","6213d213cf47f5c80707b383","","","","","<p style=""color:darkgreen;font-size:24px;"">Correct :)</p>","",""
"2606","key","v","v","16.617751592356463","500","250","psychophysics","316","808849","0.0-316.0","5b101f7830d562000155a139","6213d213cf47f5c80707b383","6","","","","","0","7"
"null","","","null","","","","html-keyboard-response","317","809352","0.0-317.0","5b101f7830d562000155a139","6213d213cf47f5c80707b383","","","","","<p style=""color:darkgreen;font-size:24px;"">Correct :)</p>","",""
"3511","key","v","v","16.619706161137035","500","250","psychophysics","318","812865","0.0-318.0","5b101f7830d562000155a139","6213d213cf47f5c80707b383","6","","","","","1","3"
"null","","","null","","","","html-keyboard-response","319","813367","0.0-319.0","5b101f7830d562000155a139","6213d213cf47f5c80707b383","","","","","<p style=""color:darkgreen;font-size:24px;"">Correct :)</p>","",""
"2760","key","n","n","16.617530120481984","500","250","psychophysics","320","816129","0.0-320.0","5b101f7830d562000155a139","6213d213cf47f5c80707b383","6","","","","","1","8"
"null","","","null","","","","html-keyboard-response","321","816632","0.0-321.0","5b101f7830d562000155a139","6213d213cf47f5c80707b383","","","","","<p style=""color:darkgreen;font-size:24px;"">Correct :)</p>","",""
"2943","key","n","n","16.618502824858627","500","250","psychophysics","322","819577","0.0-322.0","5b101f7830d562000155a139","6213d213cf47f5c80707b383","6","","","","","0","6"
"null","","","null","","","","html-keyboard-response","323","820080","0.0-323.0","5b101f7830d562000155a139","6213d213cf47f5c80707b383","","","","","<p style=""color:darkgreen;font-size:24px;"">Correct :)</p>","",""
"3542","key","v","v","16.62021962616856","500","250","psychophysics","324","823625","0.0-324.0","5b101f7830d562000155a139","6213d213cf47f5c80707b383","6","","","","","1","2"
"null","","","null","","","","html-keyboard-response","325","824128","0.0-325.0","5b101f7830d562000155a139","6213d213cf47f5c80707b383","","","","","<p style=""color:darkgreen;font-size:24px;"">Correct :)</p>","",""
"2973","key","n","n","16.618737430168007","500","250","psychophysics","326","827113","0.0-326.0","5b101f7830d562000155a139","6213d213cf47f5c80707b383","6","","","","","0","8"
"null","","","null","","","","html-keyboard-response","327","827615","0.0-327.0","5b101f7830d562000155a139","6213d213cf47f5c80707b383","","","","","<p style=""color:darkgreen;font-size:24px;"">Correct :)</p>","",""
"2536","key","n","n","16.617013157895265","500","250","psychophysics","328","830153","0.0-328.0","5b101f7830d562000155a139","6213d213cf47f5c80707b383","6","","","","","1","9"
"null","","","null","","","","html-keyboard-response","329","830655","0.0-329.0","5b101f7830d562000155a139","6213d213cf47f5c80707b383","","","","","<p style=""color:darkgreen;font-size:24px;"">Correct :)</p>","",""
"2599","key","n","n","16.61763694267542","500","250","psychophysics","330","833257","0.0-330.0","5b101f7830d562000155a139","6213d213cf47f5c80707b383","6","","","","","1","9"
"null","","","null","","","","html-keyboard-response","331","833760","0.0-331.0","5b101f7830d562000155a139","6213d213cf47f5c80707b383","","","","","<p style=""color:darkgreen;font-size:24px;"">Correct :)</p>","",""
"2807","key","v","v","16.61846153846165","500","250","psychophysics","332","836569","0.0-332.0","5b101f7830d562000155a139","6213d213cf47f5c80707b383","6","","","","","1","4"
"null","","","null","","","","html-keyboard-response","333","837072","0.0-333.0","5b101f7830d562000155a139","6213d213cf47f5c80707b383","","","","","<p style=""color:darkgreen;font-size:24px;"">Correct :)</p>","",""
"2527","key","v","v","16.617203947368818","500","250","psychophysics","334","839601","0.0-334.0","5b101f7830d562000155a139","6213d213cf47f5c80707b383","6","","","","","1","2"
"null","","","null","","","","html-keyboard-response","335","840120","0.0-335.0","5b101f7830d562000155a139","6213d213cf47f5c80707b383","","","","","<p style=""color:darkgreen;font-size:24px;"">Correct :)</p>","",""
"2494","key","v","v","16.6168200000003","500","250","psychophysics","336","842617","0.0-336.0","5b101f7830d562000155a139","6213d213cf47f5c80707b383","6","","","","","1","3"
"null","","","null","","","","html-keyboard-response","337","843120","0.0-337.0","5b101f7830d562000155a139","6213d213cf47f5c80707b383","","","","","<p style=""color:darkgreen;font-size:24px;"">Correct :)</p>","",""
"3198","key","v","v","16.619145077720184","500","250","psychophysics","338","846321","0.0-338.0","5b101f7830d562000155a139","6213d213cf47f5c80707b383","6","","","","","1","4"
"null","","","null","","","","html-keyboard-response","339","846824","0.0-339.0","5b101f7830d562000155a139","6213d213cf47f5c80707b383","","","","","<p style=""color:darkgreen;font-size:24px;"">Correct :)</p>","",""
"2862","key","v","v","16.617982558139225","500","250","psychophysics","340","849688","0.0-340.0","5b101f7830d562000155a139","6213d213cf47f5c80707b383","6","","","","","0","7"
"null","","","null","","","","html-keyboard-response","341","850191","0.0-341.0","5b101f7830d562000155a139","6213d213cf47f5c80707b383","","","","","<p style=""color:darkgreen;font-size:24px;"">Correct :)</p>","",""
"3608","key","n","n","16.620256880734015","500","250","psychophysics","342","853801","0.0-342.0","5b101f7830d562000155a139","6213d213cf47f5c80707b383","6","","","","","1","7"
"null","","","null","","","","html-keyboard-response","343","854305","0.0-343.0","5b101f7830d562000155a139","6213d213cf47f5c80707b383","","","","","<p style=""color:darkgreen;font-size:24px;"">Correct :)</p>","",""
"3053","key","n","n","16.619070652173832","500","250","psychophysics","344","857361","0.0-344.0","5b101f7830d562000155a139","6213d213cf47f5c80707b383","6","","","","","0","6"
"null","","","null","","","","html-keyboard-response","345","857863","0.0-345.0","5b101f7830d562000155a139","6213d213cf47f5c80707b383","","","","","<p style=""color:darkgreen;font-size:24px;"">Correct :)</p>","",""
"3399","key","n","n","16.619539215686554","500","250","psychophysics","346","861266","0.0-346.0","5b101f7830d562000155a139","6213d213cf47f5c80707b383","6","","","","","0","2"
"null","","","null","","","","html-keyboard-response","347","861768","0.0-347.0","5b101f7830d562000155a139","6213d213cf47f5c80707b383","","","","","<p style=""color:darkgreen;font-size:24px;"">Correct :)</p>","",""
"2576","key","n","n","16.616761290322568","500","250","psychophysics","348","864346","0.0-348.0","5b101f7830d562000155a139","6213d213cf47f5c80707b383","6","","","","","0","2"
"null","","","null","","","","html-keyboard-response","349","864848","0.0-349.0","5b101f7830d562000155a139","6213d213cf47f5c80707b383","","","","","<p style=""color:darkgreen;font-size:24px;"">Correct :)</p>","",""
"2527","key","n","n","16.617243421052606","500","250","psychophysics","350","867377","0.0-350.0","5b101f7830d562000155a139","6213d213cf47f5c80707b383","6","","","","","0","2"
"null","","","null","","","","html-keyboard-response","351","867879","0.0-351.0","5b101f7830d562000155a139","6213d213cf47f5c80707b383","","","","","<p style=""color:darkgreen;font-size:24px;"">Correct :)</p>","",""
"2734","key","n","n","16.6178121212122","500","250","psychophysics","352","870617","0.0-352.0","5b101f7830d562000155a139","6213d213cf47f5c80707b383","6","","","","","0","8"
"null","","","null","","","","html-keyboard-response","353","871120","0.0-353.0","5b101f7830d562000155a139","6213d213cf47f5c80707b383","","","","","<p style=""color:darkgreen;font-size:24px;"">Correct :)</p>","",""
"2568","key","v","v","16.61740645161274","500","250","psychophysics","354","873690","0.0-354.0","5b101f7830d562000155a139","6213d213cf47f5c80707b383","6","","","","","1","2"
"null","","","null","","","","html-keyboard-response","355","874191","0.0-355.0","5b101f7830d562000155a139","6213d213cf47f5c80707b383","","","","","<p style=""color:darkgreen;font-size:24px;"">Correct :)</p>","",""
"2488","key","v","v","16.617506666666984","500","250","psychophysics","356","876682","0.0-356.0","5b101f7830d562000155a139","6213d213cf47f5c80707b383","6","","","","","1","2"
"null","","","null","","","","html-keyboard-response","357","877183","0.0-357.0","5b101f7830d562000155a139","6213d213cf47f5c80707b383","","","","","<p style=""color:darkgreen;font-size:24px;"">Correct :)</p>","",""
"2495","key","n","n","16.61727999999964","500","250","psychophysics","358","879681","0.0-358.0","5b101f7830d562000155a139","6213d213cf47f5c80707b383","6","","","","","0","6"
"null","","","null","","","","html-keyboard-response","359","880183","0.0-359.0","5b101f7830d562000155a139","6213d213cf47f5c80707b383","","","","","<p style=""color:darkgreen;font-size:24px;"">Correct :)</p>","",""
"2535","key","v","v","16.616823529411455","500","250","psychophysics","360","882721","0.0-360.0","5b101f7830d562000155a139","6213d213cf47f5c80707b383","6","","","","","1","2"
"null","","","null","","","","html-keyboard-response","361","883222","0.0-361.0","5b101f7830d562000155a139","6213d213cf47f5c80707b383","","","","","<p style=""color:darkgreen;font-size:24px;"">Correct :)</p>","",""
"2576","key","n","n","16.61750322580638","500","250","psychophysics","362","885801","0.0-362.0","5b101f7830d562000155a139","6213d213cf47f5c80707b383","6","","","","","1","9"
"null","","","null","","","","html-keyboard-response","363","886304","0.0-363.0","5b101f7830d562000155a139","6213d213cf47f5c80707b383","","","","","<p style=""color:darkgreen;font-size:24px;"">Correct :)</p>","",""
"3415","key","v","v","16.619723300970595","500","250","psychophysics","364","889722","0.0-364.0","5b101f7830d562000155a139","6213d213cf47f5c80707b383","6","","","","","1","4"
"null","","","null","","","","html-keyboard-response","365","890223","0.0-365.0","5b101f7830d562000155a139","6213d213cf47f5c80707b383","","","","","<p style=""color:darkgreen;font-size:24px;"">Correct :)</p>","",""
"2511","key","n","n","16.617695364238394","500","250","psychophysics","366","892737","0.0-366.0","5b101f7830d562000155a139","6213d213cf47f5c80707b383","6","","","","","0","8"
"null","","","null","","","","html-keyboard-response","367","893238","0.0-367.0","5b101f7830d562000155a139","6213d213cf47f5c80707b383","","","","","<p style=""color:darkgreen;font-size:24px;"">Correct :)</p>","",""
"3200","key","v","v","16.619207253885925","500","250","psychophysics","368","896441","0.0-368.0","5b101f7830d562000155a139","6213d213cf47f5c80707b383","6","","","","","1","3"
"null","","","null","","","","html-keyboard-response","369","896942","0.0-369.0","5b101f7830d562000155a139","6213d213cf47f5c80707b383","","","","","<p style=""color:darkgreen;font-size:24px;"">Correct :)</p>","",""
"2472","key","v","v","16.61751677852355","500","250","psychophysics","370","899417","0.0-370.0","5b101f7830d562000155a139","6213d213cf47f5c80707b383","6","","","","","1","3"
"null","","","null","","","","html-keyboard-response","371","899919","0.0-371.0","5b101f7830d562000155a139","6213d213cf47f5c80707b383","","","","","<p style=""color:darkgreen;font-size:24px;"">Correct :)</p>","",""
"3144","key","n","n","16.618615789473743","500","250","psychophysics","372","903066","0.0-372.0","5b101f7830d562000155a139","6213d213cf47f5c80707b383","6","","","","","1","8"
"null","","","null","","","","html-keyboard-response","373","903569","0.0-373.0","5b101f7830d562000155a139","6213d213cf47f5c80707b383","","","","","<p style=""color:darkgreen;font-size:24px;"">Correct :)</p>","",""
"2974","key","v","v","16.618229050279005","500","250","psychophysics","374","906545","0.0-374.0","5b101f7830d562000155a139","6213d213cf47f5c80707b383","6","","","","","0","7"
"null","","","null","","","","html-keyboard-response","375","907047","0.0-375.0","5b101f7830d562000155a139","6213d213cf47f5c80707b383","","","","","<p style=""color:darkgreen;font-size:24px;"">Correct :)</p>","",""
"2576","key","n","n","16.617541935484134","500","250","psychophysics","376","909625","0.0-376.0","5b101f7830d562000155a139","6213d213cf47f5c80707b383","6","","","","","0","8"
"null","","","null","","","","html-keyboard-response","377","910126","0.0-377.0","5b101f7830d562000155a139","6213d213cf47f5c80707b383","","","","","<p style=""color:darkgreen;font-size:24px;"">Correct :)</p>","",""
"2946","key","v","v","16.61839548022602","500","250","psychophysics","378","913075","0.0-378.0","5b101f7830d562000155a139","6213d213cf47f5c80707b383","6","","","","","0","1"
"null","","","null","","","","html-keyboard-response","379","913577","0.0-379.0","5b101f7830d562000155a139","6213d213cf47f5c80707b383","","","","","<p style=""color:darkgreen;font-size:24px;"">Correct :)</p>","",""
"2725","key","v","v","16.61756707317119","500","250","psychophysics","380","916305","0.0-380.0","5b101f7830d562000155a139","6213d213cf47f5c80707b383","6","","","","","0","7"
"null","","","null","","","","html-keyboard-response","381","916808","0.0-381.0","5b101f7830d562000155a139","6213d213cf47f5c80707b383","","","","","<p style=""color:darkgreen;font-size:24px;"">Correct :)</p>","",""
"2567","key","n","n","16.61732258064477","500","250","psychophysics","382","919377","0.0-382.0","5b101f7830d562000155a139","6213d213cf47f5c80707b383","6","","","","","0","8"
"null","","","null","","","","html-keyboard-response","383","919880","0.0-383.0","5b101f7830d562000155a139","6213d213cf47f5c80707b383","","","","","<p style=""color:darkgreen;font-size:24px;"">Correct :)</p>","",""
"3159","key","n","n","16.619115789473597","500","250","psychophysics","384","923040","0.0-384.0","5b101f7830d562000155a139","6213d213cf47f5c80707b383","6","","","","","1","6"
"null","","","null","","","","html-keyboard-response","385","923541","0.0-385.0","5b101f7830d562000155a139","6213d213cf47f5c80707b383","","","","","<p style=""color:darkgreen;font-size:24px;"">Correct :)</p>","",""
"2945","key","v","v","16.618525423729096","500","250","psychophysics","386","926488","0.0-386.0","5b101f7830d562000155a139","6213d213cf47f5c80707b383","6","","","","","0","3"
"null","","","null","","","","html-keyboard-response","387","926990","0.0-387.0","5b101f7830d562000155a139","6213d213cf47f5c80707b383","","","","","<p style=""color:darkgreen;font-size:24px;"">Correct :)</p>","",""
"3096","key","n","n","16.618650537634505","500","250","psychophysics","388","930088","0.0-388.0","5b101f7830d562000155a139","6213d213cf47f5c80707b383","6","","","","","0","6"
"null","","","null","","","","html-keyboard-response","389","930590","0.0-389.0","5b101f7830d562000155a139","6213d213cf47f5c80707b383","","","","","<p style=""color:darkgreen;font-size:24px;"">Correct :)</p>","",""
"3008","key","v","v","16.618574585635677","500","250","psychophysics","390","933600","0.0-390.0","5b101f7830d562000155a139","6213d213cf47f5c80707b383","6","","","","","1","2"
"null","","","null","","","","html-keyboard-response","391","934101","0.0-391.0","5b101f7830d562000155a139","6213d213cf47f5c80707b383","","","","","<p style=""color:darkgreen;font-size:24px;"">Correct :)</p>","",""
"3281","key","n","n","16.619363636363442","500","250","psychophysics","392","937384","0.0-392.0","5b101f7830d562000155a139","6213d213cf47f5c80707b383","6","","","","","1","9"
"null","","","null","","","","html-keyboard-response","393","937886","0.0-393.0","5b101f7830d562000155a139","6213d213cf47f5c80707b383","","","","","<p style=""color:darkgreen;font-size:24px;"">Correct :)</p>","",""
"2630","key","v","v","16.6171962025316","500","250","psychophysics","394","940520","0.0-394.0","5b101f7830d562000155a139","6213d213cf47f5c80707b383","6","","","","","0","1"
"null","","","null","","","","html-keyboard-response","395","941022","0.0-395.0","5b101f7830d562000155a139","6213d213cf47f5c80707b383","","","","","<p style=""color:darkgreen;font-size:24px;"">Correct :)</p>","",""
"7146","","","n","","","","html-keyboard-response","396","948168","0.0-396.0","5b101f7830d562000155a139","6213d213cf47f5c80707b383","","","","","<p> Last set of trials.  Here, the tasks are going to switch once again.  We are going to do 50 of these.  And then you are done with the experiment.  </p>  <br><br>  Ready? (press v or n)","",""
"2669","key","v","v","16.588111801242157","500","250","psychophysics","397","950840","0.0-397.0","5b101f7830d562000155a139","6213d213cf47f5c80707b383","7","","","","","0","3"
"null","","","null","","","","html-keyboard-response","398","951342","0.0-398.0","5b101f7830d562000155a139","6213d213cf47f5c80707b383","","","","","<p style=""color:darkgreen;font-size:24px;"">Correct :)</p>","",""
"2711","key","v","v","16.617840490797448","500","250","psychophysics","399","954056","0.0-399.0","5b101f7830d562000155a139","6213d213cf47f5c80707b383","7","","","","","0","1"
"null","","","null","","","","html-keyboard-response","400","954559","0.0-400.0","5b101f7830d562000155a139","6213d213cf47f5c80707b383","","","","","<p style=""color:darkgreen;font-size:24px;"">Correct :)</p>","",""
"2678","key","v","v","16.617372670807438","500","250","psychophysics","401","957240","0.0-401.0","5b101f7830d562000155a139","6213d213cf47f5c80707b383","7","","","","","0","1"
"null","","","null","","","","html-keyboard-response","402","957741","0.0-402.0","5b101f7830d562000155a139","6213d213cf47f5c80707b383","","","","","<p style=""color:darkgreen;font-size:24px;"">Correct :)</p>","",""
"2593","key","v","v","16.61748717948705","500","250","psychophysics","403","960337","0.0-403.0","5b101f7830d562000155a139","6213d213cf47f5c80707b383","7","","","","","1","4"
"null","","","null","","","","html-keyboard-response","404","960852","0.0-404.0","5b101f7830d562000155a139","6213d213cf47f5c80707b383","","","","","<p style=""color:darkgreen;font-size:24px;"">Correct :)</p>","",""
"2568","key","v","v","16.617391025640806","500","250","psychophysics","405","963424","0.0-405.0","5b101f7830d562000155a139","6213d213cf47f5c80707b383","7","","","","","0","3"
"null","","","null","","","","html-keyboard-response","406","963925","0.0-406.0","5b101f7830d562000155a139","6213d213cf47f5c80707b383","","","","","<p style=""color:darkgreen;font-size:24px;"">Correct :)</p>","",""
"2536","key","n","n","16.61770588235269","500","250","psychophysics","407","966464","0.0-407.0","5b101f7830d562000155a139","6213d213cf47f5c80707b383","7","","","","","0","6"
"null","","","null","","","","html-keyboard-response","408","966965","0.0-408.0","5b101f7830d562000155a139","6213d213cf47f5c80707b383","","","","","<p style=""color:darkgreen;font-size:24px;"">Correct :)</p>","",""
"2472","key","v","v","16.616557046979658","500","250","psychophysics","409","969440","0.0-409.0","5b101f7830d562000155a139","6213d213cf47f5c80707b383","7","","","","","1","4"
"null","","","null","","","","html-keyboard-response","410","969942","0.0-410.0","5b101f7830d562000155a139","6213d213cf47f5c80707b383","","","","","<p style=""color:darkgreen;font-size:24px;"">Correct :)</p>","",""
"2463","key","n","n","16.616966216216916","500","250","psychophysics","411","972408","0.0-411.0","5b101f7830d562000155a139","6213d213cf47f5c80707b383","7","","","","","0","4"
"null","","","null","","","","html-keyboard-response","412","972909","0.0-412.0","5b101f7830d562000155a139","6213d213cf47f5c80707b383","","","","","<p style=""color:darkgreen;font-size:24px;"">Correct :)</p>","",""
"2480","key","n","n","16.617426666666287","500","250","psychophysics","413","975392","0.0-413.0","5b101f7830d562000155a139","6213d213cf47f5c80707b383","7","","","","","0","6"
"null","","","null","","","","html-keyboard-response","414","975895","0.0-414.0","5b101f7830d562000155a139","6213d213cf47f5c80707b383","","","","","<p style=""color:darkgreen;font-size:24px;"">Correct :)</p>","",""
"2542","key","v","v","16.61718300653597","500","250","psychophysics","415","978439","0.0-415.0","5b101f7830d562000155a139","6213d213cf47f5c80707b383","7","","","","","1","7"
"null","","","null","","","","html-keyboard-response","416","978940","0.0-416.0","5b101f7830d562000155a139","6213d213cf47f5c80707b383","","","","","<p style=""color:red;font-size:24px;"">Error :(</p>","",""
"2953","key","n","n","16.618432584269694","500","250","psychophysics","417","981896","0.0-417.0","5b101f7830d562000155a139","6213d213cf47f5c80707b383","7","","","","","1","6"
"null","","","null","","","","html-keyboard-response","418","982398","0.0-418.0","5b101f7830d562000155a139","6213d213cf47f5c80707b383","","","","","<p style=""color:darkgreen;font-size:24px;"">Correct :)</p>","",""
"2680","key","n","n","16.617708074534168","500","250","psychophysics","419","985080","0.0-419.0","5b101f7830d562000155a139","6213d213cf47f5c80707b383","7","","","","","0","6"
"null","","","null","","","","html-keyboard-response","420","985581","0.0-420.0","5b101f7830d562000155a139","6213d213cf47f5c80707b383","","","","","<p style=""color:darkgreen;font-size:24px;"">Correct :)</p>","",""
"2843","key","v","v","16.61787134502968","500","250","psychophysics","421","988432","0.0-421.0","5b101f7830d562000155a139","6213d213cf47f5c80707b383","7","","","","","1","4"
"null","","","null","","","","html-keyboard-response","422","988933","0.0-422.0","5b101f7830d562000155a139","6213d213cf47f5c80707b383","","","","","<p style=""color:darkgreen;font-size:24px;"">Correct :)</p>","",""
"2633","key","n","n","16.617622641509737","500","250","psychophysics","423","991568","0.0-423.0","5b101f7830d562000155a139","6213d213cf47f5c80707b383","7","","","","","1","7"
"null","","","null","","","","html-keyboard-response","424","992071","0.0-424.0","5b101f7830d562000155a139","6213d213cf47f5c80707b383","","","","","<p style=""color:darkgreen;font-size:24px;"">Correct :)</p>","",""
"2926","key","v","v","16.618505681817954","500","250","psychophysics","425","995000","0.0-425.0","5b101f7830d562000155a139","6213d213cf47f5c80707b383","7","","","","","1","4"
"null","","","null","","","","html-keyboard-response","426","995502","0.0-426.0","5b101f7830d562000155a139","6213d213cf47f5c80707b383","","","","","<p style=""color:darkgreen;font-size:24px;"">Correct :)</p>","",""
"2495","key","v","v","16.61705333333307","500","250","psychophysics","427","998000","0.0-427.0","5b101f7830d562000155a139","6213d213cf47f5c80707b383","7","","","","","1","2"
"null","","","null","","","","html-keyboard-response","428","998501","0.0-428.0","5b101f7830d562000155a139","6213d213cf47f5c80707b383","","","","","<p style=""color:darkgreen;font-size:24px;"">Correct :)</p>","",""
"2521","key","n","n","16.616907894736965","500","250","psychophysics","429","1001039","0.0-429.0","5b101f7830d562000155a139","6213d213cf47f5c80707b383","7","","","","","0","2"
"null","","","null","","","","html-keyboard-response","430","1001542","0.0-430.0","5b101f7830d562000155a139","6213d213cf47f5c80707b383","","","","","<p style=""color:darkgreen;font-size:24px;"">Correct :)</p>","",""
"2559","key","n","n","16.61756774193547","500","250","psychophysics","431","1004104","0.0-431.0","5b101f7830d562000155a139","6213d213cf47f5c80707b383","7","","","","","0","2"
"null","","","null","","","","html-keyboard-response","432","1004605","0.0-432.0","5b101f7830d562000155a139","6213d213cf47f5c80707b383","","","","","<p style=""color:darkgreen;font-size:24px;"">Correct :)</p>","",""
"2543","key","n","n","16.61720915032654","500","250","psychophysics","433","1007151","0.0-433.0","5b101f7830d562000155a139","6213d213cf47f5c80707b383","7","","","","","0","4"
"null","","","null","","","","html-keyboard-response","434","1007654","0.0-434.0","5b101f7830d562000155a139","6213d213cf47f5c80707b383","","","","","<p style=""color:darkgreen;font-size:24px;"">Correct :)</p>","",""
"2559","key","v","v","16.617474025974122","500","250","psychophysics","435","1010216","0.0-435.0","5b101f7830d562000155a139","6213d213cf47f5c80707b383","7","","","","","1","1"
"null","","","null","","","","html-keyboard-response","436","1010717","0.0-436.0","5b101f7830d562000155a139","6213d213cf47f5c80707b383","","","","","<p style=""color:darkgreen;font-size:24px;"">Correct :)</p>","",""
"2920","key","v","v","16.618755681818584","500","250","psychophysics","437","1013639","0.0-437.0","5b101f7830d562000155a139","6213d213cf47f5c80707b383","7","","","","","1","3"
"null","","","null","","","","html-keyboard-response","438","1014142","0.0-438.0","5b101f7830d562000155a139","6213d213cf47f5c80707b383","","","","","<p style=""color:darkgreen;font-size:24px;"">Correct :)</p>","",""
"2855","key","v","v","16.61802890173407","500","250","psychophysics","439","1017008","0.0-439.0","5b101f7830d562000155a139","6213d213cf47f5c80707b383","7","","","","","1","2"
"null","","","null","","","","html-keyboard-response","440","1017510","0.0-440.0","5b101f7830d562000155a139","6213d213cf47f5c80707b383","","","","","<p style=""color:darkgreen;font-size:24px;"">Correct :)</p>","",""
"3048","key","v","v","16.619060109289936","500","250","psychophysics","441","1020560","0.0-441.0","5b101f7830d562000155a139","6213d213cf47f5c80707b383","7","","","","","0","1"
"null","","","null","","","","html-keyboard-response","442","1021062","0.0-442.0","5b101f7830d562000155a139","6213d213cf47f5c80707b383","","","","","<p style=""color:darkgreen;font-size:24px;"">Correct :)</p>","",""
"3023","key","v","v","16.618049723756737","500","250","psychophysics","443","1024087","0.0-443.0","5b101f7830d562000155a139","6213d213cf47f5c80707b383","7","","","","","1","2"
"null","","","null","","","","html-keyboard-response","444","1024590","0.0-444.0","5b101f7830d562000155a139","6213d213cf47f5c80707b383","","","","","<p style=""color:darkgreen;font-size:24px;"">Correct :)</p>","",""
"3047","key","n","n","16.618516304347988","500","250","psychophysics","445","1027647","0.0-445.0","5b101f7830d562000155a139","6213d213cf47f5c80707b383","7","","","","","1","6"
"null","","","null","","","","html-keyboard-response","446","1028150","0.0-446.0","5b101f7830d562000155a139","6213d213cf47f5c80707b383","","","","","<p style=""color:darkgreen;font-size:24px;"">Correct :)</p>","",""
"2567","key","v","v","16.617350649350932","500","250","psychophysics","447","1030720","0.0-447.0","5b101f7830d562000155a139","6213d213cf47f5c80707b383","7","","","","","1","4"
"null","","","null","","","","html-keyboard-response","448","1031221","0.0-448.0","5b101f7830d562000155a139","6213d213cf47f5c80707b383","","","","","<p style=""color:darkgreen;font-size:24px;"">Correct :)</p>","",""
"2775","key","n","n","16.617526946107656","500","250","psychophysics","449","1033999","0.0-449.0","5b101f7830d562000155a139","6213d213cf47f5c80707b383","7","","","","","0","4"
"null","","","null","","","","html-keyboard-response","450","1034502","0.0-450.0","5b101f7830d562000155a139","6213d213cf47f5c80707b383","","","","","<p style=""color:darkgreen;font-size:24px;"">Correct :)</p>","",""
"2959","key","v","v","16.618550561798155","500","250","psychophysics","451","1037463","0.0-451.0","5b101f7830d562000155a139","6213d213cf47f5c80707b383","7","","","","","0","7"
"null","","","null","","","","html-keyboard-response","452","1037966","0.0-452.0","5b101f7830d562000155a139","6213d213cf47f5c80707b383","","","","","<p style=""color:darkgreen;font-size:24px;"">Correct :)</p>","",""
"2526","key","v","v","16.617256578947202","500","250","psychophysics","453","1040496","0.0-453.0","5b101f7830d562000155a139","6213d213cf47f5c80707b383","7","","","","","0","3"
"null","","","null","","","","html-keyboard-response","454","1040998","0.0-454.0","5b101f7830d562000155a139","6213d213cf47f5c80707b383","","","","","<p style=""color:darkgreen;font-size:24px;"">Correct :)</p>","",""
"2616","key","v","v","16.61717834394903","500","250","psychophysics","455","1043616","0.0-455.0","5b101f7830d562000155a139","6213d213cf47f5c80707b383","7","","","","","0","1"
"null","","","null","","","","html-keyboard-response","456","1044119","0.0-456.0","5b101f7830d562000155a139","6213d213cf47f5c80707b383","","","","","<p style=""color:darkgreen;font-size:24px;"">Correct :)</p>","",""
"2676","key","n","n","16.61782608695635","500","250","psychophysics","457","1046800","0.0-457.0","5b101f7830d562000155a139","6213d213cf47f5c80707b383","7","","","","","0","4"
"null","","","null","","","","html-keyboard-response","458","1047303","0.0-458.0","5b101f7830d562000155a139","6213d213cf47f5c80707b383","","","","","<p style=""color:darkgreen;font-size:24px;"">Correct :)</p>","",""
"2551","key","n","n","16.617163398692664","500","250","psychophysics","459","1049856","0.0-459.0","5b101f7830d562000155a139","6213d213cf47f5c80707b383","7","","","","","0","4"
"null","","","null","","","","html-keyboard-response","460","1050358","0.0-460.0","5b101f7830d562000155a139","6213d213cf47f5c80707b383","","","","","<p style=""color:darkgreen;font-size:24px;"">Correct :)</p>","",""
"2495","key","v","v","16.617344370859655","500","250","psychophysics","461","1052856","0.0-461.0","5b101f7830d562000155a139","6213d213cf47f5c80707b383","7","","","","","1","1"
"null","","","null","","","","html-keyboard-response","462","1053357","0.0-462.0","5b101f7830d562000155a139","6213d213cf47f5c80707b383","","","","","<p style=""color:darkgreen;font-size:24px;"">Correct :)</p>","",""
"2719","key","n","n","16.617914634146274","500","250","psychophysics","463","1056080","0.0-463.0","5b101f7830d562000155a139","6213d213cf47f5c80707b383","7","","","","","0","4"
"null","","","null","","","","html-keyboard-response","464","1056584","0.0-464.0","5b101f7830d562000155a139","6213d213cf47f5c80707b383","","","","","<p style=""color:darkgreen;font-size:24px;"">Correct :)</p>","",""
"2974","key","v","v","16.618547486034664","500","250","psychophysics","465","1059560","0.0-465.0","5b101f7830d562000155a139","6213d213cf47f5c80707b383","7","","","","","0","7"
"null","","","null","","","","html-keyboard-response","466","1060063","0.0-466.0","5b101f7830d562000155a139","6213d213cf47f5c80707b383","","","","","<p style=""color:darkgreen;font-size:24px;"">Correct :)</p>","",""
"2638","key","n","n","16.617773584905812","500","250","psychophysics","467","1062704","0.0-467.0","5b101f7830d562000155a139","6213d213cf47f5c80707b383","7","","","","","0","6"
"null","","","null","","","","html-keyboard-response","468","1063206","0.0-468.0","5b101f7830d562000155a139","6213d213cf47f5c80707b383","","","","","<p style=""color:darkgreen;font-size:24px;"">Correct :)</p>","",""
"2591","key","n","n","16.61757692307807","500","250","psychophysics","469","1065799","0.0-469.0","5b101f7830d562000155a139","6213d213cf47f5c80707b383","7","","","","","0","4"
"null","","","null","","","","html-keyboard-response","470","1066300","0.0-470.0","5b101f7830d562000155a139","6213d213cf47f5c80707b383","","","","","<p style=""color:darkgreen;font-size:24px;"">Correct :)</p>","",""
"2578","key","n","n","16.617219354838674","500","250","psychophysics","471","1068881","0.0-471.0","5b101f7830d562000155a139","6213d213cf47f5c80707b383","7","","","","","1","7"
"null","","","null","","","","html-keyboard-response","472","1069383","0.0-472.0","5b101f7830d562000155a139","6213d213cf47f5c80707b383","","","","","<p style=""color:darkgreen;font-size:24px;"">Correct :)</p>","",""
"2573","key","v","v","16.61741290322595","500","250","psychophysics","473","1071960","0.0-473.0","5b101f7830d562000155a139","6213d213cf47f5c80707b383","7","","","","","1","1"
"null","","","null","","","","html-keyboard-response","474","1072463","0.0-474.0","5b101f7830d562000155a139","6213d213cf47f5c80707b383","","","","","<p style=""color:darkgreen;font-size:24px;"">Correct :)</p>","",""
"2631","key","n","n","16.617740506328396","500","250","psychophysics","475","1075096","0.0-475.0","5b101f7830d562000155a139","6213d213cf47f5c80707b383","7","","","","","1","6"
"null","","","null","","","","html-keyboard-response","476","1075598","0.0-476.0","5b101f7830d562000155a139","6213d213cf47f5c80707b383","","","","","<p style=""color:darkgreen;font-size:24px;"">Correct :)</p>","",""
"2919","key","v","v","16.61765714285629","500","250","psychophysics","477","1078519","0.0-477.0","5b101f7830d562000155a139","6213d213cf47f5c80707b383","7","","","","","0","3"
"null","","","null","","","","html-keyboard-response","478","1079020","0.0-478.0","5b101f7830d562000155a139","6213d213cf47f5c80707b383","","","","","<p style=""color:darkgreen;font-size:24px;"">Correct :)</p>","",""
"2648","key","n","n","16.617668750000302","500","250","psychophysics","479","1081672","0.0-479.0","5b101f7830d562000155a139","6213d213cf47f5c80707b383","7","","","","","1","6"
"null","","","null","","","","html-keyboard-response","480","1082173","0.0-480.0","5b101f7830d562000155a139","6213d213cf47f5c80707b383","","","","","<p style=""color:darkgreen;font-size:24px;"">Correct :)</p>","",""
"2783","key","v","v","16.61827976190363","500","250","psychophysics","481","1084960","0.0-481.0","5b101f7830d562000155a139","6213d213cf47f5c80707b383","7","","","","","0","1"
"null","","","null","","","","html-keyboard-response","482","1085462","0.0-482.0","5b101f7830d562000155a139","6213d213cf47f5c80707b383","","","","","<p style=""color:darkgreen;font-size:24px;"">Correct :)</p>","",""
"2990","key","n","n","16.618661111110768","500","250","psychophysics","483","1088455","0.0-483.0","5b101f7830d562000155a139","6213d213cf47f5c80707b383","7","","","","","1","7"
"null","","","null","","","","html-keyboard-response","484","1088958","0.0-484.0","5b101f7830d562000155a139","6213d213cf47f5c80707b383","","","","","<p style=""color:darkgreen;font-size:24px;"">Correct :)</p>","",""
"2463","key","v","v","16.61679729729784","500","250","psychophysics","485","1091423","0.0-485.0","5b101f7830d562000155a139","6213d213cf47f5c80707b383","7","","","","","1","1"
"null","","","null","","","","html-keyboard-response","486","1091933","0.0-486.0","5b101f7830d562000155a139","6213d213cf47f5c80707b383","","","","","<p style=""color:darkgreen;font-size:24px;"">Correct :)</p>","",""
"3165","key","v","v","16.619219895287696","500","250","psychophysics","487","1095104","0.0-487.0","5b101f7830d562000155a139","6213d213cf47f5c80707b383","7","","","","","0","3"
"null","","","null","","","","html-keyboard-response","488","1095605","0.0-488.0","5b101f7830d562000155a139","6213d213cf47f5c80707b383","","","","","<p style=""color:darkgreen;font-size:24px;"">Correct :)</p>","",""
"2648","key","n","n","16.617477987421406","500","250","psychophysics","489","1098256","0.0-489.0","5b101f7830d562000155a139","6213d213cf47f5c80707b383","7","","","","","1","6"
"null","","","null","","","","html-keyboard-response","490","1098758","0.0-490.0","5b101f7830d562000155a139","6213d213cf47f5c80707b383","","","","","<p style=""color:darkgreen;font-size:24px;"">Correct :)</p>","",""
"2494","key","v","v","16.616726666665635","500","250","psychophysics","491","1101254","0.0-491.0","5b101f7830d562000155a139","6213d213cf47f5c80707b383","7","","","","","1","1"
"null","","","null","","","","html-keyboard-response","492","1101757","0.0-492.0","5b101f7830d562000155a139","6213d213cf47f5c80707b383","","","","","<p style=""color:darkgreen;font-size:24px;"">Correct :)</p>","",""
"3142","key","n","n","16.61871957672001","500","250","psychophysics","493","1104902","0.0-493.0","5b101f7830d562000155a139","6213d213cf47f5c80707b383","7","","","","","1","2"
"null","","","null","","","","html-keyboard-response","494","1105405","0.0-494.0","5b101f7830d562000155a139","6213d213cf47f5c80707b383","","","","","<p style=""color:red;font-size:24px;"">Error :(</p>","",""
"2784","key","v","v","16.617797619046456","500","250","psychophysics","495","1108191","0.0-495.0","5b101f7830d562000155a139","6213d213cf47f5c80707b383","7","","","","","0","1"
"null","","","null","","","","html-keyboard-response","496","1108693","0.0-496.0","5b101f7830d562000155a139","6213d213cf47f5c80707b383","","","","","<p style=""color:darkgreen;font-size:24px;"">Correct :)</p>","",""
