"rt","response_type","key_press","response","avg_frame_time","center_x","center_y","trial_type","trial_index","time_elapsed","internal_node_id","pid","sid","phase","guide","targ","resp","stimulus","is5","stim"
"4164","key"," "," ","17.314285714285713","500","250","psychophysics","0","4252","0.0-0.0","5c2ff645644d5300010c25f3","620a66e8940045d98c529de5","","","","","","",""
"7589","key"," "," ","16.699779249448124","500","250","psychophysics","1","11844","0.0-1.0","5c2ff645644d5300010c25f3","620a66e8940045d98c529de5","","","","","","",""
"3116","key"," "," ","17.14835164835165","500","250","psychophysics","2","14967","0.0-2.0","5c2ff645644d5300010c25f3","620a66e8940045d98c529de5","","","","","","",""
"2773","key"," "," ","16.696969696969695","500","250","psychophysics","3","17743","0.0-3.0","5c2ff645644d5300010c25f3","620a66e8940045d98c529de5","","","","","","",""
"4236","key"," "," ","16.699604743083004","500","250","psychophysics","4","21983","0.0-4.0","5c2ff645644d5300010c25f3","620a66e8940045d98c529de5","","","","","","",""
"4101","key"," "," ","16.70204081632653","500","250","psychophysics","5","26087","0.0-5.0","5c2ff645644d5300010c25f3","620a66e8940045d98c529de5","","","","","","",""
"3046","key"," "," ","16.696132596685082","500","250","psychophysics","6","29135","0.0-6.0","5c2ff645644d5300010c25f3","620a66e8940045d98c529de5","","","","","","",""
"2974","key"," "," ","16.70056497175141","500","250","psychophysics","7","32112","0.0-7.0","5c2ff645644d5300010c25f3","620a66e8940045d98c529de5","","","","","","",""
"14260","key"," "," ","16.70023419203747","500","250","psychophysics","8","46377","0.0-8.0","5c2ff645644d5300010c25f3","620a66e8940045d98c529de5","0","0","51","52","","",""
"3596","key"," "," ","16.700934579439252","500","250","psychophysics","9","49975","0.0-9.0","5c2ff645644d5300010c25f3","620a66e8940045d98c529de5","","","","","","",""
"4188","key"," "," ","16.7","500","250","psychophysics","10","54168","0.0-10.0","5c2ff645644d5300010c25f3","620a66e8940045d98c529de5","","","","","","",""
"4052","key"," "," ","16.702479338842974","500","250","psychophysics","11","58223","0.0-11.0","5c2ff645644d5300010c25f3","620a66e8940045d98c529de5","","","","","","",""
"3885","key"," "," ","16.70258620689655","500","250","psychophysics","12","62111","0.0-12.0","5c2ff645644d5300010c25f3","620a66e8940045d98c529de5","","","","","","",""
"2901","key"," "," ","16.69942196531792","500","250","psychophysics","13","65016","0.0-13.0","5c2ff645644d5300010c25f3","620a66e8940045d98c529de5","","","","","","",""
"6309","key"," "," ","16.70026525198939","500","250","psychophysics","14","71327","0.0-14.0","5c2ff645644d5300010c25f3","620a66e8940045d98c529de5","","","","","","",""
"3304","key"," "," ","16.700507614213198","500","250","psychophysics","15","74634","0.0-15.0","5c2ff645644d5300010c25f3","620a66e8940045d98c529de5","","","","","","",""
"3595","key"," "," ","16.69626168224299","500","250","psychophysics","16","78232","0.0-16.0","5c2ff645644d5300010c25f3","620a66e8940045d98c529de5","","","","","","",""
"11453","key"," "," ","16.6992700729927","500","250","psychophysics","17","89688","0.0-17.0","5c2ff645644d5300010c25f3","620a66e8940045d98c529de5","1","0","45","55","","",""
"10837","key"," "," ","16.699074074074073","500","250","psychophysics","18","100528","0.0-18.0","5c2ff645644d5300010c25f3","620a66e8940045d98c529de5","1","5","31","30","","",""
"12069","key"," "," ","16.6994459833795","500","250","psychophysics","19","112599","0.0-19.0","5c2ff645644d5300010c25f3","620a66e8940045d98c529de5","1","0","24","31","","",""
"19542","key"," "," ","16.698887938408898","500","250","psychophysics","20","132145","0.0-20.0","5c2ff645644d5300010c25f3","620a66e8940045d98c529de5","1","5","34","34","","",""
"15660","key"," "," ","16.699360341151387","500","250","psychophysics","21","147810","0.0-21.0","5c2ff645644d5300010c25f3","620a66e8940045d98c529de5","1","0","50","57","","",""
"9956","key"," "," ","16.699159663865547","500","250","psychophysics","22","157768","0.0-22.0","5c2ff645644d5300010c25f3","620a66e8940045d98c529de5","1","5","30","34","","",""
"9895","key"," "," ","16.699324324324323","500","250","psychophysics","23","167666","0.0-23.0","5c2ff645644d5300010c25f3","620a66e8940045d98c529de5","1","0","30","34","","",""
"9003","key"," "," ","16.69888475836431","500","250","psychophysics","24","176672","0.0-24.0","5c2ff645644d5300010c25f3","620a66e8940045d98c529de5","1","5","33","35","","",""
"10725","key"," "," ","16.69890795631825","500","250","psychophysics","25","187400","0.0-25.0","5c2ff645644d5300010c25f3","620a66e8940045d98c529de5","1","0","31","37","","",""
"11289","key"," "," ","16.698224852071007","500","250","psychophysics","26","198696","0.0-26.0","5c2ff645644d5300010c25f3","620a66e8940045d98c529de5","1","5","55","58","","",""
"9053","key"," "," ","16.700554528650645","500","250","psychophysics","27","207752","0.0-27.0","5c2ff645644d5300010c25f3","620a66e8940045d98c529de5","1","0","52","63","","",""
"15445","key"," "," ","16.700216450216452","500","250","psychophysics","28","223200","0.0-28.0","5c2ff645644d5300010c25f3","620a66e8940045d98c529de5","1","5","46","53","","",""
"9470","key"," "," ","16.699646643109542","500","250","psychophysics","29","232672","0.0-29.0","5c2ff645644d5300010c25f3","620a66e8940045d98c529de5","1","0","40","50","","",""
"7089","key"," "," ","16.69811320754717","500","250","psychophysics","30","239768","0.0-30.0","5c2ff645644d5300010c25f3","620a66e8940045d98c529de5","1","5","25","25","","",""
"8288","key"," "," ","16.699596774193548","500","250","psychophysics","31","248064","0.0-31.0","5c2ff645644d5300010c25f3","620a66e8940045d98c529de5","1","0","32","38","","",""
"8374","key"," "," ","16.698602794411176","500","250","psychophysics","32","256440","0.0-32.0","5c2ff645644d5300010c25f3","620a66e8940045d98c529de5","1","5","30","32","","",""
"15297","key"," "," ","16.698360655737705","500","250","psychophysics","33","271744","0.0-33.0","5c2ff645644d5300010c25f3","620a66e8940045d98c529de5","1","0","57","72","","",""
"11574","key"," "," ","16.69942196531792","500","250","psychophysics","34","283320","0.0-34.0","5c2ff645644d5300010c25f3","620a66e8940045d98c529de5","1","5","35","40","","",""
"8336","key"," "," ","16.69939879759519","500","250","psychophysics","35","291659","0.0-35.0","5c2ff645644d5300010c25f3","620a66e8940045d98c529de5","1","0","26","33","","",""
"13555","key"," "," ","16.7","500","250","psychophysics","36","305217","0.0-36.0","5c2ff645644d5300010c25f3","620a66e8940045d98c529de5","1","5","21","22","","",""
"12010","key"," "," ","16.69819193324061","500","250","psychophysics","37","317231","0.0-37.0","5c2ff645644d5300010c25f3","620a66e8940045d98c529de5","","","","","","",""
"7750","key"," "," ","16.699784017278617","500","250","psychophysics","38","324983","0.0-38.0","5c2ff645644d5300010c25f3","620a66e8940045d98c529de5","","","","","","",""
"2262","key"," "," ","16.696296296296296","500","250","psychophysics","39","327247","0.0-39.0","5c2ff645644d5300010c25f3","620a66e8940045d98c529de5","","","","","","",""
"9405","key"," "," ","16.701067615658364","500","250","psychophysics","40","336655","0.0-40.0","5c2ff645644d5300010c25f3","620a66e8940045d98c529de5","2","0","47","60","","",""
"4197","key"," "," ","16.701195219123505","500","250","psychophysics","41","340855","0.0-41.0","5c2ff645644d5300010c25f3","620a66e8940045d98c529de5","","","","","","",""
"6990","key"," "," ","16.700239808153476","500","250","psychophysics","42","347847","0.0-42.0","5c2ff645644d5300010c25f3","620a66e8940045d98c529de5","2","0","26","33","","",""
"2843","key"," "," ","16.7","500","250","psychophysics","43","350695","0.0-43.0","5c2ff645644d5300010c25f3","620a66e8940045d98c529de5","","","","","","",""
"12038","key"," "," ","16.698611111111113","500","250","psychophysics","44","362735","0.0-44.0","5c2ff645644d5300010c25f3","620a66e8940045d98c529de5","2","0","41","50","","",""
"2599","key"," "," ","16.696774193548386","500","250","psychophysics","45","365336","0.0-45.0","5c2ff645644d5300010c25f3","620a66e8940045d98c529de5","","","","","","",""
"10502","key"," "," ","16.69904458598726","500","250","psychophysics","46","375840","0.0-46.0","5c2ff645644d5300010c25f3","620a66e8940045d98c529de5","2","0","39","41","","",""
"5885","key"," "," ","16.698005698005698","500","250","psychophysics","47","381727","0.0-47.0","5c2ff645644d5300010c25f3","620a66e8940045d98c529de5","","","","","","",""
"6535","key"," "," ","16.70076726342711","500","250","psychophysics","48","388264","0.0-48.0","5c2ff645644d5300010c25f3","620a66e8940045d98c529de5","2","0","43","50","","",""
"4423","key"," "," ","16.700757575757574","500","250","psychophysics","49","392689","0.0-49.0","5c2ff645644d5300010c25f3","620a66e8940045d98c529de5","","","","","","",""
"10886","key"," "," ","16.698924731182796","500","250","psychophysics","50","403577","0.0-50.0","5c2ff645644d5300010c25f3","620a66e8940045d98c529de5","2","0","34","39","","",""
"3772","key"," "," ","16.697777777777777","500","250","psychophysics","51","407352","0.0-51.0","5c2ff645644d5300010c25f3","620a66e8940045d98c529de5","","","","","","",""
"16437","key"," "," ","16.698880976602236","500","250","psychophysics","52","423791","0.0-52.0","5c2ff645644d5300010c25f3","620a66e8940045d98c529de5","2","0","38","43","","",""
"5670","key"," "," ","16.699115044247787","500","250","psychophysics","53","429463","0.0-53.0","5c2ff645644d5300010c25f3","620a66e8940045d98c529de5","","","","","","",""
"9558","key"," "," ","16.69877408056042","500","250","psychophysics","54","439023","0.0-54.0","5c2ff645644d5300010c25f3","620a66e8940045d98c529de5","2","0","51","57","","",""
"3302","key"," "," ","16.700507614213198","500","250","psychophysics","55","442327","0.0-55.0","5c2ff645644d5300010c25f3","620a66e8940045d98c529de5","","","","","","",""
"8893","key"," "," ","16.69924812030075","500","250","psychophysics","56","451223","0.0-56.0","5c2ff645644d5300010c25f3","620a66e8940045d98c529de5","2","0","36","38","","",""
"16030","key"," "," ","16.69968717413973","500","250","psychophysics","57","467256","0.0-57.0","5c2ff645644d5300010c25f3","620a66e8940045d98c529de5","","","","","","",""
"9413","key"," "," ","16.69804618117229","500","250","psychophysics","58","476671","0.0-58.0","5c2ff645644d5300010c25f3","620a66e8940045d98c529de5","2","0","37","40","","",""
"5774","key"," "," ","16.700581395348838","500","250","psychophysics","59","482448","0.0-59.0","5c2ff645644d5300010c25f3","620a66e8940045d98c529de5","","","","","","",""
"10554","key"," "," ","16.700949367088608","500","250","psychophysics","60","493007","0.0-60.0","5c2ff645644d5300010c25f3","620a66e8940045d98c529de5","2","0","22","25","","",""
"4302","key"," "," ","16.700389105058367","500","250","psychophysics","61","497311","0.0-61.0","5c2ff645644d5300010c25f3","620a66e8940045d98c529de5","","","","","","",""
"8349","key"," "," ","16.697394789579157","500","250","psychophysics","62","505663","0.0-62.0","5c2ff645644d5300010c25f3","620a66e8940045d98c529de5","2","0","35","39","","",""
"2222","key"," "," ","16.696969696969695","500","250","psychophysics","63","507887","0.0-63.0","5c2ff645644d5300010c25f3","620a66e8940045d98c529de5","","","","","","",""
"7534","key"," "," ","16.7","500","250","psychophysics","64","515423","0.0-64.0","5c2ff645644d5300010c25f3","620a66e8940045d98c529de5","2","0","38","45","","",""
"1976","key"," "," ","16.694915254237287","500","250","psychophysics","65","517401","0.0-65.0","5c2ff645644d5300010c25f3","620a66e8940045d98c529de5","","","","","","",""
"12340","key"," "," ","16.69918699186992","500","250","psychophysics","66","529743","0.0-66.0","5c2ff645644d5300010c25f3","620a66e8940045d98c529de5","2","0","42","46","","",""
"5023","key"," "," ","16.7","500","250","psychophysics","67","534768","0.0-67.0","5c2ff645644d5300010c25f3","620a66e8940045d98c529de5","","","","","","",""
"9452","key"," "," ","16.699115044247787","500","250","psychophysics","68","544223","0.0-68.0","5c2ff645644d5300010c25f3","620a66e8940045d98c529de5","2","0","41","44","","",""
"2158","key"," "," ","16.703125","500","250","psychophysics","69","546383","0.0-69.0","5c2ff645644d5300010c25f3","620a66e8940045d98c529de5","","","","","","",""
"3142","key"," "," ","16.6951871657754","500","250","psychophysics","70","549528","0.0-70.0","5c2ff645644d5300010c25f3","620a66e8940045d98c529de5","","","","","","",""
"4186","key"," "," ","16.7","500","250","psychophysics","71","553721","0.0-71.0","5c2ff645644d5300010c25f3","620a66e8940045d98c529de5","","","","","","",""
"9385","key"," "," ","16.699288256227756","500","250","psychophysics","72","563112","0.0-72.0","5c2ff645644d5300010c25f3","620a66e8940045d98c529de5","3","5","41","36","","",""
"9822","key"," "," ","16.70017035775128","500","250","psychophysics","73","572936","0.0-73.0","5c2ff645644d5300010c25f3","620a66e8940045d98c529de5","3","0","35","44","","",""
"14622","key"," "," ","16.698285714285714","500","250","psychophysics","74","587560","0.0-74.0","5c2ff645644d5300010c25f3","620a66e8940045d98c529de5","3","5","51","48","","",""
"7893","key"," "," ","16.699152542372882","500","250","psychophysics","75","595456","0.0-75.0","5c2ff645644d5300010c25f3","620a66e8940045d98c529de5","3","0","41","46","","",""
"8222","key"," "," ","16.69857433808554","500","250","psychophysics","76","603680","0.0-76.0","5c2ff645644d5300010c25f3","620a66e8940045d98c529de5","3","5","48","47","","",""
"13390","key"," "," ","16.69912609238452","500","250","psychophysics","77","617072","0.0-77.0","5c2ff645644d5300010c25f3","620a66e8940045d98c529de5","3","0","35","41","","",""
"16439","key"," "," ","16.69918699186992","500","250","psychophysics","78","633513","0.0-78.0","5c2ff645644d5300010c25f3","620a66e8940045d98c529de5","3","5","32","30","","",""
"8371","key"," "," ","16.7","500","250","psychophysics","79","641888","0.0-79.0","5c2ff645644d5300010c25f3","620a66e8940045d98c529de5","3","0","56","62","","",""
"9397","key"," "," ","16.699288256227756","500","250","psychophysics","80","651288","0.0-80.0","5c2ff645644d5300010c25f3","620a66e8940045d98c529de5","3","5","40","37","","",""
"16108","key"," "," ","16.699170124481327","500","250","psychophysics","81","667400","0.0-81.0","5c2ff645644d5300010c25f3","620a66e8940045d98c529de5","3","0","59","66","","",""
"5093","key"," "," ","16.700657894736842","500","250","psychophysics","82","672496","0.0-82.0","5c2ff645644d5300010c25f3","620a66e8940045d98c529de5","3","5","34","31","","",""
"4958","key"," "," ","16.699324324324323","500","250","psychophysics","83","677456","0.0-83.0","5c2ff645644d5300010c25f3","620a66e8940045d98c529de5","3","0","23","27","","",""
"7798","key"," "," ","16.699570815450645","500","250","psychophysics","84","685256","0.0-84.0","5c2ff645644d5300010c25f3","620a66e8940045d98c529de5","3","5","38","37","","",""
"7454","key"," "," ","16.699551569506728","500","250","psychophysics","85","692713","0.0-85.0","5c2ff645644d5300010c25f3","620a66e8940045d98c529de5","3","0","51","58","","",""
"8264","key"," "," ","16.700404858299596","500","250","psychophysics","86","700979","0.0-86.0","5c2ff645644d5300010c25f3","620a66e8940045d98c529de5","3","5","25","26","","",""
"6322","key"," "," ","16.70026525198939","500","250","psychophysics","87","707304","0.0-87.0","5c2ff645644d5300010c25f3","620a66e8940045d98c529de5","3","0","31","35","","",""
"9088","key"," "," ","16.698529411764707","500","250","psychophysics","88","716400","0.0-88.0","5c2ff645644d5300010c25f3","620a66e8940045d98c529de5","3","5","45","45","","",""
"16429","key"," "," ","16.698880976602236","500","250","psychophysics","89","732831","0.0-89.0","5c2ff645644d5300010c25f3","620a66e8940045d98c529de5","3","0","44","59","","",""
"6597","key"," "," ","16.700507614213198","500","250","psychophysics","90","739432","0.0-90.0","5c2ff645644d5300010c25f3","620a66e8940045d98c529de5","3","5","41","40","","",""
"7385","key"," "," ","16.70135746606335","500","250","psychophysics","91","746823","0.0-91.0","5c2ff645644d5300010c25f3","620a66e8940045d98c529de5","3","0","41","45","","",""
"3254","key"," "," ","16.701030927835053","500","250","psychophysics","92","750079","0.0-92.0","5c2ff645644d5300010c25f3","620a66e8940045d98c529de5","","","","","","",""
"38239","","","v","","","","html-keyboard-response","93","788320","0.0-93.0","5c2ff645644d5300010c25f3","620a66e8940045d98c529de5","","","","","<p> In this part of the experiment, we are going present digits 1, 2, 3, 4, 6, 7, 8, and 9.  Notice that 5 is missing.  Your job is to say whether the presented digit is less than or greater than 5.  For example, 3 is less than 5 and 7 is greater than 5.  If the digit is less than 5, press the v key; if it is greater than 5, press the n key. We are going to do 200 of these in total, but only 50 righ now. They go real fast.</p>  <br><br>  Ready? (press v or n)","",""
"3256","key","n","n","16.706589743589912","500","250","psychophysics","94","791583","0.0-94.0","5c2ff645644d5300010c25f3","620a66e8940045d98c529de5","4","","","","","1","8"
"null","","","null","","","","html-keyboard-response","95","792084","0.0-95.0","5c2ff645644d5300010c25f3","620a66e8940045d98c529de5","","","","","<p style=""color:darkgreen;font-size:24px;"">Correct :)</p>","",""
"2658","key","n","n","16.698912500000006","500","250","psychophysics","96","794745","0.0-96.0","5c2ff645644d5300010c25f3","620a66e8940045d98c529de5","4","","","","","1","8"
"null","","","null","","","","html-keyboard-response","97","795247","0.0-97.0","5c2ff645644d5300010c25f3","620a66e8940045d98c529de5","","","","","<p style=""color:darkgreen;font-size:24px;"">Correct :)</p>","",""
"2645","key","v","v","16.695101265822792","500","250","psychophysics","98","797895","0.0-98.0","5c2ff645644d5300010c25f3","620a66e8940045d98c529de5","4","","","","","1","1"
"null","","","null","","","","html-keyboard-response","99","798396","0.0-99.0","5c2ff645644d5300010c25f3","620a66e8940045d98c529de5","","","","","<p style=""color:darkgreen;font-size:24px;"">Correct :)</p>","",""
"2460","key","v","v","16.69680405405391","500","250","psychophysics","100","800863","0.0-100.0","5c2ff645644d5300010c25f3","620a66e8940045d98c529de5","4","","","","","1","1"
"null","","","null","","","","html-keyboard-response","101","801364","0.0-101.0","5c2ff645644d5300010c25f3","620a66e8940045d98c529de5","","","","","<p style=""color:darkgreen;font-size:24px;"">Correct :)</p>","",""
"3144","key","v","v","16.70120212765958","500","250","psychophysics","102","804511","0.0-102.0","5c2ff645644d5300010c25f3","620a66e8940045d98c529de5","4","","","","","1","3"
"null","","","null","","","","html-keyboard-response","103","805012","0.0-103.0","5c2ff645644d5300010c25f3","620a66e8940045d98c529de5","","","","","<p style=""color:darkgreen;font-size:24px;"">Correct :)</p>","",""
"2472","key","v","v","16.69680405405391","500","250","psychophysics","104","807487","0.0-104.0","5c2ff645644d5300010c25f3","620a66e8940045d98c529de5","4","","","","","1","3"
"null","","","null","","","","html-keyboard-response","105","807988","0.0-105.0","5c2ff645644d5300010c25f3","620a66e8940045d98c529de5","","","","","<p style=""color:darkgreen;font-size:24px;"">Correct :)</p>","",""
"2504","key","v","v","16.698840000000008","500","250","psychophysics","106","810495","0.0-106.0","5c2ff645644d5300010c25f3","620a66e8940045d98c529de5","4","","","","","1","2"
"null","","","null","","","","html-keyboard-response","107","810996","0.0-107.0","5c2ff645644d5300010c25f3","620a66e8940045d98c529de5","","","","","<p style=""color:darkgreen;font-size:24px;"">Correct :)</p>","",""
"2470","key","v","v","16.703560810810664","500","250","psychophysics","108","813471","0.0-108.0","5c2ff645644d5300010c25f3","620a66e8940045d98c529de5","4","","","","","1","3"
"null","","","null","","","","html-keyboard-response","109","813987","0.0-109.0","5c2ff645644d5300010c25f3","620a66e8940045d98c529de5","","","","","<p style=""color:darkgreen;font-size:24px;"">Correct :)</p>","",""
"2705","key","n","n","16.698314814814683","500","250","psychophysics","110","816696","0.0-110.0","5c2ff645644d5300010c25f3","620a66e8940045d98c529de5","4","","","","","1","7"
"null","","","null","","","","html-keyboard-response","111","817196","0.0-111.0","5c2ff645644d5300010c25f3","620a66e8940045d98c529de5","","","","","<p style=""color:darkgreen;font-size:24px;"">Correct :)</p>","",""
"2488","key","v","v","16.696818791946313","500","250","psychophysics","112","819687","0.0-112.0","5c2ff645644d5300010c25f3","620a66e8940045d98c529de5","4","","","","","1","2"
"null","","","null","","","","html-keyboard-response","113","820188","0.0-113.0","5c2ff645644d5300010c25f3","620a66e8940045d98c529de5","","","","","<p style=""color:darkgreen;font-size:24px;"">Correct :)</p>","",""
"2616","key","n","n","16.699528662420388","500","250","psychophysics","114","822807","0.0-114.0","5c2ff645644d5300010c25f3","620a66e8940045d98c529de5","4","","","","","1","7"
"null","","","null","","","","html-keyboard-response","115","823310","0.0-115.0","5c2ff645644d5300010c25f3","620a66e8940045d98c529de5","","","","","<p style=""color:darkgreen;font-size:24px;"">Correct :)</p>","",""
"2639","key","n","n","16.695101265822792","500","250","psychophysics","116","825952","0.0-116.0","5c2ff645644d5300010c25f3","620a66e8940045d98c529de5","4","","","","","1","7"
"null","","","null","","","","html-keyboard-response","117","826453","0.0-117.0","5c2ff645644d5300010c25f3","620a66e8940045d98c529de5","","","","","<p style=""color:darkgreen;font-size:24px;"">Correct :)</p>","",""
"2503","key","n","n","16.698838926174354","500","250","psychophysics","118","828960","0.0-118.0","5c2ff645644d5300010c25f3","620a66e8940045d98c529de5","4","","","","","1","7"
"null","","","null","","","","html-keyboard-response","119","829460","0.0-119.0","5c2ff645644d5300010c25f3","620a66e8940045d98c529de5","","","","","<p style=""color:darkgreen;font-size:24px;"">Correct :)</p>","",""
"2528","key","v","v","16.70482119205269","500","250","psychophysics","120","831991","0.0-120.0","5c2ff645644d5300010c25f3","620a66e8940045d98c529de5","4","","","","","1","1"
"null","","","null","","","","html-keyboard-response","121","832492","0.0-121.0","5c2ff645644d5300010c25f3","620a66e8940045d98c529de5","","","","","<p style=""color:darkgreen;font-size:24px;"">Correct :)</p>","",""
"2479","key","v","v","16.696818791946313","500","250","psychophysics","122","834975","0.0-122.0","5c2ff645644d5300010c25f3","620a66e8940045d98c529de5","4","","","","","1","1"
"null","","","null","","","","html-keyboard-response","123","835477","0.0-123.0","5c2ff645644d5300010c25f3","620a66e8940045d98c529de5","","","","","<p style=""color:darkgreen;font-size:24px;"">Correct :)</p>","",""
"2807","key","v","v","16.695392857142863","500","250","psychophysics","124","838288","0.0-124.0","5c2ff645644d5300010c25f3","620a66e8940045d98c529de5","4","","","","","1","2"
"null","","","null","","","","html-keyboard-response","125","838790","0.0-125.0","5c2ff645644d5300010c25f3","620a66e8940045d98c529de5","","","","","<p style=""color:darkgreen;font-size:24px;"">Correct :)</p>","",""
"2688","key","n","n","16.70265217391291","500","250","psychophysics","126","841481","0.0-126.0","5c2ff645644d5300010c25f3","620a66e8940045d98c529de5","4","","","","","1","9"
"null","","","null","","","","html-keyboard-response","127","841985","0.0-127.0","5c2ff645644d5300010c25f3","620a66e8940045d98c529de5","","","","","<p style=""color:darkgreen;font-size:24px;"">Correct :)</p>","",""
"3188","key","n","n","16.69699999999989","500","250","psychophysics","128","845176","0.0-128.0","5c2ff645644d5300010c25f3","620a66e8940045d98c529de5","4","","","","","1","8"
"null","","","null","","","","html-keyboard-response","129","845678","0.0-129.0","5c2ff645644d5300010c25f3","620a66e8940045d98c529de5","","","","","<p style=""color:darkgreen;font-size:24px;"">Correct :)</p>","",""
"2518","key","v","v","16.702827814569396","500","250","psychophysics","130","848199","0.0-130.0","5c2ff645644d5300010c25f3","620a66e8940045d98c529de5","4","","","","","1","4"
"null","","","null","","","","html-keyboard-response","131","848703","0.0-131.0","5c2ff645644d5300010c25f3","620a66e8940045d98c529de5","","","","","<p style=""color:darkgreen;font-size:24px;"">Correct :)</p>","",""
"2800","key","v","v","16.703136904761777","500","250","psychophysics","132","851506","0.0-132.0","5c2ff645644d5300010c25f3","620a66e8940045d98c529de5","4","","","","","1","3"
"null","","","null","","","","html-keyboard-response","133","852009","0.0-133.0","5c2ff645644d5300010c25f3","620a66e8940045d98c529de5","","","","","<p style=""color:darkgreen;font-size:24px;"">Correct :)</p>","",""
"2685","key","n","n","16.696440993788688","500","250","psychophysics","134","854697","0.0-134.0","5c2ff645644d5300010c25f3","620a66e8940045d98c529de5","4","","","","","1","6"
"null","","","null","","","","html-keyboard-response","135","855199","0.0-135.0","5c2ff645644d5300010c25f3","620a66e8940045d98c529de5","","","","","<p style=""color:darkgreen;font-size:24px;"">Correct :)</p>","",""
"2715","key","n","n","16.700165644171648","500","250","psychophysics","136","857920","0.0-136.0","5c2ff645644d5300010c25f3","620a66e8940045d98c529de5","4","","","","","1","9"
"null","","","null","","","","html-keyboard-response","137","858443","0.0-137.0","5c2ff645644d5300010c25f3","620a66e8940045d98c529de5","","","","","<p style=""color:darkgreen;font-size:24px;"">Correct :)</p>","",""
"2478","key","v","v","16.700846666666525","500","250","psychophysics","138","860928","0.0-138.0","5c2ff645644d5300010c25f3","620a66e8940045d98c529de5","4","","","","","1","2"
"null","","","null","","","","html-keyboard-response","139","861429","0.0-139.0","5c2ff645644d5300010c25f3","620a66e8940045d98c529de5","","","","","<p style=""color:darkgreen;font-size:24px;"">Correct :)</p>","",""
"2817","key","n","n","16.69541420118357","500","250","psychophysics","140","864249","0.0-140.0","5c2ff645644d5300010c25f3","620a66e8940045d98c529de5","4","","","","","1","6"
"null","","","null","","","","html-keyboard-response","141","864750","0.0-141.0","5c2ff645644d5300010c25f3","620a66e8940045d98c529de5","","","","","<p style=""color:darkgreen;font-size:24px;"">Correct :)</p>","",""
"2567","key","v","v","16.702123376623238","500","250","psychophysics","142","867321","0.0-142.0","5c2ff645644d5300010c25f3","620a66e8940045d98c529de5","4","","","","","1","2"
"null","","","null","","","","html-keyboard-response","143","867823","0.0-143.0","5c2ff645644d5300010c25f3","620a66e8940045d98c529de5","","","","","<p style=""color:darkgreen;font-size:24px;"">Correct :)</p>","",""
"2582","key","v","v","16.702123376623238","500","250","psychophysics","144","870408","0.0-144.0","5c2ff645644d5300010c25f3","620a66e8940045d98c529de5","4","","","","","1","1"
"null","","","null","","","","html-keyboard-response","145","870910","0.0-145.0","5c2ff645644d5300010c25f3","620a66e8940045d98c529de5","","","","","<p style=""color:darkgreen;font-size:24px;"">Correct :)</p>","",""
"2720","key","v","v","16.69587730061323","500","250","psychophysics","146","873633","0.0-146.0","5c2ff645644d5300010c25f3","620a66e8940045d98c529de5","4","","","","","1","2"
"null","","","null","","","","html-keyboard-response","147","874136","0.0-147.0","5c2ff645644d5300010c25f3","620a66e8940045d98c529de5","","","","","<p style=""color:darkgreen;font-size:24px;"">Correct :)</p>","",""
"3017","key","n","n","16.70235911602198","500","250","psychophysics","148","877160","0.0-148.0","5c2ff645644d5300010c25f3","620a66e8940045d98c529de5","4","","","","","1","6"
"null","","","null","","","","html-keyboard-response","149","877661","0.0-149.0","5c2ff645644d5300010c25f3","620a66e8940045d98c529de5","","","","","<p style=""color:darkgreen;font-size:24px;"">Correct :)</p>","",""
"2480","key","n","n","16.698838926174354","500","250","psychophysics","150","880145","0.0-150.0","5c2ff645644d5300010c25f3","620a66e8940045d98c529de5","4","","","","","1","6"
"null","","","null","","","","html-keyboard-response","151","880648","0.0-151.0","5c2ff645644d5300010c25f3","620a66e8940045d98c529de5","","","","","<p style=""color:darkgreen;font-size:24px;"">Correct :)</p>","",""
"2805","key","n","n","16.697184523809398","500","250","psychophysics","152","883456","0.0-152.0","5c2ff645644d5300010c25f3","620a66e8940045d98c529de5","4","","","","","1","8"
"null","","","null","","","","html-keyboard-response","153","883957","0.0-153.0","5c2ff645644d5300010c25f3","620a66e8940045d98c529de5","","","","","<p style=""color:darkgreen;font-size:24px;"">Correct :)</p>","",""
"2816","key","v","v","16.693059171597508","500","250","psychophysics","154","886777","0.0-154.0","5c2ff645644d5300010c25f3","620a66e8940045d98c529de5","4","","","","","1","3"
"null","","","null","","","","html-keyboard-response","155","887278","0.0-155.0","5c2ff645644d5300010c25f3","620a66e8940045d98c529de5","","","","","<p style=""color:darkgreen;font-size:24px;"">Correct :)</p>","",""
"2911","key","n","n","16.705896551724145","500","250","psychophysics","156","890192","0.0-156.0","5c2ff645644d5300010c25f3","620a66e8940045d98c529de5","4","","","","","1","9"
"null","","","null","","","","html-keyboard-response","157","890693","0.0-157.0","5c2ff645644d5300010c25f3","620a66e8940045d98c529de5","","","","","<p style=""color:darkgreen;font-size:24px;"">Correct :)</p>","",""
"2710","key","v","v","16.694030674846495","500","250","psychophysics","158","893408","0.0-158.0","5c2ff645644d5300010c25f3","620a66e8940045d98c529de5","4","","","","","1","1"
"null","","","null","","","","html-keyboard-response","159","893910","0.0-159.0","5c2ff645644d5300010c25f3","620a66e8940045d98c529de5","","","","","<p style=""color:darkgreen;font-size:24px;"">Correct :)</p>","",""
"2605","key","n","n","16.69760256410257","500","250","psychophysics","160","896520","0.0-160.0","5c2ff645644d5300010c25f3","620a66e8940045d98c529de5","4","","","","","1","9"
"null","","","null","","","","html-keyboard-response","161","897021","0.0-161.0","5c2ff645644d5300010c25f3","620a66e8940045d98c529de5","","","","","<p style=""color:darkgreen;font-size:24px;"">Correct :)</p>","",""
"2819","key","v","v","16.69897633136082","500","250","psychophysics","162","899848","0.0-162.0","5c2ff645644d5300010c25f3","620a66e8940045d98c529de5","4","","","","","1","3"
"null","","","null","","","","html-keyboard-response","163","900351","0.0-163.0","5c2ff645644d5300010c25f3","620a66e8940045d98c529de5","","","","","<p style=""color:darkgreen;font-size:24px;"">Correct :)</p>","",""
"3341","key","n","n","16.70063499999989","500","250","psychophysics","164","903696","0.0-164.0","5c2ff645644d5300010c25f3","620a66e8940045d98c529de5","4","","","","","1","7"
"null","","","null","","","","html-keyboard-response","165","904198","0.0-165.0","5c2ff645644d5300010c25f3","620a66e8940045d98c529de5","","","","","<p style=""color:darkgreen;font-size:24px;"">Correct :)</p>","",""
"2767","key","n","n","16.699560240963727","500","250","psychophysics","166","906969","0.0-166.0","5c2ff645644d5300010c25f3","620a66e8940045d98c529de5","4","","","","","1","6"
"null","","","null","","","","html-keyboard-response","167","907469","0.0-167.0","5c2ff645644d5300010c25f3","620a66e8940045d98c529de5","","","","","<p style=""color:darkgreen;font-size:24px;"">Correct :)</p>","",""
"3040","key","v","v","16.702340659340663","500","250","psychophysics","168","910512","0.0-168.0","5c2ff645644d5300010c25f3","620a66e8940045d98c529de5","4","","","","","1","4"
"null","","","null","","","","html-keyboard-response","169","911025","0.0-169.0","5c2ff645644d5300010c25f3","620a66e8940045d98c529de5","","","","","<p style=""color:darkgreen;font-size:24px;"">Correct :)</p>","",""
"2524","key","n","n","16.6981986754964","500","250","psychophysics","170","913552","0.0-170.0","5c2ff645644d5300010c25f3","620a66e8940045d98c529de5","4","","","","","1","8"
"null","","","null","","","","html-keyboard-response","171","914053","0.0-171.0","5c2ff645644d5300010c25f3","620a66e8940045d98c529de5","","","","","<p style=""color:darkgreen;font-size:24px;"">Correct :)</p>","",""
"2601","key","v","v","16.69760256410257","500","250","psychophysics","172","916657","0.0-172.0","5c2ff645644d5300010c25f3","620a66e8940045d98c529de5","4","","","","","1","3"
"null","","","null","","","","html-keyboard-response","173","917159","0.0-173.0","5c2ff645644d5300010c25f3","620a66e8940045d98c529de5","","","","","<p style=""color:darkgreen;font-size:24px;"">Correct :)</p>","",""
"2831","key","v","v","16.704858823529417","500","250","psychophysics","174","919993","0.0-174.0","5c2ff645644d5300010c25f3","620a66e8940045d98c529de5","4","","","","","1","3"
"null","","","null","","","","html-keyboard-response","175","920501","0.0-175.0","5c2ff645644d5300010c25f3","620a66e8940045d98c529de5","","","","","<p style=""color:darkgreen;font-size:24px;"">Correct :)</p>","",""
"2655","key","n","n","16.697018867924534","500","250","psychophysics","176","923160","0.0-176.0","5c2ff645644d5300010c25f3","620a66e8940045d98c529de5","4","","","","","1","9"
"null","","","null","","","","html-keyboard-response","177","923661","0.0-177.0","5c2ff645644d5300010c25f3","620a66e8940045d98c529de5","","","","","<p style=""color:darkgreen;font-size:24px;"">Correct :)</p>","",""
"2562","key","v","v","16.69934640522876","500","250","psychophysics","178","926233","0.0-178.0","5c2ff645644d5300010c25f3","620a66e8940045d98c529de5","4","","","","","1","1"
"null","","","null","","","","html-keyboard-response","179","926733","0.0-179.0","5c2ff645644d5300010c25f3","620a66e8940045d98c529de5","","","","","<p style=""color:darkgreen;font-size:24px;"">Correct :)</p>","",""
"2874","key","n","n","16.69841279069755","500","250","psychophysics","180","929610","0.0-180.0","5c2ff645644d5300010c25f3","620a66e8940045d98c529de5","4","","","","","1","6"
"null","","","null","","","","html-keyboard-response","181","930112","0.0-181.0","5c2ff645644d5300010c25f3","620a66e8940045d98c529de5","","","","","<p style=""color:darkgreen;font-size:24px;"">Correct :)</p>","",""
"3141","key","v","v","16.70280319148925","500","250","psychophysics","182","933256","0.0-182.0","5c2ff645644d5300010c25f3","620a66e8940045d98c529de5","4","","","","","1","2"
"null","","","null","","","","html-keyboard-response","183","933757","0.0-183.0","5c2ff645644d5300010c25f3","620a66e8940045d98c529de5","","","","","<p style=""color:darkgreen;font-size:24px;"">Correct :)</p>","",""
"2544","key","v","v","16.69820394736828","500","250","psychophysics","184","936304","0.0-184.0","5c2ff645644d5300010c25f3","620a66e8940045d98c529de5","4","","","","","1","2"
"null","","","null","","","","html-keyboard-response","185","936805","0.0-185.0","5c2ff645644d5300010c25f3","620a66e8940045d98c529de5","","","","","<p style=""color:darkgreen;font-size:24px;"">Correct :)</p>","",""
"2684","key","n","n","16.70265217391291","500","250","psychophysics","186","939496","0.0-186.0","5c2ff645644d5300010c25f3","620a66e8940045d98c529de5","4","","","","","1","9"
"null","","","null","","","","html-keyboard-response","187","939998","0.0-187.0","5c2ff645644d5300010c25f3","620a66e8940045d98c529de5","","","","","<p style=""color:darkgreen;font-size:24px;"">Correct :)</p>","",""
"2550","key","v","v","16.698209150326804","500","250","psychophysics","188","942553","0.0-188.0","5c2ff645644d5300010c25f3","620a66e8940045d98c529de5","4","","","","","1","2"
"null","","","null","","","","html-keyboard-response","189","943055","0.0-189.0","5c2ff645644d5300010c25f3","620a66e8940045d98c529de5","","","","","<p style=""color:darkgreen;font-size:24px;"">Correct :)</p>","",""
"2646","key","n","n","16.70333544303784","500","250","psychophysics","190","945704","0.0-190.0","5c2ff645644d5300010c25f3","620a66e8940045d98c529de5","4","","","","","1","9"
"null","","","null","","","","html-keyboard-response","191","946206","0.0-191.0","5c2ff645644d5300010c25f3","620a66e8940045d98c529de5","","","","","<p style=""color:darkgreen;font-size:24px;"">Correct :)</p>","",""
"2648","key","v","v","16.643312101910826","500","250","psychophysics","192","948856","0.0-192.0","5c2ff645644d5300010c25f3","620a66e8940045d98c529de5","4","","","","","1","3"
"null","","","null","","","","html-keyboard-response","193","949358","0.0-193.0","5c2ff645644d5300010c25f3","620a66e8940045d98c529de5","","","","","<p style=""color:darkgreen;font-size:24px;"">Correct :)</p>","",""
"17675","","","v","","","","html-keyboard-response","194","967033","0.0-194.0","5c2ff645644d5300010c25f3","620a66e8940045d98c529de5","","","","","<p> Ok, now we are going present the same digits as before.  Your job is to say whether the digit is even or odd  If the digit is odd, press to v key; if it is even, press the n key. We are going to do 50 of these.  </p>  <br><br>  Ready? (press v or n)","",""
"3627","key","n","n","16.70440552995405","500","250","psychophysics","195","970663","0.0-195.0","5c2ff645644d5300010c25f3","620a66e8940045d98c529de5","5","","","","","0","4"
"null","","","null","","","","html-keyboard-response","196","971164","0.0-196.0","5c2ff645644d5300010c25f3","620a66e8940045d98c529de5","","","","","<p style=""color:darkgreen;font-size:24px;"">Correct :)</p>","",""
"2832","key","v","v","16.694864705882228","500","250","psychophysics","197","974000","0.0-197.0","5c2ff645644d5300010c25f3","620a66e8940045d98c529de5","5","","","","","0","1"
"null","","","null","","","","html-keyboard-response","198","974502","0.0-198.0","5c2ff645644d5300010c25f3","620a66e8940045d98c529de5","","","","","<p style=""color:darkgreen;font-size:24px;"">Correct :)</p>","",""
"3006","key","v","v","16.69903333333334","500","250","psychophysics","199","977512","0.0-199.0","5c2ff645644d5300010c25f3","620a66e8940045d98c529de5","5","","","","","0","3"
"null","","","null","","","","html-keyboard-response","200","978013","0.0-200.0","5c2ff645644d5300010c25f3","620a66e8940045d98c529de5","","","","","<p style=""color:darkgreen;font-size:24px;"">Correct :)</p>","",""
"2879","key","v","v","16.70419653179191","500","250","psychophysics","201","980895","0.0-201.0","5c2ff645644d5300010c25f3","620a66e8940045d98c529de5","5","","","","","0","9"
"null","","","null","","","","html-keyboard-response","202","981397","0.0-202.0","5c2ff645644d5300010c25f3","620a66e8940045d98c529de5","","","","","<p style=""color:darkgreen;font-size:24px;"">Correct :)</p>","",""
"2694","key","v","v","16.694571428571436","500","250","psychophysics","203","984095","0.0-203.0","5c2ff645644d5300010c25f3","620a66e8940045d98c529de5","5","","","","","0","9"
"null","","","null","","","","html-keyboard-response","204","984596","0.0-204.0","5c2ff645644d5300010c25f3","620a66e8940045d98c529de5","","","","","<p style=""color:darkgreen;font-size:24px;"">Correct :)</p>","",""
"2800","key","v","v","16.70059880239521","500","250","psychophysics","205","987400","0.0-205.0","5c2ff645644d5300010c25f3","620a66e8940045d98c529de5","5","","","","","0","3"
"null","","","null","","","","html-keyboard-response","206","987902","0.0-206.0","5c2ff645644d5300010c25f3","620a66e8940045d98c529de5","","","","","<p style=""color:darkgreen;font-size:24px;"">Correct :)</p>","",""
"2593","key","v","v","16.703225806451613","500","250","psychophysics","207","990496","0.0-207.0","5c2ff645644d5300010c25f3","620a66e8940045d98c529de5","5","","","","","0","1"
"null","","","null","","","","html-keyboard-response","208","990998","0.0-208.0","5c2ff645644d5300010c25f3","620a66e8940045d98c529de5","","","","","<p style=""color:darkgreen;font-size:24px;"">Correct :)</p>","",""
"2653","key","n","n","16.6989119496854","500","250","psychophysics","209","993655","0.0-209.0","5c2ff645644d5300010c25f3","620a66e8940045d98c529de5","5","","","","","0","6"
"null","","","null","","","","html-keyboard-response","210","994157","0.0-210.0","5c2ff645644d5300010c25f3","620a66e8940045d98c529de5","","","","","<p style=""color:darkgreen;font-size:24px;"">Correct :)</p>","",""
"2534","key","v","v","16.69820394736828","500","250","psychophysics","211","996695","0.0-211.0","5c2ff645644d5300010c25f3","620a66e8940045d98c529de5","5","","","","","0","1"
"null","","","null","","","","html-keyboard-response","212","997196","0.0-212.0","5c2ff645644d5300010c25f3","620a66e8940045d98c529de5","","","","","<p style=""color:darkgreen;font-size:24px;"">Correct :)</p>","",""
"2881","key","n","n","16.698416184971105","500","250","psychophysics","213","1000080","0.0-213.0","5c2ff645644d5300010c25f3","620a66e8940045d98c529de5","5","","","","","0","4"
"null","","","null","","","","html-keyboard-response","214","1000582","0.0-214.0","5c2ff645644d5300010c25f3","620a66e8940045d98c529de5","","","","","<p style=""color:darkgreen;font-size:24px;"">Correct :)</p>","",""
"2662","key","n","n","16.703308176100634","500","250","psychophysics","215","1003247","0.0-215.0","5c2ff645644d5300010c25f3","620a66e8940045d98c529de5","5","","","","","0","6"
"null","","","null","","","","html-keyboard-response","216","1003748","0.0-216.0","5c2ff645644d5300010c25f3","620a66e8940045d98c529de5","","","","","<p style=""color:darkgreen;font-size:24px;"">Correct :)</p>","",""
"2688","key","v","v","16.696440993788688","500","250","psychophysics","217","1006440","0.0-217.0","5c2ff645644d5300010c25f3","620a66e8940045d98c529de5","5","","","","","0","9"
"null","","","null","","","","html-keyboard-response","218","1006941","0.0-218.0","5c2ff645644d5300010c25f3","620a66e8940045d98c529de5","","","","","<p style=""color:darkgreen;font-size:24px;"">Correct :)</p>","",""
"2744","key","v","v","16.63803680981595","500","250","psychophysics","219","1009687","0.0-219.0","5c2ff645644d5300010c25f3","620a66e8940045d98c529de5","5","","","","","0","2"
"null","","","null","","","","html-keyboard-response","220","1010188","0.0-220.0","5c2ff645644d5300010c25f3","620a66e8940045d98c529de5","","","","","<p style=""color:red;font-size:24px;"">Error :(</p>","",""
"3184","key","n","n","16.695424083769637","500","250","psychophysics","221","1013375","0.0-221.0","5c2ff645644d5300010c25f3","620a66e8940045d98c529de5","5","","","","","0","8"
"null","","","null","","","","html-keyboard-response","222","1013877","0.0-222.0","5c2ff645644d5300010c25f3","620a66e8940045d98c529de5","","","","","<p style=""color:darkgreen;font-size:24px;"">Correct :)</p>","",""
"2816","key","n","n","16.697195266272196","500","250","psychophysics","223","1016697","0.0-223.0","5c2ff645644d5300010c25f3","620a66e8940045d98c529de5","5","","","","","0","6"
"null","","","null","","","","html-keyboard-response","224","1017199","0.0-224.0","5c2ff645644d5300010c25f3","620a66e8940045d98c529de5","","","","","<p style=""color:darkgreen;font-size:24px;"">Correct :)</p>","",""
"2609","key","n","n","16.699532051281913","500","250","psychophysics","225","1019816","0.0-225.0","5c2ff645644d5300010c25f3","620a66e8940045d98c529de5","5","","","","","0","8"
"null","","","null","","","","html-keyboard-response","226","1020316","0.0-226.0","5c2ff645644d5300010c25f3","620a66e8940045d98c529de5","","","","","<p style=""color:darkgreen;font-size:24px;"">Correct :)</p>","",""
"2774","key","v","v","16.698795180722893","500","250","psychophysics","227","1023095","0.0-227.0","5c2ff645644d5300010c25f3","620a66e8940045d98c529de5","5","","","","","0","1"
"null","","","null","","","","html-keyboard-response","228","1023597","0.0-228.0","5c2ff645644d5300010c25f3","620a66e8940045d98c529de5","","","","","<p style=""color:darkgreen;font-size:24px;"">Correct :)</p>","",""
"3568","key","v","v","16.701528037383078","500","250","psychophysics","229","1027168","0.0-229.0","5c2ff645644d5300010c25f3","620a66e8940045d98c529de5","5","","","","","0","7"
"null","","","null","","","","html-keyboard-response","230","1027669","0.0-230.0","5c2ff645644d5300010c25f3","620a66e8940045d98c529de5","","","","","<p style=""color:darkgreen;font-size:24px;"">Correct :)</p>","",""
"2984","key","v","v","16.699033519552952","500","250","psychophysics","231","1030657","0.0-231.0","5c2ff645644d5300010c25f3","620a66e8940045d98c529de5","5","","","","","0","9"
"null","","","null","","","","html-keyboard-response","232","1031159","0.0-232.0","5c2ff645644d5300010c25f3","620a66e8940045d98c529de5","","","","","<p style=""color:darkgreen;font-size:24px;"">Correct :)</p>","",""
"2702","key","n","n","16.704487654320854","500","250","psychophysics","233","1033864","0.0-233.0","5c2ff645644d5300010c25f3","620a66e8940045d98c529de5","5","","","","","0","4"
"null","","","null","","","","html-keyboard-response","234","1034365","0.0-234.0","5c2ff645644d5300010c25f3","620a66e8940045d98c529de5","","","","","<p style=""color:darkgreen;font-size:24px;"">Correct :)</p>","",""
"2774","key","n","n","16.699560240963727","500","250","psychophysics","235","1037143","0.0-235.0","5c2ff645644d5300010c25f3","620a66e8940045d98c529de5","5","","","","","0","4"
"null","","","null","","","","html-keyboard-response","236","1037645","0.0-236.0","5c2ff645644d5300010c25f3","620a66e8940045d98c529de5","","","","","<p style=""color:darkgreen;font-size:24px;"">Correct :)</p>","",""
"2762","key","v","v","16.697746987951813","500","250","psychophysics","237","1040415","0.0-237.0","5c2ff645644d5300010c25f3","620a66e8940045d98c529de5","5","","","","","0","1"
"null","","","null","","","","html-keyboard-response","238","1040916","0.0-238.0","5c2ff645644d5300010c25f3","620a66e8940045d98c529de5","","","","","<p style=""color:darkgreen;font-size:24px;"">Correct :)</p>","",""
"2944","key","n","n","16.697875000000007","500","250","psychophysics","239","1043864","0.0-239.0","5c2ff645644d5300010c25f3","620a66e8940045d98c529de5","5","","","","","0","6"
"null","","","null","","","","html-keyboard-response","240","1044366","0.0-240.0","5c2ff645644d5300010c25f3","620a66e8940045d98c529de5","","","","","<p style=""color:darkgreen;font-size:24px;"">Correct :)</p>","",""
"2778","key","n","n","16.70558433734997","500","250","psychophysics","241","1047151","0.0-241.0","5c2ff645644d5300010c25f3","620a66e8940045d98c529de5","5","","","","","0","2"
"null","","","null","","","","html-keyboard-response","242","1047660","0.0-242.0","5c2ff645644d5300010c25f3","620a66e8940045d98c529de5","","","","","<p style=""color:darkgreen;font-size:24px;"">Correct :)</p>","",""
"2688","key","n","n","16.69831055900666","500","250","psychophysics","243","1050351","0.0-243.0","5c2ff645644d5300010c25f3","620a66e8940045d98c529de5","5","","","","","0","6"
"null","","","null","","","","html-keyboard-response","244","1050852","0.0-244.0","5c2ff645644d5300010c25f3","620a66e8940045d98c529de5","","","","","<p style=""color:darkgreen;font-size:24px;"">Correct :)</p>","",""
"2600","key","n","n","16.69953205128266","500","250","psychophysics","245","1053455","0.0-245.0","5c2ff645644d5300010c25f3","620a66e8940045d98c529de5","5","","","","","0","8"
"null","","","null","","","","html-keyboard-response","246","1053956","0.0-246.0","5c2ff645644d5300010c25f3","620a66e8940045d98c529de5","","","","","<p style=""color:darkgreen;font-size:24px;"">Correct :)</p>","",""
"2681","key","n","n","16.698912499999278","500","250","psychophysics","247","1056640","0.0-247.0","5c2ff645644d5300010c25f3","620a66e8940045d98c529de5","5","","","","","0","6"
"null","","","null","","","","html-keyboard-response","248","1057141","0.0-248.0","5c2ff645644d5300010c25f3","620a66e8940045d98c529de5","","","","","<p style=""color:darkgreen;font-size:24px;"">Correct :)</p>","",""
"2720","key","n","n","16.699447852760795","500","250","psychophysics","249","1059864","0.0-249.0","5c2ff645644d5300010c25f3","620a66e8940045d98c529de5","5","","","","","0","2"
"null","","","null","","","","html-keyboard-response","250","1060366","0.0-250.0","5c2ff645644d5300010c25f3","620a66e8940045d98c529de5","","","","","<p style=""color:darkgreen;font-size:24px;"">Correct :)</p>","",""
"2846","key","v","v","16.70074705882409","500","250","psychophysics","251","1063215","0.0-251.0","5c2ff645644d5300010c25f3","620a66e8940045d98c529de5","5","","","","","0","1"
"null","","","null","","","","html-keyboard-response","252","1063717","0.0-252.0","5c2ff645644d5300010c25f3","620a66e8940045d98c529de5","","","","","<p style=""color:darkgreen;font-size:24px;"">Correct :)</p>","",""
"2727","key","n","n","16.700158536584663","500","250","psychophysics","253","1066447","0.0-253.0","5c2ff645644d5300010c25f3","620a66e8940045d98c529de5","5","","","","","0","6"
"null","","","null","","","","html-keyboard-response","254","1066949","0.0-254.0","5c2ff645644d5300010c25f3","620a66e8940045d98c529de5","","","","","<p style=""color:darkgreen;font-size:24px;"">Correct :)</p>","",""
"2655","key","n","n","16.697018867923802","500","250","psychophysics","255","1069607","0.0-255.0","5c2ff645644d5300010c25f3","620a66e8940045d98c529de5","5","","","","","0","6"
"null","","","null","","","","html-keyboard-response","256","1070109","0.0-256.0","5c2ff645644d5300010c25f3","620a66e8940045d98c529de5","","","","","<p style=""color:darkgreen;font-size:24px;"">Correct :)</p>","",""
"3227","key","v","v","16.700134020617963","500","250","psychophysics","257","1073343","0.0-257.0","5c2ff645644d5300010c25f3","620a66e8940045d98c529de5","5","","","","","0","9"
"null","","","null","","","","html-keyboard-response","258","1073844","0.0-258.0","5c2ff645644d5300010c25f3","620a66e8940045d98c529de5","","","","","<p style=""color:darkgreen;font-size:24px;"">Correct :)</p>","",""
"3048","key","v","v","16.69684615384552","500","250","psychophysics","259","1076896","0.0-259.0","5c2ff645644d5300010c25f3","620a66e8940045d98c529de5","5","","","","","0","7"
"null","","","null","","","","html-keyboard-response","260","1077397","0.0-260.0","5c2ff645644d5300010c25f3","620a66e8940045d98c529de5","","","","","<p style=""color:darkgreen;font-size:24px;"">Correct :)</p>","",""
"2655","key","v","v","16.700805031446997","500","250","psychophysics","261","1080055","0.0-261.0","5c2ff645644d5300010c25f3","620a66e8940045d98c529de5","5","","","","","0","3"
"null","","","null","","","","html-keyboard-response","262","1080556","0.0-262.0","5c2ff645644d5300010c25f3","620a66e8940045d98c529de5","","","","","<p style=""color:darkgreen;font-size:24px;"">Correct :)</p>","",""
"2985","key","v","v","16.699033519553602","500","250","psychophysics","263","1083545","0.0-263.0","5c2ff645644d5300010c25f3","620a66e8940045d98c529de5","5","","","","","0","7"
"null","","","null","","","","html-keyboard-response","264","1084047","0.0-264.0","5c2ff645644d5300010c25f3","620a66e8940045d98c529de5","","","","","<p style=""color:darkgreen;font-size:24px;"">Correct :)</p>","",""
"3045","key","n","n","16.69850000000052","500","250","psychophysics","265","1087096","0.0-265.0","5c2ff645644d5300010c25f3","620a66e8940045d98c529de5","5","","","","","0","2"
"null","","","null","","","","html-keyboard-response","266","1087597","0.0-266.0","5c2ff645644d5300010c25f3","620a66e8940045d98c529de5","","","","","<p style=""color:darkgreen;font-size:24px;"">Correct :)</p>","",""
"4623","key","n","n","16.70081949458518","500","250","psychophysics","267","1092224","0.0-267.0","5c2ff645644d5300010c25f3","620a66e8940045d98c529de5","5","","","","","0","8"
"null","","","null","","","","html-keyboard-response","268","1092725","0.0-268.0","5c2ff645644d5300010c25f3","620a66e8940045d98c529de5","","","","","<p style=""color:darkgreen;font-size:24px;"">Correct :)</p>","",""
"4119","key","n","n","16.69918699186992","500","250","psychophysics","269","1096847","0.0-269.0","5c2ff645644d5300010c25f3","620a66e8940045d98c529de5","5","","","","","0","2"
"null","","","null","","","","html-keyboard-response","270","1097348","0.0-270.0","5c2ff645644d5300010c25f3","620a66e8940045d98c529de5","","","","","<p style=""color:darkgreen;font-size:24px;"">Correct :)</p>","",""
"2760","key","n","n","16.699560240964427","500","250","psychophysics","271","1100111","0.0-271.0","5c2ff645644d5300010c25f3","620a66e8940045d98c529de5","5","","","","","0","6"
"null","","","null","","","","html-keyboard-response","272","1100613","0.0-272.0","5c2ff645644d5300010c25f3","620a66e8940045d98c529de5","","","","","<p style=""color:darkgreen;font-size:24px;"">Correct :)</p>","",""
"2999","key","n","n","16.69735195530662","500","250","psychophysics","273","1103615","0.0-273.0","5c2ff645644d5300010c25f3","620a66e8940045d98c529de5","5","","","","","0","2"
"null","","","null","","","","html-keyboard-response","274","1104117","0.0-274.0","5c2ff645644d5300010c25f3","620a66e8940045d98c529de5","","","","","<p style=""color:darkgreen;font-size:24px;"">Correct :)</p>","",""
"2791","key","n","n","16.697173652695046","500","250","psychophysics","275","1106912","0.0-275.0","5c2ff645644d5300010c25f3","620a66e8940045d98c529de5","5","","","","","0","2"
"null","","","null","","","","html-keyboard-response","276","1107412","0.0-276.0","5c2ff645644d5300010c25f3","620a66e8940045d98c529de5","","","","","<p style=""color:darkgreen;font-size:24px;"">Correct :)</p>","",""
"2736","key","n","n","16.701993902439604","500","250","psychophysics","277","1110152","0.0-277.0","5c2ff645644d5300010c25f3","620a66e8940045d98c529de5","5","","","","","0","6"
"null","","","null","","","","html-keyboard-response","278","1110652","0.0-278.0","5c2ff645644d5300010c25f3","620a66e8940045d98c529de5","","","","","<p style=""color:darkgreen;font-size:24px;"">Correct :)</p>","",""
"2849","key","v","v","16.70658479532096","500","250","psychophysics","279","1113504","0.0-279.0","5c2ff645644d5300010c25f3","620a66e8940045d98c529de5","5","","","","","0","3"
"null","","","null","","","","html-keyboard-response","280","1114005","0.0-280.0","5c2ff645644d5300010c25f3","620a66e8940045d98c529de5","","","","","<p style=""color:darkgreen;font-size:24px;"">Correct :)</p>","",""
"3224","key","v","v","16.69858031088023","500","250","psychophysics","281","1117232","0.0-281.0","5c2ff645644d5300010c25f3","620a66e8940045d98c529de5","5","","","","","0","9"
"null","","","null","","","","html-keyboard-response","282","1117743","0.0-282.0","5c2ff645644d5300010c25f3","620a66e8940045d98c529de5","","","","","<p style=""color:darkgreen;font-size:24px;"">Correct :)</p>","",""
"2987","key","n","n","16.700715083799288","500","250","psychophysics","283","1120736","0.0-283.0","5c2ff645644d5300010c25f3","620a66e8940045d98c529de5","5","","","","","0","4"
"null","","","null","","","","html-keyboard-response","284","1121238","0.0-284.0","5c2ff645644d5300010c25f3","620a66e8940045d98c529de5","","","","","<p style=""color:darkgreen;font-size:24px;"">Correct :)</p>","",""
"2678","key","v","v","16.698912499999278","500","250","psychophysics","285","1123919","0.0-285.0","5c2ff645644d5300010c25f3","620a66e8940045d98c529de5","5","","","","","0","9"
"null","","","null","","","","html-keyboard-response","286","1124421","0.0-286.0","5c2ff645644d5300010c25f3","620a66e8940045d98c529de5","","","","","<p style=""color:darkgreen;font-size:24px;"">Correct :)</p>","",""
"2895","key","n","n","16.69942196531792","500","250","psychophysics","287","1127319","0.0-287.0","5c2ff645644d5300010c25f3","620a66e8940045d98c529de5","5","","","","","0","8"
"null","","","null","","","","html-keyboard-response","288","1127821","0.0-288.0","5c2ff645644d5300010c25f3","620a66e8940045d98c529de5","","","","","<p style=""color:darkgreen;font-size:24px;"">Correct :)</p>","",""
"2691","key","v","v","16.692141975309227","500","250","psychophysics","289","1130521","0.0-289.0","5c2ff645644d5300010c25f3","620a66e8940045d98c529de5","5","","","","","0","1"
"null","","","null","","","","html-keyboard-response","290","1131022","0.0-290.0","5c2ff645644d5300010c25f3","620a66e8940045d98c529de5","","","","","<p style=""color:darkgreen;font-size:24px;"">Correct :)</p>","",""
"2959","key","n","n","16.699581920903302","500","250","psychophysics","291","1133984","0.0-291.0","5c2ff645644d5300010c25f3","620a66e8940045d98c529de5","5","","","","","0","2"
"null","","","null","","","","html-keyboard-response","292","1134485","0.0-292.0","5c2ff645644d5300010c25f3","620a66e8940045d98c529de5","","","","","<p style=""color:darkgreen;font-size:24px;"">Correct :)</p>","",""
"2561","key","n","n","16.702123376623994","500","250","psychophysics","293","1137049","0.0-293.0","5c2ff645644d5300010c25f3","620a66e8940045d98c529de5","5","","","","","0","2"
"null","","","null","","","","html-keyboard-response","294","1137552","0.0-294.0","5c2ff645644d5300010c25f3","620a66e8940045d98c529de5","","","","","<p style=""color:darkgreen;font-size:24px;"">Correct :)</p>","",""
"20247","","","v","","","","html-keyboard-response","295","1157800","0.0-295.0","5c2ff645644d5300010c25f3","620a66e8940045d98c529de5","","","","","<p> Here, the tasks are going to switch.  For some trials, your job is to decide if the digit is less than or greater than 5.  For others, it is to decide if the digit is even or odd.  You will be told which type of trial the current one is.  But, pay attention, the type of trial changes too.  We are going to do 50 of these.  </p>  <br><br>  Ready? (press v or n)","",""
"3244","key","v","v","16.705184615384308","500","250","psychophysics","296","1161047","0.0-296.0","5c2ff645644d5300010c25f3","620a66e8940045d98c529de5","6","","","","","1","1"
"null","","","null","","","","html-keyboard-response","297","1161549","0.0-297.0","5c2ff645644d5300010c25f3","620a66e8940045d98c529de5","","","","","<p style=""color:darkgreen;font-size:24px;"">Correct :)</p>","",""
"3415","key","n","n","16.700127450979824","500","250","psychophysics","298","1164967","0.0-298.0","5c2ff645644d5300010c25f3","620a66e8940045d98c529de5","6","","","","","0","2"
"null","","","null","","","","html-keyboard-response","299","1165468","0.0-299.0","5c2ff645644d5300010c25f3","620a66e8940045d98c529de5","","","","","<p style=""color:darkgreen;font-size:24px;"">Correct :)</p>","",""
"2552","key","v","v","16.69736842105263","500","250","psychophysics","300","1168024","0.0-300.0","5c2ff645644d5300010c25f3","620a66e8940045d98c529de5","6","","","","","0","9"
"null","","","null","","","","html-keyboard-response","301","1168525","0.0-301.0","5c2ff645644d5300010c25f3","620a66e8940045d98c529de5","","","","","<p style=""color:darkgreen;font-size:24px;"">Correct :)</p>","",""
"2847","key","v","v","16.70251764705925","500","250","psychophysics","302","1171375","0.0-302.0","5c2ff645644d5300010c25f3","620a66e8940045d98c529de5","6","","","","","1","1"
"null","","","null","","","","html-keyboard-response","303","1171876","0.0-303.0","5c2ff645644d5300010c25f3","620a66e8940045d98c529de5","","","","","<p style=""color:darkgreen;font-size:24px;"">Correct :)</p>","",""
"2761","key","n","n","16.703771084336655","500","250","psychophysics","304","1174640","0.0-304.0","5c2ff645644d5300010c25f3","620a66e8940045d98c529de5","6","","","","","0","6"
"null","","","null","","","","html-keyboard-response","305","1175141","0.0-305.0","5c2ff645644d5300010c25f3","620a66e8940045d98c529de5","","","","","<p style=""color:darkgreen;font-size:24px;"">Correct :)</p>","",""
"2711","key","v","v","16.702629629628916","500","250","psychophysics","306","1177856","0.0-306.0","5c2ff645644d5300010c25f3","620a66e8940045d98c529de5","6","","","","","0","1"
"null","","","null","","","","html-keyboard-response","307","1178357","0.0-307.0","5c2ff645644d5300010c25f3","620a66e8940045d98c529de5","","","","","<p style=""color:darkgreen;font-size:24px;"">Correct :)</p>","",""
"2955","key","v","v","16.697342696629747","500","250","psychophysics","308","1181321","0.0-308.0","5c2ff645644d5300010c25f3","620a66e8940045d98c529de5","6","","","","","1","4"
"null","","","null","","","","html-keyboard-response","309","1181821","0.0-309.0","5c2ff645644d5300010c25f3","620a66e8940045d98c529de5","","","","","<p style=""color:darkgreen;font-size:24px;"">Correct :)</p>","",""
"3014","key","v","v","16.699033333332693","500","250","psychophysics","310","1184839","0.0-310.0","5c2ff645644d5300010c25f3","620a66e8940045d98c529de5","6","","","","","1","3"
"null","","","null","","","","html-keyboard-response","311","1185342","0.0-311.0","5c2ff645644d5300010c25f3","620a66e8940045d98c529de5","","","","","<p style=""color:darkgreen;font-size:24px;"">Correct :)</p>","",""
"2566","key","v","v","16.702143790850148","500","250","psychophysics","312","1187911","0.0-312.0","5c2ff645644d5300010c25f3","620a66e8940045d98c529de5","6","","","","","1","3"
"null","","","null","","","","html-keyboard-response","313","1188412","0.0-313.0","5c2ff645644d5300010c25f3","620a66e8940045d98c529de5","","","","","<p style=""color:darkgreen;font-size:24px;"">Correct :)</p>","",""
"2752","key","v","v","16.703800000000577","500","250","psychophysics","314","1191167","0.0-314.0","5c2ff645644d5300010c25f3","620a66e8940045d98c529de5","6","","","","","0","3"
"null","","","null","","","","html-keyboard-response","315","1191668","0.0-315.0","5c2ff645644d5300010c25f3","620a66e8940045d98c529de5","","","","","<p style=""color:darkgreen;font-size:24px;"">Correct :)</p>","",""
"3697","key","n","n","16.697414414413895","500","250","psychophysics","316","1195368","0.0-316.0","5c2ff645644d5300010c25f3","620a66e8940045d98c529de5","6","","","","","1","6"
"null","","","null","","","","html-keyboard-response","317","1195870","0.0-317.0","5c2ff645644d5300010c25f3","620a66e8940045d98c529de5","","","","","<p style=""color:darkgreen;font-size:24px;"">Correct :)</p>","",""
"3070","key","v","v","16.7001413043472","500","250","psychophysics","318","1198943","0.0-318.0","5c2ff645644d5300010c25f3","620a66e8940045d98c529de5","6","","","","","0","9"
"null","","","null","","","","html-keyboard-response","319","1199445","0.0-319.0","5c2ff645644d5300010c25f3","620a66e8940045d98c529de5","","","","","<p style=""color:darkgreen;font-size:24px;"">Correct :)</p>","",""
"3391","key","v","v","16.69865024630485","500","250","psychophysics","320","1202839","0.0-320.0","5c2ff645644d5300010c25f3","620a66e8940045d98c529de5","6","","","","","0","7"
"null","","","null","","","","html-keyboard-response","321","1203341","0.0-321.0","5c2ff645644d5300010c25f3","620a66e8940045d98c529de5","","","","","<p style=""color:darkgreen;font-size:24px;"">Correct :)</p>","",""
"3127","key","n","n","16.70120212765896","500","250","psychophysics","322","1206471","0.0-322.0","5c2ff645644d5300010c25f3","620a66e8940045d98c529de5","6","","","","","0","8"
"null","","","null","","","","html-keyboard-response","323","1206973","0.0-323.0","5c2ff645644d5300010c25f3","620a66e8940045d98c529de5","","","","","<p style=""color:darkgreen;font-size:24px;"">Correct :)</p>","",""
"3048","key","n","n","16.69684615384552","500","250","psychophysics","324","1210024","0.0-324.0","5c2ff645644d5300010c25f3","620a66e8940045d98c529de5","6","","","","","0","8"
"null","","","null","","","","html-keyboard-response","325","1210525","0.0-325.0","5c2ff645644d5300010c25f3","620a66e8940045d98c529de5","","","","","<p style=""color:darkgreen;font-size:24px;"">Correct :)</p>","",""
"3807","key","n","n","16.703631578947686","500","250","psychophysics","326","1214336","0.0-326.0","5c2ff645644d5300010c25f3","620a66e8940045d98c529de5","6","","","","","1","6"
"null","","","null","","","","html-keyboard-response","327","1214836","0.0-327.0","5c2ff645644d5300010c25f3","620a66e8940045d98c529de5","","","","","<p style=""color:darkgreen;font-size:24px;"">Correct :)</p>","",""
"2737","key","n","n","16.695896341463992","500","250","psychophysics","328","1217576","0.0-328.0","5c2ff645644d5300010c25f3","620a66e8940045d98c529de5","6","","","","","1","7"
"null","","","null","","","","html-keyboard-response","329","1218078","0.0-329.0","5c2ff645644d5300010c25f3","620a66e8940045d98c529de5","","","","","<p style=""color:darkgreen;font-size:24px;"">Correct :)</p>","",""
"2775","key","n","n","16.70558433734997","500","250","psychophysics","330","1220856","0.0-330.0","5c2ff645644d5300010c25f3","620a66e8940045d98c529de5","6","","","","","0","4"
"null","","","null","","","","html-keyboard-response","331","1221358","0.0-331.0","5c2ff645644d5300010c25f3","620a66e8940045d98c529de5","","","","","<p style=""color:darkgreen;font-size:24px;"">Correct :)</p>","",""
"2664","key","n","n","16.698912499999278","500","250","psychophysics","332","1224025","0.0-332.0","5c2ff645644d5300010c25f3","620a66e8940045d98c529de5","6","","","","","1","7"
"null","","","null","","","","html-keyboard-response","333","1224526","0.0-333.0","5c2ff645644d5300010c25f3","620a66e8940045d98c529de5","","","","","<p style=""color:darkgreen;font-size:24px;"">Correct :)</p>","",""
"3433","key","n","n","16.703038834950895","500","250","psychophysics","334","1227962","0.0-334.0","5c2ff645644d5300010c25f3","620a66e8940045d98c529de5","6","","","","","1","6"
"null","","","null","","","","html-keyboard-response","335","1228464","0.0-335.0","5c2ff645644d5300010c25f3","620a66e8940045d98c529de5","","","","","<p style=""color:darkgreen;font-size:24px;"">Correct :)</p>","",""
"2857","key","n","n","16.797250000000552","500","250","psychophysics","336","1231353","0.0-336.0","5c2ff645644d5300010c25f3","620a66e8940045d98c529de5","6","","","","","1","8"
"null","","","null","","","","html-keyboard-response","337","1231854","0.0-337.0","5c2ff645644d5300010c25f3","620a66e8940045d98c529de5","","","","","<p style=""color:darkgreen;font-size:24px;"">Correct :)</p>","",""
"2752","key","n","n","16.701975757575056","500","250","psychophysics","338","1234609","0.0-338.0","5c2ff645644d5300010c25f3","620a66e8940045d98c529de5","6","","","","","1","6"
"null","","","null","","","","html-keyboard-response","339","1235110","0.0-339.0","5c2ff645644d5300010c25f3","620a66e8940045d98c529de5","","","","","<p style=""color:darkgreen;font-size:24px;"">Correct :)</p>","",""
"2919","key","n","n","16.7035828571434","500","250","psychophysics","340","1238033","0.0-340.0","5c2ff645644d5300010c25f3","620a66e8940045d98c529de5","6","","","","","1","6"
"null","","","null","","","","html-keyboard-response","341","1238534","0.0-341.0","5c2ff645644d5300010c25f3","620a66e8940045d98c529de5","","","","","<p style=""color:darkgreen;font-size:24px;"">Correct :)</p>","",""
"2695","key","n","n","16.69644099378941","500","250","psychophysics","342","1241232","0.0-342.0","5c2ff645644d5300010c25f3","620a66e8940045d98c529de5","6","","","","","1","6"
"null","","","null","","","","html-keyboard-response","343","1241733","0.0-343.0","5c2ff645644d5300010c25f3","620a66e8940045d98c529de5","","","","","<p style=""color:darkgreen;font-size:24px;"">Correct :)</p>","",""
"3144","key","n","n","16.69908465608516","500","250","psychophysics","344","1244880","0.0-344.0","5c2ff645644d5300010c25f3","620a66e8940045d98c529de5","6","","","","","0","2"
"null","","","null","","","","html-keyboard-response","345","1245381","0.0-345.0","5c2ff645644d5300010c25f3","620a66e8940045d98c529de5","","","","","<p style=""color:darkgreen;font-size:24px;"">Correct :)</p>","",""
"3200","key","v","v","16.697010416666064","500","250","psychophysics","346","1248586","0.0-346.0","5c2ff645644d5300010c25f3","620a66e8940045d98c529de5","6","","","","","1","1"
"null","","","null","","","","html-keyboard-response","347","1249088","0.0-347.0","5c2ff645644d5300010c25f3","620a66e8940045d98c529de5","","","","","<p style=""color:darkgreen;font-size:24px;"">Correct :)</p>","",""
"3118","key","n","n","16.701213903743824","500","250","psychophysics","348","1252210","0.0-348.0","5c2ff645644d5300010c25f3","620a66e8940045d98c529de5","6","","","","","0","4"
"null","","","null","","","","html-keyboard-response","349","1252712","0.0-349.0","5c2ff645644d5300010c25f3","620a66e8940045d98c529de5","","","","","<p style=""color:darkgreen;font-size:24px;"">Correct :)</p>","",""
"3037","key","v","v","16.70399450549503","500","250","psychophysics","350","1255753","0.0-350.0","5c2ff645644d5300010c25f3","620a66e8940045d98c529de5","6","","","","","0","3"
"null","","","null","","","","html-keyboard-response","351","1256267","0.0-351.0","5c2ff645644d5300010c25f3","620a66e8940045d98c529de5","","","","","<p style=""color:darkgreen;font-size:24px;"">Correct :)</p>","",""
"2826","key","n","n","16.698976331361507","500","250","psychophysics","352","1259096","0.0-352.0","5c2ff645644d5300010c25f3","620a66e8940045d98c529de5","6","","","","","0","6"
"null","","","null","","","","html-keyboard-response","353","1259598","0.0-353.0","5c2ff645644d5300010c25f3","620a66e8940045d98c529de5","","","","","<p style=""color:darkgreen;font-size:24px;"">Correct :)</p>","",""
"2727","key","n","n","16.695896341463992","500","250","psychophysics","354","1262329","0.0-354.0","5c2ff645644d5300010c25f3","620a66e8940045d98c529de5","6","","","","","1","7"
"null","","","null","","","","html-keyboard-response","355","1262831","0.0-355.0","5c2ff645644d5300010c25f3","620a66e8940045d98c529de5","","","","","<p style=""color:darkgreen;font-size:24px;"">Correct :)</p>","",""
"2661","key","n","n","16.697018867923802","500","250","psychophysics","356","1265496","0.0-356.0","5c2ff645644d5300010c25f3","620a66e8940045d98c529de5","6","","","","","1","8"
"null","","","null","","","","html-keyboard-response","357","1265997","0.0-357.0","5c2ff645644d5300010c25f3","620a66e8940045d98c529de5","","","","","<p style=""color:darkgreen;font-size:24px;"">Correct :)</p>","",""
"2760","key","v","v","16.70558433734997","500","250","psychophysics","358","1268760","0.0-358.0","5c2ff645644d5300010c25f3","620a66e8940045d98c529de5","6","","","","","1","3"
"null","","","null","","","","html-keyboard-response","359","1269261","0.0-359.0","5c2ff645644d5300010c25f3","620a66e8940045d98c529de5","","","","","<p style=""color:darkgreen;font-size:24px;"">Correct :)</p>","",""
"2688","key","v","v","16.69457142857071","500","250","psychophysics","360","1271953","0.0-360.0","5c2ff645644d5300010c25f3","620a66e8940045d98c529de5","6","","","","","0","3"
"null","","","null","","","","html-keyboard-response","361","1272462","0.0-361.0","5c2ff645644d5300010c25f3","620a66e8940045d98c529de5","","","","","<p style=""color:darkgreen;font-size:24px;"">Correct :)</p>","",""
"3207","key","v","v","16.697916666666668","500","250","psychophysics","362","1275673","0.0-362.0","5c2ff645644d5300010c25f3","620a66e8940045d98c529de5","6","","","","","0","9"
"null","","","null","","","","html-keyboard-response","363","1276175","0.0-363.0","5c2ff645644d5300010c25f3","620a66e8940045d98c529de5","","","","","<p style=""color:darkgreen;font-size:24px;"">Correct :)</p>","",""
"3270","key","n","n","16.699627551020892","500","250","psychophysics","364","1279447","0.0-364.0","5c2ff645644d5300010c25f3","620a66e8940045d98c529de5","6","","","","","1","6"
"null","","","null","","","","html-keyboard-response","365","1279948","0.0-365.0","5c2ff645644d5300010c25f3","620a66e8940045d98c529de5","","","","","<p style=""color:darkgreen;font-size:24px;"">Correct :)</p>","",""
"2998","key","n","n","16.700705555556084","500","250","psychophysics","366","1282953","0.0-366.0","5c2ff645644d5300010c25f3","620a66e8940045d98c529de5","6","","","","","0","4"
"null","","","null","","","","html-keyboard-response","367","1283454","0.0-367.0","5c2ff645644d5300010c25f3","620a66e8940045d98c529de5","","","","","<p style=""color:darkgreen;font-size:24px;"">Correct :)</p>","",""
"4414","key","n","n","16.703886363635927","500","250","psychophysics","368","1287871","0.0-368.0","5c2ff645644d5300010c25f3","620a66e8940045d98c529de5","6","","","","","1","9"
"null","","","null","","","","html-keyboard-response","369","1288377","0.0-369.0","5c2ff645644d5300010c25f3","620a66e8940045d98c529de5","","","","","<p style=""color:darkgreen;font-size:24px;"">Correct :)</p>","",""
"4412","key","v","v","16.6425855513308","500","250","psychophysics","370","1292791","0.0-370.0","5c2ff645644d5300010c25f3","620a66e8940045d98c529de5","6","","","","","1","1"
"null","","","null","","","","html-keyboard-response","371","1293293","0.0-371.0","5c2ff645644d5300010c25f3","620a66e8940045d98c529de5","","","","","<p style=""color:darkgreen;font-size:24px;"">Correct :)</p>","",""
"2888","key","n","n","16.69841618497043","500","250","psychophysics","372","1296184","0.0-372.0","5c2ff645644d5300010c25f3","620a66e8940045d98c529de5","6","","","","","1","8"
"null","","","null","","","","html-keyboard-response","373","1296685","0.0-373.0","5c2ff645644d5300010c25f3","620a66e8940045d98c529de5","","","","","<p style=""color:darkgreen;font-size:24px;"">Correct :)</p>","",""
"3103","key","n","n","16.699607526882232","500","250","psychophysics","374","1299792","0.0-374.0","5c2ff645644d5300010c25f3","620a66e8940045d98c529de5","6","","","","","1","7"
"null","","","null","","","","html-keyboard-response","375","1300294","0.0-375.0","5c2ff645644d5300010c25f3","620a66e8940045d98c529de5","","","","","<p style=""color:darkgreen;font-size:24px;"">Correct :)</p>","",""
"2743","key","n","n","16.700158536584663","500","250","psychophysics","376","1303040","0.0-376.0","5c2ff645644d5300010c25f3","620a66e8940045d98c529de5","6","","","","","0","4"
"null","","","null","","","","html-keyboard-response","377","1303541","0.0-377.0","5c2ff645644d5300010c25f3","620a66e8940045d98c529de5","","","","","<p style=""color:darkgreen;font-size:24px;"">Correct :)</p>","",""
"2623","key","v","v","16.701445859873218","500","250","psychophysics","378","1306168","0.0-378.0","5c2ff645644d5300010c25f3","620a66e8940045d98c529de5","6","","","","","0","9"
"null","","","null","","","","html-keyboard-response","379","1306670","0.0-379.0","5c2ff645644d5300010c25f3","620a66e8940045d98c529de5","","","","","<p style=""color:darkgreen;font-size:24px;"">Correct :)</p>","",""
"2742","key","n","n","16.701993902439604","500","250","psychophysics","380","1309415","0.0-380.0","5c2ff645644d5300010c25f3","620a66e8940045d98c529de5","6","","","","","0","4"
"null","","","null","","","","html-keyboard-response","381","1309917","0.0-381.0","5c2ff645644d5300010c25f3","620a66e8940045d98c529de5","","","","","<p style=""color:darkgreen;font-size:24px;"">Correct :)</p>","",""
"2799","key","v","v","16.69539285714217","500","250","psychophysics","382","1312719","0.0-382.0","5c2ff645644d5300010c25f3","620a66e8940045d98c529de5","6","","","","","0","9"
"null","","","null","","","","html-keyboard-response","383","1313220","0.0-383.0","5c2ff645644d5300010c25f3","620a66e8940045d98c529de5","","","","","<p style=""color:darkgreen;font-size:24px;"">Correct :)</p>","",""
"2601","key","v","v","16.697602564101825","500","250","psychophysics","384","1315824","0.0-384.0","5c2ff645644d5300010c25f3","620a66e8940045d98c529de5","6","","","","","1","1"
"null","","","null","","","","html-keyboard-response","385","1316325","0.0-385.0","5c2ff645644d5300010c25f3","620a66e8940045d98c529de5","","","","","<p style=""color:darkgreen;font-size:24px;"">Correct :)</p>","",""
"2775","key","v","v","16.69774698795111","500","250","psychophysics","386","1319104","0.0-386.0","5c2ff645644d5300010c25f3","620a66e8940045d98c529de5","6","","","","","0","3"
"null","","","null","","","","html-keyboard-response","387","1319605","0.0-387.0","5c2ff645644d5300010c25f3","620a66e8940045d98c529de5","","","","","<p style=""color:darkgreen;font-size:24px;"">Correct :)</p>","",""
"3168","key","v","v","16.69908465608516","500","250","psychophysics","388","1322776","0.0-388.0","5c2ff645644d5300010c25f3","620a66e8940045d98c529de5","6","","","","","0","9"
"null","","","null","","","","html-keyboard-response","389","1323277","0.0-389.0","5c2ff645644d5300010c25f3","620a66e8940045d98c529de5","","","","","<p style=""color:darkgreen;font-size:24px;"">Correct :)</p>","",""
"3385","key","v","v","16.698019801980198","500","250","psychophysics","390","1326664","0.0-390.0","5c2ff645644d5300010c25f3","620a66e8940045d98c529de5","6","","","","","1","2"
"null","","","null","","","","html-keyboard-response","391","1327166","0.0-391.0","5c2ff645644d5300010c25f3","620a66e8940045d98c529de5","","","","","<p style=""color:darkgreen;font-size:24px;"">Correct :)</p>","",""
"2678","key","n","n","16.702652173913634","500","250","psychophysics","392","1329847","0.0-392.0","5c2ff645644d5300010c25f3","620a66e8940045d98c529de5","6","","","","","1","6"
"null","","","null","","","","html-keyboard-response","393","1330349","0.0-393.0","5c2ff645644d5300010c25f3","620a66e8940045d98c529de5","","","","","<p style=""color:darkgreen;font-size:24px;"">Correct :)</p>","",""
"3487","key","n","n","16.697732057415717","500","250","psychophysics","394","1333839","0.0-394.0","5c2ff645644d5300010c25f3","620a66e8940045d98c529de5","6","","","","","1","7"
"null","","","null","","","","html-keyboard-response","395","1334341","0.0-395.0","5c2ff645644d5300010c25f3","620a66e8940045d98c529de5","","","","","<p style=""color:darkgreen;font-size:24px;"">Correct :)</p>","",""
"6602","","","v","","","","html-keyboard-response","396","1340944","0.0-396.0","5c2ff645644d5300010c25f3","620a66e8940045d98c529de5","","","","","<p> Last set of trials.  Here, the tasks are going to switch once again.  We are going to do 50 of these.  And then you are done with the experiment.  </p>  <br><br>  Ready? (press v or n)","",""
"3012","key","v","v","16.70161325966898","500","250","psychophysics","397","1343961","0.0-397.0","5c2ff645644d5300010c25f3","620a66e8940045d98c529de5","7","","","","","0","3"
"null","","","null","","","","html-keyboard-response","398","1344462","0.0-398.0","5c2ff645644d5300010c25f3","620a66e8940045d98c529de5","","","","","<p style=""color:darkgreen;font-size:24px;"">Correct :)</p>","",""
"3119","key","v","v","16.704951871657137","500","250","psychophysics","399","1347584","0.0-399.0","5c2ff645644d5300010c25f3","620a66e8940045d98c529de5","7","","","","","1","2"
"null","","","null","","","","html-keyboard-response","400","1348085","0.0-400.0","5c2ff645644d5300010c25f3","620a66e8940045d98c529de5","","","","","<p style=""color:darkgreen;font-size:24px;"">Correct :)</p>","",""
"3111","key","v","v","16.70336559139723","500","250","psychophysics","401","1351201","0.0-401.0","5c2ff645644d5300010c25f3","620a66e8940045d98c529de5","7","","","","","1","3"
"null","","","null","","","","html-keyboard-response","402","1351703","0.0-402.0","5c2ff645644d5300010c25f3","620a66e8940045d98c529de5","","","","","<p style=""color:darkgreen;font-size:24px;"">Correct :)</p>","",""
"2773","key","v","v","16.70558433734997","500","250","psychophysics","403","1354480","0.0-403.0","5c2ff645644d5300010c25f3","620a66e8940045d98c529de5","7","","","","","0","7"
"null","","","null","","","","html-keyboard-response","404","1354981","0.0-404.0","5c2ff645644d5300010c25f3","620a66e8940045d98c529de5","","","","","<p style=""color:darkgreen;font-size:24px;"">Correct :)</p>","",""
"2694","key","v","v","16.69644099378941","500","250","psychophysics","405","1357680","0.0-405.0","5c2ff645644d5300010c25f3","620a66e8940045d98c529de5","7","","","","","1","4"
"null","","","null","","","","html-keyboard-response","406","1358181","0.0-406.0","5c2ff645644d5300010c25f3","620a66e8940045d98c529de5","","","","","<p style=""color:darkgreen;font-size:24px;"">Correct :)</p>","",""
"2926","key","n","n","16.7035828571434","500","250","psychophysics","407","1361112","0.0-407.0","5c2ff645644d5300010c25f3","620a66e8940045d98c529de5","7","","","","","0","2"
"null","","","null","","","","html-keyboard-response","408","1361619","0.0-408.0","5c2ff645644d5300010c25f3","620a66e8940045d98c529de5","","","","","<p style=""color:darkgreen;font-size:24px;"">Correct :)</p>","",""
"3538","key","n","n","16.698712264151393","500","250","psychophysics","409","1365160","0.0-409.0","5c2ff645644d5300010c25f3","620a66e8940045d98c529de5","7","","","","","1","6"
"null","","","null","","","","html-keyboard-response","410","1365663","0.0-410.0","5c2ff645644d5300010c25f3","620a66e8940045d98c529de5","","","","","<p style=""color:darkgreen;font-size:24px;"">Correct :)</p>","",""
"3590","key","n","n","16.69826511627951","500","250","psychophysics","411","1369257","0.0-411.0","5c2ff645644d5300010c25f3","620a66e8940045d98c529de5","7","","","","","0","6"
"null","","","null","","","","html-keyboard-response","412","1369758","0.0-412.0","5c2ff645644d5300010c25f3","620a66e8940045d98c529de5","","","","","<p style=""color:darkgreen;font-size:24px;"">Correct :)</p>","",""
"3088","key","n","n","16.703389189189704","500","250","psychophysics","413","1372849","0.0-413.0","5c2ff645644d5300010c25f3","620a66e8940045d98c529de5","7","","","","","0","2"
"null","","","null","","","","html-keyboard-response","414","1373350","0.0-414.0","5c2ff645644d5300010c25f3","620a66e8940045d98c529de5","","","","","<p style=""color:darkgreen;font-size:24px;"">Correct :)</p>","",""
"2877","key","v","v","16.698412790698228","500","250","psychophysics","415","1376233","0.0-415.0","5c2ff645644d5300010c25f3","620a66e8940045d98c529de5","7","","","","","0","3"
"null","","","null","","","","html-keyboard-response","416","1376734","0.0-416.0","5c2ff645644d5300010c25f3","620a66e8940045d98c529de5","","","","","<p style=""color:darkgreen;font-size:24px;"">Correct :)</p>","",""
"3384","key","n","n","16.698019801980198","500","250","psychophysics","417","1380121","0.0-417.0","5c2ff645644d5300010c25f3","620a66e8940045d98c529de5","7","","","","","0","2"
"null","","","null","","","","html-keyboard-response","418","1380623","0.0-418.0","5c2ff645644d5300010c25f3","620a66e8940045d98c529de5","","","","","<p style=""color:darkgreen;font-size:24px;"">Correct :)</p>","",""
"4030","key","v","v","16.697628099173077","500","250","psychophysics","419","1384657","0.0-419.0","5c2ff645644d5300010c25f3","620a66e8940045d98c529de5","7","","","","","1","4"
"null","","","null","","","","html-keyboard-response","420","1385158","0.0-420.0","5c2ff645644d5300010c25f3","620a66e8940045d98c529de5","","","","","<p style=""color:darkgreen;font-size:24px;"">Correct :)</p>","",""
"3868","key","n","n","16.701836206896054","500","250","psychophysics","421","1389033","0.0-421.0","5c2ff645644d5300010c25f3","620a66e8940045d98c529de5","7","","","","","0","2"
"null","","","null","","","","html-keyboard-response","422","1389535","0.0-422.0","5c2ff645644d5300010c25f3","620a66e8940045d98c529de5","","","","","<p style=""color:darkgreen;font-size:24px;"">Correct :)</p>","",""
"2990","key","v","v","16.702938547485388","500","250","psychophysics","423","1392528","0.0-423.0","5c2ff645644d5300010c25f3","620a66e8940045d98c529de5","7","","","","","1","4"
"null","","","null","","","","html-keyboard-response","424","1393029","0.0-424.0","5c2ff645644d5300010c25f3","620a66e8940045d98c529de5","","","","","<p style=""color:darkgreen;font-size:24px;"">Correct :)</p>","",""
"3177","key","n","n","16.69542408376903","500","250","psychophysics","425","1396210","0.0-425.0","5c2ff645644d5300010c25f3","620a66e8940045d98c529de5","7","","","","","0","2"
"null","","","null","","","","html-keyboard-response","426","1396711","0.0-426.0","5c2ff645644d5300010c25f3","620a66e8940045d98c529de5","","","","","<p style=""color:darkgreen;font-size:24px;"">Correct :)</p>","",""
"2687","key","v","v","16.700782608694936","500","250","psychophysics","427","1399401","0.0-427.0","5c2ff645644d5300010c25f3","620a66e8940045d98c529de5","7","","","","","1","4"
"null","","","null","","","","html-keyboard-response","428","1399903","0.0-428.0","5c2ff645644d5300010c25f3","620a66e8940045d98c529de5","","","","","<p style=""color:darkgreen;font-size:24px;"">Correct :)</p>","",""
"3031","key","n","n","16.69683425414417","500","250","psychophysics","429","1402936","0.0-429.0","5c2ff645644d5300010c25f3","620a66e8940045d98c529de5","7","","","","","0","2"
"null","","","null","","","","html-keyboard-response","430","1403437","0.0-430.0","5c2ff645644d5300010c25f3","620a66e8940045d98c529de5","","","","","<p style=""color:darkgreen;font-size:24px;"">Correct :)</p>","",""
"2575","key","v","v","16.702123376623994","500","250","psychophysics","431","1406015","0.0-431.0","5c2ff645644d5300010c25f3","620a66e8940045d98c529de5","7","","","","","1","4"
"null","","","null","","","","html-keyboard-response","432","1406516","0.0-432.0","5c2ff645644d5300010c25f3","620a66e8940045d98c529de5","","","","","<p style=""color:darkgreen;font-size:24px;"">Correct :)</p>","",""
"2961","key","v","v","16.695632768362117","500","250","psychophysics","433","1409480","0.0-433.0","5c2ff645644d5300010c25f3","620a66e8940045d98c529de5","7","","","","","0","3"
"null","","","null","","","","html-keyboard-response","434","1409982","0.0-434.0","5c2ff645644d5300010c25f3","620a66e8940045d98c529de5","","","","","<p style=""color:darkgreen;font-size:24px;"">Correct :)</p>","",""
"3591","key","v","v","16.635514018691588","500","250","psychophysics","435","1413576","0.0-435.0","5c2ff645644d5300010c25f3","620a66e8940045d98c529de5","7","","","","","1","1"
"null","","","null","","","","html-keyboard-response","436","1414077","0.0-436.0","5c2ff645644d5300010c25f3","620a66e8940045d98c529de5","","","","","<p style=""color:darkgreen;font-size:24px;"">Correct :)</p>","",""
"2668","key","n","n","16.698912499999278","500","250","psychophysics","437","1416752","0.0-437.0","5c2ff645644d5300010c25f3","620a66e8940045d98c529de5","7","","","","","0","4"
"null","","","null","","","","html-keyboard-response","438","1417253","0.0-438.0","5c2ff645644d5300010c25f3","620a66e8940045d98c529de5","","","","","<p style=""color:darkgreen;font-size:24px;"">Correct :)</p>","",""
"3392","key","v","v","16.700133004926577","500","250","psychophysics","439","1420648","0.0-439.0","5c2ff645644d5300010c25f3","620a66e8940045d98c529de5","7","","","","","0","1"
"null","","","null","","","","html-keyboard-response","440","1421149","0.0-440.0","5c2ff645644d5300010c25f3","620a66e8940045d98c529de5","","","","","<p style=""color:darkgreen;font-size:24px;"">Correct :)</p>","",""
"2831","key","n","n","16.70485882352873","500","250","psychophysics","441","1423983","0.0-441.0","5c2ff645644d5300010c25f3","620a66e8940045d98c529de5","7","","","","","0","6"
"null","","","null","","","","html-keyboard-response","442","1424484","0.0-442.0","5c2ff645644d5300010c25f3","620a66e8940045d98c529de5","","","","","<p style=""color:darkgreen;font-size:24px;"">Correct :)</p>","",""
"3608","key","v","v","16.702898148147614","500","250","psychophysics","443","1428095","0.0-443.0","5c2ff645644d5300010c25f3","620a66e8940045d98c529de5","7","","","","","1","4"
"null","","","null","","","","html-keyboard-response","444","1428597","0.0-444.0","5c2ff645644d5300010c25f3","620a66e8940045d98c529de5","","","","","<p style=""color:darkgreen;font-size:24px;"">Correct :)</p>","",""
"4080","key","v","v","16.697248979591365","500","250","psychophysics","445","1432680","0.0-445.0","5c2ff645644d5300010c25f3","620a66e8940045d98c529de5","7","","","","","1","1"
"null","","","null","","","","html-keyboard-response","446","1433182","0.0-446.0","5c2ff645644d5300010c25f3","620a66e8940045d98c529de5","","","","","<p style=""color:darkgreen;font-size:24px;"">Correct :)</p>","",""
"3390","key","n","n","16.69865024630485","500","250","psychophysics","447","1436575","0.0-447.0","5c2ff645644d5300010c25f3","620a66e8940045d98c529de5","7","","","","","1","7"
"null","","","null","","","","html-keyboard-response","448","1437076","0.0-448.0","5c2ff645644d5300010c25f3","620a66e8940045d98c529de5","","","","","<p style=""color:darkgreen;font-size:24px;"">Correct :)</p>","",""
"3240","key","v","v","16.7016855670108","500","250","psychophysics","449","1440320","0.0-449.0","5c2ff645644d5300010c25f3","620a66e8940045d98c529de5","7","","","","","0","3"
"null","","","null","","","","html-keyboard-response","450","1440822","0.0-450.0","5c2ff645644d5300010c25f3","620a66e8940045d98c529de5","","","","","<p style=""color:darkgreen;font-size:24px;"">Correct :)</p>","",""
"4463","key","n","n","16.70084328358166","500","250","psychophysics","451","1445288","0.0-451.0","5c2ff645644d5300010c25f3","620a66e8940045d98c529de5","7","","","","","1","7"
"null","","","null","","","","html-keyboard-response","452","1445789","0.0-452.0","5c2ff645644d5300010c25f3","620a66e8940045d98c529de5","","","","","<p style=""color:darkgreen;font-size:24px;"">Correct :)</p>","",""
"3523","key","n","n","16.695857819904667","500","250","psychophysics","453","1449319","0.0-453.0","5c2ff645644d5300010c25f3","620a66e8940045d98c529de5","7","","","","","0","6"
"null","","","null","","","","html-keyboard-response","454","1449820","0.0-454.0","5c2ff645644d5300010c25f3","620a66e8940045d98c529de5","","","","","<p style=""color:darkgreen;font-size:24px;"">Correct :)</p>","",""
"3064","key","n","n","16.70177717391356","500","250","psychophysics","455","1452888","0.0-455.0","5c2ff645644d5300010c25f3","620a66e8940045d98c529de5","7","","","","","0","6"
"null","","","null","","","","html-keyboard-response","456","1453388","0.0-456.0","5c2ff645644d5300010c25f3","620a66e8940045d98c529de5","","","","","<p style=""color:darkgreen;font-size:24px;"">Correct :)</p>","",""
"3886","key","n","n","16.69882403433427","500","250","psychophysics","457","1457280","0.0-457.0","5c2ff645644d5300010c25f3","620a66e8940045d98c529de5","7","","","","","1","7"
"null","","","null","","","","html-keyboard-response","458","1457781","0.0-458.0","5c2ff645644d5300010c25f3","620a66e8940045d98c529de5","","","","","<p style=""color:darkgreen;font-size:24px;"">Correct :)</p>","",""
"4832","key","v","v","16.699401384083373","500","250","psychophysics","459","1462617","0.0-459.0","5c2ff645644d5300010c25f3","620a66e8940045d98c529de5","7","","","","","0","7"
"null","","","null","","","","html-keyboard-response","460","1463119","0.0-460.0","5c2ff645644d5300010c25f3","620a66e8940045d98c529de5","","","","","<p style=""color:darkgreen;font-size:24px;"">Correct :)</p>","",""
"3294","key","n","n","16.700507614213198","500","250","psychophysics","461","1466416","0.0-461.0","5c2ff645644d5300010c25f3","620a66e8940045d98c529de5","7","","","","","0","2"
"null","","","null","","","","html-keyboard-response","462","1466917","0.0-462.0","5c2ff645644d5300010c25f3","620a66e8940045d98c529de5","","","","","<p style=""color:darkgreen;font-size:24px;"">Correct :)</p>","",""
"3049","key","v","v","16.700147540984126","500","250","psychophysics","463","1469970","0.0-463.0","5c2ff645644d5300010c25f3","620a66e8940045d98c529de5","7","","","","","0","3"
"null","","","null","","","","html-keyboard-response","464","1470473","0.0-464.0","5c2ff645644d5300010c25f3","620a66e8940045d98c529de5","","","","","<p style=""color:darkgreen;font-size:24px;"">Correct :)</p>","",""
"3133","key","n","n","16.695866310160937","500","250","psychophysics","465","1473609","0.0-465.0","5c2ff645644d5300010c25f3","620a66e8940045d98c529de5","7","","","","","0","2"
"null","","","null","","","","html-keyboard-response","466","1474112","0.0-466.0","5c2ff645644d5300010c25f3","620a66e8940045d98c529de5","","","","","<p style=""color:darkgreen;font-size:24px;"">Correct :)</p>","",""
"3441","key","v","v","16.70450000000046","500","250","psychophysics","467","1477560","0.0-467.0","5c2ff645644d5300010c25f3","620a66e8940045d98c529de5","7","","","","","1","4"
"null","","","null","","","","html-keyboard-response","468","1478062","0.0-468.0","5c2ff645644d5300010c25f3","620a66e8940045d98c529de5","","","","","<p style=""color:darkgreen;font-size:24px;"">Correct :)</p>","",""
"3051","key","n","n","16.69468306010981","500","250","psychophysics","469","1481120","0.0-469.0","5c2ff645644d5300010c25f3","620a66e8940045d98c529de5","7","","","","","0","2"
"null","","","null","","","","html-keyboard-response","470","1481621","0.0-470.0","5c2ff645644d5300010c25f3","620a66e8940045d98c529de5","","","","","<p style=""color:darkgreen;font-size:24px;"">Correct :)</p>","",""
"3984","key","n","n","16.69801673640119","500","250","psychophysics","471","1485608","0.0-471.0","5c2ff645644d5300010c25f3","620a66e8940045d98c529de5","7","","","","","1","7"
"null","","","null","","","","html-keyboard-response","472","1486109","0.0-472.0","5c2ff645644d5300010c25f3","620a66e8940045d98c529de5","","","","","<p style=""color:darkgreen;font-size:24px;"">Correct :)</p>","",""
"2984","key","n","n","16.702938547485388","500","250","psychophysics","473","1489096","0.0-473.0","5c2ff645644d5300010c25f3","620a66e8940045d98c529de5","7","","","","","1","7"
"null","","","null","","","","html-keyboard-response","474","1489597","0.0-474.0","5c2ff645644d5300010c25f3","620a66e8940045d98c529de5","","","","","<p style=""color:darkgreen;font-size:24px;"">Correct :)</p>","",""
"2641","key","v","v","16.695101265822053","500","250","psychophysics","475","1492241","0.0-475.0","5c2ff645644d5300010c25f3","620a66e8940045d98c529de5","7","","","","","0","7"
"null","","","null","","","","html-keyboard-response","476","1492742","0.0-476.0","5c2ff645644d5300010c25f3","620a66e8940045d98c529de5","","","","","<p style=""color:darkgreen;font-size:24px;"">Correct :)</p>","",""
"3128","key","v","v","16.70120212765896","500","250","psychophysics","477","1495873","0.0-477.0","5c2ff645644d5300010c25f3","620a66e8940045d98c529de5","7","","","","","0","7"
"null","","","null","","","","html-keyboard-response","478","1496387","0.0-478.0","5c2ff645644d5300010c25f3","620a66e8940045d98c529de5","","","","","<p style=""color:darkgreen;font-size:24px;"">Correct :)</p>","",""
"2882","key","v","v","16.7042267441866","500","250","psychophysics","479","1499272","0.0-479.0","5c2ff645644d5300010c25f3","620a66e8940045d98c529de5","7","","","","","0","3"
"null","","","null","","","","html-keyboard-response","480","1499773","0.0-480.0","5c2ff645644d5300010c25f3","620a66e8940045d98c529de5","","","","","<p style=""color:darkgreen;font-size:24px;"">Correct :)</p>","",""
"3058","key","v","v","16.696342391304864","500","250","psychophysics","481","1502835","0.0-481.0","5c2ff645644d5300010c25f3","620a66e8940045d98c529de5","7","","","","","0","7"
"null","","","null","","","","html-keyboard-response","482","1503337","0.0-482.0","5c2ff645644d5300010c25f3","620a66e8940045d98c529de5","","","","","<p style=""color:darkgreen;font-size:24px;"">Correct :)</p>","",""
"3732","key","n","n","16.698771300447913","500","250","psychophysics","483","1507073","0.0-483.0","5c2ff645644d5300010c25f3","620a66e8940045d98c529de5","7","","","","","1","7"
"null","","","null","","","","html-keyboard-response","484","1507579","0.0-484.0","5c2ff645644d5300010c25f3","620a66e8940045d98c529de5","","","","","<p style=""color:darkgreen;font-size:24px;"">Correct :)</p>","",""
"2958","key","n","n","16.70298305084787","500","250","psychophysics","485","1510544","0.0-485.0","5c2ff645644d5300010c25f3","620a66e8940045d98c529de5","7","","","","","0","2"
"null","","","null","","","","html-keyboard-response","486","1511046","0.0-486.0","5c2ff645644d5300010c25f3","620a66e8940045d98c529de5","","","","","<p style=""color:darkgreen;font-size:24px;"">Correct :)</p>","",""
"2935","key","v","v","16.699585227273268","500","250","psychophysics","487","1513984","0.0-487.0","5c2ff645644d5300010c25f3","620a66e8940045d98c529de5","7","","","","","0","1"
"null","","","null","","","","html-keyboard-response","488","1514486","0.0-488.0","5c2ff645644d5300010c25f3","620a66e8940045d98c529de5","","","","","<p style=""color:darkgreen;font-size:24px;"">Correct :)</p>","",""
"2519","key","v","v","16.694211920529035","500","250","psychophysics","489","1517008","0.0-489.0","5c2ff645644d5300010c25f3","620a66e8940045d98c529de5","7","","","","","1","4"
"null","","","null","","","","html-keyboard-response","490","1517510","0.0-490.0","5c2ff645644d5300010c25f3","620a66e8940045d98c529de5","","","","","<p style=""color:darkgreen;font-size:24px;"">Correct :)</p>","",""
"2889","key","n","n","16.622093023255815","500","250","psychophysics","491","1520402","0.0-491.0","5c2ff645644d5300010c25f3","620a66e8940045d98c529de5","7","","","","","0","2"
"null","","","null","","","","html-keyboard-response","492","1520903","0.0-492.0","5c2ff645644d5300010c25f3","620a66e8940045d98c529de5","","","","","<p style=""color:darkgreen;font-size:24px;"">Correct :)</p>","",""
"2822","key","n","n","16.70311242603482","500","250","psychophysics","493","1523727","0.0-493.0","5c2ff645644d5300010c25f3","620a66e8940045d98c529de5","7","","","","","0","2"
"null","","","null","","","","html-keyboard-response","494","1524229","0.0-494.0","5c2ff645644d5300010c25f3","620a66e8940045d98c529de5","","","","","<p style=""color:darkgreen;font-size:24px;"">Correct :)</p>","",""
"3816","key","n","n","16.693539473684627","500","250","psychophysics","495","1528048","0.0-495.0","5c2ff645644d5300010c25f3","620a66e8940045d98c529de5","7","","","","","1","7"
"null","","","null","","","","html-keyboard-response","496","1528549","0.0-496.0","5c2ff645644d5300010c25f3","620a66e8940045d98c529de5","","","","","<p style=""color:darkgreen;font-size:24px;"">Correct :)</p>","",""
