"rt","response_type","key_press","response","avg_frame_time","center_x","center_y","trial_type","trial_index","time_elapsed","internal_node_id","pid","sid","phase","guide","targ","resp","stimulus","is5","stim"
"170479","key"," "," ","312.8158697247706","500","250","psychophysics","0","170494","0.0-0.0","5d4613a2da9cb60001aa4948","620a66f4487fd5fbb195865a","","","","","","",""
"1877","key"," "," ","16.67008928571418","500","250","psychophysics","1","172374","0.0-1.0","5d4613a2da9cb60001aa4948","620a66f4487fd5fbb195865a","","","","","","",""
"3744","key"," "," ","16.666000000000036","500","250","psychophysics","2","176120","0.0-2.0","5d4613a2da9cb60001aa4948","620a66f4487fd5fbb195865a","","","","","","",""
"1336","key"," "," ","16.666000000000018","500","250","psychophysics","3","177461","0.0-3.0","5d4613a2da9cb60001aa4948","620a66f4487fd5fbb195865a","","","","","","",""
"3812","key"," "," ","16.665999999999993","500","250","psychophysics","4","181275","0.0-4.0","5d4613a2da9cb60001aa4948","620a66f4487fd5fbb195865a","","","","","","",""
"7512","key"," "," ","16.66704888888887","500","250","psychophysics","5","188789","0.0-5.0","5d4613a2da9cb60001aa4948","620a66f4487fd5fbb195865a","","","","","","",""
"2916","key"," "," ","16.666000000000114","500","250","psychophysics","6","191707","0.0-6.0","5d4613a2da9cb60001aa4948","620a66f4487fd5fbb195865a","","","","","","",""
"4478","key"," "," ","16.66792910447763","500","250","psychophysics","7","196187","0.0-7.0","5d4613a2da9cb60001aa4948","620a66f4487fd5fbb195865a","","","","","","",""
"5681","key"," "," ","16.666000000000007","500","250","psychophysics","8","201870","0.0-8.0","5d4613a2da9cb60001aa4948","620a66f4487fd5fbb195865a","0","0","46","47","","",""
"5677","key"," "," ","16.66745722713859","500","250","psychophysics","9","207550","0.0-9.0","5d4613a2da9cb60001aa4948","620a66f4487fd5fbb195865a","","","","","","",""
"2650","key"," "," ","16.666","500","250","psychophysics","10","210207","0.0-10.0","5d4613a2da9cb60001aa4948","620a66f4487fd5fbb195865a","","","","","","",""
"2684","key"," "," ","16.66908124999991","500","250","psychophysics","11","212892","0.0-11.0","5d4613a2da9cb60001aa4948","620a66f4487fd5fbb195865a","","","","","","",""
"3726","key"," "," ","16.66600000000005","500","250","psychophysics","12","216620","0.0-12.0","5d4613a2da9cb60001aa4948","620a66f4487fd5fbb195865a","","","","","","",""
"2071","key"," "," ","16.666000000000043","500","250","psychophysics","13","218693","0.0-13.0","5d4613a2da9cb60001aa4948","620a66f4487fd5fbb195865a","","","","","","",""
"6273","key"," "," ","16.667061170212772","500","250","psychophysics","14","224967","0.0-14.0","5d4613a2da9cb60001aa4948","620a66f4487fd5fbb195865a","","","","","","",""
"3639","key"," "," ","16.665999999999986","500","250","psychophysics","15","228608","0.0-15.0","5d4613a2da9cb60001aa4948","620a66f4487fd5fbb195865a","","","","","","",""
"2403","key"," "," ","16.666000000000086","500","250","psychophysics","16","231013","0.0-16.0","5d4613a2da9cb60001aa4948","620a66f4487fd5fbb195865a","","","","","","",""
"7351","key"," "," ","16.705102272727263","500","250","psychophysics","17","238371","0.0-17.0","5d4613a2da9cb60001aa4948","620a66f4487fd5fbb195865a","1","0","42","52","","",""
"6425","key"," "," ","16.66713541666665","500","250","psychophysics","18","244797","0.0-18.0","5d4613a2da9cb60001aa4948","620a66f4487fd5fbb195865a","1","5","59","58","","",""
"7959","key"," "," ","16.66701257861637","500","250","psychophysics","19","252759","0.0-19.0","5d4613a2da9cb60001aa4948","620a66f4487fd5fbb195865a","1","0","56","69","","",""
"6121","key"," "," ","16.665999999999983","500","250","psychophysics","20","258881","0.0-20.0","5d4613a2da9cb60001aa4948","620a66f4487fd5fbb195865a","1","5","60","60","","",""
"6820","key"," "," ","16.667383863080666","500","250","psychophysics","21","265703","0.0-21.0","5d4613a2da9cb60001aa4948","620a66f4487fd5fbb195865a","1","0","45","62","","",""
"4884","key"," "," ","16.66600000000003","500","250","psychophysics","22","270589","0.0-22.0","5d4613a2da9cb60001aa4948","620a66f4487fd5fbb195865a","1","5","38","43","","",""
"9921","key"," "," ","16.694957841483955","500","250","psychophysics","23","280511","0.0-23.0","5d4613a2da9cb60001aa4948","620a66f4487fd5fbb195865a","1","0","49","66","","",""
"5421","key"," "," ","16.6675384615385","500","250","psychophysics","24","285935","0.0-24.0","5d4613a2da9cb60001aa4948","620a66f4487fd5fbb195865a","1","5","39","45","","",""
"4209","key"," "," ","16.666000000000107","500","250","psychophysics","25","290146","0.0-25.0","5d4613a2da9cb60001aa4948","620a66f4487fd5fbb195865a","1","0","31","37","","",""
"5940","key"," "," ","16.66751685393258","500","250","psychophysics","26","296087","0.0-26.0","5d4613a2da9cb60001aa4948","620a66f4487fd5fbb195865a","1","5","46","52","","",""
"4749","key"," "," ","16.666000000000103","500","250","psychophysics","27","300838","0.0-27.0","5d4613a2da9cb60001aa4948","620a66f4487fd5fbb195865a","1","0","37","47","","",""
"5536","key"," "," ","16.667259818731154","500","250","psychophysics","28","306375","0.0-28.0","5d4613a2da9cb60001aa4948","620a66f4487fd5fbb195865a","1","5","54","53","","",""
"7875","key"," "," ","16.702436170212806","500","250","psychophysics","29","314252","0.0-29.0","5d4613a2da9cb60001aa4948","620a66f4487fd5fbb195865a","1","0","51","70","","",""
"3199","key"," "," ","16.665999999999865","500","250","psychophysics","30","317454","0.0-30.0","5d4613a2da9cb60001aa4948","620a66f4487fd5fbb195865a","1","5","30","30","","",""
"4084","key"," "," ","16.665999999999823","500","250","psychophysics","31","321540","0.0-31.0","5d4613a2da9cb60001aa4948","620a66f4487fd5fbb195865a","1","0","27","38","","",""
"3118","key"," "," ","16.66901612903213","500","250","psychophysics","32","324660","0.0-32.0","5d4613a2da9cb60001aa4948","620a66f4487fd5fbb195865a","1","5","23","29","","",""
"7321","key"," "," ","16.665999999999965","500","250","psychophysics","33","331983","0.0-33.0","5d4613a2da9cb60001aa4948","620a66f4487fd5fbb195865a","1","0","50","69","","",""
"5817","key"," "," ","16.667289398280694","500","250","psychophysics","34","337802","0.0-34.0","5d4613a2da9cb60001aa4948","620a66f4487fd5fbb195865a","1","5","57","59","","",""
"3184","key"," "," ","16.66599999999989","500","250","psychophysics","35","340988","0.0-35.0","5d4613a2da9cb60001aa4948","620a66f4487fd5fbb195865a","1","0","21","27","","",""
"2609","key"," "," ","16.669090322580473","500","250","psychophysics","36","343599","0.0-36.0","5d4613a2da9cb60001aa4948","620a66f4487fd5fbb195865a","1","5","22","27","","",""
"135194","key"," "," ","279.30697933884295","500","250","psychophysics","37","478795","0.0-37.0","5d4613a2da9cb60001aa4948","620a66f4487fd5fbb195865a","","","","","","",""
"8147","key"," "," ","16.66698360655728","500","250","psychophysics","38","486943","0.0-38.0","5d4613a2da9cb60001aa4948","620a66f4487fd5fbb195865a","","","","","","",""
"1741","key"," "," ","16.665999999999983","500","250","psychophysics","39","488686","0.0-39.0","5d4613a2da9cb60001aa4948","620a66f4487fd5fbb195865a","","","","","","",""
"13243","key"," "," ","16.68765321563676","500","250","psychophysics","40","501936","0.0-40.0","5d4613a2da9cb60001aa4948","620a66f4487fd5fbb195865a","2","0","45","54","","",""
"3916","key"," "," ","16.66600000000004","500","250","psychophysics","41","505857","0.0-41.0","5d4613a2da9cb60001aa4948","620a66f4487fd5fbb195865a","","","","","","",""
"4161","key"," "," ","16.667983870967873","500","250","psychophysics","42","510020","0.0-42.0","5d4613a2da9cb60001aa4948","620a66f4487fd5fbb195865a","2","0","21","26","","",""
"1620","key"," "," ","16.66600000000014","500","250","psychophysics","43","511643","0.0-43.0","5d4613a2da9cb60001aa4948","620a66f4487fd5fbb195865a","","","","","","",""
"6863","key"," "," ","16.667058394160495","500","250","psychophysics","44","518508","0.0-44.0","5d4613a2da9cb60001aa4948","620a66f4487fd5fbb195865a","2","0","42","47","","",""
"1564","key"," "," ","16.66599999999963","500","250","psychophysics","45","520074","0.0-45.0","5d4613a2da9cb60001aa4948","620a66f4487fd5fbb195865a","","","","","","",""
"7274","key"," "," ","16.667448275862128","500","250","psychophysics","46","527350","0.0-46.0","5d4613a2da9cb60001aa4948","620a66f4487fd5fbb195865a","2","0","54","63","","",""
"1699","key"," "," ","16.665999999999457","500","250","psychophysics","47","529051","0.0-47.0","5d4613a2da9cb60001aa4948","620a66f4487fd5fbb195865a","","","","","","",""
"7057","key"," "," ","16.665999999999986","500","250","psychophysics","48","536103","0.0-48.0","5d4613a2da9cb60001aa4948","620a66f4487fd5fbb195865a","2","0","40","48","","",""
"1279","key"," "," ","16.670671052631835","500","250","psychophysics","49","537383","0.0-49.0","5d4613a2da9cb60001aa4948","620a66f4487fd5fbb195865a","","","","","","",""
"9065","key"," "," ","16.696805914972398","500","250","psychophysics","50","546444","0.0-50.0","5d4613a2da9cb60001aa4948","620a66f4487fd5fbb195865a","2","0","56","62","","",""
"1552","key"," "," ","16.67147311828004","500","250","psychophysics","51","548000","0.0-51.0","5d4613a2da9cb60001aa4948","620a66f4487fd5fbb195865a","","","","","","",""
"4187","key"," "," ","16.666","500","250","psychophysics","52","552188","0.0-52.0","5d4613a2da9cb60001aa4948","620a66f4487fd5fbb195865a","2","0","30","33","","",""
"1285","key"," "," ","16.666000000000086","500","250","psychophysics","53","553476","0.0-53.0","5d4613a2da9cb60001aa4948","620a66f4487fd5fbb195865a","","","","","","",""
"6747","key"," "," ","16.667193069307153","500","250","psychophysics","54","560222","0.0-54.0","5d4613a2da9cb60001aa4948","620a66f4487fd5fbb195865a","2","0","47","48","","",""
"1528","key"," "," ","16.66599999999938","500","250","psychophysics","55","561752","0.0-55.0","5d4613a2da9cb60001aa4948","620a66f4487fd5fbb195865a","","","","","","",""
"6703","key"," "," ","16.66711194029852","500","250","psychophysics","56","568457","0.0-56.0","5d4613a2da9cb60001aa4948","620a66f4487fd5fbb195865a","2","0","50","53","","",""
"2253","key"," "," ","16.66599999999961","500","250","psychophysics","57","570712","0.0-57.0","5d4613a2da9cb60001aa4948","620a66f4487fd5fbb195865a","","","","","","",""
"6824","key"," "," ","16.66711735941326","500","250","psychophysics","58","577537","0.0-58.0","5d4613a2da9cb60001aa4948","620a66f4487fd5fbb195865a","2","0","53","53","","",""
"2275","key"," "," ","16.66599999999938","500","250","psychophysics","59","579814","0.0-59.0","5d4613a2da9cb60001aa4948","620a66f4487fd5fbb195865a","","","","","","",""
"7732","key"," "," ","16.66708423326131","500","250","psychophysics","60","587549","0.0-60.0","5d4613a2da9cb60001aa4948","620a66f4487fd5fbb195865a","2","0","52","51","","",""
"1245","key"," "," ","16.665999999999798","500","250","psychophysics","61","588797","0.0-61.0","5d4613a2da9cb60001aa4948","620a66f4487fd5fbb195865a","","","","","","",""
"5348","key"," "," ","16.665999999999986","500","250","psychophysics","62","594147","0.0-62.0","5d4613a2da9cb60001aa4948","620a66f4487fd5fbb195865a","2","0","33","33","","",""
"1056","key"," "," ","16.665999999999748","500","250","psychophysics","63","595204","0.0-63.0","5d4613a2da9cb60001aa4948","620a66f4487fd5fbb195865a","","","","","","",""
"3584","key"," "," ","16.668420560747737","500","250","psychophysics","64","598790","0.0-64.0","5d4613a2da9cb60001aa4948","620a66f4487fd5fbb195865a","2","0","29","30","","",""
"994","key"," "," ","16.665999999999904","500","250","psychophysics","65","599786","0.0-65.0","5d4613a2da9cb60001aa4948","620a66f4487fd5fbb195865a","","","","","","",""
"4191","key"," "," ","16.666","500","250","psychophysics","66","603979","0.0-66.0","5d4613a2da9cb60001aa4948","620a66f4487fd5fbb195865a","2","0","42","40","","",""
"1265","key"," "," ","16.66599999999938","500","250","psychophysics","67","605246","0.0-67.0","5d4613a2da9cb60001aa4948","620a66f4487fd5fbb195865a","","","","","","",""
"5209","key"," "," ","16.721064308681825","500","250","psychophysics","68","610457","0.0-68.0","5d4613a2da9cb60001aa4948","620a66f4487fd5fbb195865a","2","0","49","49","","",""
"1128","key"," "," ","16.666000000001347","500","250","psychophysics","69","611586","0.0-69.0","5d4613a2da9cb60001aa4948","620a66f4487fd5fbb195865a","","","","","","",""
"3132","key"," "," ","16.666000000000086","500","250","psychophysics","70","614720","0.0-70.0","5d4613a2da9cb60001aa4948","620a66f4487fd5fbb195865a","","","","","","",""
"148489","key"," "," ","339.74421739130435","500","250","psychophysics","71","763211","0.0-71.0","5d4613a2da9cb60001aa4948","620a66f4487fd5fbb195865a","","","","","","",""
"8952","key"," "," ","16.667152985074704","500","250","psychophysics","72","772164","0.0-72.0","5d4613a2da9cb60001aa4948","620a66f4487fd5fbb195865a","3","5","57","54","","",""
"5355","key"," "," ","16.665999999999887","500","250","psychophysics","73","777522","0.0-73.0","5d4613a2da9cb60001aa4948","620a66f4487fd5fbb195865a","3","0","40","43","","",""
"6760","key"," "," ","16.6672054455445","500","250","psychophysics","74","784283","0.0-74.0","5d4613a2da9cb60001aa4948","620a66f4487fd5fbb195865a","3","5","47","45","","",""
"5459","key"," "," ","16.66600000000002","500","250","psychophysics","75","789746","0.0-75.0","5d4613a2da9cb60001aa4948","620a66f4487fd5fbb195865a","3","0","36","41","","",""
"5509","key"," "," ","16.667169696969953","500","250","psychophysics","76","795256","0.0-76.0","5d4613a2da9cb60001aa4948","620a66f4487fd5fbb195865a","3","5","45","42","","",""
"3723","key"," "," ","16.665999999999798","500","250","psychophysics","77","798984","0.0-77.0","5d4613a2da9cb60001aa4948","620a66f4487fd5fbb195865a","3","0","25","30","","",""
"4169","key"," "," ","16.667967999999878","500","250","psychophysics","78","803157","0.0-78.0","5d4613a2da9cb60001aa4948","620a66f4487fd5fbb195865a","3","5","37","35","","",""
"4081","key"," "," ","16.666000000000302","500","250","psychophysics","79","807240","0.0-79.0","5d4613a2da9cb60001aa4948","620a66f4487fd5fbb195865a","3","0","39","42","","",""
"6806","key"," "," ","16.70849261083726","500","250","psychophysics","80","814051","0.0-80.0","5d4613a2da9cb60001aa4948","620a66f4487fd5fbb195865a","3","5","54","49","","",""
"6613","key"," "," ","16.667260101010065","500","250","psychophysics","81","820667","0.0-81.0","5d4613a2da9cb60001aa4948","620a66f4487fd5fbb195865a","3","0","48","49","","",""
"6534","key"," "," ","16.66600000000011","500","250","psychophysics","82","827205","0.0-82.0","5d4613a2da9cb60001aa4948","620a66f4487fd5fbb195865a","3","5","46","44","","",""
"7449","key"," "," ","16.667087443946077","500","250","psychophysics","83","834655","0.0-83.0","5d4613a2da9cb60001aa4948","620a66f4487fd5fbb195865a","3","0","58","60","","",""
"3642","key"," "," ","16.665999999999986","500","250","psychophysics","84","838299","0.0-84.0","5d4613a2da9cb60001aa4948","620a66f4487fd5fbb195865a","3","5","23","23","","",""
"4188","key"," "," ","16.66755776892442","500","250","psychophysics","85","842489","0.0-85.0","5d4613a2da9cb60001aa4948","620a66f4487fd5fbb195865a","3","0","37","37","","",""
"3238","key"," "," ","16.665999999999702","500","250","psychophysics","86","845729","0.0-86.0","5d4613a2da9cb60001aa4948","620a66f4487fd5fbb195865a","3","5","23","24","","",""
"3104","key"," "," ","16.66599999999963","500","250","psychophysics","87","848839","0.0-87.0","5d4613a2da9cb60001aa4948","620a66f4487fd5fbb195865a","3","0","24","29","","",""
"4939","key"," "," ","16.667915254237005","500","250","psychophysics","88","853780","0.0-88.0","5d4613a2da9cb60001aa4948","620a66f4487fd5fbb195865a","3","5","53","50","","",""
"2624","key"," "," ","16.77283333333281","500","250","psychophysics","89","856405","0.0-89.0","5d4613a2da9cb60001aa4948","620a66f4487fd5fbb195865a","3","0","22","24","","",""
"2082","key"," "," ","16.66599999999932","500","250","psychophysics","90","858489","0.0-90.0","5d4613a2da9cb60001aa4948","620a66f4487fd5fbb195865a","3","5","21","21","","",""
"8167","key"," "," ","16.667063394682824","500","250","psychophysics","91","866657","0.0-91.0","5d4613a2da9cb60001aa4948","620a66f4487fd5fbb195865a","3","0","56","60","","",""
"446338","key"," "," ","737.7201752066114","500","250","psychophysics","92","1312997","0.0-92.0","5d4613a2da9cb60001aa4948","620a66f4487fd5fbb195865a","","","","","","",""
"33791","","","n","","","","html-keyboard-response","93","1346789","0.0-93.0","5d4613a2da9cb60001aa4948","620a66f4487fd5fbb195865a","","","","","<p> In this part of the experiment, we are going present digits 1, 2, 3, 4, 6, 7, 8, and 9.  Notice that 5 is missing.  Your job is to say whether the presented digit is less than or greater than 5.  For example, 3 is less than 5 and 7 is greater than 5.  If the digit is less than 5, press the v key; if it is greater than 5, press the n key. We are going to do 200 of these in total, but only 50 righ now. They go real fast.</p>  <br><br>  Ready? (press v or n)","",""
"3744","key","n","n","16.742986547085142","500","250","psychophysics","94","1350537","0.0-94.0","5d4613a2da9cb60001aa4948","620a66f4487fd5fbb195865a","4","","","","","1","9"
"null","","","null","","","","html-keyboard-response","95","1351041","0.0-95.0","5d4613a2da9cb60001aa4948","620a66f4487fd5fbb195865a","","","","","<p style=""color:darkgreen;font-size:24px;"">Correct :)</p>","",""
"2719","key","v","v","16.66599999999976","500","250","psychophysics","96","1353763","0.0-96.0","5d4613a2da9cb60001aa4948","620a66f4487fd5fbb195865a","4","","","","","1","4"
"null","","","null","","","","html-keyboard-response","97","1354266","0.0-97.0","5d4613a2da9cb60001aa4948","620a66f4487fd5fbb195865a","","","","","<p style=""color:darkgreen;font-size:24px;"">Correct :)</p>","",""
"2542","key","v","v","16.66600000000029","500","250","psychophysics","98","1356811","0.0-98.0","5d4613a2da9cb60001aa4948","620a66f4487fd5fbb195865a","4","","","","","1","3"
"null","","","null","","","","html-keyboard-response","99","1357313","0.0-99.0","5d4613a2da9cb60001aa4948","620a66f4487fd5fbb195865a","","","","","<p style=""color:darkgreen;font-size:24px;"">Correct :)</p>","",""
"2489","key","v","v","16.668765100670804","500","250","psychophysics","100","1359805","0.0-100.0","5d4613a2da9cb60001aa4948","620a66f4487fd5fbb195865a","4","","","","","1","3"
"null","","","null","","","","html-keyboard-response","101","1360308","0.0-101.0","5d4613a2da9cb60001aa4948","620a66f4487fd5fbb195865a","","","","","<p style=""color:darkgreen;font-size:24px;"">Correct :)</p>","",""
"2440","key","v","v","16.780937931034714","500","250","psychophysics","102","1362754","0.0-102.0","5d4613a2da9cb60001aa4948","620a66f4487fd5fbb195865a","4","","","","","1","3"
"null","","","null","","","","html-keyboard-response","103","1363258","0.0-103.0","5d4613a2da9cb60001aa4948","620a66f4487fd5fbb195865a","","","","","<p style=""color:darkgreen;font-size:24px;"">Correct :)</p>","",""
"2530","key","n","n","16.6660000000005","500","250","psychophysics","104","1365790","0.0-104.0","5d4613a2da9cb60001aa4948","620a66f4487fd5fbb195865a","4","","","","","1","8"
"null","","","null","","","","html-keyboard-response","105","1366294","0.0-105.0","5d4613a2da9cb60001aa4948","620a66f4487fd5fbb195865a","","","","","<p style=""color:darkgreen;font-size:24px;"">Correct :)</p>","",""
"2533","key","v","v","16.669289473684714","500","250","psychophysics","106","1368829","0.0-106.0","5d4613a2da9cb60001aa4948","620a66f4487fd5fbb195865a","4","","","","","1","2"
"null","","","null","","","","html-keyboard-response","107","1369332","0.0-107.0","5d4613a2da9cb60001aa4948","620a66f4487fd5fbb195865a","","","","","<p style=""color:darkgreen;font-size:24px;"">Correct :)</p>","",""
"2475","key","n","n","16.66599999999959","500","250","psychophysics","108","1371810","0.0-108.0","5d4613a2da9cb60001aa4948","620a66f4487fd5fbb195865a","4","","","","","1","7"
"null","","","null","","","","html-keyboard-response","109","1372314","0.0-109.0","5d4613a2da9cb60001aa4948","620a66f4487fd5fbb195865a","","","","","<p style=""color:darkgreen;font-size:24px;"">Correct :)</p>","",""
"2543","key","n","n","16.66600000000029","500","250","psychophysics","110","1374860","0.0-110.0","5d4613a2da9cb60001aa4948","620a66f4487fd5fbb195865a","4","","","","","1","9"
"null","","","null","","","","html-keyboard-response","111","1375361","0.0-111.0","5d4613a2da9cb60001aa4948","620a66f4487fd5fbb195865a","","","","","<p style=""color:darkgreen;font-size:24px;"">Correct :)</p>","",""
"2596","key","n","n","16.668705128204937","500","250","psychophysics","112","1377960","0.0-112.0","5d4613a2da9cb60001aa4948","620a66f4487fd5fbb195865a","4","","","","","1","8"
"null","","","null","","","","html-keyboard-response","113","1378463","0.0-113.0","5d4613a2da9cb60001aa4948","620a66f4487fd5fbb195865a","","","","","<p style=""color:darkgreen;font-size:24px;"">Correct :)</p>","",""
"2430","key","n","n","16.66600000000023","500","250","psychophysics","114","1380896","0.0-114.0","5d4613a2da9cb60001aa4948","620a66f4487fd5fbb195865a","4","","","","","1","9"
"null","","","null","","","","html-keyboard-response","115","1381400","0.0-115.0","5d4613a2da9cb60001aa4948","620a66f4487fd5fbb195865a","","","","","<p style=""color:darkgreen;font-size:24px;"">Correct :)</p>","",""
"2471","key","n","n","16.66599999999959","500","250","psychophysics","116","1383877","0.0-116.0","5d4613a2da9cb60001aa4948","620a66f4487fd5fbb195865a","4","","","","","1","9"
"null","","","null","","","","html-keyboard-response","117","1384380","0.0-117.0","5d4613a2da9cb60001aa4948","620a66f4487fd5fbb195865a","","","","","<p style=""color:darkgreen;font-size:24px;"">Correct :)</p>","",""
"2631","key","n","n","16.66599999999928","500","250","psychophysics","118","1387014","0.0-118.0","5d4613a2da9cb60001aa4948","620a66f4487fd5fbb195865a","4","","","","","1","6"
"null","","","null","","","","html-keyboard-response","119","1387517","0.0-119.0","5d4613a2da9cb60001aa4948","620a66f4487fd5fbb195865a","","","","","<p style=""color:darkgreen;font-size:24px;"">Correct :)</p>","",""
"2499","key","n","n","16.66959333333342","500","250","psychophysics","120","1390018","0.0-120.0","5d4613a2da9cb60001aa4948","620a66f4487fd5fbb195865a","4","","","","","1","7"
"null","","","null","","","","html-keyboard-response","121","1390520","0.0-121.0","5d4613a2da9cb60001aa4948","620a66f4487fd5fbb195865a","","","","","<p style=""color:darkgreen;font-size:24px;"">Correct :)</p>","",""
"2588","key","v","v","16.665999999999677","500","250","psychophysics","122","1393114","0.0-122.0","5d4613a2da9cb60001aa4948","620a66f4487fd5fbb195865a","4","","","","","1","4"
"null","","","null","","","","html-keyboard-response","123","1393617","0.0-123.0","5d4613a2da9cb60001aa4948","620a66f4487fd5fbb195865a","","","","","<p style=""color:darkgreen;font-size:24px;"">Correct :)</p>","",""
"2485","key","n","n","16.66600000000115","500","250","psychophysics","124","1396104","0.0-124.0","5d4613a2da9cb60001aa4948","620a66f4487fd5fbb195865a","4","","","","","1","8"
"null","","","null","","","","html-keyboard-response","125","1396609","0.0-125.0","5d4613a2da9cb60001aa4948","620a66f4487fd5fbb195865a","","","","","<p style=""color:darkgreen;font-size:24px;"">Correct :)</p>","",""
"2477","key","n","n","16.669472972972546","500","250","psychophysics","126","1399092","0.0-126.0","5d4613a2da9cb60001aa4948","620a66f4487fd5fbb195865a","4","","","","","1","8"
"null","","","null","","","","html-keyboard-response","127","1399594","0.0-127.0","5d4613a2da9cb60001aa4948","620a66f4487fd5fbb195865a","","","","","<p style=""color:darkgreen;font-size:24px;"">Correct :)</p>","",""
"2453","key","n","n","16.66600000000001","500","250","psychophysics","128","1402050","0.0-128.0","5d4613a2da9cb60001aa4948","620a66f4487fd5fbb195865a","4","","","","","1","9"
"null","","","null","","","","html-keyboard-response","129","1402550","0.0-129.0","5d4613a2da9cb60001aa4948","620a66f4487fd5fbb195865a","","","","","<p style=""color:darkgreen;font-size:24px;"">Correct :)</p>","",""
"2625","key","n","n","16.666000000000754","500","250","psychophysics","130","1405177","0.0-130.0","5d4613a2da9cb60001aa4948","620a66f4487fd5fbb195865a","4","","","","","1","8"
"null","","","null","","","","html-keyboard-response","131","1405681","0.0-131.0","5d4613a2da9cb60001aa4948","620a66f4487fd5fbb195865a","","","","","<p style=""color:darkgreen;font-size:24px;"">Correct :)</p>","",""
"2537","key","v","v","16.669361842105374","500","250","psychophysics","132","1408221","0.0-132.0","5d4613a2da9cb60001aa4948","620a66f4487fd5fbb195865a","4","","","","","1","4"
"null","","","null","","","","html-keyboard-response","133","1408725","0.0-133.0","5d4613a2da9cb60001aa4948","620a66f4487fd5fbb195865a","","","","","<p style=""color:darkgreen;font-size:24px;"">Correct :)</p>","",""
"2496","key","n","n","16.66599999999959","500","250","psychophysics","134","1411224","0.0-134.0","5d4613a2da9cb60001aa4948","620a66f4487fd5fbb195865a","4","","","","","1","9"
"null","","","null","","","","html-keyboard-response","135","1411724","0.0-135.0","5d4613a2da9cb60001aa4948","620a66f4487fd5fbb195865a","","","","","<p style=""color:darkgreen;font-size:24px;"">Correct :)</p>","",""
"2531","key","v","v","16.66599999999897","500","250","psychophysics","136","1414261","0.0-136.0","5d4613a2da9cb60001aa4948","620a66f4487fd5fbb195865a","4","","","","","1","4"
"null","","","null","","","","html-keyboard-response","137","1414764","0.0-137.0","5d4613a2da9cb60001aa4948","620a66f4487fd5fbb195865a","","","","","<p style=""color:darkgreen;font-size:24px;"">Correct :)</p>","",""
"2518","key","v","v","16.666000000000714","500","250","psychophysics","138","1417285","0.0-138.0","5d4613a2da9cb60001aa4948","620a66f4487fd5fbb195865a","4","","","","","1","3"
"null","","","null","","","","html-keyboard-response","139","1417788","0.0-139.0","5d4613a2da9cb60001aa4948","620a66f4487fd5fbb195865a","","","","","<p style=""color:darkgreen;font-size:24px;"">Correct :)</p>","",""
"2484","key","n","n","16.669300000000124","500","250","psychophysics","140","1420276","0.0-140.0","5d4613a2da9cb60001aa4948","620a66f4487fd5fbb195865a","4","","","","","1","6"
"null","","","null","","","","html-keyboard-response","141","1420780","0.0-141.0","5d4613a2da9cb60001aa4948","620a66f4487fd5fbb195865a","","","","","<p style=""color:darkgreen;font-size:24px;"">Correct :)</p>","",""
"2539","key","v","v","16.66600000000029","500","250","psychophysics","142","1423325","0.0-142.0","5d4613a2da9cb60001aa4948","620a66f4487fd5fbb195865a","4","","","","","1","3"
"null","","","null","","","","html-keyboard-response","143","1423826","0.0-143.0","5d4613a2da9cb60001aa4948","620a66f4487fd5fbb195865a","","","","","<p style=""color:darkgreen;font-size:24px;"">Correct :)</p>","",""
"2533","key","n","n","16.6660000000005","500","250","psychophysics","144","1426361","0.0-144.0","5d4613a2da9cb60001aa4948","620a66f4487fd5fbb195865a","4","","","","","1","9"
"null","","","null","","","","html-keyboard-response","145","1426865","0.0-145.0","5d4613a2da9cb60001aa4948","620a66f4487fd5fbb195865a","","","","","<p style=""color:darkgreen;font-size:24px;"">Correct :)</p>","",""
"2644","key","v","v","16.66886163521968","500","250","psychophysics","146","1429511","0.0-146.0","5d4613a2da9cb60001aa4948","620a66f4487fd5fbb195865a","4","","","","","1","4"
"null","","","null","","","","html-keyboard-response","147","1430015","0.0-147.0","5d4613a2da9cb60001aa4948","620a66f4487fd5fbb195865a","","","","","<p style=""color:darkgreen;font-size:24px;"">Correct :)</p>","",""
"2547","key","v","v","16.66600000000029","500","250","psychophysics","148","1432564","0.0-148.0","5d4613a2da9cb60001aa4948","620a66f4487fd5fbb195865a","4","","","","","1","4"
"null","","","null","","","","html-keyboard-response","149","1433068","0.0-149.0","5d4613a2da9cb60001aa4948","620a66f4487fd5fbb195865a","","","","","<p style=""color:darkgreen;font-size:24px;"">Correct :)</p>","",""
"2586","key","v","v","16.66599999999988","500","250","psychophysics","150","1435656","0.0-150.0","5d4613a2da9cb60001aa4948","620a66f4487fd5fbb195865a","4","","","","","1","2"
"null","","","null","","","","html-keyboard-response","151","1436159","0.0-151.0","5d4613a2da9cb60001aa4948","620a66f4487fd5fbb195865a","","","","","<p style=""color:darkgreen;font-size:24px;"">Correct :)</p>","",""
"2529","key","v","v","16.669552631579695","500","250","psychophysics","152","1438694","0.0-152.0","5d4613a2da9cb60001aa4948","620a66f4487fd5fbb195865a","4","","","","","1","1"
"null","","","null","","","","html-keyboard-response","153","1439198","0.0-153.0","5d4613a2da9cb60001aa4948","620a66f4487fd5fbb195865a","","","","","<p style=""color:darkgreen;font-size:24px;"">Correct :)</p>","",""
"2494","key","n","n","16.66599999999938","500","250","psychophysics","154","1441695","0.0-154.0","5d4613a2da9cb60001aa4948","620a66f4487fd5fbb195865a","4","","","","","1","9"
"null","","","null","","","","html-keyboard-response","155","1442200","0.0-155.0","5d4613a2da9cb60001aa4948","620a66f4487fd5fbb195865a","","","","","<p style=""color:darkgreen;font-size:24px;"">Correct :)</p>","",""
"2488","key","n","n","16.66600000000115","500","250","psychophysics","156","1444690","0.0-156.0","5d4613a2da9cb60001aa4948","620a66f4487fd5fbb195865a","4","","","","","1","9"
"null","","","null","","","","html-keyboard-response","157","1445192","0.0-157.0","5d4613a2da9cb60001aa4948","620a66f4487fd5fbb195865a","","","","","<p style=""color:darkgreen;font-size:24px;"">Correct :)</p>","",""
"2510","key","n","n","16.66599999999938","500","250","psychophysics","158","1447705","0.0-158.0","5d4613a2da9cb60001aa4948","620a66f4487fd5fbb195865a","4","","","","","1","9"
"null","","","null","","","","html-keyboard-response","159","1448209","0.0-159.0","5d4613a2da9cb60001aa4948","620a66f4487fd5fbb195865a","","","","","<p style=""color:darkgreen;font-size:24px;"">Correct :)</p>","",""
"2525","key","v","v","16.669192052981355","500","250","psychophysics","160","1450737","0.0-160.0","5d4613a2da9cb60001aa4948","620a66f4487fd5fbb195865a","4","","","","","1","4"
"null","","","null","","","","html-keyboard-response","161","1451239","0.0-161.0","5d4613a2da9cb60001aa4948","620a66f4487fd5fbb195865a","","","","","<p style=""color:darkgreen;font-size:24px;"">Correct :)</p>","",""
"2520","key","v","v","16.66599999999897","500","250","psychophysics","162","1453762","0.0-162.0","5d4613a2da9cb60001aa4948","620a66f4487fd5fbb195865a","4","","","","","1","1"
"null","","","null","","","","html-keyboard-response","163","1454262","0.0-163.0","5d4613a2da9cb60001aa4948","620a66f4487fd5fbb195865a","","","","","<p style=""color:darkgreen;font-size:24px;"">Correct :)</p>","",""
"2525","key","n","n","16.666000000000714","500","250","psychophysics","164","1456790","0.0-164.0","5d4613a2da9cb60001aa4948","620a66f4487fd5fbb195865a","4","","","","","1","6"
"null","","","null","","","","html-keyboard-response","165","1457292","0.0-165.0","5d4613a2da9cb60001aa4948","620a66f4487fd5fbb195865a","","","","","<p style=""color:darkgreen;font-size:24px;"">Correct :)</p>","",""
"2530","key","v","v","16.669394736843014","500","250","psychophysics","166","1459825","0.0-166.0","5d4613a2da9cb60001aa4948","620a66f4487fd5fbb195865a","4","","","","","1","2"
"null","","","null","","","","html-keyboard-response","167","1460327","0.0-167.0","5d4613a2da9cb60001aa4948","620a66f4487fd5fbb195865a","","","","","<p style=""color:darkgreen;font-size:24px;"">Correct :)</p>","",""
"2511","key","v","v","16.665999999999173","500","250","psychophysics","168","1462844","0.0-168.0","5d4613a2da9cb60001aa4948","620a66f4487fd5fbb195865a","4","","","","","1","2"
"null","","","null","","","","html-keyboard-response","169","1463347","0.0-169.0","5d4613a2da9cb60001aa4948","620a66f4487fd5fbb195865a","","","","","<p style=""color:darkgreen;font-size:24px;"">Correct :)</p>","",""
"2549","key","n","n","16.66600000000029","500","250","psychophysics","170","1465899","0.0-170.0","5d4613a2da9cb60001aa4948","620a66f4487fd5fbb195865a","4","","","","","1","7"
"null","","","null","","","","html-keyboard-response","171","1466402","0.0-171.0","5d4613a2da9cb60001aa4948","620a66f4487fd5fbb195865a","","","","","<p style=""color:darkgreen;font-size:24px;"">Correct :)</p>","",""
"2478","key","n","n","16.669261744966256","500","250","psychophysics","172","1468882","0.0-172.0","5d4613a2da9cb60001aa4948","620a66f4487fd5fbb195865a","4","","","","","1","7"
"null","","","null","","","","html-keyboard-response","173","1469386","0.0-173.0","5d4613a2da9cb60001aa4948","620a66f4487fd5fbb195865a","","","","","<p style=""color:darkgreen;font-size:24px;"">Correct :)</p>","",""
"2475","key","n","n","16.66600000000115","500","250","psychophysics","174","1471864","0.0-174.0","5d4613a2da9cb60001aa4948","620a66f4487fd5fbb195865a","4","","","","","1","8"
"null","","","null","","","","html-keyboard-response","175","1472365","0.0-175.0","5d4613a2da9cb60001aa4948","620a66f4487fd5fbb195865a","","","","","<p style=""color:darkgreen;font-size:24px;"">Correct :)</p>","",""
"2454","key","n","n","16.66600000000001","500","250","psychophysics","176","1474824","0.0-176.0","5d4613a2da9cb60001aa4948","620a66f4487fd5fbb195865a","4","","","","","1","6"
"null","","","null","","","","html-keyboard-response","177","1475328","0.0-177.0","5d4613a2da9cb60001aa4948","620a66f4487fd5fbb195865a","","","","","<p style=""color:darkgreen;font-size:24px;"">Correct :)</p>","",""
"2631","key","v","v","16.66599999999928","500","250","psychophysics","178","1477961","0.0-178.0","5d4613a2da9cb60001aa4948","620a66f4487fd5fbb195865a","4","","","","","1","4"
"null","","","null","","","","html-keyboard-response","179","1478465","0.0-179.0","5d4613a2da9cb60001aa4948","620a66f4487fd5fbb195865a","","","","","<p style=""color:darkgreen;font-size:24px;"">Correct :)</p>","",""
"2560","key","n","n","16.66883116883117","500","250","psychophysics","180","1481028","0.0-180.0","5d4613a2da9cb60001aa4948","620a66f4487fd5fbb195865a","4","","","","","1","6"
"null","","","null","","","","html-keyboard-response","181","1481532","0.0-181.0","5d4613a2da9cb60001aa4948","620a66f4487fd5fbb195865a","","","","","<p style=""color:darkgreen;font-size:24px;"">Correct :)</p>","",""
"2514","key","n","n","16.665999999999173","500","250","psychophysics","182","1484049","0.0-182.0","5d4613a2da9cb60001aa4948","620a66f4487fd5fbb195865a","4","","","","","1","9"
"null","","","null","","","","html-keyboard-response","183","1484551","0.0-183.0","5d4613a2da9cb60001aa4948","620a66f4487fd5fbb195865a","","","","","<p style=""color:darkgreen;font-size:24px;"">Correct :)</p>","",""
"2627","key","n","n","16.666000000000754","500","250","psychophysics","184","1487180","0.0-184.0","5d4613a2da9cb60001aa4948","620a66f4487fd5fbb195865a","4","","","","","1","9"
"null","","","null","","","","html-keyboard-response","185","1487685","0.0-185.0","5d4613a2da9cb60001aa4948","620a66f4487fd5fbb195865a","","","","","<p style=""color:darkgreen;font-size:24px;"">Correct :)</p>","",""
"2450","key","n","n","16.669210884352626","500","250","psychophysics","186","1490138","0.0-186.0","5d4613a2da9cb60001aa4948","620a66f4487fd5fbb195865a","4","","","","","1","7"
"null","","","null","","","","html-keyboard-response","187","1490643","0.0-187.0","5d4613a2da9cb60001aa4948","620a66f4487fd5fbb195865a","","","","","<p style=""color:darkgreen;font-size:24px;"">Correct :)</p>","",""
"2484","key","n","n","16.66599999999959","500","250","psychophysics","188","1493130","0.0-188.0","5d4613a2da9cb60001aa4948","620a66f4487fd5fbb195865a","4","","","","","1","9"
"null","","","null","","","","html-keyboard-response","189","1493635","0.0-189.0","5d4613a2da9cb60001aa4948","620a66f4487fd5fbb195865a","","","","","<p style=""color:darkgreen;font-size:24px;"">Correct :)</p>","",""
"2503","key","n","n","16.66599999999938","500","250","psychophysics","190","1496140","0.0-190.0","5d4613a2da9cb60001aa4948","620a66f4487fd5fbb195865a","4","","","","","1","9"
"null","","","null","","","","html-keyboard-response","191","1496644","0.0-191.0","5d4613a2da9cb60001aa4948","620a66f4487fd5fbb195865a","","","","","<p style=""color:darkgreen;font-size:24px;"">Correct :)</p>","",""
"2535","key","v","v","16.780344370860508","500","250","psychophysics","192","1499181","0.0-192.0","5d4613a2da9cb60001aa4948","620a66f4487fd5fbb195865a","4","","","","","1","3"
"null","","","null","","","","html-keyboard-response","193","1499683","0.0-193.0","5d4613a2da9cb60001aa4948","620a66f4487fd5fbb195865a","","","","","<p style=""color:darkgreen;font-size:24px;"">Correct :)</p>","",""
"216865","","","v","","","","html-keyboard-response","194","1716572","0.0-194.0","5d4613a2da9cb60001aa4948","620a66f4487fd5fbb195865a","","","","","<p> Ok, now we are going present the same digits as before.  Your job is to say whether the digit is even or odd  If the digit is odd, press to v key; if it is even, press the n key. We are going to do 50 of these.  </p>  <br><br>  Ready? (press v or n)","",""
"2549","key","n","n","16.66805228758208","500","250","psychophysics","195","1719124","0.0-195.0","5d4613a2da9cb60001aa4948","620a66f4487fd5fbb195865a","5","","","","","0","9"
"null","","","null","","","","html-keyboard-response","196","1719626","0.0-196.0","5d4613a2da9cb60001aa4948","620a66f4487fd5fbb195865a","","","","","<p style=""color:red;font-size:24px;"">Error :(</p>","",""
"2697","key","v","v","16.665999999999954","500","250","psychophysics","197","1722330","0.0-197.0","5d4613a2da9cb60001aa4948","620a66f4487fd5fbb195865a","5","","","","","0","9"
"null","","","null","","","","html-keyboard-response","198","1722834","0.0-198.0","5d4613a2da9cb60001aa4948","620a66f4487fd5fbb195865a","","","","","<p style=""color:darkgreen;font-size:24px;"">Correct :)</p>","",""
"2831","key","n","n","16.669526627218385","500","250","psychophysics","199","1725670","0.0-199.0","5d4613a2da9cb60001aa4948","620a66f4487fd5fbb195865a","5","","","","","0","6"
"null","","","null","","","","html-keyboard-response","200","1726173","0.0-200.0","5d4613a2da9cb60001aa4948","620a66f4487fd5fbb195865a","","","","","<p style=""color:darkgreen;font-size:24px;"">Correct :)</p>","",""
"2788","key","v","v","16.665999999999006","500","250","psychophysics","201","1728964","0.0-201.0","5d4613a2da9cb60001aa4948","620a66f4487fd5fbb195865a","5","","","","","0","7"
"null","","","null","","","","html-keyboard-response","202","1729467","0.0-202.0","5d4613a2da9cb60001aa4948","620a66f4487fd5fbb195865a","","","","","<p style=""color:darkgreen;font-size:24px;"">Correct :)</p>","",""
"2587","key","v","v","16.66600000000117","500","250","psychophysics","203","1732057","0.0-203.0","5d4613a2da9cb60001aa4948","620a66f4487fd5fbb195865a","5","","","","","0","1"
"null","","","null","","","","html-keyboard-response","204","1732560","0.0-204.0","5d4613a2da9cb60001aa4948","620a66f4487fd5fbb195865a","","","","","<p style=""color:darkgreen;font-size:24px;"">Correct :)</p>","",""
"2547","key","n","n","16.6692222222211","500","250","psychophysics","205","1735110","0.0-205.0","5d4613a2da9cb60001aa4948","620a66f4487fd5fbb195865a","5","","","","","0","6"
"null","","","null","","","","html-keyboard-response","206","1735615","0.0-206.0","5d4613a2da9cb60001aa4948","620a66f4487fd5fbb195865a","","","","","<p style=""color:darkgreen;font-size:24px;"">Correct :)</p>","",""
"2906","key","v","v","16.665999999998935","500","250","psychophysics","207","1738524","0.0-207.0","5d4613a2da9cb60001aa4948","620a66f4487fd5fbb195865a","5","","","","","0","9"
"null","","","null","","","","html-keyboard-response","208","1739029","0.0-208.0","5d4613a2da9cb60001aa4948","620a66f4487fd5fbb195865a","","","","","<p style=""color:darkgreen;font-size:24px;"">Correct :)</p>","",""
"2692","key","n","n","16.66600000000015","500","250","psychophysics","209","1741724","0.0-209.0","5d4613a2da9cb60001aa4948","620a66f4487fd5fbb195865a","5","","","","","0","6"
"null","","","null","","","","html-keyboard-response","210","1742229","0.0-210.0","5d4613a2da9cb60001aa4948","620a66f4487fd5fbb195865a","","","","","<p style=""color:darkgreen;font-size:24px;"">Correct :)</p>","",""
"2701","key","v","v","16.66911728394988","500","250","psychophysics","211","1744934","0.0-211.0","5d4613a2da9cb60001aa4948","620a66f4487fd5fbb195865a","5","","","","","0","1"
"null","","","null","","","","html-keyboard-response","212","1745435","0.0-212.0","5d4613a2da9cb60001aa4948","620a66f4487fd5fbb195865a","","","","","<p style=""color:darkgreen;font-size:24px;"">Correct :)</p>","",""
"2595","key","n","n","16.665999999999677","500","250","psychophysics","213","1748036","0.0-213.0","5d4613a2da9cb60001aa4948","620a66f4487fd5fbb195865a","5","","","","","0","6"
"null","","","null","","","","html-keyboard-response","214","1748539","0.0-214.0","5d4613a2da9cb60001aa4948","620a66f4487fd5fbb195865a","","","","","<p style=""color:darkgreen;font-size:24px;"">Correct :)</p>","",""
"2627","key","n","n","16.666000000000754","500","250","psychophysics","215","1751170","0.0-215.0","5d4613a2da9cb60001aa4948","620a66f4487fd5fbb195865a","5","","","","","0","8"
"null","","","null","","","","html-keyboard-response","216","1751675","0.0-216.0","5d4613a2da9cb60001aa4948","620a66f4487fd5fbb195865a","","","","","<p style=""color:darkgreen;font-size:24px;"">Correct :)</p>","",""
"2669","key","n","n","16.66600000000035","500","250","psychophysics","217","1754346","0.0-217.0","5d4613a2da9cb60001aa4948","620a66f4487fd5fbb195865a","5","","","","","0","6"
"null","","","null","","","","html-keyboard-response","218","1754849","0.0-218.0","5d4613a2da9cb60001aa4948","620a66f4487fd5fbb195865a","","","","","<p style=""color:darkgreen;font-size:24px;"">Correct :)</p>","",""
"2756","key","n","n","16.66895151515209","500","250","psychophysics","219","1757608","0.0-219.0","5d4613a2da9cb60001aa4948","620a66f4487fd5fbb195865a","5","","","","","0","4"
"null","","","null","","","","html-keyboard-response","220","1758112","0.0-220.0","5d4613a2da9cb60001aa4948","620a66f4487fd5fbb195865a","","","","","<p style=""color:darkgreen;font-size:24px;"">Correct :)</p>","",""
"2635","key","n","n","16.66599999999928","500","250","psychophysics","221","1760750","0.0-221.0","5d4613a2da9cb60001aa4948","620a66f4487fd5fbb195865a","5","","","","","0","6"
"null","","","null","","","","html-keyboard-response","222","1761253","0.0-222.0","5d4613a2da9cb60001aa4948","620a66f4487fd5fbb195865a","","","","","<p style=""color:darkgreen;font-size:24px;"">Correct :)</p>","",""
"2653","key","v","v","16.66600000000055","500","250","psychophysics","223","1763908","0.0-223.0","5d4613a2da9cb60001aa4948","620a66f4487fd5fbb195865a","5","","","","","0","7"
"null","","","null","","","","html-keyboard-response","224","1764413","0.0-224.0","5d4613a2da9cb60001aa4948","620a66f4487fd5fbb195865a","","","","","<p style=""color:darkgreen;font-size:24px;"">Correct :)</p>","",""
"2614","key","n","n","16.66857324840774","500","250","psychophysics","225","1767030","0.0-225.0","5d4613a2da9cb60001aa4948","620a66f4487fd5fbb195865a","5","","","","","0","6"
"null","","","null","","","","html-keyboard-response","226","1767532","0.0-226.0","5d4613a2da9cb60001aa4948","620a66f4487fd5fbb195865a","","","","","<p style=""color:darkgreen;font-size:24px;"">Correct :)</p>","",""
"2545","key","n","n","16.66600000000029","500","250","psychophysics","227","1770080","0.0-227.0","5d4613a2da9cb60001aa4948","620a66f4487fd5fbb195865a","5","","","","","0","6"
"null","","","null","","","","html-keyboard-response","228","1770583","0.0-228.0","5d4613a2da9cb60001aa4948","620a66f4487fd5fbb195865a","","","","","<p style=""color:darkgreen;font-size:24px;"">Correct :)</p>","",""
"2590","key","n","n","16.66599999999988","500","250","psychophysics","229","1773175","0.0-229.0","5d4613a2da9cb60001aa4948","620a66f4487fd5fbb195865a","5","","","","","0","8"
"null","","","null","","","","html-keyboard-response","230","1773678","0.0-230.0","5d4613a2da9cb60001aa4948","620a66f4487fd5fbb195865a","","","","","<p style=""color:darkgreen;font-size:24px;"">Correct :)</p>","",""
"2660","key","v","v","16.669761006289846","500","250","psychophysics","231","1776340","0.0-231.0","5d4613a2da9cb60001aa4948","620a66f4487fd5fbb195865a","5","","","","","0","3"
"null","","","null","","","","html-keyboard-response","232","1776844","0.0-232.0","5d4613a2da9cb60001aa4948","620a66f4487fd5fbb195865a","","","","","<p style=""color:darkgreen;font-size:24px;"">Correct :)</p>","",""
"2701","key","v","v","16.665999999999954","500","250","psychophysics","233","1779548","0.0-233.0","5d4613a2da9cb60001aa4948","620a66f4487fd5fbb195865a","5","","","","","0","7"
"null","","","null","","","","html-keyboard-response","234","1780050","0.0-234.0","5d4613a2da9cb60001aa4948","620a66f4487fd5fbb195865a","","","","","<p style=""color:darkgreen;font-size:24px;"">Correct :)</p>","",""
"2772","key","n","n","16.666000000000594","500","250","psychophysics","235","1782824","0.0-235.0","5d4613a2da9cb60001aa4948","620a66f4487fd5fbb195865a","5","","","","","0","4"
"null","","","null","","","","html-keyboard-response","236","1783328","0.0-236.0","5d4613a2da9cb60001aa4948","620a66f4487fd5fbb195865a","","","","","<p style=""color:darkgreen;font-size:24px;"">Correct :)</p>","",""
"2640","key","v","v","16.669113924050457","500","250","psychophysics","237","1785975","0.0-237.0","5d4613a2da9cb60001aa4948","620a66f4487fd5fbb195865a","5","","","","","0","9"
"null","","","null","","","","html-keyboard-response","238","1786478","0.0-238.0","5d4613a2da9cb60001aa4948","620a66f4487fd5fbb195865a","","","","","<p style=""color:darkgreen;font-size:24px;"">Correct :)</p>","",""
"2562","key","n","n","16.66600000000029","500","250","psychophysics","239","1789043","0.0-239.0","5d4613a2da9cb60001aa4948","620a66f4487fd5fbb195865a","5","","","","","0","6"
"null","","","null","","","","html-keyboard-response","240","1789544","0.0-240.0","5d4613a2da9cb60001aa4948","620a66f4487fd5fbb195865a","","","","","<p style=""color:darkgreen;font-size:24px;"">Correct :)</p>","",""
"2579","key","v","v","16.665999999998572","500","250","psychophysics","241","1792126","0.0-241.0","5d4613a2da9cb60001aa4948","620a66f4487fd5fbb195865a","5","","","","","0","3"
"null","","","null","","","","html-keyboard-response","242","1792630","0.0-242.0","5d4613a2da9cb60001aa4948","620a66f4487fd5fbb195865a","","","","","<p style=""color:darkgreen;font-size:24px;"">Correct :)</p>","",""
"2673","key","v","v","16.669069182389833","500","250","psychophysics","243","1795306","0.0-243.0","5d4613a2da9cb60001aa4948","620a66f4487fd5fbb195865a","5","","","","","0","3"
"null","","","null","","","","html-keyboard-response","244","1795810","0.0-244.0","5d4613a2da9cb60001aa4948","620a66f4487fd5fbb195865a","","","","","<p style=""color:darkgreen;font-size:24px;"">Correct :)</p>","",""
"2801","key","n","n","16.66600000000021","500","250","psychophysics","245","1798614","0.0-245.0","5d4613a2da9cb60001aa4948","620a66f4487fd5fbb195865a","5","","","","","0","2"
"null","","","null","","","","html-keyboard-response","246","1799116","0.0-246.0","5d4613a2da9cb60001aa4948","620a66f4487fd5fbb195865a","","","","","<p style=""color:darkgreen;font-size:24px;"">Correct :)</p>","",""
"2645","key","v","v","16.66600000000055","500","250","psychophysics","247","1801763","0.0-247.0","5d4613a2da9cb60001aa4948","620a66f4487fd5fbb195865a","5","","","","","0","1"
"null","","","null","","","","html-keyboard-response","248","1802267","0.0-248.0","5d4613a2da9cb60001aa4948","620a66f4487fd5fbb195865a","","","","","<p style=""color:darkgreen;font-size:24px;"">Correct :)</p>","",""
"2575","key","n","n","16.66599999999988","500","250","psychophysics","249","1804848","0.0-249.0","5d4613a2da9cb60001aa4948","620a66f4487fd5fbb195865a","5","","","","","0","6"
"null","","","null","","","","html-keyboard-response","250","1805352","0.0-250.0","5d4613a2da9cb60001aa4948","620a66f4487fd5fbb195865a","","","","","<p style=""color:darkgreen;font-size:24px;"">Correct :)</p>","",""
"2600","key","n","n","16.66890384615339","500","250","psychophysics","251","1807954","0.0-251.0","5d4613a2da9cb60001aa4948","620a66f4487fd5fbb195865a","5","","","","","0","6"
"null","","","null","","","","html-keyboard-response","252","1808456","0.0-252.0","5d4613a2da9cb60001aa4948","620a66f4487fd5fbb195865a","","","","","<p style=""color:darkgreen;font-size:24px;"">Correct :)</p>","",""
"2721","key","n","n","16.666000000000988","500","250","psychophysics","253","1811180","0.0-253.0","5d4613a2da9cb60001aa4948","620a66f4487fd5fbb195865a","5","","","","","0","4"
"null","","","null","","","","html-keyboard-response","254","1811682","0.0-254.0","5d4613a2da9cb60001aa4948","620a66f4487fd5fbb195865a","","","","","<p style=""color:darkgreen;font-size:24px;"">Correct :)</p>","",""
"2550","key","v","v","16.66599999999877","500","250","psychophysics","255","1814235","0.0-255.0","5d4613a2da9cb60001aa4948","620a66f4487fd5fbb195865a","5","","","","","0","1"
"null","","","null","","","","html-keyboard-response","256","1814738","0.0-256.0","5d4613a2da9cb60001aa4948","620a66f4487fd5fbb195865a","","","","","<p style=""color:darkgreen;font-size:24px;"">Correct :)</p>","",""
"2524","key","n","n","16.669546052631247","500","250","psychophysics","257","1817265","0.0-257.0","5d4613a2da9cb60001aa4948","620a66f4487fd5fbb195865a","5","","","","","0","4"
"null","","","null","","","","html-keyboard-response","258","1817768","0.0-258.0","5d4613a2da9cb60001aa4948","620a66f4487fd5fbb195865a","","","","","<p style=""color:darkgreen;font-size:24px;"">Correct :)</p>","",""
"2661","key","v","v","16.66600000000035","500","250","psychophysics","259","1820434","0.0-259.0","5d4613a2da9cb60001aa4948","620a66f4487fd5fbb195865a","5","","","","","0","3"
"null","","","null","","","","html-keyboard-response","260","1820935","0.0-260.0","5d4613a2da9cb60001aa4948","620a66f4487fd5fbb195865a","","","","","<p style=""color:darkgreen;font-size:24px;"">Correct :)</p>","",""
"2559","key","v","v","16.666000000000086","500","250","psychophysics","261","1823498","0.0-261.0","5d4613a2da9cb60001aa4948","620a66f4487fd5fbb195865a","5","","","","","0","1"
"null","","","null","","","","html-keyboard-response","262","1824003","0.0-262.0","5d4613a2da9cb60001aa4948","620a66f4487fd5fbb195865a","","","","","<p style=""color:darkgreen;font-size:24px;"">Correct :)</p>","",""
"2526","key","n","n","16.66920394736869","500","250","psychophysics","263","1826531","0.0-263.0","5d4613a2da9cb60001aa4948","620a66f4487fd5fbb195865a","5","","","","","0","6"
"null","","","null","","","","html-keyboard-response","264","1827035","0.0-264.0","5d4613a2da9cb60001aa4948","620a66f4487fd5fbb195865a","","","","","<p style=""color:darkgreen;font-size:24px;"">Correct :)</p>","",""
"3083","key","v","v","16.665999999999798","500","250","psychophysics","265","1830121","0.0-265.0","5d4613a2da9cb60001aa4948","620a66f4487fd5fbb195865a","5","","","","","0","3"
"null","","","null","","","","html-keyboard-response","266","1830624","0.0-266.0","5d4613a2da9cb60001aa4948","620a66f4487fd5fbb195865a","","","","","<p style=""color:darkgreen;font-size:24px;"">Correct :)</p>","",""
"2588","key","n","n","16.665999999999677","500","250","psychophysics","267","1833215","0.0-267.0","5d4613a2da9cb60001aa4948","620a66f4487fd5fbb195865a","5","","","","","0","8"
"null","","","null","","","","html-keyboard-response","268","1833720","0.0-268.0","5d4613a2da9cb60001aa4948","620a66f4487fd5fbb195865a","","","","","<p style=""color:darkgreen;font-size:24px;"">Correct :)</p>","",""
"2542","key","v","v","16.669045751634375","500","250","psychophysics","269","1836265","0.0-269.0","5d4613a2da9cb60001aa4948","620a66f4487fd5fbb195865a","5","","","","","0","1"
"null","","","null","","","","html-keyboard-response","270","1836766","0.0-270.0","5d4613a2da9cb60001aa4948","620a66f4487fd5fbb195865a","","","","","<p style=""color:darkgreen;font-size:24px;"">Correct :)</p>","",""
"2693","key","n","n","16.665999999999954","500","250","psychophysics","271","1839465","0.0-271.0","5d4613a2da9cb60001aa4948","620a66f4487fd5fbb195865a","5","","","","","0","4"
"null","","","null","","","","html-keyboard-response","272","1839968","0.0-272.0","5d4613a2da9cb60001aa4948","620a66f4487fd5fbb195865a","","","","","<p style=""color:darkgreen;font-size:24px;"">Correct :)</p>","",""
"2598","key","n","n","16.665999999999677","500","250","psychophysics","273","1842569","0.0-273.0","5d4613a2da9cb60001aa4948","620a66f4487fd5fbb195865a","5","","","","","0","7"
"null","","","null","","","","html-keyboard-response","274","1843073","0.0-274.0","5d4613a2da9cb60001aa4948","620a66f4487fd5fbb195865a","","","","","<p style=""color:red;font-size:24px;"">Error :(</p>","",""
"2789","key","v","v","16.768922155689516","500","250","psychophysics","275","1845864","0.0-275.0","5d4613a2da9cb60001aa4948","620a66f4487fd5fbb195865a","5","","","","","0","9"
"null","","","null","","","","html-keyboard-response","276","1846366","0.0-276.0","5d4613a2da9cb60001aa4948","620a66f4487fd5fbb195865a","","","","","<p style=""color:darkgreen;font-size:24px;"">Correct :)</p>","",""
"2768","key","v","v","16.66599999999919","500","250","psychophysics","277","1849136","0.0-277.0","5d4613a2da9cb60001aa4948","620a66f4487fd5fbb195865a","5","","","","","0","9"
"null","","","null","","","","html-keyboard-response","278","1849640","0.0-278.0","5d4613a2da9cb60001aa4948","620a66f4487fd5fbb195865a","","","","","<p style=""color:darkgreen;font-size:24px;"">Correct :)</p>","",""
"2780","key","n","n","16.666000000000402","500","250","psychophysics","279","1852423","0.0-279.0","5d4613a2da9cb60001aa4948","620a66f4487fd5fbb195865a","5","","","","","0","6"
"null","","","null","","","","html-keyboard-response","280","1852927","0.0-280.0","5d4613a2da9cb60001aa4948","620a66f4487fd5fbb195865a","","","","","<p style=""color:darkgreen;font-size:24px;"">Correct :)</p>","",""
"2639","key","n","n","16.66841139240615","500","250","psychophysics","281","1855569","0.0-281.0","5d4613a2da9cb60001aa4948","620a66f4487fd5fbb195865a","5","","","","","0","4"
"null","","","null","","","","html-keyboard-response","282","1856072","0.0-282.0","5d4613a2da9cb60001aa4948","620a66f4487fd5fbb195865a","","","","","<p style=""color:darkgreen;font-size:24px;"">Correct :)</p>","",""
"2586","key","n","n","16.665999999999677","500","250","psychophysics","283","1858665","0.0-283.0","5d4613a2da9cb60001aa4948","620a66f4487fd5fbb195865a","5","","","","","0","6"
"null","","","null","","","","html-keyboard-response","284","1859169","0.0-284.0","5d4613a2da9cb60001aa4948","620a66f4487fd5fbb195865a","","","","","<p style=""color:darkgreen;font-size:24px;"">Correct :)</p>","",""
"2521","key","n","n","16.666000000000714","500","250","psychophysics","285","1861691","0.0-285.0","5d4613a2da9cb60001aa4948","620a66f4487fd5fbb195865a","5","","","","","0","6"
"null","","","null","","","","html-keyboard-response","286","1862195","0.0-286.0","5d4613a2da9cb60001aa4948","620a66f4487fd5fbb195865a","","","","","<p style=""color:darkgreen;font-size:24px;"">Correct :)</p>","",""
"2724","key","n","n","16.66599999999976","500","250","psychophysics","287","1864921","0.0-287.0","5d4613a2da9cb60001aa4948","620a66f4487fd5fbb195865a","5","","","","","0","2"
"null","","","null","","","","html-keyboard-response","288","1865426","0.0-288.0","5d4613a2da9cb60001aa4948","620a66f4487fd5fbb195865a","","","","","<p style=""color:darkgreen;font-size:24px;"">Correct :)</p>","",""
"2528","key","n","n","16.670000000000552","500","250","psychophysics","289","1867957","0.0-289.0","5d4613a2da9cb60001aa4948","620a66f4487fd5fbb195865a","5","","","","","0","2"
"null","","","null","","","","html-keyboard-response","290","1868462","0.0-290.0","5d4613a2da9cb60001aa4948","620a66f4487fd5fbb195865a","","","","","<p style=""color:darkgreen;font-size:24px;"">Correct :)</p>","",""
"2502","key","n","n","16.66599999999938","500","250","psychophysics","291","1870966","0.0-291.0","5d4613a2da9cb60001aa4948","620a66f4487fd5fbb195865a","5","","","","","0","8"
"null","","","null","","","","html-keyboard-response","292","1871471","0.0-292.0","5d4613a2da9cb60001aa4948","620a66f4487fd5fbb195865a","","","","","<p style=""color:darkgreen;font-size:24px;"">Correct :)</p>","",""
"2583","key","v","v","16.66599999999988","500","250","psychophysics","293","1874059","0.0-293.0","5d4613a2da9cb60001aa4948","620a66f4487fd5fbb195865a","5","","","","","0","1"
"null","","","null","","","","html-keyboard-response","294","1874563","0.0-294.0","5d4613a2da9cb60001aa4948","620a66f4487fd5fbb195865a","","","","","<p style=""color:darkgreen;font-size:24px;"">Correct :)</p>","",""
"19865","","","v","","","","html-keyboard-response","295","1894430","0.0-295.0","5d4613a2da9cb60001aa4948","620a66f4487fd5fbb195865a","","","","","<p> Here, the tasks are going to switch.  For some trials, your job is to decide if the digit is less than or greater than 5.  For others, it is to decide if the digit is even or odd.  You will be told which type of trial the current one is.  But, pay attention, the type of trial changes too.  We are going to do 50 of these.  </p>  <br><br>  Ready? (press v or n)","",""
"2796","key","n","n","16.668928143711938","500","250","psychophysics","296","1897228","0.0-296.0","5d4613a2da9cb60001aa4948","620a66f4487fd5fbb195865a","6","","","","","0","4"
"null","","","null","","","","html-keyboard-response","297","1897731","0.0-297.0","5d4613a2da9cb60001aa4948","620a66f4487fd5fbb195865a","","","","","<p style=""color:darkgreen;font-size:24px;"">Correct :)</p>","",""
"2709","key","v","v","16.665999999999954","500","250","psychophysics","298","1900443","0.0-298.0","5d4613a2da9cb60001aa4948","620a66f4487fd5fbb195865a","6","","","","","0","7"
"null","","","null","","","","html-keyboard-response","299","1900947","0.0-299.0","5d4613a2da9cb60001aa4948","620a66f4487fd5fbb195865a","","","","","<p style=""color:darkgreen;font-size:24px;"">Correct :)</p>","",""
"2670","key","n","n","16.665999999998895","500","250","psychophysics","300","1903620","0.0-300.0","5d4613a2da9cb60001aa4948","620a66f4487fd5fbb195865a","6","","","","","0","2"
"null","","","null","","","","html-keyboard-response","301","1904124","0.0-301.0","5d4613a2da9cb60001aa4948","620a66f4487fd5fbb195865a","","","","","<p style=""color:darkgreen;font-size:24px;"">Correct :)</p>","",""
"2717","key","n","n","16.771641975308963","500","250","psychophysics","302","1906844","0.0-302.0","5d4613a2da9cb60001aa4948","620a66f4487fd5fbb195865a","6","","","","","0","2"
"null","","","null","","","","html-keyboard-response","303","1907347","0.0-303.0","5d4613a2da9cb60001aa4948","620a66f4487fd5fbb195865a","","","","","<p style=""color:darkgreen;font-size:24px;"">Correct :)</p>","",""
"2466","key","n","n","16.665999999999798","500","250","psychophysics","304","1909816","0.0-304.0","5d4613a2da9cb60001aa4948","620a66f4487fd5fbb195865a","6","","","","","0","8"
"null","","","null","","","","html-keyboard-response","305","1910320","0.0-305.0","5d4613a2da9cb60001aa4948","620a66f4487fd5fbb195865a","","","","","<p style=""color:darkgreen;font-size:24px;"">Correct :)</p>","",""
"2481","key","v","v","16.66599999999959","500","250","psychophysics","306","1912804","0.0-306.0","5d4613a2da9cb60001aa4948","620a66f4487fd5fbb195865a","6","","","","","0","1"
"null","","","null","","","","html-keyboard-response","307","1913306","0.0-307.0","5d4613a2da9cb60001aa4948","620a66f4487fd5fbb195865a","","","","","<p style=""color:darkgreen;font-size:24px;"">Correct :)</p>","",""
"2511","key","n","n","16.668814569535904","500","250","psychophysics","308","1915819","0.0-308.0","5d4613a2da9cb60001aa4948","620a66f4487fd5fbb195865a","6","","","","","0","6"
"null","","","null","","","","html-keyboard-response","309","1916324","0.0-309.0","5d4613a2da9cb60001aa4948","620a66f4487fd5fbb195865a","","","","","<p style=""color:darkgreen;font-size:24px;"">Correct :)</p>","",""
"2597","key","n","n","16.77352258064634","500","250","psychophysics","310","1918924","0.0-310.0","5d4613a2da9cb60001aa4948","620a66f4487fd5fbb195865a","6","","","","","0","4"
"null","","","null","","","","html-keyboard-response","311","1919428","0.0-311.0","5d4613a2da9cb60001aa4948","620a66f4487fd5fbb195865a","","","","","<p style=""color:darkgreen;font-size:24px;"">Correct :)</p>","",""
"3149","key","n","n","16.66599999999897","500","250","psychophysics","312","1922583","0.0-312.0","5d4613a2da9cb60001aa4948","620a66f4487fd5fbb195865a","6","","","","","1","8"
"null","","","null","","","","html-keyboard-response","313","1923086","0.0-313.0","5d4613a2da9cb60001aa4948","620a66f4487fd5fbb195865a","","","","","<p style=""color:darkgreen;font-size:24px;"">Correct :)</p>","",""
"2536","key","v","v","16.66599999999897","500","250","psychophysics","314","1925624","0.0-314.0","5d4613a2da9cb60001aa4948","620a66f4487fd5fbb195865a","6","","","","","1","1"
"null","","","null","","","","html-keyboard-response","315","1926126","0.0-315.0","5d4613a2da9cb60001aa4948","620a66f4487fd5fbb195865a","","","","","<p style=""color:darkgreen;font-size:24px;"">Correct :)</p>","",""
"2662","key","v","v","16.66905625000072","500","250","psychophysics","316","1928791","0.0-316.0","5d4613a2da9cb60001aa4948","620a66f4487fd5fbb195865a","6","","","","","0","3"
"null","","","null","","","","html-keyboard-response","317","1929294","0.0-317.0","5d4613a2da9cb60001aa4948","620a66f4487fd5fbb195865a","","","","","<p style=""color:darkgreen;font-size:24px;"">Correct :)</p>","",""
"2540","key","v","v","16.66600000000029","500","250","psychophysics","318","1931838","0.0-318.0","5d4613a2da9cb60001aa4948","620a66f4487fd5fbb195865a","6","","","","","1","1"
"null","","","null","","","","html-keyboard-response","319","1932343","0.0-319.0","5d4613a2da9cb60001aa4948","620a66f4487fd5fbb195865a","","","","","<p style=""color:darkgreen;font-size:24px;"">Correct :)</p>","",""
"2634","key","v","v","16.665999999999087","500","250","psychophysics","320","1934980","0.0-320.0","5d4613a2da9cb60001aa4948","620a66f4487fd5fbb195865a","6","","","","","0","3"
"null","","","null","","","","html-keyboard-response","321","1935483","0.0-321.0","5d4613a2da9cb60001aa4948","620a66f4487fd5fbb195865a","","","","","<p style=""color:darkgreen;font-size:24px;"">Correct :)</p>","",""
"2573","key","n","n","16.669214285715096","500","250","psychophysics","322","1938059","0.0-322.0","5d4613a2da9cb60001aa4948","620a66f4487fd5fbb195865a","6","","","","","1","9"
"null","","","null","","","","html-keyboard-response","323","1938564","0.0-323.0","5d4613a2da9cb60001aa4948","620a66f4487fd5fbb195865a","","","","","<p style=""color:darkgreen;font-size:24px;"">Correct :)</p>","",""
"2717","key","v","v","16.66599999999976","500","250","psychophysics","324","1941283","0.0-324.0","5d4613a2da9cb60001aa4948","620a66f4487fd5fbb195865a","6","","","","","1","4"
"null","","","null","","","","html-keyboard-response","325","1941785","0.0-325.0","5d4613a2da9cb60001aa4948","620a66f4487fd5fbb195865a","","","","","<p style=""color:darkgreen;font-size:24px;"">Correct :)</p>","",""
"2596","key","n","n","16.66600000000117","500","250","psychophysics","326","1944384","0.0-326.0","5d4613a2da9cb60001aa4948","620a66f4487fd5fbb195865a","6","","","","","1","6"
"null","","","null","","","","html-keyboard-response","327","1944885","0.0-327.0","5d4613a2da9cb60001aa4948","620a66f4487fd5fbb195865a","","","","","<p style=""color:darkgreen;font-size:24px;"">Correct :)</p>","",""
"2502","key","v","v","16.66930666666633","500","250","psychophysics","328","1947390","0.0-328.0","5d4613a2da9cb60001aa4948","620a66f4487fd5fbb195865a","6","","","","","0","1"
"null","","","null","","","","html-keyboard-response","329","1947894","0.0-329.0","5d4613a2da9cb60001aa4948","620a66f4487fd5fbb195865a","","","","","<p style=""color:darkgreen;font-size:24px;"">Correct :)</p>","",""
"2539","key","n","n","16.66600000000029","500","250","psychophysics","330","1950439","0.0-330.0","5d4613a2da9cb60001aa4948","620a66f4487fd5fbb195865a","6","","","","","1","9"
"null","","","null","","","","html-keyboard-response","331","1950943","0.0-331.0","5d4613a2da9cb60001aa4948","620a66f4487fd5fbb195865a","","","","","<p style=""color:darkgreen;font-size:24px;"">Correct :)</p>","",""
"2547","key","n","n","16.66600000000029","500","250","psychophysics","332","1953492","0.0-332.0","5d4613a2da9cb60001aa4948","620a66f4487fd5fbb195865a","6","","","","","0","6"
"null","","","null","","","","html-keyboard-response","333","1953993","0.0-333.0","5d4613a2da9cb60001aa4948","620a66f4487fd5fbb195865a","","","","","<p style=""color:darkgreen;font-size:24px;"">Correct :)</p>","",""
"2546","key","n","n","16.670398692810434","500","250","psychophysics","334","1956543","0.0-334.0","5d4613a2da9cb60001aa4948","620a66f4487fd5fbb195865a","6","","","","","1","9"
"null","","","null","","","","html-keyboard-response","335","1957045","0.0-335.0","5d4613a2da9cb60001aa4948","620a66f4487fd5fbb195865a","","","","","<p style=""color:darkgreen;font-size:24px;"">Correct :)</p>","",""
"2504","key","v","v","16.665999999999173","500","250","psychophysics","336","1959555","0.0-336.0","5d4613a2da9cb60001aa4948","620a66f4487fd5fbb195865a","6","","","","","0","7"
"null","","","null","","","","html-keyboard-response","337","1960057","0.0-337.0","5d4613a2da9cb60001aa4948","620a66f4487fd5fbb195865a","","","","","<p style=""color:darkgreen;font-size:24px;"">Correct :)</p>","",""
"2757","key","v","v","16.666000000000594","500","250","psychophysics","338","1962817","0.0-338.0","5d4613a2da9cb60001aa4948","620a66f4487fd5fbb195865a","6","","","","","1","3"
"null","","","null","","","","html-keyboard-response","339","1963322","0.0-339.0","5d4613a2da9cb60001aa4948","620a66f4487fd5fbb195865a","","","","","<p style=""color:darkgreen;font-size:24px;"">Correct :)</p>","",""
"2843","key","n","n","16.665999999999652","500","250","psychophysics","340","1966167","0.0-340.0","5d4613a2da9cb60001aa4948","620a66f4487fd5fbb195865a","6","","","","","0","6"
"null","","","null","","","","html-keyboard-response","341","1966671","0.0-341.0","5d4613a2da9cb60001aa4948","620a66f4487fd5fbb195865a","","","","","<p style=""color:darkgreen;font-size:24px;"">Correct :)</p>","",""
"2707","key","v","v","16.77098148148277","500","250","psychophysics","342","1969384","0.0-342.0","5d4613a2da9cb60001aa4948","620a66f4487fd5fbb195865a","6","","","","","0","7"
"null","","","null","","","","html-keyboard-response","343","1969887","0.0-343.0","5d4613a2da9cb60001aa4948","620a66f4487fd5fbb195865a","","","","","<p style=""color:darkgreen;font-size:24px;"">Correct :)</p>","",""
"2768","key","n","n","16.66599999999919","500","250","psychophysics","344","1972658","0.0-344.0","5d4613a2da9cb60001aa4948","620a66f4487fd5fbb195865a","6","","","","","0","4"
"null","","","null","","","","html-keyboard-response","345","1973162","0.0-345.0","5d4613a2da9cb60001aa4948","620a66f4487fd5fbb195865a","","","","","<p style=""color:darkgreen;font-size:24px;"">Correct :)</p>","",""
"2658","key","n","n","16.66600000000055","500","250","psychophysics","346","1975823","0.0-346.0","5d4613a2da9cb60001aa4948","620a66f4487fd5fbb195865a","6","","","","","0","8"
"null","","","null","","","","html-keyboard-response","347","1976326","0.0-347.0","5d4613a2da9cb60001aa4948","620a66f4487fd5fbb195865a","","","","","<p style=""color:darkgreen;font-size:24px;"">Correct :)</p>","",""
"2425","key","v","v","16.6692534246584","500","250","psychophysics","348","1978757","0.0-348.0","5d4613a2da9cb60001aa4948","620a66f4487fd5fbb195865a","6","","","","","0","7"
"null","","","null","","","","html-keyboard-response","349","1979259","0.0-349.0","5d4613a2da9cb60001aa4948","620a66f4487fd5fbb195865a","","","","","<p style=""color:darkgreen;font-size:24px;"">Correct :)</p>","",""
"2824","key","v","v","16.665999999999837","500","250","psychophysics","350","1982086","0.0-350.0","5d4613a2da9cb60001aa4948","620a66f4487fd5fbb195865a","6","","","","","0","9"
"null","","","null","","","","html-keyboard-response","351","1982591","0.0-351.0","5d4613a2da9cb60001aa4948","620a66f4487fd5fbb195865a","","","","","<p style=""color:darkgreen;font-size:24px;"">Correct :)</p>","",""
"2553","key","n","n","16.66600000000029","500","250","psychophysics","352","1985146","0.0-352.0","5d4613a2da9cb60001aa4948","620a66f4487fd5fbb195865a","6","","","","","0","8"
"null","","","null","","","","html-keyboard-response","353","1985648","0.0-353.0","5d4613a2da9cb60001aa4948","620a66f4487fd5fbb195865a","","","","","<p style=""color:darkgreen;font-size:24px;"">Correct :)</p>","",""
"2636","key","n","n","16.669886075949027","500","250","psychophysics","354","1988287","0.0-354.0","5d4613a2da9cb60001aa4948","620a66f4487fd5fbb195865a","6","","","","","0","6"
"null","","","null","","","","html-keyboard-response","355","1988792","0.0-355.0","5d4613a2da9cb60001aa4948","620a66f4487fd5fbb195865a","","","","","<p style=""color:darkgreen;font-size:24px;"">Correct :)</p>","",""
"2551","key","v","v","16.66600000000029","500","250","psychophysics","356","1991345","0.0-356.0","5d4613a2da9cb60001aa4948","620a66f4487fd5fbb195865a","6","","","","","1","4"
"null","","","null","","","","html-keyboard-response","357","1991849","0.0-357.0","5d4613a2da9cb60001aa4948","620a66f4487fd5fbb195865a","","","","","<p style=""color:darkgreen;font-size:24px;"">Correct :)</p>","",""
"2567","key","v","v","16.666000000000086","500","250","psychophysics","358","1994418","0.0-358.0","5d4613a2da9cb60001aa4948","620a66f4487fd5fbb195865a","6","","","","","1","2"
"null","","","null","","","","html-keyboard-response","359","1994921","0.0-359.0","5d4613a2da9cb60001aa4948","620a66f4487fd5fbb195865a","","","","","<p style=""color:darkgreen;font-size:24px;"">Correct :)</p>","",""
"2571","key","n","n","16.668571428571187","500","250","psychophysics","360","1997495","0.0-360.0","5d4613a2da9cb60001aa4948","620a66f4487fd5fbb195865a","6","","","","","0","6"
"null","","","null","","","","html-keyboard-response","361","1997999","0.0-361.0","5d4613a2da9cb60001aa4948","620a66f4487fd5fbb195865a","","","","","<p style=""color:darkgreen;font-size:24px;"">Correct :)</p>","",""
"2529","key","v","v","16.66599999999897","500","250","psychophysics","362","2000534","0.0-362.0","5d4613a2da9cb60001aa4948","620a66f4487fd5fbb195865a","6","","","","","0","1"
"null","","","null","","","","html-keyboard-response","363","2001038","0.0-363.0","5d4613a2da9cb60001aa4948","620a66f4487fd5fbb195865a","","","","","<p style=""color:darkgreen;font-size:24px;"">Correct :)</p>","",""
"2649","key","n","n","16.66600000000055","500","250","psychophysics","364","2003690","0.0-364.0","5d4613a2da9cb60001aa4948","620a66f4487fd5fbb195865a","6","","","","","1","9"
"null","","","null","","","","html-keyboard-response","365","2004194","0.0-365.0","5d4613a2da9cb60001aa4948","620a66f4487fd5fbb195865a","","","","","<p style=""color:darkgreen;font-size:24px;"">Correct :)</p>","",""
"2807","key","n","n","16.66943786982254","500","250","psychophysics","366","2007004","0.0-366.0","5d4613a2da9cb60001aa4948","620a66f4487fd5fbb195865a","6","","","","","0","2"
"null","","","null","","","","html-keyboard-response","367","2007509","0.0-367.0","5d4613a2da9cb60001aa4948","620a66f4487fd5fbb195865a","","","","","<p style=""color:darkgreen;font-size:24px;"">Correct :)</p>","",""
"2555","key","v","v","16.666000000000086","500","250","psychophysics","368","2010067","0.0-368.0","5d4613a2da9cb60001aa4948","620a66f4487fd5fbb195865a","6","","","","","1","4"
"null","","","null","","","","html-keyboard-response","369","2010571","0.0-369.0","5d4613a2da9cb60001aa4948","620a66f4487fd5fbb195865a","","","","","<p style=""color:darkgreen;font-size:24px;"">Correct :)</p>","",""
"2561","key","n","n","16.666000000000086","500","250","psychophysics","370","2013134","0.0-370.0","5d4613a2da9cb60001aa4948","620a66f4487fd5fbb195865a","6","","","","","0","8"
"null","","","null","","","","html-keyboard-response","371","2013638","0.0-371.0","5d4613a2da9cb60001aa4948","620a66f4487fd5fbb195865a","","","","","<p style=""color:darkgreen;font-size:24px;"">Correct :)</p>","",""
"2552","key","v","v","16.66600000000029","500","250","psychophysics","372","2016193","0.0-372.0","5d4613a2da9cb60001aa4948","620a66f4487fd5fbb195865a","6","","","","","1","2"
"null","","","null","","","","html-keyboard-response","373","2016698","0.0-373.0","5d4613a2da9cb60001aa4948","620a66f4487fd5fbb195865a","","","","","<p style=""color:darkgreen;font-size:24px;"">Correct :)</p>","",""
"2585","key","n","n","16.777071428571393","500","250","psychophysics","374","2019285","0.0-374.0","5d4613a2da9cb60001aa4948","620a66f4487fd5fbb195865a","6","","","","","0","2"
"null","","","null","","","","html-keyboard-response","375","2019789","0.0-375.0","5d4613a2da9cb60001aa4948","620a66f4487fd5fbb195865a","","","","","<p style=""color:darkgreen;font-size:24px;"">Correct :)</p>","",""
"2835","key","v","v","16.665999999999837","500","250","psychophysics","376","2022627","0.0-376.0","5d4613a2da9cb60001aa4948","620a66f4487fd5fbb195865a","6","","","","","0","9"
"null","","","null","","","","html-keyboard-response","377","2023131","0.0-377.0","5d4613a2da9cb60001aa4948","620a66f4487fd5fbb195865a","","","","","<p style=""color:darkgreen;font-size:24px;"">Correct :)</p>","",""
"2509","key","n","n","16.66599999999938","500","250","psychophysics","378","2025642","0.0-378.0","5d4613a2da9cb60001aa4948","620a66f4487fd5fbb195865a","6","","","","","0","6"
"null","","","null","","","","html-keyboard-response","379","2026144","0.0-379.0","5d4613a2da9cb60001aa4948","620a66f4487fd5fbb195865a","","","","","<p style=""color:darkgreen;font-size:24px;"">Correct :)</p>","",""
"2572","key","n","n","16.668909677419993","500","250","psychophysics","380","2028721","0.0-380.0","5d4613a2da9cb60001aa4948","620a66f4487fd5fbb195865a","6","","","","","1","9"
"null","","","null","","","","html-keyboard-response","381","2029226","0.0-381.0","5d4613a2da9cb60001aa4948","620a66f4487fd5fbb195865a","","","","","<p style=""color:darkgreen;font-size:24px;"">Correct :)</p>","",""
"2707","key","v","v","16.66599999999976","500","250","psychophysics","382","2031935","0.0-382.0","5d4613a2da9cb60001aa4948","620a66f4487fd5fbb195865a","6","","","","","0","3"
"null","","","null","","","","html-keyboard-response","383","2032440","0.0-383.0","5d4613a2da9cb60001aa4948","620a66f4487fd5fbb195865a","","","","","<p style=""color:darkgreen;font-size:24px;"">Correct :)</p>","",""
"2846","key","n","n","16.665999999999652","500","250","psychophysics","384","2035289","0.0-384.0","5d4613a2da9cb60001aa4948","620a66f4487fd5fbb195865a","6","","","","","1","7"
"null","","","null","","","","html-keyboard-response","385","2035792","0.0-385.0","5d4613a2da9cb60001aa4948","620a66f4487fd5fbb195865a","","","","","<p style=""color:darkgreen;font-size:24px;"">Correct :)</p>","",""
"2604","key","n","n","16.669815286624715","500","250","psychophysics","386","2038403","0.0-386.0","5d4613a2da9cb60001aa4948","620a66f4487fd5fbb195865a","6","","","","","0","8"
"null","","","null","","","","html-keyboard-response","387","2038906","0.0-387.0","5d4613a2da9cb60001aa4948","620a66f4487fd5fbb195865a","","","","","<p style=""color:darkgreen;font-size:24px;"">Correct :)</p>","",""
"2562","key","v","v","16.666000000000086","500","250","psychophysics","388","2041471","0.0-388.0","5d4613a2da9cb60001aa4948","620a66f4487fd5fbb195865a","6","","","","","0","3"
"null","","","null","","","","html-keyboard-response","389","2041976","0.0-389.0","5d4613a2da9cb60001aa4948","620a66f4487fd5fbb195865a","","","","","<p style=""color:darkgreen;font-size:24px;"">Correct :)</p>","",""
"2625","key","n","n","16.7721528662428","500","250","psychophysics","390","2044602","0.0-390.0","5d4613a2da9cb60001aa4948","620a66f4487fd5fbb195865a","6","","","","","1","8"
"null","","","null","","","","html-keyboard-response","391","2045106","0.0-391.0","5d4613a2da9cb60001aa4948","620a66f4487fd5fbb195865a","","","","","<p style=""color:darkgreen;font-size:24px;"">Correct :)</p>","",""
"2535","key","n","n","16.668605263158067","500","250","psychophysics","392","2047644","0.0-392.0","5d4613a2da9cb60001aa4948","620a66f4487fd5fbb195865a","6","","","","","1","7"
"null","","","null","","","","html-keyboard-response","393","2048149","0.0-393.0","5d4613a2da9cb60001aa4948","620a66f4487fd5fbb195865a","","","","","<p style=""color:darkgreen;font-size:24px;"">Correct :)</p>","",""
"2483","key","v","v","16.66599999999959","500","250","psychophysics","394","2050635","0.0-394.0","5d4613a2da9cb60001aa4948","620a66f4487fd5fbb195865a","6","","","","","1","2"
"null","","","null","","","","html-keyboard-response","395","2051136","0.0-395.0","5d4613a2da9cb60001aa4948","620a66f4487fd5fbb195865a","","","","","<p style=""color:darkgreen;font-size:24px;"">Correct :)</p>","",""
"7803","","","v","","","","html-keyboard-response","396","2058940","0.0-396.0","5d4613a2da9cb60001aa4948","620a66f4487fd5fbb195865a","","","","","<p> Last set of trials.  Here, the tasks are going to switch once again.  We are going to do 50 of these.  And then you are done with the experiment.  </p>  <br><br>  Ready? (press v or n)","",""
"2689","key","n","n","16.66926543209788","500","250","psychophysics","397","2061635","0.0-397.0","5d4613a2da9cb60001aa4948","620a66f4487fd5fbb195865a","7","","","","","1","6"
"null","","","null","","","","html-keyboard-response","398","2062138","0.0-398.0","5d4613a2da9cb60001aa4948","620a66f4487fd5fbb195865a","","","","","<p style=""color:darkgreen;font-size:24px;"">Correct :)</p>","",""
"2538","key","n","n","16.6660000000005","500","250","psychophysics","399","2064680","0.0-399.0","5d4613a2da9cb60001aa4948","620a66f4487fd5fbb195865a","7","","","","","0","4"
"null","","","null","","","","html-keyboard-response","400","2065184","0.0-400.0","5d4613a2da9cb60001aa4948","620a66f4487fd5fbb195865a","","","","","<p style=""color:darkgreen;font-size:24px;"">Correct :)</p>","",""
"2576","key","n","n","16.77877124183008","500","250","psychophysics","401","2067763","0.0-401.0","5d4613a2da9cb60001aa4948","620a66f4487fd5fbb195865a","7","","","","","0","6"
"null","","","null","","","","html-keyboard-response","402","2068266","0.0-402.0","5d4613a2da9cb60001aa4948","620a66f4487fd5fbb195865a","","","","","<p style=""color:darkgreen;font-size:24px;"">Correct :)</p>","",""
"2440","key","v","v","16.665999999998636","500","250","psychophysics","403","2070708","0.0-403.0","5d4613a2da9cb60001aa4948","620a66f4487fd5fbb195865a","7","","","","","0","3"
"null","","","null","","","","html-keyboard-response","404","2071211","0.0-404.0","5d4613a2da9cb60001aa4948","620a66f4487fd5fbb195865a","","","","","<p style=""color:darkgreen;font-size:24px;"">Correct :)</p>","",""
"3160","key","v","v","16.66599999999897","500","250","psychophysics","405","2074373","0.0-405.0","5d4613a2da9cb60001aa4948","620a66f4487fd5fbb195865a","7","","","","","1","4"
"null","","","null","","","","html-keyboard-response","406","2074877","0.0-406.0","5d4613a2da9cb60001aa4948","620a66f4487fd5fbb195865a","","","","","<p style=""color:darkgreen;font-size:24px;"">Correct :)</p>","",""
"2703","key","v","v","16.6690429447853","500","250","psychophysics","407","2077586","0.0-407.0","5d4613a2da9cb60001aa4948","620a66f4487fd5fbb195865a","7","","","","","1","3"
"null","","","null","","","","html-keyboard-response","408","2078091","0.0-408.0","5d4613a2da9cb60001aa4948","620a66f4487fd5fbb195865a","","","","","<p style=""color:darkgreen;font-size:24px;"">Correct :)</p>","",""
"2498","key","v","v","16.66600000000093","500","250","psychophysics","409","2080591","0.0-409.0","5d4613a2da9cb60001aa4948","620a66f4487fd5fbb195865a","7","","","","","1","3"
"null","","","null","","","","html-keyboard-response","410","2081096","0.0-410.0","5d4613a2da9cb60001aa4948","620a66f4487fd5fbb195865a","","","","","<p style=""color:darkgreen;font-size:24px;"">Correct :)</p>","",""
"2516","key","n","n","16.666000000000714","500","250","psychophysics","411","2083615","0.0-411.0","5d4613a2da9cb60001aa4948","620a66f4487fd5fbb195865a","7","","","","","1","6"
"null","","","null","","","","html-keyboard-response","412","2084120","0.0-412.0","5d4613a2da9cb60001aa4948","620a66f4487fd5fbb195865a","","","","","<p style=""color:darkgreen;font-size:24px;"">Correct :)</p>","",""
"2918","key","n","n","16.666000000000267","500","250","psychophysics","413","2087045","0.0-413.0","5d4613a2da9cb60001aa4948","620a66f4487fd5fbb195865a","7","","","","","1","7"
"null","","","null","","","","html-keyboard-response","414","2087547","0.0-414.0","5d4613a2da9cb60001aa4948","620a66f4487fd5fbb195865a","","","","","<p style=""color:darkgreen;font-size:24px;"">Correct :)</p>","",""
"2460","key","v","v","16.668966216216102","500","250","psychophysics","415","2090010","0.0-415.0","5d4613a2da9cb60001aa4948","620a66f4487fd5fbb195865a","7","","","","","1","2"
"null","","","null","","","","html-keyboard-response","416","2090514","0.0-416.0","5d4613a2da9cb60001aa4948","620a66f4487fd5fbb195865a","","","","","<p style=""color:darkgreen;font-size:24px;"">Correct :)</p>","",""
"2581","key","n","n","16.66599999999988","500","250","psychophysics","417","2093099","0.0-417.0","5d4613a2da9cb60001aa4948","620a66f4487fd5fbb195865a","7","","","","","0","6"
"null","","","null","","","","html-keyboard-response","418","2093603","0.0-418.0","5d4613a2da9cb60001aa4948","620a66f4487fd5fbb195865a","","","","","<p style=""color:darkgreen;font-size:24px;"">Correct :)</p>","",""
"2692","key","n","n","16.66600000000015","500","250","psychophysics","419","2096298","0.0-419.0","5d4613a2da9cb60001aa4948","620a66f4487fd5fbb195865a","7","","","","","0","2"
"null","","","null","","","","html-keyboard-response","420","2096802","0.0-420.0","5d4613a2da9cb60001aa4948","620a66f4487fd5fbb195865a","","","","","<p style=""color:darkgreen;font-size:24px;"">Correct :)</p>","",""
"2544","key","v","v","16.668934640523315","500","250","psychophysics","421","2099352","0.0-421.0","5d4613a2da9cb60001aa4948","620a66f4487fd5fbb195865a","7","","","","","1","3"
"null","","","null","","","","html-keyboard-response","422","2099856","0.0-422.0","5d4613a2da9cb60001aa4948","620a66f4487fd5fbb195865a","","","","","<p style=""color:darkgreen;font-size:24px;"">Correct :)</p>","",""
"2477","key","v","v","16.66600000000115","500","250","psychophysics","423","2102336","0.0-423.0","5d4613a2da9cb60001aa4948","620a66f4487fd5fbb195865a","7","","","","","1","1"
"null","","","null","","","","html-keyboard-response","424","2102839","0.0-424.0","5d4613a2da9cb60001aa4948","620a66f4487fd5fbb195865a","","","","","<p style=""color:darkgreen;font-size:24px;"">Correct :)</p>","",""
"2569","key","n","n","16.665999999998572","500","250","psychophysics","425","2105412","0.0-425.0","5d4613a2da9cb60001aa4948","620a66f4487fd5fbb195865a","7","","","","","0","2"
"null","","","null","","","","html-keyboard-response","426","2105916","0.0-426.0","5d4613a2da9cb60001aa4948","620a66f4487fd5fbb195865a","","","","","<p style=""color:darkgreen;font-size:24px;"">Correct :)</p>","",""
"2625","key","n","n","16.6699681528666","500","250","psychophysics","427","2108543","0.0-427.0","5d4613a2da9cb60001aa4948","620a66f4487fd5fbb195865a","7","","","","","0","2"
"null","","","null","","","","html-keyboard-response","428","2109045","0.0-428.0","5d4613a2da9cb60001aa4948","620a66f4487fd5fbb195865a","","","","","<p style=""color:darkgreen;font-size:24px;"">Correct :)</p>","",""
"2573","key","n","n","16.66599999999988","500","250","psychophysics","429","2111621","0.0-429.0","5d4613a2da9cb60001aa4948","620a66f4487fd5fbb195865a","7","","","","","1","7"
"null","","","null","","","","html-keyboard-response","430","2112123","0.0-430.0","5d4613a2da9cb60001aa4948","620a66f4487fd5fbb195865a","","","","","<p style=""color:darkgreen;font-size:24px;"">Correct :)</p>","",""
"2584","key","v","v","16.66599999999988","500","250","psychophysics","431","2114713","0.0-431.0","5d4613a2da9cb60001aa4948","620a66f4487fd5fbb195865a","7","","","","","1","3"
"null","","","null","","","","html-keyboard-response","432","2115216","0.0-432.0","5d4613a2da9cb60001aa4948","620a66f4487fd5fbb195865a","","","","","<p style=""color:darkgreen;font-size:24px;"">Correct :)</p>","",""
"2567","key","v","v","16.777379084968928","500","250","psychophysics","433","2117787","0.0-433.0","5d4613a2da9cb60001aa4948","620a66f4487fd5fbb195865a","7","","","","","1","2"
"null","","","null","","","","html-keyboard-response","434","2118289","0.0-434.0","5d4613a2da9cb60001aa4948","620a66f4487fd5fbb195865a","","","","","<p style=""color:darkgreen;font-size:24px;"">Correct :)</p>","",""
"2566","key","n","n","16.665999999998572","500","250","psychophysics","435","2120857","0.0-435.0","5d4613a2da9cb60001aa4948","620a66f4487fd5fbb195865a","7","","","","","1","7"
"null","","","null","","","","html-keyboard-response","436","2121362","0.0-436.0","5d4613a2da9cb60001aa4948","620a66f4487fd5fbb195865a","","","","","<p style=""color:darkgreen;font-size:24px;"">Correct :)</p>","",""
"2609","key","v","v","16.666000000002445","500","250","psychophysics","437","2123974","0.0-437.0","5d4613a2da9cb60001aa4948","620a66f4487fd5fbb195865a","7","","","","","1","4"
"null","","","null","","","","html-keyboard-response","438","2124475","0.0-438.0","5d4613a2da9cb60001aa4948","620a66f4487fd5fbb195865a","","","","","<p style=""color:darkgreen;font-size:24px;"">Correct :)</p>","",""
"2531","key","n","n","16.66599999999897","500","250","psychophysics","439","2127008","0.0-439.0","5d4613a2da9cb60001aa4948","620a66f4487fd5fbb195865a","7","","","","","1","7"
"null","","","null","","","","html-keyboard-response","440","2127511","0.0-440.0","5d4613a2da9cb60001aa4948","620a66f4487fd5fbb195865a","","","","","<p style=""color:darkgreen;font-size:24px;"">Correct :)</p>","",""
"2525","key","v","v","16.66955921052661","500","250","psychophysics","441","2130041","0.0-441.0","5d4613a2da9cb60001aa4948","620a66f4487fd5fbb195865a","7","","","","","1","4"
"null","","","null","","","","html-keyboard-response","442","2130544","0.0-442.0","5d4613a2da9cb60001aa4948","620a66f4487fd5fbb195865a","","","","","<p style=""color:darkgreen;font-size:24px;"">Correct :)</p>","",""
"2487","key","v","v","16.66599999999938","500","250","psychophysics","443","2133035","0.0-443.0","5d4613a2da9cb60001aa4948","620a66f4487fd5fbb195865a","7","","","","","1","4"
"null","","","null","","","","html-keyboard-response","444","2133539","0.0-444.0","5d4613a2da9cb60001aa4948","620a66f4487fd5fbb195865a","","","","","<p style=""color:darkgreen;font-size:24px;"">Correct :)</p>","",""
"2649","key","n","n","16.665999999999087","500","250","psychophysics","445","2136190","0.0-445.0","5d4613a2da9cb60001aa4948","620a66f4487fd5fbb195865a","7","","","","","1","7"
"null","","","null","","","","html-keyboard-response","446","2136695","0.0-446.0","5d4613a2da9cb60001aa4948","620a66f4487fd5fbb195865a","","","","","<p style=""color:darkgreen;font-size:24px;"">Correct :)</p>","",""
"2528","key","n","n","16.668986842103646","500","250","psychophysics","447","2139230","0.0-447.0","5d4613a2da9cb60001aa4948","620a66f4487fd5fbb195865a","7","","","","","0","4"
"null","","","null","","","","html-keyboard-response","448","2139734","0.0-448.0","5d4613a2da9cb60001aa4948","620a66f4487fd5fbb195865a","","","","","<p style=""color:darkgreen;font-size:24px;"">Correct :)</p>","",""
"2517","key","v","v","16.66599999999763","500","250","psychophysics","449","2142253","0.0-449.0","5d4613a2da9cb60001aa4948","620a66f4487fd5fbb195865a","7","","","","","1","4"
"null","","","null","","","","html-keyboard-response","450","2142758","0.0-450.0","5d4613a2da9cb60001aa4948","620a66f4487fd5fbb195865a","","","","","<p style=""color:darkgreen;font-size:24px;"">Correct :)</p>","",""
"2434","key","n","n","16.66600000000023","500","250","psychophysics","451","2145194","0.0-451.0","5d4613a2da9cb60001aa4948","620a66f4487fd5fbb195865a","7","","","","","0","6"
"null","","","null","","","","html-keyboard-response","452","2145699","0.0-452.0","5d4613a2da9cb60001aa4948","620a66f4487fd5fbb195865a","","","","","<p style=""color:darkgreen;font-size:24px;"">Correct :)</p>","",""
"2696","key","v","v","16.669012345681196","500","250","psychophysics","453","2148398","0.0-453.0","5d4613a2da9cb60001aa4948","620a66f4487fd5fbb195865a","7","","","","","0","7"
"null","","","null","","","","html-keyboard-response","454","2148902","0.0-454.0","5d4613a2da9cb60001aa4948","620a66f4487fd5fbb195865a","","","","","<p style=""color:darkgreen;font-size:24px;"">Correct :)</p>","",""
"2553","key","v","v","16.66600000000029","500","250","psychophysics","455","2151458","0.0-455.0","5d4613a2da9cb60001aa4948","620a66f4487fd5fbb195865a","7","","","","","1","2"
"null","","","null","","","","html-keyboard-response","456","2151960","0.0-456.0","5d4613a2da9cb60001aa4948","620a66f4487fd5fbb195865a","","","","","<p style=""color:darkgreen;font-size:24px;"">Correct :)</p>","",""
"2661","key","v","v","16.66600000000035","500","250","psychophysics","457","2154624","0.0-457.0","5d4613a2da9cb60001aa4948","620a66f4487fd5fbb195865a","7","","","","","0","7"
"null","","","null","","","","html-keyboard-response","458","2155126","0.0-458.0","5d4613a2da9cb60001aa4948","620a66f4487fd5fbb195865a","","","","","<p style=""color:darkgreen;font-size:24px;"">Correct :)</p>","",""
"2691","key","v","v","16.665999999999954","500","250","psychophysics","459","2157820","0.0-459.0","5d4613a2da9cb60001aa4948","620a66f4487fd5fbb195865a","7","","","","","1","4"
"null","","","null","","","","html-keyboard-response","460","2158322","0.0-460.0","5d4613a2da9cb60001aa4948","620a66f4487fd5fbb195865a","","","","","<p style=""color:darkgreen;font-size:24px;"">Correct :)</p>","",""
"2527","key","n","n","16.66599999999897","500","250","psychophysics","461","2160855","0.0-461.0","5d4613a2da9cb60001aa4948","620a66f4487fd5fbb195865a","7","","","","","1","6"
"null","","","null","","","","html-keyboard-response","462","2161359","0.0-462.0","5d4613a2da9cb60001aa4948","620a66f4487fd5fbb195865a","","","","","<p style=""color:darkgreen;font-size:24px;"">Correct :)</p>","",""
"2599","key","v","v","16.66600000000117","500","250","psychophysics","463","2163961","0.0-463.0","5d4613a2da9cb60001aa4948","620a66f4487fd5fbb195865a","7","","","","","1","3"
"null","","","null","","","","html-keyboard-response","464","2164464","0.0-464.0","5d4613a2da9cb60001aa4948","620a66f4487fd5fbb195865a","","","","","<p style=""color:darkgreen;font-size:24px;"">Correct :)</p>","",""
"2787","key","v","v","16.665999999998824","500","250","psychophysics","465","2167254","0.0-465.0","5d4613a2da9cb60001aa4948","620a66f4487fd5fbb195865a","7","","","","","1","4"
"null","","","null","","","","html-keyboard-response","466","2167757","0.0-466.0","5d4613a2da9cb60001aa4948","620a66f4487fd5fbb195865a","","","","","<p style=""color:darkgreen;font-size:24px;"">Correct :)</p>","",""
"2562","key","v","v","16.66853246753491","500","250","psychophysics","467","2170322","0.0-467.0","5d4613a2da9cb60001aa4948","620a66f4487fd5fbb195865a","7","","","","","0","1"
"null","","","null","","","","html-keyboard-response","468","2170825","0.0-468.0","5d4613a2da9cb60001aa4948","620a66f4487fd5fbb195865a","","","","","<p style=""color:darkgreen;font-size:24px;"">Correct :)</p>","",""
"2613","key","v","v","16.665999999999478","500","250","psychophysics","469","2173441","0.0-469.0","5d4613a2da9cb60001aa4948","620a66f4487fd5fbb195865a","7","","","","","0","3"
"null","","","null","","","","html-keyboard-response","470","2173942","0.0-470.0","5d4613a2da9cb60001aa4948","620a66f4487fd5fbb195865a","","","","","<p style=""color:darkgreen;font-size:24px;"">Correct :)</p>","",""
"2573","key","n","n","16.66599999999988","500","250","psychophysics","471","2176521","0.0-471.0","5d4613a2da9cb60001aa4948","620a66f4487fd5fbb195865a","7","","","","","0","4"
"null","","","null","","","","html-keyboard-response","472","2177026","0.0-472.0","5d4613a2da9cb60001aa4948","620a66f4487fd5fbb195865a","","","","","<p style=""color:darkgreen;font-size:24px;"">Correct :)</p>","",""
"2549","key","n","n","16.779039473683376","500","250","psychophysics","473","2179577","0.0-473.0","5d4613a2da9cb60001aa4948","620a66f4487fd5fbb195865a","7","","","","","1","6"
"null","","","null","","","","html-keyboard-response","474","2180081","0.0-474.0","5d4613a2da9cb60001aa4948","620a66f4487fd5fbb195865a","","","","","<p style=""color:darkgreen;font-size:24px;"">Correct :)</p>","",""
"2647","key","v","v","16.666000000002015","500","250","psychophysics","475","2182732","0.0-475.0","5d4613a2da9cb60001aa4948","620a66f4487fd5fbb195865a","7","","","","","0","3"
"null","","","null","","","","html-keyboard-response","476","2183237","0.0-476.0","5d4613a2da9cb60001aa4948","620a66f4487fd5fbb195865a","","","","","<p style=""color:darkgreen;font-size:24px;"">Correct :)</p>","",""
"2730","key","v","v","16.665999999999567","500","250","psychophysics","477","2185973","0.0-477.0","5d4613a2da9cb60001aa4948","620a66f4487fd5fbb195865a","7","","","","","0","3"
"null","","","null","","","","html-keyboard-response","478","2186476","0.0-478.0","5d4613a2da9cb60001aa4948","620a66f4487fd5fbb195865a","","","","","<p style=""color:darkgreen;font-size:24px;"">Correct :)</p>","",""
"2694","key","v","v","16.66888271605044","500","250","psychophysics","479","2189173","0.0-479.0","5d4613a2da9cb60001aa4948","620a66f4487fd5fbb195865a","7","","","","","0","1"
"null","","","null","","","","html-keyboard-response","480","2189676","0.0-480.0","5d4613a2da9cb60001aa4948","620a66f4487fd5fbb195865a","","","","","<p style=""color:darkgreen;font-size:24px;"">Correct :)</p>","",""
"2547","key","n","n","16.66600000000029","500","250","psychophysics","481","2192226","0.0-481.0","5d4613a2da9cb60001aa4948","620a66f4487fd5fbb195865a","7","","","","","1","6"
"null","","","null","","","","html-keyboard-response","482","2192731","0.0-482.0","5d4613a2da9cb60001aa4948","620a66f4487fd5fbb195865a","","","","","<p style=""color:darkgreen;font-size:24px;"">Correct :)</p>","",""
"2441","key","v","v","16.66599999999843","500","250","psychophysics","483","2195176","0.0-483.0","5d4613a2da9cb60001aa4948","620a66f4487fd5fbb195865a","7","","","","","1","1"
"null","","","null","","","","html-keyboard-response","484","2195677","0.0-484.0","5d4613a2da9cb60001aa4948","620a66f4487fd5fbb195865a","","","","","<p style=""color:darkgreen;font-size:24px;"">Correct :)</p>","",""
"2726","key","n","n","16.669664634147477","500","250","psychophysics","485","2198405","0.0-485.0","5d4613a2da9cb60001aa4948","620a66f4487fd5fbb195865a","7","","","","","1","7"
"null","","","null","","","","html-keyboard-response","486","2198910","0.0-486.0","5d4613a2da9cb60001aa4948","620a66f4487fd5fbb195865a","","","","","<p style=""color:darkgreen;font-size:24px;"">Correct :)</p>","",""
"2515","key","n","n","16.666000000000714","500","250","psychophysics","487","2201432","0.0-487.0","5d4613a2da9cb60001aa4948","620a66f4487fd5fbb195865a","7","","","","","1","3"
"null","","","null","","","","html-keyboard-response","488","2201937","0.0-488.0","5d4613a2da9cb60001aa4948","620a66f4487fd5fbb195865a","","","","","<p style=""color:red;font-size:24px;"">Error :(</p>","",""
"2969","key","n","n","16.665999999999727","500","250","psychophysics","489","2204909","0.0-489.0","5d4613a2da9cb60001aa4948","620a66f4487fd5fbb195865a","7","","","","","0","2"
"null","","","null","","","","html-keyboard-response","490","2205413","0.0-490.0","5d4613a2da9cb60001aa4948","620a66f4487fd5fbb195865a","","","","","<p style=""color:darkgreen;font-size:24px;"">Correct :)</p>","",""
"2558","key","n","n","16.665999999998572","500","250","psychophysics","491","2207974","0.0-491.0","5d4613a2da9cb60001aa4948","620a66f4487fd5fbb195865a","7","","","","","1","6"
"null","","","null","","","","html-keyboard-response","492","2208478","0.0-492.0","5d4613a2da9cb60001aa4948","620a66f4487fd5fbb195865a","","","","","<p style=""color:darkgreen;font-size:24px;"">Correct :)</p>","",""
"2508","key","v","v","16.666000000000714","500","250","psychophysics","493","2210990","0.0-493.0","5d4613a2da9cb60001aa4948","620a66f4487fd5fbb195865a","7","","","","","0","7"
"null","","","null","","","","html-keyboard-response","494","2211495","0.0-494.0","5d4613a2da9cb60001aa4948","620a66f4487fd5fbb195865a","","","","","<p style=""color:darkgreen;font-size:24px;"">Correct :)</p>","",""
"2513","key","n","n","16.666000000000714","500","250","psychophysics","495","2214010","0.0-495.0","5d4613a2da9cb60001aa4948","620a66f4487fd5fbb195865a","7","","","","","0","2"
"null","","","null","","","","html-keyboard-response","496","2214513","0.0-496.0","5d4613a2da9cb60001aa4948","620a66f4487fd5fbb195865a","","","","","<p style=""color:darkgreen;font-size:24px;"">Correct :)</p>","",""
