"rt","response_type","key_press","response","avg_frame_time","center_x","center_y","trial_type","trial_index","time_elapsed","internal_node_id","pid","sid","phase","guide","targ","resp","stimulus","is5","stim"
"2618","key"," "," ","17.506222929936303","500","250","psychophysics","0","2729","0.0-0.0","610aa1281c6c579dba2c4fef","620a604b9e2a2d73c813f556","","","","","","",""
"1471","key"," "," ","16.657375000000002","500","250","psychophysics","1","4212","0.0-1.0","610aa1281c6c579dba2c4fef","620a604b9e2a2d73c813f556","","","","","","",""
"2687","key"," "," ","16.761675000000004","500","250","psychophysics","2","6906","0.0-2.0","610aa1281c6c579dba2c4fef","620a604b9e2a2d73c813f556","","","","","","",""
"1359","key"," "," ","16.657481012658238","500","250","psychophysics","3","8273","0.0-3.0","610aa1281c6c579dba2c4fef","620a604b9e2a2d73c813f556","","","","","","",""
"1319","key"," "," ","16.65765000000001","500","250","psychophysics","4","9607","0.0-4.0","610aa1281c6c579dba2c4fef","620a604b9e2a2d73c813f556","","","","","","",""
"4138","key"," "," ","16.724943319838054","500","250","psychophysics","5","13751","0.0-5.0","610aa1281c6c579dba2c4fef","620a604b9e2a2d73c813f556","","","","","","",""
"1980","key"," "," ","16.65749572649574","500","250","psychophysics","6","15738","0.0-6.0","610aa1281c6c579dba2c4fef","620a604b9e2a2d73c813f556","","","","","","",""
"2593","key"," "," ","16.65757419354838","500","250","psychophysics","7","18336","0.0-7.0","610aa1281c6c579dba2c4fef","620a604b9e2a2d73c813f556","","","","","","",""
"6189","key"," "," ","16.7918870967742","500","250","psychophysics","8","24608","0.0-8.0","610aa1281c6c579dba2c4fef","620a604b9e2a2d73c813f556","0","0","60","54","","",""
"1195","key"," "," ","16.657583333333303","500","250","psychophysics","9","25815","0.0-9.0","610aa1281c6c579dba2c4fef","620a604b9e2a2d73c813f556","","","","","","",""
"636","key"," "," ","16.657684210526273","500","250","psychophysics","10","26471","0.0-10.0","610aa1281c6c579dba2c4fef","620a604b9e2a2d73c813f556","","","","","","",""
"3460","key"," "," ","16.738038647343","500","250","psychophysics","11","29944","0.0-11.0","610aa1281c6c579dba2c4fef","620a604b9e2a2d73c813f556","","","","","","",""
"1227","key"," "," ","16.65760273972604","500","250","psychophysics","12","31178","0.0-12.0","610aa1281c6c579dba2c4fef","620a604b9e2a2d73c813f556","","","","","","",""
"1110","key"," "," ","16.65753030303026","500","250","psychophysics","13","32294","0.0-13.0","610aa1281c6c579dba2c4fef","620a604b9e2a2d73c813f556","","","","","","",""
"1115","key"," "," ","16.657742424242425","500","250","psychophysics","14","33416","0.0-14.0","610aa1281c6c579dba2c4fef","620a604b9e2a2d73c813f556","","","","","","",""
"1795","key"," "," ","16.65757407407404","500","250","psychophysics","15","35224","0.0-15.0","610aa1281c6c579dba2c4fef","620a604b9e2a2d73c813f556","","","","","","",""
"443","key"," "," ","16.657461538461437","500","250","psychophysics","16","35674","0.0-16.0","610aa1281c6c579dba2c4fef","620a604b9e2a2d73c813f556","","","","","","",""
"4929","key"," "," ","16.65755593220341","500","250","psychophysics","17","40609","0.0-17.0","610aa1281c6c579dba2c4fef","620a604b9e2a2d73c813f556","1","0","41","51","","",""
"3484","key"," "," ","16.657569377990434","500","250","psychophysics","18","44107","0.0-18.0","610aa1281c6c579dba2c4fef","620a604b9e2a2d73c813f556","1","5","24","30","","",""
"5045","key"," "," ","16.65755775577557","500","250","psychophysics","19","49165","0.0-19.0","610aa1281c6c579dba2c4fef","620a604b9e2a2d73c813f556","1","0","50","64","","",""
"2849","key"," "," ","16.95679640718565","500","250","psychophysics","20","52022","0.0-20.0","610aa1281c6c579dba2c4fef","620a604b9e2a2d73c813f556","1","5","29","28","","",""
"8075","key"," "," ","16.65756494845361","500","250","psychophysics","21","60109","0.0-21.0","610aa1281c6c579dba2c4fef","620a604b9e2a2d73c813f556","1","0","59","100","","",""
"3740","key"," "," ","16.657584821428568","500","250","psychophysics","22","63856","0.0-22.0","610aa1281c6c579dba2c4fef","620a604b9e2a2d73c813f556","1","5","29","38","","",""
"2632","key"," "," ","16.65767515923565","500","250","psychophysics","23","66495","0.0-23.0","610aa1281c6c579dba2c4fef","620a604b9e2a2d73c813f556","1","0","22","37","","",""
"1882","key"," "," ","16.657415929203545","500","250","psychophysics","24","68391","0.0-24.0","610aa1281c6c579dba2c4fef","620a604b9e2a2d73c813f556","1","5","20","20","","",""
"5551","key"," "," ","16.657503012048185","500","250","psychophysics","25","73949","0.0-25.0","610aa1281c6c579dba2c4fef","620a604b9e2a2d73c813f556","1","0","56","89","","",""
"4232","key"," "," ","16.657570866141736","500","250","psychophysics","26","78198","0.0-26.0","610aa1281c6c579dba2c4fef","620a604b9e2a2d73c813f556","1","5","51","58","","",""
"5777","key"," "," ","16.65751149425287","500","250","psychophysics","27","84002","0.0-27.0","610aa1281c6c579dba2c4fef","620a604b9e2a2d73c813f556","1","0","52","103","","",""
"2782","key"," "," ","16.757903614457774","500","250","psychophysics","28","86795","0.0-28.0","610aa1281c6c579dba2c4fef","620a604b9e2a2d73c813f556","1","5","25","41","","",""
"4468","key"," "," ","16.657565543071133","500","250","psychophysics","29","91272","0.0-29.0","610aa1281c6c579dba2c4fef","620a604b9e2a2d73c813f556","1","0","43","77","","",""
"4382","key"," "," ","16.657536121673008","500","250","psychophysics","30","95664","0.0-30.0","610aa1281c6c579dba2c4fef","620a604b9e2a2d73c813f556","1","5","48","60","","",""
"4762","key"," "," ","16.657512280701766","500","250","psychophysics","31","100438","0.0-31.0","610aa1281c6c579dba2c4fef","620a604b9e2a2d73c813f556","1","0","41","90","","",""
"2158","key"," "," ","16.786883720930245","500","250","psychophysics","32","102607","0.0-32.0","610aa1281c6c579dba2c4fef","620a604b9e2a2d73c813f556","1","5","22","31","","",""
"3934","key"," "," ","16.872918103448306","500","250","psychophysics","33","106550","0.0-33.0","610aa1281c6c579dba2c4fef","620a604b9e2a2d73c813f556","1","0","38","65","","",""
"3380","key"," "," ","16.65744278606969","500","250","psychophysics","34","109936","0.0-34.0","610aa1281c6c579dba2c4fef","620a604b9e2a2d73c813f556","1","5","41","47","","",""
"7103","key"," "," ","16.77600236966824","500","250","psychophysics","35","117044","0.0-35.0","610aa1281c6c579dba2c4fef","620a604b9e2a2d73c813f556","1","0","53","97","","",""
"3176","key"," "," ","16.657507853403153","500","250","psychophysics","36","120234","0.0-36.0","610aa1281c6c579dba2c4fef","620a604b9e2a2d73c813f556","1","5","44","55","","",""
"952","key"," "," ","16.65761403508766","500","250","psychophysics","37","121201","0.0-37.0","610aa1281c6c579dba2c4fef","620a604b9e2a2d73c813f556","","","","","","",""
"2956","key"," "," ","16.65757627118646","500","250","psychophysics","38","124168","0.0-38.0","610aa1281c6c579dba2c4fef","620a604b9e2a2d73c813f556","","","","","","",""
"1195","key"," "," ","16.657375000000076","500","250","psychophysics","39","125373","0.0-39.0","610aa1281c6c579dba2c4fef","620a604b9e2a2d73c813f556","","","","","","",""
"4159","key"," "," ","16.657546184738923","500","250","psychophysics","40","129539","0.0-40.0","610aa1281c6c579dba2c4fef","620a604b9e2a2d73c813f556","2","0","31","70","","",""
"3929","key"," "," ","16.657570212765936","500","250","psychophysics","41","133482","0.0-41.0","610aa1281c6c579dba2c4fef","620a604b9e2a2d73c813f556","","","","","","",""
"5131","key"," "," ","16.71182736156348","500","250","psychophysics","42","138627","0.0-42.0","610aa1281c6c579dba2c4fef","620a604b9e2a2d73c813f556","2","0","51","87","","",""
"2061","key"," "," ","16.793113821138327","500","250","psychophysics","43","140699","0.0-43.0","610aa1281c6c579dba2c4fef","620a604b9e2a2d73c813f556","","","","","","",""
"6194","key"," "," ","16.74784552845525","500","250","psychophysics","44","146900","0.0-44.0","610aa1281c6c579dba2c4fef","620a604b9e2a2d73c813f556","2","0","43","112","","",""
"2467","key"," "," ","16.657693877551097","500","250","psychophysics","45","149371","0.0-45.0","610aa1281c6c579dba2c4fef","620a604b9e2a2d73c813f556","","","","","","",""
"7741","key"," "," ","16.6575603448276","500","250","psychophysics","46","157120","0.0-46.0","610aa1281c6c579dba2c4fef","620a604b9e2a2d73c813f556","2","0","43","143","","",""
"1887","key"," "," ","16.657754385964882","500","250","psychophysics","47","159028","0.0-47.0","610aa1281c6c579dba2c4fef","620a604b9e2a2d73c813f556","","","","","","",""
"4214","key"," "," ","16.657632411067286","500","250","psychophysics","48","163254","0.0-48.0","610aa1281c6c579dba2c4fef","620a604b9e2a2d73c813f556","2","0","57","74","","",""
"1183","key"," "," ","16.657628571428774","500","250","psychophysics","49","164444","0.0-49.0","610aa1281c6c579dba2c4fef","620a604b9e2a2d73c813f556","","","","","","",""
"3808","key"," "," ","16.65758333333335","500","250","psychophysics","50","168268","0.0-50.0","610aa1281c6c579dba2c4fef","620a604b9e2a2d73c813f556","2","0","44","69","","",""
"937","key"," "," ","16.65761403508766","500","250","psychophysics","51","169219","0.0-51.0","610aa1281c6c579dba2c4fef","620a604b9e2a2d73c813f556","","","","","","",""
"2219","key"," "," ","17.042092307692375","500","250","psychophysics","52","171454","0.0-52.0","610aa1281c6c579dba2c4fef","620a604b9e2a2d73c813f556","2","0","21","36","","",""
"972","key"," "," ","16.657241379310264","500","250","psychophysics","53","172437","0.0-53.0","610aa1281c6c579dba2c4fef","620a604b9e2a2d73c813f556","","","","","","",""
"2690","key"," "," ","16.657453416149103","500","250","psychophysics","54","175143","0.0-54.0","610aa1281c6c579dba2c4fef","620a604b9e2a2d73c813f556","2","0","40","45","","",""
"935","key"," "," ","16.657535714285455","500","250","psychophysics","55","176087","0.0-55.0","610aa1281c6c579dba2c4fef","620a604b9e2a2d73c813f556","","","","","","",""
"2640","key"," "," ","16.65746835443041","500","250","psychophysics","56","178740","0.0-56.0","610aa1281c6c579dba2c4fef","620a604b9e2a2d73c813f556","2","0","37","45","","",""
"896","key"," "," ","16.65724074074091","500","250","psychophysics","57","179645","0.0-57.0","610aa1281c6c579dba2c4fef","620a604b9e2a2d73c813f556","","","","","","",""
"4111","key"," "," ","16.657560975609677","500","250","psychophysics","58","183762","0.0-58.0","610aa1281c6c579dba2c4fef","620a604b9e2a2d73c813f556","2","0","60","75","","",""
"893","key"," "," ","16.658075471698055","500","250","psychophysics","59","184659","0.0-59.0","610aa1281c6c579dba2c4fef","620a604b9e2a2d73c813f556","","","","","","",""
"4123","key"," "," ","16.657582995951458","500","250","psychophysics","60","188788","0.0-60.0","610aa1281c6c579dba2c4fef","620a604b9e2a2d73c813f556","2","0","60","74","","",""
"1244","key"," "," ","16.657743243242983","500","250","psychophysics","61","190036","0.0-61.0","610aa1281c6c579dba2c4fef","620a604b9e2a2d73c813f556","","","","","","",""
"2802","key"," "," ","16.657664670658605","500","250","psychophysics","62","192847","0.0-62.0","610aa1281c6c579dba2c4fef","620a604b9e2a2d73c813f556","2","0","20","28","","",""
"842","key"," "," ","16.657919999999578","500","250","psychophysics","63","193699","0.0-63.0","610aa1281c6c579dba2c4fef","620a604b9e2a2d73c813f556","","","","","","",""
"2420","key"," "," ","16.657462068965483","500","250","psychophysics","64","196132","0.0-64.0","610aa1281c6c579dba2c4fef","620a604b9e2a2d73c813f556","2","0","21","38","","",""
"896","key"," "," ","16.657518518518405","500","250","psychophysics","65","197038","0.0-65.0","610aa1281c6c579dba2c4fef","620a604b9e2a2d73c813f556","","","","","","",""
"4355","key"," "," ","16.657567049808428","500","250","psychophysics","66","201407","0.0-66.0","610aa1281c6c579dba2c4fef","620a604b9e2a2d73c813f556","2","0","58","78","","",""
"842","key"," "," ","16.657375000000076","500","250","psychophysics","67","202253","0.0-67.0","610aa1281c6c579dba2c4fef","620a604b9e2a2d73c813f556","","","","","","",""
"4028","key"," "," ","16.8684641350211","500","250","psychophysics","68","206288","0.0-68.0","610aa1281c6c579dba2c4fef","620a604b9e2a2d73c813f556","2","0","52","71","","",""
"953","key"," "," ","16.657157894736564","500","250","psychophysics","69","207253","0.0-69.0","610aa1281c6c579dba2c4fef","620a604b9e2a2d73c813f556","","","","","","",""
"2250","key"," "," ","16.657681481481564","500","250","psychophysics","70","209514","0.0-70.0","610aa1281c6c579dba2c4fef","620a604b9e2a2d73c813f556","","","","","","",""
"1546","key"," "," ","16.657565217391454","500","250","psychophysics","71","211066","0.0-71.0","610aa1281c6c579dba2c4fef","620a604b9e2a2d73c813f556","","","","","","",""
"2742","key"," "," ","16.6575000000001","500","250","psychophysics","72","213822","0.0-72.0","610aa1281c6c579dba2c4fef","620a604b9e2a2d73c813f556","3","5","31","35","","",""
"4422","key"," "," ","16.65756015037602","500","250","psychophysics","73","218257","0.0-73.0","610aa1281c6c579dba2c4fef","620a604b9e2a2d73c813f556","3","0","59","76","","",""
"4882","key"," "," ","16.657529209622044","500","250","psychophysics","74","223146","0.0-74.0","610aa1281c6c579dba2c4fef","620a604b9e2a2d73c813f556","3","5","52","67","","",""
"5108","key"," "," ","16.657570032573325","500","250","psychophysics","75","228269","0.0-75.0","610aa1281c6c579dba2c4fef","620a604b9e2a2d73c813f556","3","0","58","76","","",""
"2695","key"," "," ","16.76165000000001","500","250","psychophysics","76","230972","0.0-76.0","610aa1281c6c579dba2c4fef","620a604b9e2a2d73c813f556","3","5","47","49","","",""
"2357","key"," "," ","16.65754225352102","500","250","psychophysics","77","233346","0.0-77.0","610aa1281c6c579dba2c4fef","620a604b9e2a2d73c813f556","3","0","23","39","","",""
"2034","key"," "," ","16.657561983471094","500","250","psychophysics","78","235386","0.0-78.0","610aa1281c6c579dba2c4fef","620a604b9e2a2d73c813f556","3","5","26","33","","",""
"2724","key"," "," ","16.657539877300636","500","250","psychophysics","79","238116","0.0-79.0","610aa1281c6c579dba2c4fef","620a604b9e2a2d73c813f556","3","0","27","45","","",""
"3905","key"," "," ","16.657559829059732","500","250","psychophysics","80","242027","0.0-80.0","610aa1281c6c579dba2c4fef","620a604b9e2a2d73c813f556","3","5","55","64","","",""
"2547","key"," "," ","16.65769078947376","500","250","psychophysics","81","244581","0.0-81.0","610aa1281c6c579dba2c4fef","620a604b9e2a2d73c813f556","3","0","21","34","","",""
"2415","key"," "," ","16.657586206896593","500","250","psychophysics","82","247010","0.0-82.0","610aa1281c6c579dba2c4fef","620a604b9e2a2d73c813f556","3","5","33","38","","",""
"2117","key"," "," ","16.6575873015873","500","250","psychophysics","83","249132","0.0-83.0","610aa1281c6c579dba2c4fef","620a604b9e2a2d73c813f556","3","0","20","29","","",""
"2493","key"," "," ","16.769335570469757","500","250","psychophysics","84","251638","0.0-84.0","610aa1281c6c579dba2c4fef","620a604b9e2a2d73c813f556","3","5","30","31","","",""
"2013","key"," "," ","16.657550000000143","500","250","psychophysics","85","253659","0.0-85.0","610aa1281c6c579dba2c4fef","620a604b9e2a2d73c813f556","3","0","20","35","","",""
"2562","key"," "," ","16.65767320261445","500","250","psychophysics","86","256228","0.0-86.0","610aa1281c6c579dba2c4fef","620a604b9e2a2d73c813f556","3","5","40","37","","",""
"4431","key"," "," ","16.657567669172824","500","250","psychophysics","87","260670","0.0-87.0","610aa1281c6c579dba2c4fef","620a604b9e2a2d73c813f556","3","0","47","68","","",""
"3924","key"," "," ","16.65756595744702","500","250","psychophysics","88","264600","0.0-88.0","610aa1281c6c579dba2c4fef","620a604b9e2a2d73c813f556","3","5","57","65","","",""
"2778","key"," "," ","16.657566265060346","500","250","psychophysics","89","267384","0.0-89.0","610aa1281c6c579dba2c4fef","620a604b9e2a2d73c813f556","3","0","35","43","","",""
"2734","key"," "," ","16.65756097560991","500","250","psychophysics","90","270134","0.0-90.0","610aa1281c6c579dba2c4fef","620a604b9e2a2d73c813f556","3","5","35","49","","",""
"3345","key"," "," ","16.65758706467656","500","250","psychophysics","91","273492","0.0-91.0","610aa1281c6c579dba2c4fef","620a604b9e2a2d73c813f556","3","0","31","53","","",""
"1071","key"," "," ","16.657571428571828","500","250","psychophysics","92","274568","0.0-92.0","610aa1281c6c579dba2c4fef","620a604b9e2a2d73c813f556","","","","","","",""
"10139","","","v","","","","html-keyboard-response","93","284755","0.0-93.0","610aa1281c6c579dba2c4fef","620a604b9e2a2d73c813f556","","","","","<p> In this part of the experiment, we are going present digits 1, 2, 3, 4, 6, 7, 8, and 9.  Notice that 5 is missing.  Your job is to say whether the presented digit is less than or greater than 5.  For example, 3 is less than 5 and 7 is greater than 5.  If the digit is less than 5, press the v key; if it is greater than 5, press the n key. We are going to do 200 of these in total, but only 50 righ now. They go real fast.</p>  <br><br>  Ready? (press v or n)","",""
"4730","key","v","v","16.82814436619708","500","250","psychophysics","94","289496","0.0-94.0","610aa1281c6c579dba2c4fef","620a604b9e2a2d73c813f556","4","","","","","1","4"
"null","","","null","","","","html-keyboard-response","95","290004","0.0-95.0","610aa1281c6c579dba2c4fef","620a604b9e2a2d73c813f556","","","","","<p style=""color:darkgreen;font-size:24px;"">Correct :)</p>","",""
"8105","key","v","v","16.6574804928132","500","250","psychophysics","96","298121","0.0-96.0","610aa1281c6c579dba2c4fef","620a604b9e2a2d73c813f556","4","","","","","1","3"
"null","","","null","","","","html-keyboard-response","97","298628","0.0-97.0","610aa1281c6c579dba2c4fef","620a604b9e2a2d73c813f556","","","","","<p style=""color:darkgreen;font-size:24px;"">Correct :)</p>","",""
"3268","key","n","n","16.656540816326384","500","250","psychophysics","98","301900","0.0-98.0","610aa1281c6c579dba2c4fef","620a604b9e2a2d73c813f556","4","","","","","1","8"
"null","","","null","","","","html-keyboard-response","99","302406","0.0-99.0","610aa1281c6c579dba2c4fef","620a604b9e2a2d73c813f556","","","","","<p style=""color:darkgreen;font-size:24px;"">Correct :)</p>","",""
"3514","key","n","n","16.656777251184913","500","250","psychophysics","100","305931","0.0-100.0","610aa1281c6c579dba2c4fef","620a604b9e2a2d73c813f556","4","","","","","1","9"
"null","","","null","","","","html-keyboard-response","101","306434","0.0-101.0","610aa1281c6c579dba2c4fef","620a604b9e2a2d73c813f556","","","","","<p style=""color:darkgreen;font-size:24px;"">Correct :)</p>","",""
"3303","key","v","v","16.65661809045234","500","250","psychophysics","102","309756","0.0-102.0","610aa1281c6c579dba2c4fef","620a604b9e2a2d73c813f556","4","","","","","1","2"
"null","","","null","","","","html-keyboard-response","103","310260","0.0-103.0","610aa1281c6c579dba2c4fef","620a604b9e2a2d73c813f556","","","","","<p style=""color:darkgreen;font-size:24px;"">Correct :)</p>","",""
"3346","key","n","n","16.65658208955223","500","250","psychophysics","104","313613","0.0-104.0","610aa1281c6c579dba2c4fef","620a604b9e2a2d73c813f556","4","","","","","1","8"
"null","","","null","","","","html-keyboard-response","105","314119","0.0-105.0","610aa1281c6c579dba2c4fef","620a604b9e2a2d73c813f556","","","","","<p style=""color:darkgreen;font-size:24px;"">Correct :)</p>","",""
"3067","key","v","v","16.656502702702593","500","250","psychophysics","106","317217","0.0-106.0","610aa1281c6c579dba2c4fef","620a604b9e2a2d73c813f556","4","","","","","1","1"
"null","","","null","","","","html-keyboard-response","107","317723","0.0-107.0","610aa1281c6c579dba2c4fef","620a604b9e2a2d73c813f556","","","","","<p style=""color:darkgreen;font-size:24px;"">Correct :)</p>","",""
"3242","key","v","v","16.656564102563948","500","250","psychophysics","108","320974","0.0-108.0","610aa1281c6c579dba2c4fef","620a604b9e2a2d73c813f556","4","","","","","1","4"
"null","","","null","","","","html-keyboard-response","109","321476","0.0-109.0","610aa1281c6c579dba2c4fef","620a604b9e2a2d73c813f556","","","","","<p style=""color:darkgreen;font-size:24px;"">Correct :)</p>","",""
"2558","key","v","v","16.765163398692856","500","250","psychophysics","110","324051","0.0-110.0","610aa1281c6c579dba2c4fef","620a604b9e2a2d73c813f556","4","","","","","1","4"
"null","","","null","","","","html-keyboard-response","111","324555","0.0-111.0","610aa1281c6c579dba2c4fef","620a604b9e2a2d73c813f556","","","","","<p style=""color:darkgreen;font-size:24px;"">Correct :)</p>","",""
"2779","key","n","n","16.656297619047802","500","250","psychophysics","112","327346","0.0-112.0","610aa1281c6c579dba2c4fef","620a604b9e2a2d73c813f556","4","","","","","1","8"
"null","","","null","","","","html-keyboard-response","113","327850","0.0-113.0","610aa1281c6c579dba2c4fef","620a604b9e2a2d73c813f556","","","","","<p style=""color:darkgreen;font-size:24px;"">Correct :)</p>","",""
"2787","key","v","v","16.65645833333318","500","250","psychophysics","114","330649","0.0-114.0","610aa1281c6c579dba2c4fef","620a604b9e2a2d73c813f556","4","","","","","1","4"
"null","","","null","","","","html-keyboard-response","115","331154","0.0-115.0","610aa1281c6c579dba2c4fef","620a604b9e2a2d73c813f556","","","","","<p style=""color:darkgreen;font-size:24px;"">Correct :)</p>","",""
"3127","key","v","v","16.65659788359793","500","250","psychophysics","116","334293","0.0-116.0","610aa1281c6c579dba2c4fef","620a604b9e2a2d73c813f556","4","","","","","1","3"
"null","","","null","","","","html-keyboard-response","117","334797","0.0-117.0","610aa1281c6c579dba2c4fef","620a604b9e2a2d73c813f556","","","","","<p style=""color:darkgreen;font-size:24px;"">Correct :)</p>","",""
"2836","key","n","n","16.656564705882236","500","250","psychophysics","118","337642","0.0-118.0","610aa1281c6c579dba2c4fef","620a604b9e2a2d73c813f556","4","","","","","1","8"
"null","","","null","","","","html-keyboard-response","119","338146","0.0-119.0","610aa1281c6c579dba2c4fef","620a604b9e2a2d73c813f556","","","","","<p style=""color:darkgreen;font-size:24px;"">Correct :)</p>","",""
"2750","key","n","n","16.656397590361443","500","250","psychophysics","120","340905","0.0-120.0","610aa1281c6c579dba2c4fef","620a604b9e2a2d73c813f556","4","","","","","1","9"
"null","","","null","","","","html-keyboard-response","121","341410","0.0-121.0","610aa1281c6c579dba2c4fef","620a604b9e2a2d73c813f556","","","","","<p style=""color:darkgreen;font-size:24px;"">Correct :)</p>","",""
"2598","key","v","v","16.65633121019105","500","250","psychophysics","122","344019","0.0-122.0","610aa1281c6c579dba2c4fef","620a604b9e2a2d73c813f556","4","","","","","1","1"
"null","","","null","","","","html-keyboard-response","123","344525","0.0-123.0","610aa1281c6c579dba2c4fef","620a604b9e2a2d73c813f556","","","","","<p style=""color:darkgreen;font-size:24px;"">Correct :)</p>","",""
"2521","key","v","v","16.656348684210617","500","250","psychophysics","124","347059","0.0-124.0","610aa1281c6c579dba2c4fef","620a604b9e2a2d73c813f556","4","","","","","1","4"
"null","","","null","","","","html-keyboard-response","125","347563","0.0-125.0","610aa1281c6c579dba2c4fef","620a604b9e2a2d73c813f556","","","","","<p style=""color:darkgreen;font-size:24px;"">Correct :)</p>","",""
"2553","key","v","v","16.656169934640715","500","250","psychophysics","126","350127","0.0-126.0","610aa1281c6c579dba2c4fef","620a604b9e2a2d73c813f556","4","","","","","1","2"
"null","","","null","","","","html-keyboard-response","127","350630","0.0-127.0","610aa1281c6c579dba2c4fef","620a604b9e2a2d73c813f556","","","","","<p style=""color:darkgreen;font-size:24px;"">Correct :)</p>","",""
"2920","key","n","n","16.75226436781626","500","250","psychophysics","128","353553","0.0-128.0","610aa1281c6c579dba2c4fef","620a604b9e2a2d73c813f556","4","","","","","1","6"
"null","","","null","","","","html-keyboard-response","129","354060","0.0-129.0","610aa1281c6c579dba2c4fef","620a604b9e2a2d73c813f556","","","","","<p style=""color:darkgreen;font-size:24px;"">Correct :)</p>","",""
"2698","key","n","n","16.656417177914015","500","250","psychophysics","130","356771","0.0-130.0","610aa1281c6c579dba2c4fef","620a604b9e2a2d73c813f556","4","","","","","1","7"
"null","","","null","","","","html-keyboard-response","131","357275","0.0-131.0","610aa1281c6c579dba2c4fef","620a604b9e2a2d73c813f556","","","","","<p style=""color:darkgreen;font-size:24px;"">Correct :)</p>","",""
"2900","key","n","n","16.657281609195227","500","250","psychophysics","132","360180","0.0-132.0","610aa1281c6c579dba2c4fef","620a604b9e2a2d73c813f556","4","","","","","1","7"
"null","","","null","","","","html-keyboard-response","133","360684","0.0-133.0","610aa1281c6c579dba2c4fef","620a604b9e2a2d73c813f556","","","","","<p style=""color:darkgreen;font-size:24px;"">Correct :)</p>","",""
"2914","key","v","v","16.65650568181842","500","250","psychophysics","134","363611","0.0-134.0","610aa1281c6c579dba2c4fef","620a604b9e2a2d73c813f556","4","","","","","1","3"
"null","","","null","","","","html-keyboard-response","135","364115","0.0-135.0","610aa1281c6c579dba2c4fef","620a604b9e2a2d73c813f556","","","","","<p style=""color:darkgreen;font-size:24px;"">Correct :)</p>","",""
"2610","key","v","v","16.656436708860785","500","250","psychophysics","136","366741","0.0-136.0","610aa1281c6c579dba2c4fef","620a604b9e2a2d73c813f556","4","","","","","1","3"
"null","","","null","","","","html-keyboard-response","137","367245","0.0-137.0","610aa1281c6c579dba2c4fef","620a604b9e2a2d73c813f556","","","","","<p style=""color:darkgreen;font-size:24px;"">Correct :)</p>","",""
"2596","key","v","v","16.656320512820503","500","250","psychophysics","138","369849","0.0-138.0","610aa1281c6c579dba2c4fef","620a604b9e2a2d73c813f556","4","","","","","1","3"
"null","","","null","","","","html-keyboard-response","139","370356","0.0-139.0","610aa1281c6c579dba2c4fef","620a604b9e2a2d73c813f556","","","","","<p style=""color:darkgreen;font-size:24px;"">Correct :)</p>","",""
"2679","key","n","n","16.657136645962726","500","250","psychophysics","140","373048","0.0-140.0","610aa1281c6c579dba2c4fef","620a604b9e2a2d73c813f556","4","","","","","1","8"
"null","","","null","","","","html-keyboard-response","141","373552","0.0-141.0","610aa1281c6c579dba2c4fef","620a604b9e2a2d73c813f556","","","","","<p style=""color:darkgreen;font-size:24px;"">Correct :)</p>","",""
"2691","key","n","n","16.65630864197522","500","250","psychophysics","142","376254","0.0-142.0","610aa1281c6c579dba2c4fef","620a604b9e2a2d73c813f556","4","","","","","1","7"
"null","","","null","","","","html-keyboard-response","143","376758","0.0-143.0","610aa1281c6c579dba2c4fef","620a604b9e2a2d73c813f556","","","","","<p style=""color:darkgreen;font-size:24px;"">Correct :)</p>","",""
"2476","key","n","n","16.656181208053745","500","250","psychophysics","144","379245","0.0-144.0","610aa1281c6c579dba2c4fef","620a604b9e2a2d73c813f556","4","","","","","1","7"
"null","","","null","","","","html-keyboard-response","145","379751","0.0-145.0","610aa1281c6c579dba2c4fef","620a604b9e2a2d73c813f556","","","","","<p style=""color:darkgreen;font-size:24px;"">Correct :)</p>","",""
"2489","key","n","n","16.768060402684508","500","250","psychophysics","146","382251","0.0-146.0","610aa1281c6c579dba2c4fef","620a604b9e2a2d73c813f556","4","","","","","1","7"
"null","","","null","","","","html-keyboard-response","147","382756","0.0-147.0","610aa1281c6c579dba2c4fef","620a604b9e2a2d73c813f556","","","","","<p style=""color:darkgreen;font-size:24px;"">Correct :)</p>","",""
"2800","key","n","n","16.656375000000047","500","250","psychophysics","148","385576","0.0-148.0","610aa1281c6c579dba2c4fef","620a604b9e2a2d73c813f556","4","","","","","1","6"
"null","","","null","","","","html-keyboard-response","149","386079","0.0-149.0","610aa1281c6c579dba2c4fef","620a604b9e2a2d73c813f556","","","","","<p style=""color:darkgreen;font-size:24px;"">Correct :)</p>","",""
"2907","key","v","v","16.656399999999973","500","250","psychophysics","150","389002","0.0-150.0","610aa1281c6c579dba2c4fef","620a604b9e2a2d73c813f556","4","","","","","1","3"
"null","","","null","","","","html-keyboard-response","151","389505","0.0-151.0","610aa1281c6c579dba2c4fef","620a604b9e2a2d73c813f556","","","","","<p style=""color:darkgreen;font-size:24px;"">Correct :)</p>","",""
"2847","key","n","n","16.65647093023256","500","250","psychophysics","152","392364","0.0-152.0","610aa1281c6c579dba2c4fef","620a604b9e2a2d73c813f556","4","","","","","1","6"
"null","","","null","","","","html-keyboard-response","153","392872","0.0-153.0","610aa1281c6c579dba2c4fef","620a604b9e2a2d73c813f556","","","","","<p style=""color:darkgreen;font-size:24px;"">Correct :)</p>","",""
"2688","key","n","n","16.656417177914015","500","250","psychophysics","154","395579","0.0-154.0","610aa1281c6c579dba2c4fef","620a604b9e2a2d73c813f556","4","","","","","1","6"
"null","","","null","","","","html-keyboard-response","155","396084","0.0-155.0","610aa1281c6c579dba2c4fef","620a604b9e2a2d73c813f556","","","","","<p style=""color:darkgreen;font-size:24px;"">Correct :)</p>","",""
"2600","key","n","n","16.656382165604885","500","250","psychophysics","156","398699","0.0-156.0","610aa1281c6c579dba2c4fef","620a604b9e2a2d73c813f556","4","","","","","1","7"
"null","","","null","","","","html-keyboard-response","157","399204","0.0-157.0","610aa1281c6c579dba2c4fef","620a604b9e2a2d73c813f556","","","","","<p style=""color:darkgreen;font-size:24px;"">Correct :)</p>","",""
"3078","key","v","v","16.65646486486516","500","250","psychophysics","158","402293","0.0-158.0","610aa1281c6c579dba2c4fef","620a604b9e2a2d73c813f556","4","","","","","1","4"
"null","","","null","","","","html-keyboard-response","159","402796","0.0-159.0","610aa1281c6c579dba2c4fef","620a604b9e2a2d73c813f556","","","","","<p style=""color:darkgreen;font-size:24px;"">Correct :)</p>","",""
"2648","key","n","n","16.656362499999886","500","250","psychophysics","160","405462","0.0-160.0","610aa1281c6c579dba2c4fef","620a604b9e2a2d73c813f556","4","","","","","1","7"
"null","","","null","","","","html-keyboard-response","161","405966","0.0-161.0","610aa1281c6c579dba2c4fef","620a604b9e2a2d73c813f556","","","","","<p style=""color:darkgreen;font-size:24px;"">Correct :)</p>","",""
"2516","key","n","n","16.767506666666595","500","250","psychophysics","162","408493","0.0-162.0","610aa1281c6c579dba2c4fef","620a604b9e2a2d73c813f556","4","","","","","1","7"
"null","","","null","","","","html-keyboard-response","163","409000","0.0-163.0","610aa1281c6c579dba2c4fef","620a604b9e2a2d73c813f556","","","","","<p style=""color:darkgreen;font-size:24px;"">Correct :)</p>","",""
"2676","key","v","v","16.65641614906844","500","250","psychophysics","164","411688","0.0-164.0","610aa1281c6c579dba2c4fef","620a604b9e2a2d73c813f556","4","","","","","1","1"
"null","","","null","","","","html-keyboard-response","165","412193","0.0-165.0","610aa1281c6c579dba2c4fef","620a604b9e2a2d73c813f556","","","","","<p style=""color:darkgreen;font-size:24px;"">Correct :)</p>","",""
"2591","key","n","n","16.656394904458622","500","250","psychophysics","166","414798","0.0-166.0","610aa1281c6c579dba2c4fef","620a604b9e2a2d73c813f556","4","","","","","1","8"
"null","","","null","","","","html-keyboard-response","167","415303","0.0-167.0","610aa1281c6c579dba2c4fef","620a604b9e2a2d73c813f556","","","","","<p style=""color:darkgreen;font-size:24px;"">Correct :)</p>","",""
"2479","key","v","v","16.656402684563783","500","250","psychophysics","168","417795","0.0-168.0","610aa1281c6c579dba2c4fef","620a604b9e2a2d73c813f556","4","","","","","1","3"
"null","","","null","","","","html-keyboard-response","169","418301","0.0-169.0","610aa1281c6c579dba2c4fef","620a604b9e2a2d73c813f556","","","","","<p style=""color:darkgreen;font-size:24px;"">Correct :)</p>","",""
"2600","key","n","n","16.65626114649679","500","250","psychophysics","170","420915","0.0-170.0","610aa1281c6c579dba2c4fef","620a604b9e2a2d73c813f556","4","","","","","1","9"
"null","","","null","","","","html-keyboard-response","171","421419","0.0-171.0","610aa1281c6c579dba2c4fef","620a604b9e2a2d73c813f556","","","","","<p style=""color:darkgreen;font-size:24px;"">Correct :)</p>","",""
"2446","key","v","v","16.656351351351052","500","250","psychophysics","172","423878","0.0-172.0","610aa1281c6c579dba2c4fef","620a604b9e2a2d73c813f556","4","","","","","1","1"
"null","","","null","","","","html-keyboard-response","173","424383","0.0-173.0","610aa1281c6c579dba2c4fef","620a604b9e2a2d73c813f556","","","","","<p style=""color:darkgreen;font-size:24px;"">Correct :)</p>","",""
"2540","key","v","v","16.656183006536","500","250","psychophysics","174","426937","0.0-174.0","610aa1281c6c579dba2c4fef","620a604b9e2a2d73c813f556","4","","","","","1","4"
"null","","","null","","","","html-keyboard-response","175","427441","0.0-175.0","610aa1281c6c579dba2c4fef","620a604b9e2a2d73c813f556","","","","","<p style=""color:darkgreen;font-size:24px;"">Correct :)</p>","",""
"2401","key","v","v","16.65618055555549","500","250","psychophysics","176","429854","0.0-176.0","610aa1281c6c579dba2c4fef","620a604b9e2a2d73c813f556","4","","","","","1","4"
"null","","","null","","","","html-keyboard-response","177","430359","0.0-177.0","610aa1281c6c579dba2c4fef","620a604b9e2a2d73c813f556","","","","","<p style=""color:darkgreen;font-size:24px;"">Correct :)</p>","",""
"2573","key","n","n","16.65616129032231","500","250","psychophysics","178","432944","0.0-178.0","610aa1281c6c579dba2c4fef","620a604b9e2a2d73c813f556","4","","","","","1","9"
"null","","","null","","","","html-keyboard-response","179","433447","0.0-179.0","610aa1281c6c579dba2c4fef","620a604b9e2a2d73c813f556","","","","","<p style=""color:darkgreen;font-size:24px;"">Correct :)</p>","",""
"2467","key","n","n","16.768844594594526","500","250","psychophysics","180","435931","0.0-180.0","610aa1281c6c579dba2c4fef","620a604b9e2a2d73c813f556","4","","","","","1","8"
"null","","","null","","","","html-keyboard-response","181","436438","0.0-181.0","610aa1281c6c579dba2c4fef","620a604b9e2a2d73c813f556","","","","","<p style=""color:darkgreen;font-size:24px;"">Correct :)</p>","",""
"2405","key","v","v","16.65619310344818","500","250","psychophysics","182","438858","0.0-182.0","610aa1281c6c579dba2c4fef","620a604b9e2a2d73c813f556","4","","","","","1","1"
"null","","","null","","","","html-keyboard-response","183","439361","0.0-183.0","610aa1281c6c579dba2c4fef","620a604b9e2a2d73c813f556","","","","","<p style=""color:darkgreen;font-size:24px;"">Correct :)</p>","",""
"2550","key","v","v","16.656307189542346","500","250","psychophysics","184","441925","0.0-184.0","610aa1281c6c579dba2c4fef","620a604b9e2a2d73c813f556","4","","","","","1","3"
"null","","","null","","","","html-keyboard-response","185","442430","0.0-185.0","610aa1281c6c579dba2c4fef","620a604b9e2a2d73c813f556","","","","","<p style=""color:darkgreen;font-size:24px;"">Correct :)</p>","",""
"2666","key","n","n","16.656387499999983","500","250","psychophysics","186","445111","0.0-186.0","610aa1281c6c579dba2c4fef","620a604b9e2a2d73c813f556","4","","","","","1","7"
"null","","","null","","","","html-keyboard-response","187","445620","0.0-187.0","610aa1281c6c579dba2c4fef","620a604b9e2a2d73c813f556","","","","","<p style=""color:darkgreen;font-size:24px;"">Correct :)</p>","",""
"3146","key","v","v","16.65648947368425","500","250","psychophysics","188","448782","0.0-188.0","610aa1281c6c579dba2c4fef","620a604b9e2a2d73c813f556","4","","","","","1","4"
"null","","","null","","","","html-keyboard-response","189","449288","0.0-189.0","610aa1281c6c579dba2c4fef","620a604b9e2a2d73c813f556","","","","","<p style=""color:darkgreen;font-size:24px;"">Correct :)</p>","",""
"2649","key","n","n","16.656437500000173","500","250","psychophysics","190","451953","0.0-190.0","610aa1281c6c579dba2c4fef","620a604b9e2a2d73c813f556","4","","","","","1","9"
"null","","","null","","","","html-keyboard-response","191","452458","0.0-191.0","610aa1281c6c579dba2c4fef","620a604b9e2a2d73c813f556","","","","","<p style=""color:darkgreen;font-size:24px;"">Correct :)</p>","",""
"2588","key","v","v","16.656365384615267","500","250","psychophysics","192","455060","0.0-192.0","610aa1281c6c579dba2c4fef","620a604b9e2a2d73c813f556","4","","","","","1","4"
"null","","","null","","","","html-keyboard-response","193","455564","0.0-193.0","610aa1281c6c579dba2c4fef","620a604b9e2a2d73c813f556","","","","","<p style=""color:darkgreen;font-size:24px;"">Correct :)</p>","",""
"86020","","","v","","","","html-keyboard-response","194","541588","0.0-194.0","610aa1281c6c579dba2c4fef","620a604b9e2a2d73c813f556","","","","","<p> Ok, now we are going present the same digits as before.  Your job is to say whether the digit is even or odd  If the digit is odd, press to v key; if it is even, press the n key. We are going to do 50 of these.  </p>  <br><br>  Ready? (press v or n)","",""
"2760","key","v","v","16.626568862275377","500","250","psychophysics","195","544362","0.0-195.0","610aa1281c6c579dba2c4fef","620a604b9e2a2d73c813f556","5","","","","","0","3"
"null","","","null","","","","html-keyboard-response","196","544869","0.0-196.0","610aa1281c6c579dba2c4fef","620a604b9e2a2d73c813f556","","","","","<p style=""color:darkgreen;font-size:24px;"">Correct :)</p>","",""
"2587","key","v","v","16.65645512820517","500","250","psychophysics","197","547470","0.0-197.0","610aa1281c6c579dba2c4fef","620a604b9e2a2d73c813f556","5","","","","","0","3"
"null","","","null","","","","html-keyboard-response","198","547973","0.0-198.0","610aa1281c6c579dba2c4fef","620a604b9e2a2d73c813f556","","","","","<p style=""color:darkgreen;font-size:24px;"">Correct :)</p>","",""
"2625","key","v","v","16.65629113924062","500","250","psychophysics","199","550655","0.0-199.0","610aa1281c6c579dba2c4fef","620a604b9e2a2d73c813f556","5","","","","","0","7"
"null","","","null","","","","html-keyboard-response","200","551160","0.0-200.0","610aa1281c6c579dba2c4fef","620a604b9e2a2d73c813f556","","","","","<p style=""color:darkgreen;font-size:24px;"">Correct :)</p>","",""
"2808","key","v","v","16.656396449704037","500","250","psychophysics","201","553986","0.0-201.0","610aa1281c6c579dba2c4fef","620a604b9e2a2d73c813f556","5","","","","","0","3"
"null","","","null","","","","html-keyboard-response","202","554494","0.0-202.0","610aa1281c6c579dba2c4fef","620a604b9e2a2d73c813f556","","","","","<p style=""color:darkgreen;font-size:24px;"">Correct :)</p>","",""
"2493","key","v","v","16.656226666666722","500","250","psychophysics","203","556998","0.0-203.0","610aa1281c6c579dba2c4fef","620a604b9e2a2d73c813f556","5","","","","","0","1"
"null","","","null","","","","html-keyboard-response","204","557503","0.0-204.0","610aa1281c6c579dba2c4fef","620a604b9e2a2d73c813f556","","","","","<p style=""color:darkgreen;font-size:24px;"">Correct :)</p>","",""
"2464","key","v","v","16.656209459459106","500","250","psychophysics","205","559979","0.0-205.0","610aa1281c6c579dba2c4fef","620a604b9e2a2d73c813f556","5","","","","","0","1"
"null","","","null","","","","html-keyboard-response","206","560488","0.0-206.0","610aa1281c6c579dba2c4fef","620a604b9e2a2d73c813f556","","","","","<p style=""color:darkgreen;font-size:24px;"">Correct :)</p>","",""
"3142","key","v","v","16.656592592592695","500","250","psychophysics","207","563644","0.0-207.0","610aa1281c6c579dba2c4fef","620a604b9e2a2d73c813f556","5","","","","","0","9"
"null","","","null","","","","html-keyboard-response","208","564150","0.0-208.0","610aa1281c6c579dba2c4fef","620a604b9e2a2d73c813f556","","","","","<p style=""color:darkgreen;font-size:24px;"">Correct :)</p>","",""
"3001","key","n","n","16.65644198895023","500","250","psychophysics","209","567170","0.0-209.0","610aa1281c6c579dba2c4fef","620a604b9e2a2d73c813f556","5","","","","","0","2"
"null","","","null","","","","html-keyboard-response","210","567674","0.0-210.0","610aa1281c6c579dba2c4fef","620a604b9e2a2d73c813f556","","","","","<p style=""color:darkgreen;font-size:24px;"">Correct :)</p>","",""
"2821","key","v","v","16.656529411764623","500","250","psychophysics","211","570508","0.0-211.0","610aa1281c6c579dba2c4fef","620a604b9e2a2d73c813f556","5","","","","","0","9"
"null","","","null","","","","html-keyboard-response","212","571013","0.0-212.0","610aa1281c6c579dba2c4fef","620a604b9e2a2d73c813f556","","","","","<p style=""color:darkgreen;font-size:24px;"">Correct :)</p>","",""
"3064","key","v","v","16.656499999999852","500","250","psychophysics","213","574089","0.0-213.0","610aa1281c6c579dba2c4fef","620a604b9e2a2d73c813f556","5","","","","","0","3"
"null","","","null","","","","html-keyboard-response","214","574595","0.0-214.0","610aa1281c6c579dba2c4fef","620a604b9e2a2d73c813f556","","","","","<p style=""color:darkgreen;font-size:24px;"">Correct :)</p>","",""
"3177","key","v","v","16.744257894736762","500","250","psychophysics","215","577785","0.0-215.0","610aa1281c6c579dba2c4fef","620a604b9e2a2d73c813f556","5","","","","","0","7"
"null","","","null","","","","html-keyboard-response","216","578293","0.0-216.0","610aa1281c6c579dba2c4fef","620a604b9e2a2d73c813f556","","","","","<p style=""color:darkgreen;font-size:24px;"">Correct :)</p>","",""
"2560","key","v","v","16.65640909090871","500","250","psychophysics","217","580861","0.0-217.0","610aa1281c6c579dba2c4fef","620a604b9e2a2d73c813f556","5","","","","","0","7"
"null","","","null","","","","html-keyboard-response","218","581364","0.0-218.0","610aa1281c6c579dba2c4fef","620a604b9e2a2d73c813f556","","","","","<p style=""color:darkgreen;font-size:24px;"">Correct :)</p>","",""
"3187","key","n","n","16.656541666666573","500","250","psychophysics","219","584565","0.0-219.0","610aa1281c6c579dba2c4fef","620a604b9e2a2d73c813f556","5","","","","","0","4"
"null","","","null","","","","html-keyboard-response","220","585071","0.0-220.0","610aa1281c6c579dba2c4fef","620a604b9e2a2d73c813f556","","","","","<p style=""color:darkgreen;font-size:24px;"">Correct :)</p>","",""
"2776","key","n","n","16.65637125748469","500","250","psychophysics","221","587860","0.0-221.0","610aa1281c6c579dba2c4fef","620a604b9e2a2d73c813f556","5","","","","","0","6"
"null","","","null","","","","html-keyboard-response","222","588365","0.0-222.0","610aa1281c6c579dba2c4fef","620a604b9e2a2d73c813f556","","","","","<p style=""color:darkgreen;font-size:24px;"">Correct :)</p>","",""
"2474","key","n","n","16.656342281879475","500","250","psychophysics","223","590853","0.0-223.0","610aa1281c6c579dba2c4fef","620a604b9e2a2d73c813f556","5","","","","","0","6"
"null","","","null","","","","html-keyboard-response","224","591359","0.0-224.0","610aa1281c6c579dba2c4fef","620a604b9e2a2d73c813f556","","","","","<p style=""color:darkgreen;font-size:24px;"">Correct :)</p>","",""
"2901","key","n","n","16.656468571428476","500","250","psychophysics","225","594276","0.0-225.0","610aa1281c6c579dba2c4fef","620a604b9e2a2d73c813f556","5","","","","","0","6"
"null","","","null","","","","html-keyboard-response","226","594784","0.0-226.0","610aa1281c6c579dba2c4fef","620a604b9e2a2d73c813f556","","","","","<p style=""color:darkgreen;font-size:24px;"">Correct :)</p>","",""
"2741","key","v","v","16.656454545454206","500","250","psychophysics","227","597539","0.0-227.0","610aa1281c6c579dba2c4fef","620a604b9e2a2d73c813f556","5","","","","","0","1"
"null","","","null","","","","html-keyboard-response","228","598042","0.0-228.0","610aa1281c6c579dba2c4fef","620a604b9e2a2d73c813f556","","","","","<p style=""color:darkgreen;font-size:24px;"">Correct :)</p>","",""
"2581","key","n","n","16.656303225806163","500","250","psychophysics","229","600634","0.0-229.0","610aa1281c6c579dba2c4fef","620a604b9e2a2d73c813f556","5","","","","","0","8"
"null","","","null","","","","html-keyboard-response","230","601138","0.0-230.0","610aa1281c6c579dba2c4fef","620a604b9e2a2d73c813f556","","","","","<p style=""color:darkgreen;font-size:24px;"">Correct :)</p>","",""
"2631","key","n","n","16.761645569620782","500","250","psychophysics","231","603785","0.0-231.0","610aa1281c6c579dba2c4fef","620a604b9e2a2d73c813f556","5","","","","","0","6"
"null","","","null","","","","html-keyboard-response","232","604293","0.0-232.0","610aa1281c6c579dba2c4fef","620a604b9e2a2d73c813f556","","","","","<p style=""color:darkgreen;font-size:24px;"">Correct :)</p>","",""
"3359","key","v","v","16.65656435643588","500","250","psychophysics","233","607668","0.0-233.0","610aa1281c6c579dba2c4fef","620a604b9e2a2d73c813f556","5","","","","","0","7"
"null","","","null","","","","html-keyboard-response","234","608175","0.0-234.0","610aa1281c6c579dba2c4fef","620a604b9e2a2d73c813f556","","","","","<p style=""color:darkgreen;font-size:24px;"">Correct :)</p>","",""
"2586","key","v","v","16.656230769230604","500","250","psychophysics","235","610774","0.0-235.0","610aa1281c6c579dba2c4fef","620a604b9e2a2d73c813f556","5","","","","","0","3"
"null","","","null","","","","html-keyboard-response","236","611279","0.0-236.0","610aa1281c6c579dba2c4fef","620a604b9e2a2d73c813f556","","","","","<p style=""color:darkgreen;font-size:24px;"">Correct :)</p>","",""
"3008","key","n","n","16.65646961325965","500","250","psychophysics","237","614303","0.0-237.0","610aa1281c6c579dba2c4fef","620a604b9e2a2d73c813f556","5","","","","","0","8"
"null","","","null","","","","html-keyboard-response","238","614807","0.0-238.0","610aa1281c6c579dba2c4fef","620a604b9e2a2d73c813f556","","","","","<p style=""color:darkgreen;font-size:24px;"">Correct :)</p>","",""
"2912","key","v","v","16.656354285714748","500","250","psychophysics","239","617727","0.0-239.0","610aa1281c6c579dba2c4fef","620a604b9e2a2d73c813f556","5","","","","","0","3"
"null","","","null","","","","html-keyboard-response","240","618231","0.0-240.0","610aa1281c6c579dba2c4fef","620a604b9e2a2d73c813f556","","","","","<p style=""color:darkgreen;font-size:24px;"">Correct :)</p>","",""
"2468","key","v","v","16.65628187919439","500","250","psychophysics","241","620707","0.0-241.0","610aa1281c6c579dba2c4fef","620a604b9e2a2d73c813f556","5","","","","","0","1"
"null","","","null","","","","html-keyboard-response","242","621213","0.0-242.0","610aa1281c6c579dba2c4fef","620a604b9e2a2d73c813f556","","","","","<p style=""color:darkgreen;font-size:24px;"">Correct :)</p>","",""
"2728","key","n","n","16.656359756097096","500","250","psychophysics","243","623955","0.0-243.0","610aa1281c6c579dba2c4fef","620a604b9e2a2d73c813f556","5","","","","","0","2"
"null","","","null","","","","html-keyboard-response","244","624459","0.0-244.0","610aa1281c6c579dba2c4fef","620a604b9e2a2d73c813f556","","","","","<p style=""color:darkgreen;font-size:24px;"">Correct :)</p>","",""
"2503","key","n","n","16.656158940397074","500","250","psychophysics","245","626977","0.0-245.0","610aa1281c6c579dba2c4fef","620a604b9e2a2d73c813f556","5","","","","","0","4"
"null","","","null","","","","html-keyboard-response","246","627482","0.0-246.0","610aa1281c6c579dba2c4fef","620a604b9e2a2d73c813f556","","","","","<p style=""color:darkgreen;font-size:24px;"">Correct :)</p>","",""
"2474","key","v","v","16.656261744966024","500","250","psychophysics","247","629966","0.0-247.0","610aa1281c6c579dba2c4fef","620a604b9e2a2d73c813f556","5","","","","","0","1"
"null","","","null","","","","html-keyboard-response","248","630476","0.0-248.0","610aa1281c6c579dba2c4fef","620a604b9e2a2d73c813f556","","","","","<p style=""color:darkgreen;font-size:24px;"">Correct :)</p>","",""
"3016","key","n","n","16.65646961325965","500","250","psychophysics","249","633505","0.0-249.0","610aa1281c6c579dba2c4fef","620a604b9e2a2d73c813f556","5","","","","","0","4"
"null","","","null","","","","html-keyboard-response","250","634010","0.0-250.0","610aa1281c6c579dba2c4fef","620a604b9e2a2d73c813f556","","","","","<p style=""color:darkgreen;font-size:24px;"">Correct :)</p>","",""
"2485","key","v","v","16.878413333333253","500","250","psychophysics","251","636547","0.0-251.0","610aa1281c6c579dba2c4fef","620a604b9e2a2d73c813f556","5","","","","","0","3"
"null","","","null","","","","html-keyboard-response","252","637052","0.0-252.0","610aa1281c6c579dba2c4fef","620a604b9e2a2d73c813f556","","","","","<p style=""color:darkgreen;font-size:24px;"">Correct :)</p>","",""
"2561","key","n","n","16.656322580645043","500","250","psychophysics","253","639625","0.0-253.0","610aa1281c6c579dba2c4fef","620a604b9e2a2d73c813f556","5","","","","","0","6"
"null","","","null","","","","html-keyboard-response","254","640129","0.0-254.0","610aa1281c6c579dba2c4fef","620a604b9e2a2d73c813f556","","","","","<p style=""color:darkgreen;font-size:24px;"">Correct :)</p>","",""
"2465","key","n","n","16.656351351351447","500","250","psychophysics","255","642606","0.0-255.0","610aa1281c6c579dba2c4fef","620a604b9e2a2d73c813f556","5","","","","","0","6"
"null","","","null","","","","html-keyboard-response","256","643111","0.0-256.0","610aa1281c6c579dba2c4fef","620a604b9e2a2d73c813f556","","","","","<p style=""color:darkgreen;font-size:24px;"">Correct :)</p>","",""
"2714","key","v","v","16.65628658536546","500","250","psychophysics","257","645839","0.0-257.0","610aa1281c6c579dba2c4fef","620a604b9e2a2d73c813f556","5","","","","","0","9"
"null","","","null","","","","html-keyboard-response","258","646344","0.0-258.0","610aa1281c6c579dba2c4fef","620a604b9e2a2d73c813f556","","","","","<p style=""color:darkgreen;font-size:24px;"">Correct :)</p>","",""
"2401","key","v","v","16.656213793103134","500","250","psychophysics","259","648759","0.0-259.0","610aa1281c6c579dba2c4fef","620a604b9e2a2d73c813f556","5","","","","","0","3"
"null","","","null","","","","html-keyboard-response","260","649262","0.0-260.0","610aa1281c6c579dba2c4fef","620a604b9e2a2d73c813f556","","","","","<p style=""color:darkgreen;font-size:24px;"">Correct :)</p>","",""
"2553","key","v","v","16.656285714286277","500","250","psychophysics","261","651826","0.0-261.0","610aa1281c6c579dba2c4fef","620a604b9e2a2d73c813f556","5","","","","","0","2"
"null","","","null","","","","html-keyboard-response","262","652330","0.0-262.0","610aa1281c6c579dba2c4fef","620a604b9e2a2d73c813f556","","","","","<p style=""color:red;font-size:24px;"">Error :(</p>","",""
"2572","key","n","n","16.656322580645792","500","250","psychophysics","263","654917","0.0-263.0","610aa1281c6c579dba2c4fef","620a604b9e2a2d73c813f556","5","","","","","0","2"
"null","","","null","","","","html-keyboard-response","264","655422","0.0-264.0","610aa1281c6c579dba2c4fef","620a604b9e2a2d73c813f556","","","","","<p style=""color:darkgreen;font-size:24px;"">Correct :)</p>","",""
"2714","key","v","v","16.656331288343313","500","250","psychophysics","265","658152","0.0-265.0","610aa1281c6c579dba2c4fef","620a604b9e2a2d73c813f556","5","","","","","0","3"
"null","","","null","","","","html-keyboard-response","266","658656","0.0-266.0","610aa1281c6c579dba2c4fef","620a604b9e2a2d73c813f556","","","","","<p style=""color:darkgreen;font-size:24px;"">Correct :)</p>","",""
"3040","key","v","v","16.748486187845437","500","250","psychophysics","267","661703","0.0-267.0","610aa1281c6c579dba2c4fef","620a604b9e2a2d73c813f556","5","","","","","0","7"
"null","","","null","","","","html-keyboard-response","268","662207","0.0-268.0","610aa1281c6c579dba2c4fef","620a604b9e2a2d73c813f556","","","","","<p style=""color:darkgreen;font-size:24px;"">Correct :)</p>","",""
"2693","key","v","v","16.65635802469182","500","250","psychophysics","269","664921","0.0-269.0","610aa1281c6c579dba2c4fef","620a604b9e2a2d73c813f556","5","","","","","0","3"
"null","","","null","","","","html-keyboard-response","270","665424","0.0-270.0","610aa1281c6c579dba2c4fef","620a604b9e2a2d73c813f556","","","","","<p style=""color:darkgreen;font-size:24px;"">Correct :)</p>","",""
"2610","key","v","v","16.65619108280253","500","250","psychophysics","271","668047","0.0-271.0","610aa1281c6c579dba2c4fef","620a604b9e2a2d73c813f556","5","","","","","0","9"
"null","","","null","","","","html-keyboard-response","272","668551","0.0-272.0","610aa1281c6c579dba2c4fef","620a604b9e2a2d73c813f556","","","","","<p style=""color:darkgreen;font-size:24px;"">Correct :)</p>","",""
"2816","key","v","v","16.656482352940913","500","250","psychophysics","273","671379","0.0-273.0","610aa1281c6c579dba2c4fef","620a604b9e2a2d73c813f556","5","","","","","0","3"
"null","","","null","","","","html-keyboard-response","274","671882","0.0-274.0","610aa1281c6c579dba2c4fef","620a604b9e2a2d73c813f556","","","","","<p style=""color:darkgreen;font-size:24px;"">Correct :)</p>","",""
"3127","key","n","n","16.656518518518183","500","250","psychophysics","275","675023","0.0-275.0","610aa1281c6c579dba2c4fef","620a604b9e2a2d73c813f556","5","","","","","0","8"
"null","","","null","","","","html-keyboard-response","276","675527","0.0-276.0","610aa1281c6c579dba2c4fef","620a604b9e2a2d73c813f556","","","","","<p style=""color:darkgreen;font-size:24px;"">Correct :)</p>","",""
"2819","key","n","n","16.656417647058912","500","250","psychophysics","277","678359","0.0-277.0","610aa1281c6c579dba2c4fef","620a604b9e2a2d73c813f556","5","","","","","0","6"
"null","","","null","","","","html-keyboard-response","278","678861","0.0-278.0","610aa1281c6c579dba2c4fef","620a604b9e2a2d73c813f556","","","","","<p style=""color:darkgreen;font-size:24px;"">Correct :)</p>","",""
"2885","key","n","n","16.656454022988495","500","250","psychophysics","279","681755","0.0-279.0","610aa1281c6c579dba2c4fef","620a604b9e2a2d73c813f556","5","","","","","0","2"
"null","","","null","","","","html-keyboard-response","280","682260","0.0-280.0","610aa1281c6c579dba2c4fef","620a604b9e2a2d73c813f556","","","","","<p style=""color:darkgreen;font-size:24px;"">Correct :)</p>","",""
"2526","key","n","n","16.65628758169942","500","250","psychophysics","281","684805","0.0-281.0","610aa1281c6c579dba2c4fef","620a604b9e2a2d73c813f556","5","","","","","0","8"
"null","","","null","","","","html-keyboard-response","282","685310","0.0-282.0","610aa1281c6c579dba2c4fef","620a604b9e2a2d73c813f556","","","","","<p style=""color:darkgreen;font-size:24px;"">Correct :)</p>","",""
"2864","key","v","v","16.6564855491332","500","250","psychophysics","283","688185","0.0-283.0","610aa1281c6c579dba2c4fef","620a604b9e2a2d73c813f556","5","","","","","0","7"
"null","","","null","","","","html-keyboard-response","284","688733","0.0-284.0","610aa1281c6c579dba2c4fef","620a604b9e2a2d73c813f556","","","","","<p style=""color:darkgreen;font-size:24px;"">Correct :)</p>","",""
"2786","key","n","n","16.65629761904711","500","250","psychophysics","285","691534","0.0-285.0","610aa1281c6c579dba2c4fef","620a604b9e2a2d73c813f556","5","","","","","0","2"
"null","","","null","","","","html-keyboard-response","286","692041","0.0-286.0","610aa1281c6c579dba2c4fef","620a604b9e2a2d73c813f556","","","","","<p style=""color:darkgreen;font-size:24px;"">Correct :)</p>","",""
"2681","key","n","n","16.656462962962657","500","250","psychophysics","287","694739","0.0-287.0","610aa1281c6c579dba2c4fef","620a604b9e2a2d73c813f556","5","","","","","0","8"
"null","","","null","","","","html-keyboard-response","288","695243","0.0-288.0","610aa1281c6c579dba2c4fef","620a604b9e2a2d73c813f556","","","","","<p style=""color:darkgreen;font-size:24px;"">Correct :)</p>","",""
"2780","key","v","v","16.656377245508928","500","250","psychophysics","289","698036","0.0-289.0","610aa1281c6c579dba2c4fef","620a604b9e2a2d73c813f556","5","","","","","0","9"
"null","","","null","","","","html-keyboard-response","290","698542","0.0-290.0","610aa1281c6c579dba2c4fef","620a604b9e2a2d73c813f556","","","","","<p style=""color:darkgreen;font-size:24px;"">Correct :)</p>","",""
"2765","key","n","n","16.656361445783165","500","250","psychophysics","291","701319","0.0-291.0","610aa1281c6c579dba2c4fef","620a604b9e2a2d73c813f556","5","","","","","0","8"
"null","","","null","","","","html-keyboard-response","292","701823","0.0-292.0","610aa1281c6c579dba2c4fef","620a604b9e2a2d73c813f556","","","","","<p style=""color:darkgreen;font-size:24px;"">Correct :)</p>","",""
"2748","key","v","v","16.65635757575757","500","250","psychophysics","293","704583","0.0-293.0","610aa1281c6c579dba2c4fef","620a604b9e2a2d73c813f556","5","","","","","0","1"
"null","","","null","","","","html-keyboard-response","294","705088","0.0-294.0","610aa1281c6c579dba2c4fef","620a604b9e2a2d73c813f556","","","","","<p style=""color:darkgreen;font-size:24px;"">Correct :)</p>","",""
"13416","","","v","","","","html-keyboard-response","295","718510","0.0-295.0","610aa1281c6c579dba2c4fef","620a604b9e2a2d73c813f556","","","","","<p> Here, the tasks are going to switch.  For some trials, your job is to decide if the digit is less than or greater than 5.  For others, it is to decide if the digit is even or odd.  You will be told which type of trial the current one is.  But, pay attention, the type of trial changes too.  We are going to do 50 of these.  </p>  <br><br>  Ready? (press v or n)","",""
"3663","key","n","n","16.639434389140018","500","250","psychophysics","296","722184","0.0-296.0","610aa1281c6c579dba2c4fef","620a604b9e2a2d73c813f556","6","","","","","0","6"
"null","","","null","","","","html-keyboard-response","297","722687","0.0-297.0","610aa1281c6c579dba2c4fef","620a604b9e2a2d73c813f556","","","","","<p style=""color:darkgreen;font-size:24px;"">Correct :)</p>","",""
"3570","key","v","v","16.65667289719595","500","250","psychophysics","298","726268","0.0-298.0","610aa1281c6c579dba2c4fef","620a604b9e2a2d73c813f556","6","","","","","1","1"
"null","","","null","","","","html-keyboard-response","299","726771","0.0-299.0","610aa1281c6c579dba2c4fef","620a604b9e2a2d73c813f556","","","","","<p style=""color:darkgreen;font-size:24px;"">Correct :)</p>","",""
"2754","key","n","n","16.757847560975677","500","250","psychophysics","300","729540","0.0-300.0","610aa1281c6c579dba2c4fef","620a604b9e2a2d73c813f556","6","","","","","0","8"
"null","","","null","","","","html-keyboard-response","301","730045","0.0-301.0","610aa1281c6c579dba2c4fef","620a604b9e2a2d73c813f556","","","","","<p style=""color:darkgreen;font-size:24px;"">Correct :)</p>","",""
"2874","key","n","n","16.656410404624324","500","250","psychophysics","302","732927","0.0-302.0","610aa1281c6c579dba2c4fef","620a604b9e2a2d73c813f556","6","","","","","1","8"
"null","","","null","","","","html-keyboard-response","303","733432","0.0-303.0","610aa1281c6c579dba2c4fef","620a604b9e2a2d73c813f556","","","","","<p style=""color:darkgreen;font-size:24px;"">Correct :)</p>","",""
"2640","key","v","v","16.656415094339593","500","250","psychophysics","304","736085","0.0-304.0","610aa1281c6c579dba2c4fef","620a604b9e2a2d73c813f556","6","","","","","0","7"
"null","","","null","","","","html-keyboard-response","305","736595","0.0-305.0","610aa1281c6c579dba2c4fef","620a604b9e2a2d73c813f556","","","","","<p style=""color:darkgreen;font-size:24px;"">Correct :)</p>","",""
"2469","key","v","v","16.656369127516772","500","250","psychophysics","306","739079","0.0-306.0","610aa1281c6c579dba2c4fef","620a604b9e2a2d73c813f556","6","","","","","0","1"
"null","","","null","","","","html-keyboard-response","307","739584","0.0-307.0","610aa1281c6c579dba2c4fef","620a604b9e2a2d73c813f556","","","","","<p style=""color:darkgreen;font-size:24px;"">Correct :)</p>","",""
"2824","key","n","n","16.656376470588423","500","250","psychophysics","308","742422","0.0-308.0","610aa1281c6c579dba2c4fef","620a604b9e2a2d73c813f556","6","","","","","0","2"
"null","","","null","","","","html-keyboard-response","309","742925","0.0-309.0","610aa1281c6c579dba2c4fef","620a604b9e2a2d73c813f556","","","","","<p style=""color:darkgreen;font-size:24px;"">Correct :)</p>","",""
"2850","key","v","v","16.656453488371607","500","250","psychophysics","310","745793","0.0-310.0","610aa1281c6c579dba2c4fef","620a604b9e2a2d73c813f556","6","","","","","0","3"
"null","","","null","","","","html-keyboard-response","311","746298","0.0-311.0","610aa1281c6c579dba2c4fef","620a604b9e2a2d73c813f556","","","","","<p style=""color:darkgreen;font-size:24px;"">Correct :)</p>","",""
"2681","key","n","n","16.656279503106088","500","250","psychophysics","312","748990","0.0-312.0","610aa1281c6c579dba2c4fef","620a604b9e2a2d73c813f556","6","","","","","0","2"
"null","","","null","","","","html-keyboard-response","313","749498","0.0-313.0","610aa1281c6c579dba2c4fef","620a604b9e2a2d73c813f556","","","","","<p style=""color:darkgreen;font-size:24px;"">Correct :)</p>","",""
"2681","key","v","v","16.656385093168154","500","250","psychophysics","314","752188","0.0-314.0","610aa1281c6c579dba2c4fef","620a604b9e2a2d73c813f556","6","","","","","1","3"
"null","","","null","","","","html-keyboard-response","315","752691","0.0-315.0","610aa1281c6c579dba2c4fef","620a604b9e2a2d73c813f556","","","","","<p style=""color:darkgreen;font-size:24px;"">Correct :)</p>","",""
"3211","key","n","n","16.74338541666657","500","250","psychophysics","316","755914","0.0-316.0","610aa1281c6c579dba2c4fef","620a604b9e2a2d73c813f556","6","","","","","1","7"
"null","","","null","","","","html-keyboard-response","317","756418","0.0-317.0","610aa1281c6c579dba2c4fef","620a604b9e2a2d73c813f556","","","","","<p style=""color:darkgreen;font-size:24px;"">Correct :)</p>","",""
"2930","key","n","n","16.656621468926932","500","250","psychophysics","318","759362","0.0-318.0","610aa1281c6c579dba2c4fef","620a604b9e2a2d73c813f556","6","","","","","1","9"
"null","","","null","","","","html-keyboard-response","319","759868","0.0-319.0","610aa1281c6c579dba2c4fef","620a604b9e2a2d73c813f556","","","","","<p style=""color:darkgreen;font-size:24px;"">Correct :)</p>","",""
"3589","key","n","n","16.656608294930592","500","250","psychophysics","320","763480","0.0-320.0","610aa1281c6c579dba2c4fef","620a604b9e2a2d73c813f556","6","","","","","0","6"
"null","","","null","","","","html-keyboard-response","321","763985","0.0-321.0","610aa1281c6c579dba2c4fef","620a604b9e2a2d73c813f556","","","","","<p style=""color:darkgreen;font-size:24px;"">Correct :)</p>","",""
"3334","key","v","v","16.656599999999745","500","250","psychophysics","322","767331","0.0-322.0","610aa1281c6c579dba2c4fef","620a604b9e2a2d73c813f556","6","","","","","0","9"
"null","","","null","","","","html-keyboard-response","323","767835","0.0-323.0","610aa1281c6c579dba2c4fef","620a604b9e2a2d73c813f556","","","","","<p style=""color:darkgreen;font-size:24px;"">Correct :)</p>","",""
"2863","key","n","n","16.656453488372282","500","250","psychophysics","324","770711","0.0-324.0","610aa1281c6c579dba2c4fef","620a604b9e2a2d73c813f556","6","","","","","1","8"
"null","","","null","","","","html-keyboard-response","325","771214","0.0-325.0","610aa1281c6c579dba2c4fef","620a604b9e2a2d73c813f556","","","","","<p style=""color:darkgreen;font-size:24px;"">Correct :)</p>","",""
"2818","key","v","v","16.65646153846177","500","250","psychophysics","326","774049","0.0-326.0","610aa1281c6c579dba2c4fef","620a604b9e2a2d73c813f556","6","","","","","0","3"
"null","","","null","","","","html-keyboard-response","327","774553","0.0-327.0","610aa1281c6c579dba2c4fef","620a604b9e2a2d73c813f556","","","","","<p style=""color:darkgreen;font-size:24px;"">Correct :)</p>","",""
"2646","key","n","n","16.656276729559735","500","250","psychophysics","328","777208","0.0-328.0","610aa1281c6c579dba2c4fef","620a604b9e2a2d73c813f556","6","","","","","1","4"
"null","","","null","","","","html-keyboard-response","329","777711","0.0-329.0","610aa1281c6c579dba2c4fef","620a604b9e2a2d73c813f556","","","","","<p style=""color:red;font-size:24px;"">Error :(</p>","",""
"2826","key","v","v","16.656429411764666","500","250","psychophysics","330","780548","0.0-330.0","610aa1281c6c579dba2c4fef","620a604b9e2a2d73c813f556","6","","","","","0","3"
"null","","","null","","","","html-keyboard-response","331","781053","0.0-331.0","610aa1281c6c579dba2c4fef","620a604b9e2a2d73c813f556","","","","","<p style=""color:darkgreen;font-size:24px;"">Correct :)</p>","",""
"3647","key","v","v","16.656740909090942","500","250","psychophysics","332","784718","0.0-332.0","610aa1281c6c579dba2c4fef","620a604b9e2a2d73c813f556","6","","","","","1","2"
"null","","","null","","","","html-keyboard-response","333","785220","0.0-333.0","610aa1281c6c579dba2c4fef","620a604b9e2a2d73c813f556","","","","","<p style=""color:darkgreen;font-size:24px;"">Correct :)</p>","",""
"2564","key","v","v","16.979638709677683","500","250","psychophysics","334","787851","0.0-334.0","610aa1281c6c579dba2c4fef","620a604b9e2a2d73c813f556","6","","","","","1","3"
"null","","","null","","","","html-keyboard-response","335","788358","0.0-335.0","610aa1281c6c579dba2c4fef","620a604b9e2a2d73c813f556","","","","","<p style=""color:darkgreen;font-size:24px;"">Correct :)</p>","",""
"3262","key","n","n","16.656497461928723","500","250","psychophysics","336","791650","0.0-336.0","610aa1281c6c579dba2c4fef","620a604b9e2a2d73c813f556","6","","","","","0","2"
"null","","","null","","","","html-keyboard-response","337","792153","0.0-337.0","610aa1281c6c579dba2c4fef","620a604b9e2a2d73c813f556","","","","","<p style=""color:darkgreen;font-size:24px;"">Correct :)</p>","",""
"3247","key","n","n","16.656597938144355","500","250","psychophysics","338","795404","0.0-338.0","610aa1281c6c579dba2c4fef","620a604b9e2a2d73c813f556","6","","","","","0","8"
"null","","","null","","","","html-keyboard-response","339","795912","0.0-339.0","610aa1281c6c579dba2c4fef","620a604b9e2a2d73c813f556","","","","","<p style=""color:darkgreen;font-size:24px;"">Correct :)</p>","",""
"3400","key","n","n","16.656541463414708","500","250","psychophysics","340","799330","0.0-340.0","610aa1281c6c579dba2c4fef","620a604b9e2a2d73c813f556","6","","","","","1","8"
"null","","","null","","","","html-keyboard-response","341","799833","0.0-341.0","610aa1281c6c579dba2c4fef","620a604b9e2a2d73c813f556","","","","","<p style=""color:darkgreen;font-size:24px;"">Correct :)</p>","",""
"2795","key","v","v","16.656297619047802","500","250","psychophysics","342","802641","0.0-342.0","610aa1281c6c579dba2c4fef","620a604b9e2a2d73c813f556","6","","","","","0","3"
"null","","","null","","","","html-keyboard-response","343","803144","0.0-343.0","610aa1281c6c579dba2c4fef","620a604b9e2a2d73c813f556","","","","","<p style=""color:darkgreen;font-size:24px;"">Correct :)</p>","",""
"3159","key","n","n","16.656565445026075","500","250","psychophysics","344","806320","0.0-344.0","610aa1281c6c579dba2c4fef","620a604b9e2a2d73c813f556","6","","","","","0","8"
"null","","","null","","","","html-keyboard-response","345","806824","0.0-345.0","610aa1281c6c579dba2c4fef","620a604b9e2a2d73c813f556","","","","","<p style=""color:darkgreen;font-size:24px;"">Correct :)</p>","",""
"3112","key","v","v","16.656609625668878","500","250","psychophysics","346","809946","0.0-346.0","610aa1281c6c579dba2c4fef","620a604b9e2a2d73c813f556","6","","","","","1","3"
"null","","","null","","","","html-keyboard-response","347","810454","0.0-347.0","610aa1281c6c579dba2c4fef","620a604b9e2a2d73c813f556","","","","","<p style=""color:darkgreen;font-size:24px;"">Correct :)</p>","",""
"2521","key","v","v","16.76643708609245","500","250","psychophysics","348","812991","0.0-348.0","610aa1281c6c579dba2c4fef","620a604b9e2a2d73c813f556","6","","","","","1","1"
"null","","","null","","","","html-keyboard-response","349","813497","0.0-349.0","610aa1281c6c579dba2c4fef","620a604b9e2a2d73c813f556","","","","","<p style=""color:darkgreen;font-size:24px;"">Correct :)</p>","",""
"3641","key","v","v","16.656657534246396","500","250","psychophysics","350","817153","0.0-350.0","610aa1281c6c579dba2c4fef","620a604b9e2a2d73c813f556","6","","","","","1","4"
"null","","","null","","","","html-keyboard-response","351","817662","0.0-351.0","610aa1281c6c579dba2c4fef","620a604b9e2a2d73c813f556","","","","","<p style=""color:darkgreen;font-size:24px;"">Correct :)</p>","",""
"2609","key","v","v","16.65626751592347","500","250","psychophysics","352","820282","0.0-352.0","610aa1281c6c579dba2c4fef","620a604b9e2a2d73c813f556","6","","","","","0","3"
"null","","","null","","","","html-keyboard-response","353","820787","0.0-353.0","610aa1281c6c579dba2c4fef","620a604b9e2a2d73c813f556","","","","","<p style=""color:darkgreen;font-size:24px;"">Correct :)</p>","",""
"8816","key","v","v","16.657223062382023","500","250","psychophysics","354","829617","0.0-354.0","610aa1281c6c579dba2c4fef","620a604b9e2a2d73c813f556","6","","","","","1","4"
"null","","","null","","","","html-keyboard-response","355","830121","0.0-355.0","610aa1281c6c579dba2c4fef","620a604b9e2a2d73c813f556","","","","","<p style=""color:darkgreen;font-size:24px;"">Correct :)</p>","",""
"2902","key","n","n","16.65642285714325","500","250","psychophysics","356","833038","0.0-356.0","610aa1281c6c579dba2c4fef","620a604b9e2a2d73c813f556","6","","","","","0","8"
"null","","","null","","","","html-keyboard-response","357","833543","0.0-357.0","610aa1281c6c579dba2c4fef","620a604b9e2a2d73c813f556","","","","","<p style=""color:darkgreen;font-size:24px;"">Correct :)</p>","",""
"2801","key","v","v","16.65641420118348","500","250","psychophysics","358","836355","0.0-358.0","610aa1281c6c579dba2c4fef","620a604b9e2a2d73c813f556","6","","","","","0","3"
"null","","","null","","","","html-keyboard-response","359","836859","0.0-359.0","610aa1281c6c579dba2c4fef","620a604b9e2a2d73c813f556","","","","","<p style=""color:darkgreen;font-size:24px;"">Correct :)</p>","",""
"3212","key","v","v","16.656659793814395","500","250","psychophysics","360","840083","0.0-360.0","610aa1281c6c579dba2c4fef","620a604b9e2a2d73c813f556","6","","","","","1","4"
"null","","","null","","","","html-keyboard-response","361","840588","0.0-361.0","610aa1281c6c579dba2c4fef","620a604b9e2a2d73c813f556","","","","","<p style=""color:darkgreen;font-size:24px;"">Correct :)</p>","",""
"2823","key","n","n","16.656467836257615","500","250","psychophysics","362","843432","0.0-362.0","610aa1281c6c579dba2c4fef","620a604b9e2a2d73c813f556","6","","","","","1","7"
"null","","","null","","","","html-keyboard-response","363","843937","0.0-363.0","610aa1281c6c579dba2c4fef","620a604b9e2a2d73c813f556","","","","","<p style=""color:darkgreen;font-size:24px;"">Correct :)</p>","",""
"2707","key","v","v","16.656371951219626","500","250","psychophysics","364","846662","0.0-364.0","610aa1281c6c579dba2c4fef","620a604b9e2a2d73c813f556","6","","","","","1","2"
"null","","","null","","","","html-keyboard-response","365","847165","0.0-365.0","610aa1281c6c579dba2c4fef","620a604b9e2a2d73c813f556","","","","","<p style=""color:darkgreen;font-size:24px;"">Correct :)</p>","",""
"3253","key","v","v","16.742092307692225","500","250","psychophysics","366","850430","0.0-366.0","610aa1281c6c579dba2c4fef","620a604b9e2a2d73c813f556","6","","","","","1","4"
"null","","","null","","","","html-keyboard-response","367","850937","0.0-367.0","610aa1281c6c579dba2c4fef","620a604b9e2a2d73c813f556","","","","","<p style=""color:darkgreen;font-size:24px;"">Correct :)</p>","",""
"2506","key","v","v","16.65626000000009","500","250","psychophysics","368","853455","0.0-368.0","610aa1281c6c579dba2c4fef","620a604b9e2a2d73c813f556","6","","","","","1","1"
"null","","","null","","","","html-keyboard-response","369","853959","0.0-369.0","610aa1281c6c579dba2c4fef","620a604b9e2a2d73c813f556","","","","","<p style=""color:darkgreen;font-size:24px;"">Correct :)</p>","",""
"3755","key","v","v","16.65667256637192","500","250","psychophysics","370","857728","0.0-370.0","610aa1281c6c579dba2c4fef","620a604b9e2a2d73c813f556","6","","","","","0","9"
"null","","","null","","","","html-keyboard-response","371","858232","0.0-371.0","610aa1281c6c579dba2c4fef","620a604b9e2a2d73c813f556","","","","","<p style=""color:darkgreen;font-size:24px;"">Correct :)</p>","",""
"3385","key","v","v","16.656696078431445","500","250","psychophysics","372","861625","0.0-372.0","610aa1281c6c579dba2c4fef","620a604b9e2a2d73c813f556","6","","","","","1","3"
"null","","","null","","","","html-keyboard-response","373","862127","0.0-373.0","610aa1281c6c579dba2c4fef","620a604b9e2a2d73c813f556","","","","","<p style=""color:darkgreen;font-size:24px;"">Correct :)</p>","",""
"3123","key","v","v","16.92745945945986","500","250","psychophysics","374","865264","0.0-374.0","610aa1281c6c579dba2c4fef","620a604b9e2a2d73c813f556","6","","","","","0","7"
"null","","","null","","","","html-keyboard-response","375","865769","0.0-375.0","610aa1281c6c579dba2c4fef","620a604b9e2a2d73c813f556","","","","","<p style=""color:darkgreen;font-size:24px;"">Correct :)</p>","",""
"2888","key","v","v","16.65633908046032","500","250","psychophysics","376","868670","0.0-376.0","610aa1281c6c579dba2c4fef","620a604b9e2a2d73c813f556","6","","","","","0","3"
"null","","","null","","","","html-keyboard-response","377","869174","0.0-377.0","610aa1281c6c579dba2c4fef","620a604b9e2a2d73c813f556","","","","","<p style=""color:darkgreen;font-size:24px;"">Correct :)</p>","",""
"3568","key","n","n","16.656599999999973","500","250","psychophysics","378","872753","0.0-378.0","610aa1281c6c579dba2c4fef","620a604b9e2a2d73c813f556","6","","","","","1","7"
"null","","","null","","","","html-keyboard-response","379","873256","0.0-379.0","610aa1281c6c579dba2c4fef","620a604b9e2a2d73c813f556","","","","","<p style=""color:darkgreen;font-size:24px;"">Correct :)</p>","",""
"2998","key","v","v","16.65648066298393","500","250","psychophysics","380","876266","0.0-380.0","610aa1281c6c579dba2c4fef","620a604b9e2a2d73c813f556","6","","","","","1","2"
"null","","","null","","","","html-keyboard-response","381","876769","0.0-381.0","610aa1281c6c579dba2c4fef","620a604b9e2a2d73c813f556","","","","","<p style=""color:darkgreen;font-size:24px;"">Correct :)</p>","",""
"2540","key","v","v","16.765861842105025","500","250","psychophysics","382","879324","0.0-382.0","610aa1281c6c579dba2c4fef","620a604b9e2a2d73c813f556","6","","","","","0","1"
"null","","","null","","","","html-keyboard-response","383","879831","0.0-383.0","610aa1281c6c579dba2c4fef","620a604b9e2a2d73c813f556","","","","","<p style=""color:darkgreen;font-size:24px;"">Correct :)</p>","",""
"2774","key","v","v","16.656347305389136","500","250","psychophysics","384","882620","0.0-384.0","610aa1281c6c579dba2c4fef","620a604b9e2a2d73c813f556","6","","","","","1","4"
"null","","","null","","","","html-keyboard-response","385","883129","0.0-385.0","610aa1281c6c579dba2c4fef","620a604b9e2a2d73c813f556","","","","","<p style=""color:darkgreen;font-size:24px;"">Correct :)</p>","",""
"2909","key","v","v","16.656320000000164","500","250","psychophysics","386","886051","0.0-386.0","610aa1281c6c579dba2c4fef","620a604b9e2a2d73c813f556","6","","","","","1","4"
"null","","","null","","","","html-keyboard-response","387","886557","0.0-387.0","610aa1281c6c579dba2c4fef","620a604b9e2a2d73c813f556","","","","","<p style=""color:darkgreen;font-size:24px;"">Correct :)</p>","",""
"2873","key","n","n","16.656329479769028","500","250","psychophysics","388","889447","0.0-388.0","610aa1281c6c579dba2c4fef","620a604b9e2a2d73c813f556","6","","","","","1","9"
"null","","","null","","","","html-keyboard-response","389","889953","0.0-389.0","610aa1281c6c579dba2c4fef","620a604b9e2a2d73c813f556","","","","","<p style=""color:darkgreen;font-size:24px;"">Correct :)</p>","",""
"2654","key","n","n","16.656387499999983","500","250","psychophysics","390","892625","0.0-390.0","610aa1281c6c579dba2c4fef","620a604b9e2a2d73c813f556","6","","","","","1","6"
"null","","","null","","","","html-keyboard-response","391","893129","0.0-391.0","610aa1281c6c579dba2c4fef","620a604b9e2a2d73c813f556","","","","","<p style=""color:darkgreen;font-size:24px;"">Correct :)</p>","",""
"2725","key","n","n","16.656351515151222","500","250","psychophysics","392","895870","0.0-392.0","610aa1281c6c579dba2c4fef","620a604b9e2a2d73c813f556","6","","","","","1","8"
"null","","","null","","","","html-keyboard-response","393","896376","0.0-393.0","610aa1281c6c579dba2c4fef","620a604b9e2a2d73c813f556","","","","","<p style=""color:darkgreen;font-size:24px;"">Correct :)</p>","",""
"4726","key","v","v","16.65687017543854","500","250","psychophysics","394","901121","0.0-394.0","610aa1281c6c579dba2c4fef","620a604b9e2a2d73c813f556","6","","","","","1","3"
"null","","","null","","","","html-keyboard-response","395","901624","0.0-395.0","610aa1281c6c579dba2c4fef","620a604b9e2a2d73c813f556","","","","","<p style=""color:darkgreen;font-size:24px;"">Correct :)</p>","",""
"5781","","","v","","","","html-keyboard-response","396","907408","0.0-396.0","610aa1281c6c579dba2c4fef","620a604b9e2a2d73c813f556","","","","","<p> Last set of trials.  Here, the tasks are going to switch once again.  We are going to do 50 of these.  And then you are done with the experiment.  </p>  <br><br>  Ready? (press v or n)","",""
"2486","key","v","v","16.640221476510337","500","250","psychophysics","397","909904","0.0-397.0","610aa1281c6c579dba2c4fef","620a604b9e2a2d73c813f556","7","","","","","1","1"
"null","","","null","","","","html-keyboard-response","398","910408","0.0-398.0","610aa1281c6c579dba2c4fef","620a604b9e2a2d73c813f556","","","","","<p style=""color:darkgreen;font-size:24px;"">Correct :)</p>","",""
"2607","key","v","v","16.656452229299145","500","250","psychophysics","399","913027","0.0-399.0","610aa1281c6c579dba2c4fef","620a604b9e2a2d73c813f556","7","","","","","1","4"
"null","","","null","","","","html-keyboard-response","400","913534","0.0-400.0","610aa1281c6c579dba2c4fef","620a604b9e2a2d73c813f556","","","","","<p style=""color:darkgreen;font-size:24px;"">Correct :)</p>","",""
"2433","key","v","v","16.77030821917786","500","250","psychophysics","401","915977","0.0-401.0","610aa1281c6c579dba2c4fef","620a604b9e2a2d73c813f556","7","","","","","1","1"
"null","","","null","","","","html-keyboard-response","402","916484","0.0-402.0","610aa1281c6c579dba2c4fef","620a604b9e2a2d73c813f556","","","","","<p style=""color:darkgreen;font-size:24px;"">Correct :)</p>","",""
"2567","key","v","v","16.65626451612916","500","250","psychophysics","403","919065","0.0-403.0","610aa1281c6c579dba2c4fef","620a604b9e2a2d73c813f556","7","","","","","0","7"
"null","","","null","","","","html-keyboard-response","404","919572","0.0-404.0","610aa1281c6c579dba2c4fef","620a604b9e2a2d73c813f556","","","","","<p style=""color:darkgreen;font-size:24px;"">Correct :)</p>","",""
"2634","key","n","n","16.65620886075938","500","250","psychophysics","405","922221","0.0-405.0","610aa1281c6c579dba2c4fef","620a604b9e2a2d73c813f556","7","","","","","0","6"
"null","","","null","","","","html-keyboard-response","406","922730","0.0-406.0","610aa1281c6c579dba2c4fef","620a604b9e2a2d73c813f556","","","","","<p style=""color:darkgreen;font-size:24px;"">Correct :)</p>","",""
"3014","key","n","n","16.656467032967427","500","250","psychophysics","407","925760","0.0-407.0","610aa1281c6c579dba2c4fef","620a604b9e2a2d73c813f556","7","","","","","1","2"
"null","","","null","","","","html-keyboard-response","408","926264","0.0-408.0","610aa1281c6c579dba2c4fef","620a604b9e2a2d73c813f556","","","","","<p style=""color:red;font-size:24px;"">Error :(</p>","",""
"3049","key","n","n","16.656573770492074","500","250","psychophysics","409","929326","0.0-409.0","610aa1281c6c579dba2c4fef","620a604b9e2a2d73c813f556","7","","","","","0","6"
"null","","","null","","","","html-keyboard-response","410","929831","0.0-410.0","610aa1281c6c579dba2c4fef","620a604b9e2a2d73c813f556","","","","","<p style=""color:darkgreen;font-size:24px;"">Correct :)</p>","",""
"4656","key","v","v","16.656835714285677","500","250","psychophysics","411","934500","0.0-411.0","610aa1281c6c579dba2c4fef","620a604b9e2a2d73c813f556","7","","","","","1","2"
"null","","","null","","","","html-keyboard-response","412","935004","0.0-412.0","610aa1281c6c579dba2c4fef","620a604b9e2a2d73c813f556","","","","","<p style=""color:darkgreen;font-size:24px;"">Correct :)</p>","",""
"3099","key","v","v","16.656545454545324","500","250","psychophysics","413","938115","0.0-413.0","610aa1281c6c579dba2c4fef","620a604b9e2a2d73c813f556","7","","","","","1","2"
"null","","","null","","","","html-keyboard-response","414","938619","0.0-414.0","610aa1281c6c579dba2c4fef","620a604b9e2a2d73c813f556","","","","","<p style=""color:darkgreen;font-size:24px;"">Correct :)</p>","",""
"2920","key","n","n","16.656448863635887","500","250","psychophysics","415","941552","0.0-415.0","610aa1281c6c579dba2c4fef","620a604b9e2a2d73c813f556","7","","","","","0","2"
"null","","","null","","","","html-keyboard-response","416","942057","0.0-416.0","610aa1281c6c579dba2c4fef","620a604b9e2a2d73c813f556","","","","","<p style=""color:darkgreen;font-size:24px;"">Correct :)</p>","",""
"3241","key","n","n","16.742365979381294","500","250","psychophysics","417","945313","0.0-417.0","610aa1281c6c579dba2c4fef","620a604b9e2a2d73c813f556","7","","","","","0","2"
"null","","","null","","","","html-keyboard-response","418","945817","0.0-418.0","610aa1281c6c579dba2c4fef","620a604b9e2a2d73c813f556","","","","","<p style=""color:darkgreen;font-size:24px;"">Correct :)</p>","",""
"2822","key","v","v","16.656429411764666","500","250","psychophysics","419","948648","0.0-419.0","610aa1281c6c579dba2c4fef","620a604b9e2a2d73c813f556","7","","","","","1","3"
"null","","","null","","","","html-keyboard-response","420","949155","0.0-420.0","610aa1281c6c579dba2c4fef","620a604b9e2a2d73c813f556","","","","","<p style=""color:darkgreen;font-size:24px;"">Correct :)</p>","",""
"2615","key","n","n","16.656316455696043","500","250","psychophysics","421","951788","0.0-421.0","610aa1281c6c579dba2c4fef","620a604b9e2a2d73c813f556","7","","","","","0","2"
"null","","","null","","","","html-keyboard-response","422","952296","0.0-422.0","610aa1281c6c579dba2c4fef","620a604b9e2a2d73c813f556","","","","","<p style=""color:darkgreen;font-size:24px;"">Correct :)</p>","",""
"3208","key","v","v","16.656541237113732","500","250","psychophysics","423","955521","0.0-423.0","610aa1281c6c579dba2c4fef","620a604b9e2a2d73c813f556","7","","","","","1","2"
"null","","","null","","","","html-keyboard-response","424","956025","0.0-424.0","610aa1281c6c579dba2c4fef","620a604b9e2a2d73c813f556","","","","","<p style=""color:darkgreen;font-size:24px;"">Correct :)</p>","",""
"6042","key","n","n","16.65704683195601","500","250","psychophysics","425","962079","0.0-425.0","610aa1281c6c579dba2c4fef","620a604b9e2a2d73c813f556","7","","","","","1","6"
"null","","","null","","","","html-keyboard-response","426","962582","0.0-426.0","610aa1281c6c579dba2c4fef","620a604b9e2a2d73c813f556","","","","","<p style=""color:darkgreen;font-size:24px;"">Correct :)</p>","",""
"3477","key","v","v","16.65662200956964","500","250","psychophysics","427","966071","0.0-427.0","610aa1281c6c579dba2c4fef","620a604b9e2a2d73c813f556","7","","","","","1","2"
"null","","","null","","","","html-keyboard-response","428","966576","0.0-428.0","610aa1281c6c579dba2c4fef","620a604b9e2a2d73c813f556","","","","","<p style=""color:darkgreen;font-size:24px;"">Correct :)</p>","",""
"2520","key","v","v","16.656264900662382","500","250","psychophysics","429","969109","0.0-429.0","610aa1281c6c579dba2c4fef","620a604b9e2a2d73c813f556","7","","","","","1","2"
"null","","","null","","","","html-keyboard-response","430","969615","0.0-430.0","610aa1281c6c579dba2c4fef","620a604b9e2a2d73c813f556","","","","","<p style=""color:darkgreen;font-size:24px;"">Correct :)</p>","",""
"2521","key","v","v","16.656230263157724","500","250","psychophysics","431","972147","0.0-431.0","610aa1281c6c579dba2c4fef","620a604b9e2a2d73c813f556","7","","","","","1","1"
"null","","","null","","","","html-keyboard-response","432","972651","0.0-432.0","610aa1281c6c579dba2c4fef","620a604b9e2a2d73c813f556","","","","","<p style=""color:darkgreen;font-size:24px;"">Correct :)</p>","",""
"2671","key","v","v","16.65642138364807","500","250","psychophysics","433","975340","0.0-433.0","610aa1281c6c579dba2c4fef","620a604b9e2a2d73c813f556","7","","","","","0","1"
"null","","","null","","","","html-keyboard-response","434","975844","0.0-434.0","610aa1281c6c579dba2c4fef","620a604b9e2a2d73c813f556","","","","","<p style=""color:darkgreen;font-size:24px;"">Correct :)</p>","",""
"2773","key","n","n","16.656377245509624","500","250","psychophysics","435","978631","0.0-435.0","610aa1281c6c579dba2c4fef","620a604b9e2a2d73c813f556","7","","","","","1","6"
"null","","","null","","","","html-keyboard-response","436","979138","0.0-436.0","610aa1281c6c579dba2c4fef","620a604b9e2a2d73c813f556","","","","","<p style=""color:darkgreen;font-size:24px;"">Correct :)</p>","",""
"2638","key","n","n","16.65618238993701","500","250","psychophysics","437","981790","0.0-437.0","610aa1281c6c579dba2c4fef","620a604b9e2a2d73c813f556","7","","","","","0","7"
"null","","","null","","","","html-keyboard-response","438","982294","0.0-438.0","610aa1281c6c579dba2c4fef","620a604b9e2a2d73c813f556","","","","","<p style=""color:red;font-size:24px;"">Error :(</p>","",""
"2681","key","v","v","16.6563641975309","500","250","psychophysics","439","984993","0.0-439.0","610aa1281c6c579dba2c4fef","620a604b9e2a2d73c813f556","7","","","","","0","3"
"null","","","null","","","","html-keyboard-response","440","985499","0.0-440.0","610aa1281c6c579dba2c4fef","620a604b9e2a2d73c813f556","","","","","<p style=""color:darkgreen;font-size:24px;"">Correct :)</p>","",""
"2846","key","v","v","16.656432748538013","500","250","psychophysics","441","988355","0.0-441.0","610aa1281c6c579dba2c4fef","620a604b9e2a2d73c813f556","7","","","","","0","1"
"null","","","null","","","","html-keyboard-response","442","988861","0.0-442.0","610aa1281c6c579dba2c4fef","620a604b9e2a2d73c813f556","","","","","<p style=""color:darkgreen;font-size:24px;"">Correct :)</p>","",""
"2749","key","v","v","16.656409638553736","500","250","psychophysics","443","991621","0.0-443.0","610aa1281c6c579dba2c4fef","620a604b9e2a2d73c813f556","7","","","","","0","1"
"null","","","null","","","","html-keyboard-response","444","992125","0.0-444.0","610aa1281c6c579dba2c4fef","620a604b9e2a2d73c813f556","","","","","<p style=""color:darkgreen;font-size:24px;"">Correct :)</p>","",""
"2968","key","v","v","16.656603351955344","500","250","psychophysics","445","995105","0.0-445.0","610aa1281c6c579dba2c4fef","620a604b9e2a2d73c813f556","7","","","","","0","3"
"null","","","null","","","","html-keyboard-response","446","995612","0.0-446.0","610aa1281c6c579dba2c4fef","620a604b9e2a2d73c813f556","","","","","<p style=""color:darkgreen;font-size:24px;"">Correct :)</p>","",""
"2796","key","n","n","16.65638690476148","500","250","psychophysics","447","998422","0.0-447.0","610aa1281c6c579dba2c4fef","620a604b9e2a2d73c813f556","7","","","","","0","6"
"null","","","null","","","","html-keyboard-response","448","998926","0.0-448.0","610aa1281c6c579dba2c4fef","620a604b9e2a2d73c813f556","","","","","<p style=""color:darkgreen;font-size:24px;"">Correct :)</p>","",""
"3098","key","v","v","16.746134408602558","500","250","psychophysics","449","1002047","0.0-449.0","610aa1281c6c579dba2c4fef","620a604b9e2a2d73c813f556","7","","","","","0","7"
"null","","","null","","","","html-keyboard-response","450","1002552","0.0-450.0","610aa1281c6c579dba2c4fef","620a604b9e2a2d73c813f556","","","","","<p style=""color:darkgreen;font-size:24px;"">Correct :)</p>","",""
"2937","key","n","n","16.656480225988947","500","250","psychophysics","451","1005499","0.0-451.0","610aa1281c6c579dba2c4fef","620a604b9e2a2d73c813f556","7","","","","","1","7"
"null","","","null","","","","html-keyboard-response","452","1006006","0.0-452.0","610aa1281c6c579dba2c4fef","620a604b9e2a2d73c813f556","","","","","<p style=""color:darkgreen;font-size:24px;"">Correct :)</p>","",""
"2512","key","v","v","16.656236842105404","500","250","psychophysics","453","1008544","0.0-453.0","610aa1281c6c579dba2c4fef","620a604b9e2a2d73c813f556","7","","","","","0","3"
"null","","","null","","","","html-keyboard-response","454","1009048","0.0-454.0","610aa1281c6c579dba2c4fef","620a604b9e2a2d73c813f556","","","","","<p style=""color:darkgreen;font-size:24px;"">Correct :)</p>","",""
"2982","key","v","v","16.656494444444412","500","250","psychophysics","455","1012043","0.0-455.0","610aa1281c6c579dba2c4fef","620a604b9e2a2d73c813f556","7","","","","","0","1"
"null","","","null","","","","html-keyboard-response","456","1012547","0.0-456.0","610aa1281c6c579dba2c4fef","620a604b9e2a2d73c813f556","","","","","<p style=""color:darkgreen;font-size:24px;"">Correct :)</p>","",""
"3022","key","n","n","16.656428571429057","500","250","psychophysics","457","1015581","0.0-457.0","610aa1281c6c579dba2c4fef","620a604b9e2a2d73c813f556","7","","","","","1","7"
"null","","","null","","","","html-keyboard-response","458","1016086","0.0-458.0","610aa1281c6c579dba2c4fef","620a604b9e2a2d73c813f556","","","","","<p style=""color:darkgreen;font-size:24px;"">Correct :)</p>","",""
"2915","key","v","v","16.65644318181876","500","250","psychophysics","459","1019017","0.0-459.0","610aa1281c6c579dba2c4fef","620a604b9e2a2d73c813f556","7","","","","","1","7"
"null","","","null","","","","html-keyboard-response","460","1019520","0.0-460.0","610aa1281c6c579dba2c4fef","620a604b9e2a2d73c813f556","","","","","<p style=""color:red;font-size:24px;"">Error :(</p>","",""
"3013","key","v","v","16.656483516483416","500","250","psychophysics","461","1022553","0.0-461.0","610aa1281c6c579dba2c4fef","620a604b9e2a2d73c813f556","7","","","","","1","4"
"null","","","null","","","","html-keyboard-response","462","1023058","0.0-462.0","610aa1281c6c579dba2c4fef","620a604b9e2a2d73c813f556","","","","","<p style=""color:darkgreen;font-size:24px;"">Correct :)</p>","",""
"2785","key","v","v","16.656321428571356","500","250","psychophysics","463","1025856","0.0-463.0","610aa1281c6c579dba2c4fef","620a604b9e2a2d73c813f556","7","","","","","0","3"
"null","","","null","","","","html-keyboard-response","464","1026361","0.0-464.0","610aa1281c6c579dba2c4fef","620a604b9e2a2d73c813f556","","","","","<p style=""color:darkgreen;font-size:24px;"">Correct :)</p>","",""
"2584","key","v","v","16.65623870967707","500","250","psychophysics","465","1028960","0.0-465.0","610aa1281c6c579dba2c4fef","620a604b9e2a2d73c813f556","7","","","","","0","1"
"null","","","null","","","","html-keyboard-response","466","1029466","0.0-466.0","610aa1281c6c579dba2c4fef","620a604b9e2a2d73c813f556","","","","","<p style=""color:darkgreen;font-size:24px;"">Correct :)</p>","",""
"2687","key","n","n","16.65633950617242","500","250","psychophysics","467","1032167","0.0-467.0","610aa1281c6c579dba2c4fef","620a604b9e2a2d73c813f556","7","","","","","1","6"
"null","","","null","","","","html-keyboard-response","468","1032672","0.0-468.0","610aa1281c6c579dba2c4fef","620a604b9e2a2d73c813f556","","","","","<p style=""color:darkgreen;font-size:24px;"">Correct :)</p>","",""
"2630","key","v","v","16.656322784810268","500","250","psychophysics","469","1035317","0.0-469.0","610aa1281c6c579dba2c4fef","620a604b9e2a2d73c813f556","7","","","","","1","1"
"null","","","null","","","","html-keyboard-response","470","1035820","0.0-470.0","610aa1281c6c579dba2c4fef","620a604b9e2a2d73c813f556","","","","","<p style=""color:darkgreen;font-size:24px;"">Correct :)</p>","",""
"3123","key","n","n","16.656478723404593","500","250","psychophysics","471","1038959","0.0-471.0","610aa1281c6c579dba2c4fef","620a604b9e2a2d73c813f556","7","","","","","1","7"
"null","","","null","","","","html-keyboard-response","472","1039462","0.0-472.0","610aa1281c6c579dba2c4fef","620a604b9e2a2d73c813f556","","","","","<p style=""color:darkgreen;font-size:24px;"">Correct :)</p>","",""
"2835","key","v","v","16.656450292397132","500","250","psychophysics","473","1042309","0.0-473.0","610aa1281c6c579dba2c4fef","620a604b9e2a2d73c813f556","7","","","","","0","3"
"null","","","null","","","","html-keyboard-response","474","1042814","0.0-474.0","610aa1281c6c579dba2c4fef","620a604b9e2a2d73c813f556","","","","","<p style=""color:darkgreen;font-size:24px;"">Correct :)</p>","",""
"2861","key","n","n","16.65645664739907","500","250","psychophysics","475","1045690","0.0-475.0","610aa1281c6c579dba2c4fef","620a604b9e2a2d73c813f556","7","","","","","0","2"
"null","","","null","","","","html-keyboard-response","476","1046198","0.0-476.0","610aa1281c6c579dba2c4fef","620a604b9e2a2d73c813f556","","","","","<p style=""color:darkgreen;font-size:24px;"">Correct :)</p>","",""
"3071","key","v","v","16.656472826086784","500","250","psychophysics","477","1049282","0.0-477.0","610aa1281c6c579dba2c4fef","620a604b9e2a2d73c813f556","7","","","","","1","1"
"null","","","null","","","","html-keyboard-response","478","1049789","0.0-478.0","610aa1281c6c579dba2c4fef","620a604b9e2a2d73c813f556","","","","","<p style=""color:darkgreen;font-size:24px;"">Correct :)</p>","",""
"2533","key","v","v","16.656274509804895","500","250","psychophysics","479","1052335","0.0-479.0","610aa1281c6c579dba2c4fef","620a604b9e2a2d73c813f556","7","","","","","1","3"
"null","","","null","","","","html-keyboard-response","480","1052838","0.0-480.0","610aa1281c6c579dba2c4fef","620a604b9e2a2d73c813f556","","","","","<p style=""color:darkgreen;font-size:24px;"">Correct :)</p>","",""
"2536","key","v","v","16.65629411764668","500","250","psychophysics","481","1055386","0.0-481.0","610aa1281c6c579dba2c4fef","620a604b9e2a2d73c813f556","7","","","","","1","4"
"null","","","null","","","","html-keyboard-response","482","1055891","0.0-482.0","610aa1281c6c579dba2c4fef","620a604b9e2a2d73c813f556","","","","","<p style=""color:darkgreen;font-size:24px;"">Correct :)</p>","",""
"2606","key","n","n","16.7630897435891","500","250","psychophysics","483","1058510","0.0-483.0","610aa1281c6c579dba2c4fef","620a604b9e2a2d73c813f556","7","","","","","0","6"
"null","","","null","","","","html-keyboard-response","484","1059017","0.0-484.0","610aa1281c6c579dba2c4fef","620a604b9e2a2d73c813f556","","","","","<p style=""color:darkgreen;font-size:24px;"">Correct :)</p>","",""
"3014","key","n","n","16.656560439560153","500","250","psychophysics","485","1062046","0.0-485.0","610aa1281c6c579dba2c4fef","620a604b9e2a2d73c813f556","7","","","","","0","4"
"null","","","null","","","","html-keyboard-response","486","1062557","0.0-486.0","610aa1281c6c579dba2c4fef","620a604b9e2a2d73c813f556","","","","","<p style=""color:darkgreen;font-size:24px;"">Correct :)</p>","",""
"2754","key","v","v","16.656248484849648","500","250","psychophysics","487","1065324","0.0-487.0","610aa1281c6c579dba2c4fef","620a604b9e2a2d73c813f556","7","","","","","0","3"
"null","","","null","","","","html-keyboard-response","488","1065830","0.0-488.0","610aa1281c6c579dba2c4fef","620a604b9e2a2d73c813f556","","","","","<p style=""color:darkgreen;font-size:24px;"">Correct :)</p>","",""
"2824","key","v","v","16.656435294117887","500","250","psychophysics","489","1068668","0.0-489.0","610aa1281c6c579dba2c4fef","620a604b9e2a2d73c813f556","7","","","","","1","3"
"null","","","null","","","","html-keyboard-response","490","1069172","0.0-490.0","610aa1281c6c579dba2c4fef","620a604b9e2a2d73c813f556","","","","","<p style=""color:darkgreen;font-size:24px;"">Correct :)</p>","",""
"3031","key","n","n","16.65645054945016","500","250","psychophysics","491","1072217","0.0-491.0","610aa1281c6c579dba2c4fef","620a604b9e2a2d73c813f556","7","","","","","1","7"
"null","","","null","","","","html-keyboard-response","492","1072721","0.0-492.0","610aa1281c6c579dba2c4fef","620a604b9e2a2d73c813f556","","","","","<p style=""color:darkgreen;font-size:24px;"">Correct :)</p>","",""
"3424","key","v","v","16.656621359223138","500","250","psychophysics","493","1076157","0.0-493.0","610aa1281c6c579dba2c4fef","620a604b9e2a2d73c813f556","7","","","","","1","2"
"null","","","null","","","","html-keyboard-response","494","1076661","0.0-494.0","610aa1281c6c579dba2c4fef","620a604b9e2a2d73c813f556","","","","","<p style=""color:darkgreen;font-size:24px;"">Correct :)</p>","",""
"2863","key","n","n","16.656485549133873","500","250","psychophysics","495","1079536","0.0-495.0","610aa1281c6c579dba2c4fef","620a604b9e2a2d73c813f556","7","","","","","1","6"
"null","","","null","","","","html-keyboard-response","496","1080040","0.0-496.0","610aa1281c6c579dba2c4fef","620a604b9e2a2d73c813f556","","","","","<p style=""color:darkgreen;font-size:24px;"">Correct :)</p>","",""
