"rt","response_type","key_press","response","avg_frame_time","center_x","center_y","trial_type","trial_index","time_elapsed","internal_node_id","pid","sid","phase","guide","targ","resp","stimulus","is5","stim"
"4089","key"," "," ","17.7074375","500","250","psychophysics","0","4242","0.0-0.0","5eb074c7e612c1129942044c","6213d21b422090ec3b3868d2","","","","","","",""
"17338","key"," "," ","16.682761538461538","500","250","psychophysics","1","21604","0.0-1.0","5eb074c7e612c1129942044c","6213d21b422090ec3b3868d2","","","","","","",""
"2044","key"," "," ","16.80406611570249","500","250","psychophysics","2","23655","0.0-2.0","5eb074c7e612c1129942044c","6213d21b422090ec3b3868d2","","","","","","",""
"1599","key"," "," ","16.667347368421062","500","250","psychophysics","3","25262","0.0-3.0","5eb074c7e612c1129942044c","6213d21b422090ec3b3868d2","","","","","","",""
"3649","key"," "," ","16.667195454545467","500","250","psychophysics","4","28952","0.0-4.0","5eb074c7e612c1129942044c","6213d21b422090ec3b3868d2","","","","","","",""
"4962","key"," "," ","16.666511705685608","500","250","psychophysics","5","33938","0.0-5.0","5eb074c7e612c1129942044c","6213d21b422090ec3b3868d2","","","","","","",""
"10335","key"," "," ","16.69370274636511","500","250","psychophysics","6","44288","0.0-6.0","5eb074c7e612c1129942044c","6213d21b422090ec3b3868d2","","","","","","",""
"4242","key"," "," ","16.666976377952743","500","250","psychophysics","7","48537","0.0-7.0","5eb074c7e612c1129942044c","6213d21b422090ec3b3868d2","","","","","","",""
"32193","key"," "," ","16.736064482579305","500","250","psychophysics","8","80739","0.0-8.0","5eb074c7e612c1129942044c","6213d21b422090ec3b3868d2","0","0","52","54","","",""
"4983","key"," "," ","16.66696979865776","500","250","psychophysics","9","85730","0.0-9.0","5eb074c7e612c1129942044c","6213d21b422090ec3b3868d2","","","","","","",""
"6400","key"," "," ","16.753715404699765","500","250","psychophysics","10","92158","0.0-10.0","5eb074c7e612c1129942044c","6213d21b422090ec3b3868d2","","","","","","",""
"3531","key"," "," ","16.66703301886789","500","250","psychophysics","11","95704","0.0-11.0","5eb074c7e612c1129942044c","6213d21b422090ec3b3868d2","","","","","","",""
"6816","key"," "," ","16.666870098039247","500","250","psychophysics","12","102528","0.0-12.0","5eb074c7e612c1129942044c","6213d21b422090ec3b3868d2","","","","","","",""
"3079","key"," "," ","16.667000000000023","500","250","psychophysics","13","105623","0.0-13.0","5eb074c7e612c1129942044c","6213d21b422090ec3b3868d2","","","","","","",""
"15674","key"," "," ","16.6668085106383","500","250","psychophysics","14","121304","0.0-14.0","5eb074c7e612c1129942044c","6213d21b422090ec3b3868d2","","","","","","",""
"3914","key"," "," ","16.66695726495726","500","250","psychophysics","15","125226","0.0-15.0","5eb074c7e612c1129942044c","6213d21b422090ec3b3868d2","","","","","","",""
"4889","key"," "," ","16.666870307167272","500","250","psychophysics","16","130124","0.0-16.0","5eb074c7e612c1129942044c","6213d21b422090ec3b3868d2","","","","","","",""
"20153","key"," "," ","16.66677814569536","500","250","psychophysics","17","150283","0.0-17.0","5eb074c7e612c1129942044c","6213d21b422090ec3b3868d2","1","0","23","34","","",""
"28158","key"," "," ","16.666743786982245","500","250","psychophysics","18","178453","0.0-18.0","5eb074c7e612c1129942044c","6213d21b422090ec3b3868d2","1","5","37","42","","",""
"27427","key"," "," ","16.77898286413709","500","250","psychophysics","19","205888","0.0-19.0","5eb074c7e612c1129942044c","6213d21b422090ec3b3868d2","1","0","35","62","","",""
"19384","key"," "," ","16.753193771626307","500","250","psychophysics","20","225279","0.0-20.0","5eb074c7e612c1129942044c","6213d21b422090ec3b3868d2","1","5","26","31","","",""
"19717","key"," "," ","16.666757396449707","500","250","psychophysics","21","245015","0.0-21.0","5eb074c7e612c1129942044c","6213d21b422090ec3b3868d2","1","0","35","62","","",""
"13799","key"," "," ","16.666664656212316","500","250","psychophysics","22","258840","0.0-22.0","5eb074c7e612c1129942044c","6213d21b422090ec3b3868d2","1","5","23","40","","",""
"37994","key"," "," ","16.66673453268977","500","250","psychophysics","23","296840","0.0-23.0","5eb074c7e612c1129942044c","6213d21b422090ec3b3868d2","1","0","48","75","","",""
"14113","key"," "," ","16.66674940898346","500","250","psychophysics","24","310961","0.0-24.0","5eb074c7e612c1129942044c","6213d21b422090ec3b3868d2","1","5","60","44","","",""
"12190","key"," "," ","16.66670314637481","500","250","psychophysics","25","323169","0.0-25.0","5eb074c7e612c1129942044c","6213d21b422090ec3b3868d2","1","0","42","71","","",""
"9212","key"," "," ","16.66666184448461","500","250","psychophysics","26","332393","0.0-26.0","5eb074c7e612c1129942044c","6213d21b422090ec3b3868d2","1","5","41","51","","",""
"13229","key"," "," ","16.666649874055423","500","250","psychophysics","27","345639","0.0-27.0","5eb074c7e612c1129942044c","6213d21b422090ec3b3868d2","1","0","43","68","","",""
"10910","key"," "," ","16.666561162079482","500","250","psychophysics","28","356555","0.0-28.0","5eb074c7e612c1129942044c","6213d21b422090ec3b3868d2","1","5","23","37","","",""
"17995","key"," "," ","16.68209369202228","500","250","psychophysics","29","374559","0.0-29.0","5eb074c7e612c1129942044c","6213d21b422090ec3b3868d2","1","0","47","80","","",""
"15481","key"," "," ","16.666678148546804","500","250","psychophysics","30","390055","0.0-30.0","5eb074c7e612c1129942044c","6213d21b422090ec3b3868d2","1","5","52","44","","",""
"10725","key"," "," ","16.666631415241014","500","250","psychophysics","31","400788","0.0-31.0","5eb074c7e612c1129942044c","6213d21b422090ec3b3868d2","1","0","54","73","","",""
"12927","key"," "," ","16.688147286821692","500","250","psychophysics","32","413721","0.0-32.0","5eb074c7e612c1129942044c","6213d21b422090ec3b3868d2","1","5","57","52","","",""
"24278","key"," "," ","16.666680631868157","500","250","psychophysics","33","438009","0.0-33.0","5eb074c7e612c1129942044c","6213d21b422090ec3b3868d2","1","0","54","77","","",""
"11518","key"," "," ","16.66679884225764","500","250","psychophysics","34","449539","0.0-34.0","5eb074c7e612c1129942044c","6213d21b422090ec3b3868d2","1","5","35","41","","",""
"5542","key"," "," ","16.66671987951797","500","250","psychophysics","35","455089","0.0-35.0","5eb074c7e612c1129942044c","6213d21b422090ec3b3868d2","1","0","38","63","","",""
"7344","key"," "," ","16.666815909090854","500","250","psychophysics","36","462439","0.0-36.0","5eb074c7e612c1129942044c","6213d21b422090ec3b3868d2","1","5","50","48","","",""
"4552","key"," "," ","16.666863970588192","500","250","psychophysics","37","466997","0.0-37.0","5eb074c7e612c1129942044c","6213d21b422090ec3b3868d2","","","","","","",""
"10869","key"," "," ","16.66677607361965","500","250","psychophysics","38","477879","0.0-38.0","5eb074c7e612c1129942044c","6213d21b422090ec3b3868d2","","","","","","",""
"3311","key"," "," ","16.666569999999773","500","250","psychophysics","39","481221","0.0-39.0","5eb074c7e612c1129942044c","6213d21b422090ec3b3868d2","","","","","","",""
"13221","key"," "," ","16.666722222222216","500","250","psychophysics","40","494449","0.0-40.0","5eb074c7e612c1129942044c","6213d21b422090ec3b3868d2","2","0","56","71","","",""
"15324","key"," "," ","16.666784782608676","500","250","psychophysics","41","509793","0.0-41.0","5eb074c7e612c1129942044c","6213d21b422090ec3b3868d2","","","","","","",""
"10065","key"," "," ","16.694299173553777","500","250","psychophysics","42","519906","0.0-42.0","5eb074c7e612c1129942044c","6213d21b422090ec3b3868d2","2","0","33","45","","",""
"4239","key"," "," ","16.66658661417309","500","250","psychophysics","43","524154","0.0-43.0","5eb074c7e612c1129942044c","6213d21b422090ec3b3868d2","","","","","","",""
"10426","key"," "," ","16.666816000000015","500","250","psychophysics","44","534588","0.0-44.0","5eb074c7e612c1129942044c","6213d21b422090ec3b3868d2","2","0","24","27","","",""
"2711","key"," "," ","16.66626543209911","500","250","psychophysics","45","537304","0.0-45.0","5eb074c7e612c1129942044c","6213d21b422090ec3b3868d2","","","","","","",""
"6208","key"," "," ","16.666642473118383","500","250","psychophysics","46","543532","0.0-46.0","5eb074c7e612c1129942044c","6213d21b422090ec3b3868d2","2","0","21","24","","",""
"4010","key"," "," ","16.66669709543568","500","250","psychophysics","47","547555","0.0-47.0","5eb074c7e612c1129942044c","6213d21b422090ec3b3868d2","","","","","","",""
"11592","key"," "," ","16.66670215827339","500","250","psychophysics","48","559156","0.0-48.0","5eb074c7e612c1129942044c","6213d21b422090ec3b3868d2","2","0","46","39","","",""
"4517","key"," "," ","16.789686346863487","500","250","psychophysics","49","563724","0.0-49.0","5eb074c7e612c1129942044c","6213d21b422090ec3b3868d2","","","","","","",""
"8836","key"," "," ","16.66689811320756","500","250","psychophysics","50","572576","0.0-50.0","5eb074c7e612c1129942044c","6213d21b422090ec3b3868d2","2","0","26","29","","",""
"2799","key"," "," ","16.66655952380998","500","250","psychophysics","51","575388","0.0-51.0","5eb074c7e612c1129942044c","6213d21b422090ec3b3868d2","","","","","","",""
"11227","key"," "," ","16.666656760772707","500","250","psychophysics","52","586624","0.0-52.0","5eb074c7e612c1129942044c","6213d21b422090ec3b3868d2","2","0","25","25","","",""
"3426","key"," "," ","16.66653658536592","500","250","psychophysics","53","590055","0.0-53.0","5eb074c7e612c1129942044c","6213d21b422090ec3b3868d2","","","","","","",""
"7403","key"," "," ","16.70458823529402","500","250","psychophysics","54","597464","0.0-54.0","5eb074c7e612c1129942044c","6213d21b422090ec3b3868d2","2","0","20","22","","",""
"2271","key"," "," ","16.666529411765033","500","250","psychophysics","55","599747","0.0-55.0","5eb074c7e612c1129942044c","6213d21b422090ec3b3868d2","","","","","","",""
"5853","key"," "," ","16.666908831908724","500","250","psychophysics","56","605613","0.0-56.0","5eb074c7e612c1129942044c","6213d21b422090ec3b3868d2","2","0","54","47","","",""
"2717","key"," "," ","16.666932515337194","500","250","psychophysics","57","608344","0.0-57.0","5eb074c7e612c1129942044c","6213d21b422090ec3b3868d2","","","","","","",""
"10599","key"," "," ","16.825285261489707","500","250","psychophysics","58","618978","0.0-58.0","5eb074c7e612c1129942044c","6213d21b422090ec3b3868d2","2","0","58","44","","",""
"2884","key"," "," ","16.762442528735846","500","250","psychophysics","59","621905","0.0-59.0","5eb074c7e612c1129942044c","6213d21b422090ec3b3868d2","","","","","","",""
"9590","key"," "," ","16.66682578397218","500","250","psychophysics","60","631501","0.0-60.0","5eb074c7e612c1129942044c","6213d21b422090ec3b3868d2","2","0","48","56","","",""
"3896","key"," "," ","16.66714102564117","500","250","psychophysics","61","635406","0.0-61.0","5eb074c7e612c1129942044c","6213d21b422090ec3b3868d2","","","","","","",""
"9539","key"," "," ","16.666701048951055","500","250","psychophysics","62","644953","0.0-62.0","5eb074c7e612c1129942044c","6213d21b422090ec3b3868d2","2","0","58","53","","",""
"2351","key"," "," ","16.666714285714885","500","250","psychophysics","63","647308","0.0-63.0","5eb074c7e612c1129942044c","6213d21b422090ec3b3868d2","","","","","","",""
"9276","key"," "," ","16.666818345323616","500","250","psychophysics","64","656590","0.0-64.0","5eb074c7e612c1129942044c","6213d21b422090ec3b3868d2","2","0","50","49","","",""
"1930","key"," "," ","16.667086956522468","500","250","psychophysics","65","658524","0.0-65.0","5eb074c7e612c1129942044c","6213d21b422090ec3b3868d2","","","","","","",""
"9837","key"," "," ","16.666837288135607","500","250","psychophysics","66","668374","0.0-66.0","5eb074c7e612c1129942044c","6213d21b422090ec3b3868d2","2","0","56","62","","",""
"6114","key"," "," ","16.666778688524502","500","250","psychophysics","67","674492","0.0-67.0","5eb074c7e612c1129942044c","6213d21b422090ec3b3868d2","","","","","","",""
"12480","key"," "," ","16.666588235294128","500","250","psychophysics","68","686978","0.0-68.0","5eb074c7e612c1129942044c","6213d21b422090ec3b3868d2","2","0","36","38","","",""
"2273","key"," "," ","16.66649264705912","500","250","psychophysics","69","689256","0.0-69.0","5eb074c7e612c1129942044c","6213d21b422090ec3b3868d2","","","","","","",""
"4617","key"," "," ","16.666865942029172","500","250","psychophysics","70","693878","0.0-70.0","5eb074c7e612c1129942044c","6213d21b422090ec3b3868d2","","","","","","",""
"7312","key"," "," ","16.66686104783594","500","250","psychophysics","71","701204","0.0-71.0","5eb074c7e612c1129942044c","6213d21b422090ec3b3868d2","","","","","","",""
"10882","key"," "," ","16.666700920245418","500","250","psychophysics","72","712094","0.0-72.0","5eb074c7e612c1129942044c","6213d21b422090ec3b3868d2","3","5","32","27","","",""
"9267","key"," "," ","16.66667027027023","500","250","psychophysics","73","721367","0.0-73.0","5eb074c7e612c1129942044c","6213d21b422090ec3b3868d2","3","0","34","43","","",""
"10378","key"," "," ","16.666747993579392","500","250","psychophysics","74","731754","0.0-74.0","5eb074c7e612c1129942044c","6213d21b422090ec3b3868d2","3","5","55","41","","",""
"8662","key"," "," ","16.666639691714902","500","250","psychophysics","75","740421","0.0-75.0","5eb074c7e612c1129942044c","6213d21b422090ec3b3868d2","3","0","41","45","","",""
"4167","key"," "," ","16.666433734939915","500","250","psychophysics","76","744593","0.0-76.0","5eb074c7e612c1129942044c","6213d21b422090ec3b3868d2","3","5","28","28","","",""
"11773","key"," "," ","16.666735127478706","500","250","psychophysics","77","756371","0.0-77.0","5eb074c7e612c1129942044c","6213d21b422090ec3b3868d2","3","0","44","47","","",""
"16933","key"," "," ","16.74924158415847","500","250","psychophysics","78","773309","0.0-78.0","5eb074c7e612c1129942044c","6213d21b422090ec3b3868d2","3","5","59","44","","",""
"11864","key"," "," ","16.66673136427563","500","250","psychophysics","79","785177","0.0-79.0","5eb074c7e612c1129942044c","6213d21b422090ec3b3868d2","3","0","22","30","","",""
"5597","key"," "," ","16.666668656716514","500","250","psychophysics","80","790779","0.0-80.0","5eb074c7e612c1129942044c","6213d21b422090ec3b3868d2","3","5","29","31","","",""
"7789","key"," "," ","16.66682869379012","500","250","psychophysics","81","798579","0.0-81.0","5eb074c7e612c1129942044c","6213d21b422090ec3b3868d2","3","0","48","41","","",""
"5532","key"," "," ","16.666993975903733","500","250","psychophysics","82","804121","0.0-82.0","5eb074c7e612c1129942044c","6213d21b422090ec3b3868d2","3","5","37","38","","",""
"13489","key"," "," ","16.66678465346533","500","250","psychophysics","83","817616","0.0-83.0","5eb074c7e612c1129942044c","6213d21b422090ec3b3868d2","3","0","25","35","","",""
"9063","key"," "," ","16.66687316176467","500","250","psychophysics","84","826689","0.0-84.0","5eb074c7e612c1129942044c","6213d21b422090ec3b3868d2","3","5","51","40","","",""
"14309","key"," "," ","16.666864801864715","500","250","psychophysics","85","841005","0.0-85.0","5eb074c7e612c1129942044c","6213d21b422090ec3b3868d2","3","0","57","49","","",""
"7018","key"," "," ","16.66660952380958","500","250","psychophysics","86","848028","0.0-86.0","5eb074c7e612c1129942044c","6213d21b422090ec3b3868d2","3","5","40","33","","",""
"9238","key"," "," ","16.66670758122728","500","250","psychophysics","87","857277","0.0-87.0","5eb074c7e612c1129942044c","6213d21b422090ec3b3868d2","3","0","20","29","","",""
"6582","key"," "," ","16.666761421319865","500","250","psychophysics","88","863863","0.0-88.0","5eb074c7e612c1129942044c","6213d21b422090ec3b3868d2","3","5","52","46","","",""
"8429","key"," "," ","16.666782608695637","500","250","psychophysics","89","872305","0.0-89.0","5eb074c7e612c1129942044c","6213d21b422090ec3b3868d2","3","0","50","46","","",""
"5628","key"," "," ","16.66682789317513","500","250","psychophysics","90","877938","0.0-90.0","5eb074c7e612c1129942044c","6213d21b422090ec3b3868d2","3","5","43","41","","",""
"10911","key"," "," ","16.666730474732006","500","250","psychophysics","91","888854","0.0-91.0","5eb074c7e612c1129942044c","6213d21b422090ec3b3868d2","3","0","25","30","","",""
"2013","key"," "," ","16.66700826446268","500","250","psychophysics","92","890874","0.0-92.0","5eb074c7e612c1129942044c","6213d21b422090ec3b3868d2","","","","","","",""
"57886","","","v","","","","html-keyboard-response","93","948763","0.0-93.0","5eb074c7e612c1129942044c","6213d21b422090ec3b3868d2","","","","","<p> In this part of the experiment, we are going present digits 1, 2, 3, 4, 6, 7, 8, and 9.  Notice that 5 is missing.  Your job is to say whether the presented digit is less than or greater than 5.  For example, 3 is less than 5 and 7 is greater than 5.  If the digit is less than 5, press the v key; if it is greater than 5, press the n key. We are going to do 200 of these in total, but only 50 righ now. They go real fast.</p>  <br><br>  Ready? (press v or n)","",""
"3076","key","v","v","16.770248648648252","500","250","psychophysics","94","951865","0.0-94.0","5eb074c7e612c1129942044c","6213d21b422090ec3b3868d2","4","","","","","1","1"
"null","","","null","","","","html-keyboard-response","95","952368","0.0-95.0","5eb074c7e612c1129942044c","6213d21b422090ec3b3868d2","","","","","<p style=""color:darkgreen;font-size:24px;"">Correct :)</p>","",""
"2637","key","n","n","16.667227848101394","500","250","psychophysics","96","955015","0.0-96.0","5eb074c7e612c1129942044c","6213d21b422090ec3b3868d2","4","","","","","1","6"
"null","","","null","","","","html-keyboard-response","97","955517","0.0-97.0","5eb074c7e612c1129942044c","6213d21b422090ec3b3868d2","","","","","<p style=""color:darkgreen;font-size:24px;"">Correct :)</p>","",""
"2574","key","v","v","16.666629870129633","500","250","psychophysics","98","958098","0.0-98.0","5eb074c7e612c1129942044c","6213d21b422090ec3b3868d2","4","","","","","1","1"
"null","","","null","","","","html-keyboard-response","99","958601","0.0-99.0","5eb074c7e612c1129942044c","6213d21b422090ec3b3868d2","","","","","<p style=""color:darkgreen;font-size:24px;"">Correct :)</p>","",""
"2752","key","v","v","16.666842424242304","500","250","psychophysics","100","961359","0.0-100.0","5eb074c7e612c1129942044c","6213d21b422090ec3b3868d2","4","","","","","1","2"
"null","","","null","","","","html-keyboard-response","101","961861","0.0-101.0","5eb074c7e612c1129942044c","6213d21b422090ec3b3868d2","","","","","<p style=""color:darkgreen;font-size:24px;"">Correct :)</p>","",""
"2539","key","v","v","16.66641176470595","500","250","psychophysics","102","964406","0.0-102.0","5eb074c7e612c1129942044c","6213d21b422090ec3b3868d2","4","","","","","1","1"
"null","","","null","","","","html-keyboard-response","103","964909","0.0-103.0","5eb074c7e612c1129942044c","6213d21b422090ec3b3868d2","","","","","<p style=""color:darkgreen;font-size:24px;"">Correct :)</p>","",""
"2593","key","v","v","16.667057692308354","500","250","psychophysics","104","967508","0.0-104.0","5eb074c7e612c1129942044c","6213d21b422090ec3b3868d2","4","","","","","1","1"
"null","","","null","","","","html-keyboard-response","105","968010","0.0-105.0","5eb074c7e612c1129942044c","6213d21b422090ec3b3868d2","","","","","<p style=""color:darkgreen;font-size:24px;"">Correct :)</p>","",""
"2590","key","v","v","16.666858974359155","500","250","psychophysics","106","970609","0.0-106.0","5eb074c7e612c1129942044c","6213d21b422090ec3b3868d2","4","","","","","1","3"
"null","","","null","","","","html-keyboard-response","107","971112","0.0-107.0","5eb074c7e612c1129942044c","6213d21b422090ec3b3868d2","","","","","<p style=""color:darkgreen;font-size:24px;"">Correct :)</p>","",""
"2617","key","n","n","16.666924050633348","500","250","psychophysics","108","973738","0.0-108.0","5eb074c7e612c1129942044c","6213d21b422090ec3b3868d2","4","","","","","1","9"
"null","","","null","","","","html-keyboard-response","109","974241","0.0-109.0","5eb074c7e612c1129942044c","6213d21b422090ec3b3868d2","","","","","<p style=""color:darkgreen;font-size:24px;"">Correct :)</p>","",""
"2463","key","n","n","16.66694630872483","500","250","psychophysics","110","976722","0.0-110.0","5eb074c7e612c1129942044c","6213d21b422090ec3b3868d2","4","","","","","1","6"
"null","","","null","","","","html-keyboard-response","111","977225","0.0-111.0","5eb074c7e612c1129942044c","6213d21b422090ec3b3868d2","","","","","<p style=""color:darkgreen;font-size:24px;"">Correct :)</p>","",""
"2573","key","n","n","16.666638709677592","500","250","psychophysics","112","979806","0.0-112.0","5eb074c7e612c1129942044c","6213d21b422090ec3b3868d2","4","","","","","1","9"
"null","","","null","","","","html-keyboard-response","113","980308","0.0-113.0","5eb074c7e612c1129942044c","6213d21b422090ec3b3868d2","","","","","<p style=""color:darkgreen;font-size:24px;"">Correct :)</p>","",""
"2563","key","n","n","16.66698051948031","500","250","psychophysics","114","982877","0.0-114.0","5eb074c7e612c1129942044c","6213d21b422090ec3b3868d2","4","","","","","1","9"
"null","","","null","","","","html-keyboard-response","115","983379","0.0-115.0","5eb074c7e612c1129942044c","6213d21b422090ec3b3868d2","","","","","<p style=""color:darkgreen;font-size:24px;"">Correct :)</p>","",""
"2671","key","v","v","16.66657763975166","500","250","psychophysics","116","986056","0.0-116.0","5eb074c7e612c1129942044c","6213d21b422090ec3b3868d2","4","","","","","1","1"
"null","","","null","","","","html-keyboard-response","117","986560","0.0-117.0","5eb074c7e612c1129942044c","6213d21b422090ec3b3868d2","","","","","<p style=""color:darkgreen;font-size:24px;"">Correct :)</p>","",""
"2458","key","v","v","16.666682432432395","500","250","psychophysics","118","989025","0.0-118.0","5eb074c7e612c1129942044c","6213d21b422090ec3b3868d2","4","","","","","1","1"
"null","","","null","","","","html-keyboard-response","119","989527","0.0-119.0","5eb074c7e612c1129942044c","6213d21b422090ec3b3868d2","","","","","<p style=""color:darkgreen;font-size:24px;"">Correct :)</p>","",""
"2581","key","n","n","16.66739354838707","500","250","psychophysics","120","992115","0.0-120.0","5eb074c7e612c1129942044c","6213d21b422090ec3b3868d2","4","","","","","1","7"
"null","","","null","","","","html-keyboard-response","121","992618","0.0-121.0","5eb074c7e612c1129942044c","6213d21b422090ec3b3868d2","","","","","<p style=""color:darkgreen;font-size:24px;"">Correct :)</p>","",""
"2621","key","v","v","16.66699999999952","500","250","psychophysics","122","995246","0.0-122.0","5eb074c7e612c1129942044c","6213d21b422090ec3b3868d2","4","","","","","1","2"
"null","","","null","","","","html-keyboard-response","123","995751","0.0-123.0","5eb074c7e612c1129942044c","6213d21b422090ec3b3868d2","","","","","<p style=""color:darkgreen;font-size:24px;"">Correct :)</p>","",""
"2643","key","v","v","16.667215189873684","500","250","psychophysics","124","998400","0.0-124.0","5eb074c7e612c1129942044c","6213d21b422090ec3b3868d2","4","","","","","1","3"
"null","","","null","","","","html-keyboard-response","125","998902","0.0-125.0","5eb074c7e612c1129942044c","6213d21b422090ec3b3868d2","","","","","<p style=""color:darkgreen;font-size:24px;"">Correct :)</p>","",""
"2686","key","v","v","16.666906832297975","500","250","psychophysics","126","1001595","0.0-126.0","5eb074c7e612c1129942044c","6213d21b422090ec3b3868d2","4","","","","","1","3"
"null","","","null","","","","html-keyboard-response","127","1002098","0.0-127.0","5eb074c7e612c1129942044c","6213d21b422090ec3b3868d2","","","","","<p style=""color:darkgreen;font-size:24px;"">Correct :)</p>","",""
"2585","key","v","v","16.66686538461512","500","250","psychophysics","128","1004690","0.0-128.0","5eb074c7e612c1129942044c","6213d21b422090ec3b3868d2","4","","","","","1","3"
"null","","","null","","","","html-keyboard-response","129","1005193","0.0-129.0","5eb074c7e612c1129942044c","6213d21b422090ec3b3868d2","","","","","<p style=""color:darkgreen;font-size:24px;"">Correct :)</p>","",""
"2638","key","n","n","16.667106918238673","500","250","psychophysics","130","1007850","0.0-130.0","5eb074c7e612c1129942044c","6213d21b422090ec3b3868d2","4","","","","","1","7"
"null","","","null","","","","html-keyboard-response","131","1008356","0.0-131.0","5eb074c7e612c1129942044c","6213d21b422090ec3b3868d2","","","","","<p style=""color:darkgreen;font-size:24px;"">Correct :)</p>","",""
"2658","key","v","v","16.66716874999984","500","250","psychophysics","132","1011021","0.0-132.0","5eb074c7e612c1129942044c","6213d21b422090ec3b3868d2","4","","","","","1","6"
"null","","","null","","","","html-keyboard-response","133","1011524","0.0-133.0","5eb074c7e612c1129942044c","6213d21b422090ec3b3868d2","","","","","<p style=""color:red;font-size:24px;"">Error :(</p>","",""
"2528","key","n","n","16.668125000000337","500","250","psychophysics","134","1014058","0.0-134.0","5eb074c7e612c1129942044c","6213d21b422090ec3b3868d2","4","","","","","1","9"
"null","","","null","","","","html-keyboard-response","135","1014561","0.0-135.0","5eb074c7e612c1129942044c","6213d21b422090ec3b3868d2","","","","","<p style=""color:darkgreen;font-size:24px;"">Correct :)</p>","",""
"2524","key","n","n","16.666677631578704","500","250","psychophysics","136","1017095","0.0-136.0","5eb074c7e612c1129942044c","6213d21b422090ec3b3868d2","4","","","","","1","8"
"null","","","null","","","","html-keyboard-response","137","1017597","0.0-137.0","5eb074c7e612c1129942044c","6213d21b422090ec3b3868d2","","","","","<p style=""color:darkgreen;font-size:24px;"">Correct :)</p>","",""
"2724","key","n","n","16.666987804877685","500","250","psychophysics","138","1020328","0.0-138.0","5eb074c7e612c1129942044c","6213d21b422090ec3b3868d2","4","","","","","1","6"
"null","","","null","","","","html-keyboard-response","139","1020830","0.0-139.0","5eb074c7e612c1129942044c","6213d21b422090ec3b3868d2","","","","","<p style=""color:darkgreen;font-size:24px;"">Correct :)</p>","",""
"2641","key","n","n","16.666968553459547","500","250","psychophysics","140","1023478","0.0-140.0","5eb074c7e612c1129942044c","6213d21b422090ec3b3868d2","4","","","","","1","8"
"null","","","null","","","","html-keyboard-response","141","1023981","0.0-141.0","5eb074c7e612c1129942044c","6213d21b422090ec3b3868d2","","","","","<p style=""color:darkgreen;font-size:24px;"">Correct :)</p>","",""
"2765","key","v","v","16.66653293413166","500","250","psychophysics","142","1026754","0.0-142.0","5eb074c7e612c1129942044c","6213d21b422090ec3b3868d2","4","","","","","1","3"
"null","","","null","","","","html-keyboard-response","143","1027256","0.0-143.0","5eb074c7e612c1129942044c","6213d21b422090ec3b3868d2","","","","","<p style=""color:darkgreen;font-size:24px;"">Correct :)</p>","",""
"2669","key","v","v","16.66723750000019","500","250","psychophysics","144","1029932","0.0-144.0","5eb074c7e612c1129942044c","6213d21b422090ec3b3868d2","4","","","","","1","4"
"null","","","null","","","","html-keyboard-response","145","1030435","0.0-145.0","5eb074c7e612c1129942044c","6213d21b422090ec3b3868d2","","","","","<p style=""color:darkgreen;font-size:24px;"">Correct :)</p>","",""
"2544","key","n","n","16.667163398692818","500","250","psychophysics","146","1032991","0.0-146.0","5eb074c7e612c1129942044c","6213d21b422090ec3b3868d2","4","","","","","1","6"
"null","","","null","","","","html-keyboard-response","147","1033493","0.0-147.0","5eb074c7e612c1129942044c","6213d21b422090ec3b3868d2","","","","","<p style=""color:darkgreen;font-size:24px;"">Correct :)</p>","",""
"2738","key","v","v","16.666860606060645","500","250","psychophysics","148","1036243","0.0-148.0","5eb074c7e612c1129942044c","6213d21b422090ec3b3868d2","4","","","","","1","4"
"null","","","null","","","","html-keyboard-response","149","1036745","0.0-149.0","5eb074c7e612c1129942044c","6213d21b422090ec3b3868d2","","","","","<p style=""color:darkgreen;font-size:24px;"">Correct :)</p>","",""
"2592","key","v","v","16.666775641025595","500","250","psychophysics","150","1039348","0.0-150.0","5eb074c7e612c1129942044c","6213d21b422090ec3b3868d2","4","","","","","1","3"
"null","","","null","","","","html-keyboard-response","151","1039850","0.0-151.0","5eb074c7e612c1129942044c","6213d21b422090ec3b3868d2","","","","","<p style=""color:darkgreen;font-size:24px;"">Correct :)</p>","",""
"2703","key","n","n","16.66646296296263","500","250","psychophysics","152","1042559","0.0-152.0","5eb074c7e612c1129942044c","6213d21b422090ec3b3868d2","4","","","","","1","9"
"null","","","null","","","","html-keyboard-response","153","1043062","0.0-153.0","5eb074c7e612c1129942044c","6213d21b422090ec3b3868d2","","","","","<p style=""color:darkgreen;font-size:24px;"">Correct :)</p>","",""
"2490","key","n","n","16.667493333333017","500","250","psychophysics","154","1045564","0.0-154.0","5eb074c7e612c1129942044c","6213d21b422090ec3b3868d2","4","","","","","1","9"
"null","","","null","","","","html-keyboard-response","155","1046066","0.0-155.0","5eb074c7e612c1129942044c","6213d21b422090ec3b3868d2","","","","","<p style=""color:darkgreen;font-size:24px;"">Correct :)</p>","",""
"2497","key","n","n","16.666313333332848","500","250","psychophysics","156","1048570","0.0-156.0","5eb074c7e612c1129942044c","6213d21b422090ec3b3868d2","4","","","","","1","8"
"null","","","null","","","","html-keyboard-response","157","1049074","0.0-157.0","5eb074c7e612c1129942044c","6213d21b422090ec3b3868d2","","","","","<p style=""color:darkgreen;font-size:24px;"">Correct :)</p>","",""
"2710","key","v","v","16.66669325153429","500","250","psychophysics","158","1051790","0.0-158.0","5eb074c7e612c1129942044c","6213d21b422090ec3b3868d2","4","","","","","1","1"
"null","","","null","","","","html-keyboard-response","159","1052292","0.0-159.0","5eb074c7e612c1129942044c","6213d21b422090ec3b3868d2","","","","","<p style=""color:darkgreen;font-size:24px;"">Correct :)</p>","",""
"2540","key","v","v","16.666320261438955","500","250","psychophysics","160","1054839","0.0-160.0","5eb074c7e612c1129942044c","6213d21b422090ec3b3868d2","4","","","","","1","3"
"null","","","null","","","","html-keyboard-response","161","1055341","0.0-161.0","5eb074c7e612c1129942044c","6213d21b422090ec3b3868d2","","","","","<p style=""color:darkgreen;font-size:24px;"">Correct :)</p>","",""
"2747","key","n","n","16.666951515150227","500","250","psychophysics","162","1058094","0.0-162.0","5eb074c7e612c1129942044c","6213d21b422090ec3b3868d2","4","","","","","1","8"
"null","","","null","","","","html-keyboard-response","163","1058596","0.0-163.0","5eb074c7e612c1129942044c","6213d21b422090ec3b3868d2","","","","","<p style=""color:darkgreen;font-size:24px;"">Correct :)</p>","",""
"2552","key","n","n","16.666577922079","500","250","psychophysics","164","1061154","0.0-164.0","5eb074c7e612c1129942044c","6213d21b422090ec3b3868d2","4","","","","","1","9"
"null","","","null","","","","html-keyboard-response","165","1061657","0.0-165.0","5eb074c7e612c1129942044c","6213d21b422090ec3b3868d2","","","","","<p style=""color:darkgreen;font-size:24px;"">Correct :)</p>","",""
"2760","key","v","v","16.667108433734885","500","250","psychophysics","166","1064423","0.0-166.0","5eb074c7e612c1129942044c","6213d21b422090ec3b3868d2","4","","","","","1","3"
"null","","","null","","","","html-keyboard-response","167","1064925","0.0-167.0","5eb074c7e612c1129942044c","6213d21b422090ec3b3868d2","","","","","<p style=""color:darkgreen;font-size:24px;"">Correct :)</p>","",""
"2800","key","n","n","16.667321428572038","500","250","psychophysics","168","1067732","0.0-168.0","5eb074c7e612c1129942044c","6213d21b422090ec3b3868d2","4","","","","","1","7"
"null","","","null","","","","html-keyboard-response","169","1068235","0.0-169.0","5eb074c7e612c1129942044c","6213d21b422090ec3b3868d2","","","","","<p style=""color:darkgreen;font-size:24px;"">Correct :)</p>","",""
"2610","key","v","v","16.666503184712283","500","250","psychophysics","170","1070864","0.0-170.0","5eb074c7e612c1129942044c","6213d21b422090ec3b3868d2","4","","","","","1","2"
"null","","","null","","","","html-keyboard-response","171","1071366","0.0-171.0","5eb074c7e612c1129942044c","6213d21b422090ec3b3868d2","","","","","<p style=""color:darkgreen;font-size:24px;"">Correct :)</p>","",""
"2754","key","v","v","16.667618181817517","500","250","psychophysics","172","1074126","0.0-172.0","5eb074c7e612c1129942044c","6213d21b422090ec3b3868d2","4","","","","","1","3"
"null","","","null","","","","html-keyboard-response","173","1074628","0.0-173.0","5eb074c7e612c1129942044c","6213d21b422090ec3b3868d2","","","","","<p style=""color:darkgreen;font-size:24px;"">Correct :)</p>","",""
"2788","key","v","v","16.667029761904683","500","250","psychophysics","174","1077422","0.0-174.0","5eb074c7e612c1129942044c","6213d21b422090ec3b3868d2","4","","","","","1","1"
"null","","","null","","","","html-keyboard-response","175","1077924","0.0-175.0","5eb074c7e612c1129942044c","6213d21b422090ec3b3868d2","","","","","<p style=""color:darkgreen;font-size:24px;"">Correct :)</p>","",""
"3199","key","n","n","16.666786458333565","500","250","psychophysics","176","1081129","0.0-176.0","5eb074c7e612c1129942044c","6213d21b422090ec3b3868d2","4","","","","","1","8"
"null","","","null","","","","html-keyboard-response","177","1081645","0.0-177.0","5eb074c7e612c1129942044c","6213d21b422090ec3b3868d2","","","","","<p style=""color:darkgreen;font-size:24px;"">Correct :)</p>","",""
"2560","key","v","v","16.667253246753138","500","250","psychophysics","178","1084211","0.0-178.0","5eb074c7e612c1129942044c","6213d21b422090ec3b3868d2","4","","","","","1","2"
"null","","","null","","","","html-keyboard-response","179","1084713","0.0-179.0","5eb074c7e612c1129942044c","6213d21b422090ec3b3868d2","","","","","<p style=""color:darkgreen;font-size:24px;"">Correct :)</p>","",""
"2573","key","n","n","16.667083870968032","500","250","psychophysics","180","1087292","0.0-180.0","5eb074c7e612c1129942044c","6213d21b422090ec3b3868d2","4","","","","","1","9"
"null","","","null","","","","html-keyboard-response","181","1087794","0.0-181.0","5eb074c7e612c1129942044c","6213d21b422090ec3b3868d2","","","","","<p style=""color:darkgreen;font-size:24px;"">Correct :)</p>","",""
"2928","key","n","n","16.666704545453698","500","250","psychophysics","182","1090729","0.0-182.0","5eb074c7e612c1129942044c","6213d21b422090ec3b3868d2","4","","","","","1","6"
"null","","","null","","","","html-keyboard-response","183","1091231","0.0-183.0","5eb074c7e612c1129942044c","6213d21b422090ec3b3868d2","","","","","<p style=""color:darkgreen;font-size:24px;"">Correct :)</p>","",""
"2535","key","n","n","16.667013071894377","500","250","psychophysics","184","1093773","0.0-184.0","5eb074c7e612c1129942044c","6213d21b422090ec3b3868d2","4","","","","","1","9"
"null","","","null","","","","html-keyboard-response","185","1094275","0.0-185.0","5eb074c7e612c1129942044c","6213d21b422090ec3b3868d2","","","","","<p style=""color:darkgreen;font-size:24px;"">Correct :)</p>","",""
"2612","key","v","v","16.666687898088696","500","250","psychophysics","186","1096893","0.0-186.0","5eb074c7e612c1129942044c","6213d21b422090ec3b3868d2","4","","","","","1","1"
"null","","","null","","","","html-keyboard-response","187","1097395","0.0-187.0","5eb074c7e612c1129942044c","6213d21b422090ec3b3868d2","","","","","<p style=""color:darkgreen;font-size:24px;"">Correct :)</p>","",""
"2644","key","n","n","16.666836477987435","500","250","psychophysics","188","1100050","0.0-188.0","5eb074c7e612c1129942044c","6213d21b422090ec3b3868d2","4","","","","","1","8"
"null","","","null","","","","html-keyboard-response","189","1100555","0.0-189.0","5eb074c7e612c1129942044c","6213d21b422090ec3b3868d2","","","","","<p style=""color:darkgreen;font-size:24px;"">Correct :)</p>","",""
"2732","key","n","n","16.6670975609762","500","250","psychophysics","190","1103293","0.0-190.0","5eb074c7e612c1129942044c","6213d21b422090ec3b3868d2","4","","","","","1","7"
"null","","","null","","","","html-keyboard-response","191","1103795","0.0-191.0","5eb074c7e612c1129942044c","6213d21b422090ec3b3868d2","","","","","<p style=""color:darkgreen;font-size:24px;"">Correct :)</p>","",""
"2537","key","n","n","16.667130718954223","500","250","psychophysics","192","1106339","0.0-192.0","5eb074c7e612c1129942044c","6213d21b422090ec3b3868d2","4","","","","","1","7"
"null","","","null","","","","html-keyboard-response","193","1106841","0.0-193.0","5eb074c7e612c1129942044c","6213d21b422090ec3b3868d2","","","","","<p style=""color:darkgreen;font-size:24px;"">Correct :)</p>","",""
"10327","","","n","","","","html-keyboard-response","194","1117170","0.0-194.0","5eb074c7e612c1129942044c","6213d21b422090ec3b3868d2","","","","","<p> Ok, now we are going present the same digits as before.  Your job is to say whether the digit is even or odd  If the digit is odd, press to v key; if it is even, press the n key. We are going to do 50 of these.  </p>  <br><br>  Ready? (press v or n)","",""
"3076","key","n","n","16.66962702702731","500","250","psychophysics","195","1120256","0.0-195.0","5eb074c7e612c1129942044c","6213d21b422090ec3b3868d2","5","","","","","0","6"
"null","","","null","","","","html-keyboard-response","196","1120759","0.0-196.0","5eb074c7e612c1129942044c","6213d21b422090ec3b3868d2","","","","","<p style=""color:darkgreen;font-size:24px;"">Correct :)</p>","",""
"2534","key","n","n","16.66741447368373","500","250","psychophysics","197","1123299","0.0-197.0","5eb074c7e612c1129942044c","6213d21b422090ec3b3868d2","5","","","","","0","6"
"null","","","null","","","","html-keyboard-response","198","1123802","0.0-198.0","5eb074c7e612c1129942044c","6213d21b422090ec3b3868d2","","","","","<p style=""color:darkgreen;font-size:24px;"">Correct :)</p>","",""
"2611","key","n","n","16.666694267516494","500","250","psychophysics","199","1126419","0.0-199.0","5eb074c7e612c1129942044c","6213d21b422090ec3b3868d2","5","","","","","0","6"
"null","","","null","","","","html-keyboard-response","200","1126934","0.0-200.0","5eb074c7e612c1129942044c","6213d21b422090ec3b3868d2","","","","","<p style=""color:darkgreen;font-size:24px;"">Correct :)</p>","",""
"2554","key","n","n","16.6669084967321","500","250","psychophysics","201","1129495","0.0-201.0","5eb074c7e612c1129942044c","6213d21b422090ec3b3868d2","5","","","","","0","6"
"null","","","null","","","","html-keyboard-response","202","1129997","0.0-202.0","5eb074c7e612c1129942044c","6213d21b422090ec3b3868d2","","","","","<p style=""color:darkgreen;font-size:24px;"">Correct :)</p>","",""
"2877","key","n","n","16.76254022988389","500","250","psychophysics","203","1132914","0.0-203.0","5eb074c7e612c1129942044c","6213d21b422090ec3b3868d2","5","","","","","0","2"
"null","","","null","","","","html-keyboard-response","204","1133418","0.0-204.0","5eb074c7e612c1129942044c","6213d21b422090ec3b3868d2","","","","","<p style=""color:darkgreen;font-size:24px;"">Correct :)</p>","",""
"3143","key","v","v","16.667207446808806","500","250","psychophysics","205","1136567","0.0-205.0","5eb074c7e612c1129942044c","6213d21b422090ec3b3868d2","5","","","","","0","9"
"null","","","null","","","","html-keyboard-response","206","1137070","0.0-206.0","5eb074c7e612c1129942044c","6213d21b422090ec3b3868d2","","","","","<p style=""color:darkgreen;font-size:24px;"">Correct :)</p>","",""
"2956","key","n","n","16.66705084745746","500","250","psychophysics","207","1140032","0.0-207.0","5eb074c7e612c1129942044c","6213d21b422090ec3b3868d2","5","","","","","0","2"
"null","","","null","","","","html-keyboard-response","208","1140535","0.0-208.0","5eb074c7e612c1129942044c","6213d21b422090ec3b3868d2","","","","","<p style=""color:darkgreen;font-size:24px;"">Correct :)</p>","",""
"2862","key","v","v","16.66623255813922","500","250","psychophysics","209","1143403","0.0-209.0","5eb074c7e612c1129942044c","6213d21b422090ec3b3868d2","5","","","","","0","1"
"null","","","null","","","","html-keyboard-response","210","1143907","0.0-210.0","5eb074c7e612c1129942044c","6213d21b422090ec3b3868d2","","","","","<p style=""color:darkgreen;font-size:24px;"">Correct :)</p>","",""
"3397","key","v","v","16.666671568627113","500","250","psychophysics","211","1147311","0.0-211.0","5eb074c7e612c1129942044c","6213d21b422090ec3b3868d2","5","","","","","0","3"
"null","","","null","","","","html-keyboard-response","212","1147815","0.0-212.0","5eb074c7e612c1129942044c","6213d21b422090ec3b3868d2","","","","","<p style=""color:darkgreen;font-size:24px;"">Correct :)</p>","",""
"2956","key","n","n","16.66673033707775","500","250","psychophysics","213","1150778","0.0-213.0","5eb074c7e612c1129942044c","6213d21b422090ec3b3868d2","5","","","","","0","6"
"null","","","null","","","","html-keyboard-response","214","1151281","0.0-214.0","5eb074c7e612c1129942044c","6213d21b422090ec3b3868d2","","","","","<p style=""color:darkgreen;font-size:24px;"">Correct :)</p>","",""
"3750","key","n","n","16.666938053097873","500","250","psychophysics","215","1155050","0.0-215.0","5eb074c7e612c1129942044c","6213d21b422090ec3b3868d2","5","","","","","0","2"
"null","","","null","","","","html-keyboard-response","216","1155554","0.0-216.0","5eb074c7e612c1129942044c","6213d21b422090ec3b3868d2","","","","","<p style=""color:darkgreen;font-size:24px;"">Correct :)</p>","",""
"2749","key","n","n","16.666266666667422","500","250","psychophysics","217","1158310","0.0-217.0","5eb074c7e612c1129942044c","6213d21b422090ec3b3868d2","5","","","","","0","2"
"null","","","null","","","","html-keyboard-response","218","1158813","0.0-218.0","5eb074c7e612c1129942044c","6213d21b422090ec3b3868d2","","","","","<p style=""color:darkgreen;font-size:24px;"">Correct :)</p>","",""
"2907","key","v","v","16.667851428571822","500","250","psychophysics","219","1161728","0.0-219.0","5eb074c7e612c1129942044c","6213d21b422090ec3b3868d2","5","","","","","0","9"
"null","","","null","","","","html-keyboard-response","220","1162230","0.0-220.0","5eb074c7e612c1129942044c","6213d21b422090ec3b3868d2","","","","","<p style=""color:darkgreen;font-size:24px;"">Correct :)</p>","",""
"2905","key","v","v","16.66632571428615","500","250","psychophysics","221","1165142","0.0-221.0","5eb074c7e612c1129942044c","6213d21b422090ec3b3868d2","5","","","","","0","1"
"null","","","null","","","","html-keyboard-response","222","1165645","0.0-222.0","5eb074c7e612c1129942044c","6213d21b422090ec3b3868d2","","","","","<p style=""color:darkgreen;font-size:24px;"">Correct :)</p>","",""
"2923","key","n","n","16.666840909089924","500","250","psychophysics","223","1168576","0.0-223.0","5eb074c7e612c1129942044c","6213d21b422090ec3b3868d2","5","","","","","0","2"
"null","","","null","","","","html-keyboard-response","224","1169079","0.0-224.0","5eb074c7e612c1129942044c","6213d21b422090ec3b3868d2","","","","","<p style=""color:darkgreen;font-size:24px;"">Correct :)</p>","",""
"2837","key","v","v","16.667730994152222","500","250","psychophysics","225","1171924","0.0-225.0","5eb074c7e612c1129942044c","6213d21b422090ec3b3868d2","5","","","","","0","3"
"null","","","null","","","","html-keyboard-response","226","1172426","0.0-226.0","5eb074c7e612c1129942044c","6213d21b422090ec3b3868d2","","","","","<p style=""color:darkgreen;font-size:24px;"">Correct :)</p>","",""
"2576","key","v","v","16.66665806451572","500","250","psychophysics","227","1175009","0.0-227.0","5eb074c7e612c1129942044c","6213d21b422090ec3b3868d2","5","","","","","0","3"
"null","","","null","","","","html-keyboard-response","228","1175513","0.0-228.0","5eb074c7e612c1129942044c","6213d21b422090ec3b3868d2","","","","","<p style=""color:darkgreen;font-size:24px;"">Correct :)</p>","",""
"2653","key","v","v","16.666862499999116","500","250","psychophysics","229","1178173","0.0-229.0","5eb074c7e612c1129942044c","6213d21b422090ec3b3868d2","5","","","","","0","3"
"null","","","null","","","","html-keyboard-response","230","1178677","0.0-230.0","5eb074c7e612c1129942044c","6213d21b422090ec3b3868d2","","","","","<p style=""color:darkgreen;font-size:24px;"">Correct :)</p>","",""
"2718","key","n","n","16.66724539877264","500","250","psychophysics","231","1181402","0.0-231.0","5eb074c7e612c1129942044c","6213d21b422090ec3b3868d2","5","","","","","0","2"
"null","","","null","","","","html-keyboard-response","232","1181906","0.0-232.0","5eb074c7e612c1129942044c","6213d21b422090ec3b3868d2","","","","","<p style=""color:darkgreen;font-size:24px;"">Correct :)</p>","",""
"2592","key","n","n","16.666352564101825","500","250","psychophysics","233","1184504","0.0-233.0","5eb074c7e612c1129942044c","6213d21b422090ec3b3868d2","5","","","","","0","2"
"null","","","null","","","","html-keyboard-response","234","1185008","0.0-234.0","5eb074c7e612c1129942044c","6213d21b422090ec3b3868d2","","","","","<p style=""color:darkgreen;font-size:24px;"">Correct :)</p>","",""
"2663","key","n","n","16.666675000000396","500","250","psychophysics","235","1187677","0.0-235.0","5eb074c7e612c1129942044c","6213d21b422090ec3b3868d2","5","","","","","0","6"
"null","","","null","","","","html-keyboard-response","236","1188182","0.0-236.0","5eb074c7e612c1129942044c","6213d21b422090ec3b3868d2","","","","","<p style=""color:darkgreen;font-size:24px;"">Correct :)</p>","",""
"2657","key","n","n","16.667575000000944","500","250","psychophysics","237","1190847","0.0-237.0","5eb074c7e612c1129942044c","6213d21b422090ec3b3868d2","5","","","","","0","6"
"null","","","null","","","","html-keyboard-response","238","1191350","0.0-238.0","5eb074c7e612c1129942044c","6213d21b422090ec3b3868d2","","","","","<p style=""color:darkgreen;font-size:24px;"">Correct :)</p>","",""
"2735","key","v","v","16.666725609755346","500","250","psychophysics","239","1194091","0.0-239.0","5eb074c7e612c1129942044c","6213d21b422090ec3b3868d2","5","","","","","0","1"
"null","","","null","","","","html-keyboard-response","240","1194595","0.0-240.0","5eb074c7e612c1129942044c","6213d21b422090ec3b3868d2","","","","","<p style=""color:darkgreen;font-size:24px;"">Correct :)</p>","",""
"2585","key","n","n","16.666442307692844","500","250","psychophysics","241","1197188","0.0-241.0","5eb074c7e612c1129942044c","6213d21b422090ec3b3868d2","5","","","","","0","2"
"null","","","null","","","","html-keyboard-response","242","1197691","0.0-242.0","5eb074c7e612c1129942044c","6213d21b422090ec3b3868d2","","","","","<p style=""color:darkgreen;font-size:24px;"">Correct :)</p>","",""
"3254","key","v","v","16.667010256410457","500","250","psychophysics","243","1200951","0.0-243.0","5eb074c7e612c1129942044c","6213d21b422090ec3b3868d2","5","","","","","0","3"
"null","","","null","","","","html-keyboard-response","244","1201456","0.0-244.0","5eb074c7e612c1129942044c","6213d21b422090ec3b3868d2","","","","","<p style=""color:darkgreen;font-size:24px;"">Correct :)</p>","",""
"2630","key","n","n","16.6670379746835","500","250","psychophysics","245","1204092","0.0-245.0","5eb074c7e612c1129942044c","6213d21b422090ec3b3868d2","5","","","","","0","8"
"null","","","null","","","","html-keyboard-response","246","1204595","0.0-246.0","5eb074c7e612c1129942044c","6213d21b422090ec3b3868d2","","","","","<p style=""color:darkgreen;font-size:24px;"">Correct :)</p>","",""
"2699","key","v","v","16.66680981595058","500","250","psychophysics","247","1207307","0.0-247.0","5eb074c7e612c1129942044c","6213d21b422090ec3b3868d2","5","","","","","0","1"
"null","","","null","","","","html-keyboard-response","248","1207811","0.0-248.0","5eb074c7e612c1129942044c","6213d21b422090ec3b3868d2","","","","","<p style=""color:darkgreen;font-size:24px;"">Correct :)</p>","",""
"2751","key","n","n","16.6668132530127","500","250","psychophysics","249","1210572","0.0-249.0","5eb074c7e612c1129942044c","6213d21b422090ec3b3868d2","5","","","","","0","8"
"null","","","null","","","","html-keyboard-response","250","1211075","0.0-250.0","5eb074c7e612c1129942044c","6213d21b422090ec3b3868d2","","","","","<p style=""color:darkgreen;font-size:24px;"">Correct :)</p>","",""
"2764","key","v","v","16.66790963855505","500","250","psychophysics","251","1213846","0.0-251.0","5eb074c7e612c1129942044c","6213d21b422090ec3b3868d2","5","","","","","0","1"
"null","","","null","","","","html-keyboard-response","252","1214348","0.0-252.0","5eb074c7e612c1129942044c","6213d21b422090ec3b3868d2","","","","","<p style=""color:darkgreen;font-size:24px;"">Correct :)</p>","",""
"2755","key","v","v","16.667126506024196","500","250","psychophysics","253","1217109","0.0-253.0","5eb074c7e612c1129942044c","6213d21b422090ec3b3868d2","5","","","","","0","3"
"null","","","null","","","","html-keyboard-response","254","1217612","0.0-254.0","5eb074c7e612c1129942044c","6213d21b422090ec3b3868d2","","","","","<p style=""color:darkgreen;font-size:24px;"">Correct :)</p>","",""
"2830","key","n","n","16.666323529412587","500","250","psychophysics","255","1220449","0.0-255.0","5eb074c7e612c1129942044c","6213d21b422090ec3b3868d2","5","","","","","0","4"
"null","","","null","","","","html-keyboard-response","256","1220952","0.0-256.0","5eb074c7e612c1129942044c","6213d21b422090ec3b3868d2","","","","","<p style=""color:darkgreen;font-size:24px;"">Correct :)</p>","",""
"2584","key","n","n","16.666825806451662","500","250","psychophysics","257","1223542","0.0-257.0","5eb074c7e612c1129942044c","6213d21b422090ec3b3868d2","5","","","","","0","4"
"null","","","null","","","","html-keyboard-response","258","1224045","0.0-258.0","5eb074c7e612c1129942044c","6213d21b422090ec3b3868d2","","","","","<p style=""color:darkgreen;font-size:24px;"">Correct :)</p>","",""
"2759","key","v","v","16.66688554216855","500","250","psychophysics","259","1226810","0.0-259.0","5eb074c7e612c1129942044c","6213d21b422090ec3b3868d2","5","","","","","0","3"
"null","","","null","","","","html-keyboard-response","260","1227313","0.0-260.0","5eb074c7e612c1129942044c","6213d21b422090ec3b3868d2","","","","","<p style=""color:darkgreen;font-size:24px;"">Correct :)</p>","",""
"2736","key","v","v","16.666951515151638","500","250","psychophysics","261","1230056","0.0-261.0","5eb074c7e612c1129942044c","6213d21b422090ec3b3868d2","5","","","","","0","1"
"null","","","null","","","","html-keyboard-response","262","1230558","0.0-262.0","5eb074c7e612c1129942044c","6213d21b422090ec3b3868d2","","","","","<p style=""color:darkgreen;font-size:24px;"">Correct :)</p>","",""
"2727","key","v","v","16.667481707316743","500","250","psychophysics","263","1233291","0.0-263.0","5eb074c7e612c1129942044c","6213d21b422090ec3b3868d2","5","","","","","0","3"
"null","","","null","","","","html-keyboard-response","264","1233793","0.0-264.0","5eb074c7e612c1129942044c","6213d21b422090ec3b3868d2","","","","","<p style=""color:darkgreen;font-size:24px;"">Correct :)</p>","",""
"3159","key","v","v","16.66706315789519","500","250","psychophysics","265","1236958","0.0-265.0","5eb074c7e612c1129942044c","6213d21b422090ec3b3868d2","5","","","","","0","9"
"null","","","null","","","","html-keyboard-response","266","1237476","0.0-266.0","5eb074c7e612c1129942044c","6213d21b422090ec3b3868d2","","","","","<p style=""color:darkgreen;font-size:24px;"">Correct :)</p>","",""
"2738","key","v","v","16.666466666667752","500","250","psychophysics","267","1240221","0.0-267.0","5eb074c7e612c1129942044c","6213d21b422090ec3b3868d2","5","","","","","0","1"
"null","","","null","","","","html-keyboard-response","268","1240723","0.0-268.0","5eb074c7e612c1129942044c","6213d21b422090ec3b3868d2","","","","","<p style=""color:darkgreen;font-size:24px;"">Correct :)</p>","",""
"2762","key","n","n","16.667530120482265","500","250","psychophysics","269","1243495","0.0-269.0","5eb074c7e612c1129942044c","6213d21b422090ec3b3868d2","5","","","","","0","8"
"null","","","null","","","","html-keyboard-response","270","1243997","0.0-270.0","5eb074c7e612c1129942044c","6213d21b422090ec3b3868d2","","","","","<p style=""color:darkgreen;font-size:24px;"">Correct :)</p>","",""
"2543","key","n","n","16.666843137254915","500","250","psychophysics","271","1246547","0.0-271.0","5eb074c7e612c1129942044c","6213d21b422090ec3b3868d2","5","","","","","0","8"
"null","","","null","","","","html-keyboard-response","272","1247050","0.0-272.0","5eb074c7e612c1129942044c","6213d21b422090ec3b3868d2","","","","","<p style=""color:darkgreen;font-size:24px;"">Correct :)</p>","",""
"2781","key","v","v","16.666694610778375","500","250","psychophysics","273","1249837","0.0-273.0","5eb074c7e612c1129942044c","6213d21b422090ec3b3868d2","5","","","","","0","3"
"null","","","null","","","","html-keyboard-response","274","1250341","0.0-274.0","5eb074c7e612c1129942044c","6213d21b422090ec3b3868d2","","","","","<p style=""color:darkgreen;font-size:24px;"">Correct :)</p>","",""
"3467","key","v","v","16.666745192307506","500","250","psychophysics","275","1253815","0.0-275.0","5eb074c7e612c1129942044c","6213d21b422090ec3b3868d2","5","","","","","0","9"
"null","","","null","","","","html-keyboard-response","276","1254318","0.0-276.0","5eb074c7e612c1129942044c","6213d21b422090ec3b3868d2","","","","","<p style=""color:darkgreen;font-size:24px;"">Correct :)</p>","",""
"2703","key","n","n","16.666777777777305","500","250","psychophysics","277","1257028","0.0-277.0","5eb074c7e612c1129942044c","6213d21b422090ec3b3868d2","5","","","","","0","8"
"null","","","null","","","","html-keyboard-response","278","1257531","0.0-278.0","5eb074c7e612c1129942044c","6213d21b422090ec3b3868d2","","","","","<p style=""color:darkgreen;font-size:24px;"">Correct :)</p>","",""
"2929","key","v","v","16.66732768361499","500","250","psychophysics","279","1260478","0.0-279.0","5eb074c7e612c1129942044c","6213d21b422090ec3b3868d2","5","","","","","0","3"
"null","","","null","","","","html-keyboard-response","280","1260991","0.0-280.0","5eb074c7e612c1129942044c","6213d21b422090ec3b3868d2","","","","","<p style=""color:darkgreen;font-size:24px;"">Correct :)</p>","",""
"2933","key","v","v","16.667409090908635","500","250","psychophysics","281","1263931","0.0-281.0","5eb074c7e612c1129942044c","6213d21b422090ec3b3868d2","5","","","","","0","9"
"null","","","null","","","","html-keyboard-response","282","1264433","0.0-282.0","5eb074c7e612c1129942044c","6213d21b422090ec3b3868d2","","","","","<p style=""color:darkgreen;font-size:24px;"">Correct :)</p>","",""
"2787","key","n","n","16.666862275448633","500","250","psychophysics","283","1267226","0.0-283.0","5eb074c7e612c1129942044c","6213d21b422090ec3b3868d2","5","","","","","0","4"
"null","","","null","","","","html-keyboard-response","284","1267729","0.0-284.0","5eb074c7e612c1129942044c","6213d21b422090ec3b3868d2","","","","","<p style=""color:darkgreen;font-size:24px;"">Correct :)</p>","",""
"2653","key","n","n","16.667606250000244","500","250","psychophysics","285","1270389","0.0-285.0","5eb074c7e612c1129942044c","6213d21b422090ec3b3868d2","5","","","","","0","6"
"null","","","null","","","","html-keyboard-response","286","1270892","0.0-286.0","5eb074c7e612c1129942044c","6213d21b422090ec3b3868d2","","","","","<p style=""color:darkgreen;font-size:24px;"">Correct :)</p>","",""
"2865","key","v","v","16.66741279069724","500","250","psychophysics","287","1273764","0.0-287.0","5eb074c7e612c1129942044c","6213d21b422090ec3b3868d2","5","","","","","0","9"
"null","","","null","","","","html-keyboard-response","288","1274266","0.0-288.0","5eb074c7e612c1129942044c","6213d21b422090ec3b3868d2","","","","","<p style=""color:darkgreen;font-size:24px;"">Correct :)</p>","",""
"2694","key","v","v","16.770434782608927","500","250","psychophysics","289","1276967","0.0-289.0","5eb074c7e612c1129942044c","6213d21b422090ec3b3868d2","5","","","","","0","1"
"null","","","null","","","","html-keyboard-response","290","1277472","0.0-290.0","5eb074c7e612c1129942044c","6213d21b422090ec3b3868d2","","","","","<p style=""color:darkgreen;font-size:24px;"">Correct :)</p>","",""
"2725","key","n","n","16.667024390243856","500","250","psychophysics","291","1280205","0.0-291.0","5eb074c7e612c1129942044c","6213d21b422090ec3b3868d2","5","","","","","0","4"
"null","","","null","","","","html-keyboard-response","292","1280708","0.0-292.0","5eb074c7e612c1129942044c","6213d21b422090ec3b3868d2","","","","","<p style=""color:darkgreen;font-size:24px;"">Correct :)</p>","",""
"2614","key","n","n","16.667025477706993","500","250","psychophysics","293","1283327","0.0-293.0","5eb074c7e612c1129942044c","6213d21b422090ec3b3868d2","5","","","","","0","6"
"null","","","null","","","","html-keyboard-response","294","1283831","0.0-294.0","5eb074c7e612c1129942044c","6213d21b422090ec3b3868d2","","","","","<p style=""color:darkgreen;font-size:24px;"">Correct :)</p>","",""
"75393","","","v","","","","html-keyboard-response","295","1359226","0.0-295.0","5eb074c7e612c1129942044c","6213d21b422090ec3b3868d2","","","","","<p> Here, the tasks are going to switch.  For some trials, your job is to decide if the digit is less than or greater than 5.  For others, it is to decide if the digit is even or odd.  You will be told which type of trial the current one is.  But, pay attention, the type of trial changes too.  We are going to do 50 of these.  </p>  <br><br>  Ready? (press v or n)","",""
"3106","key","n","n","16.683652406416456","500","250","psychophysics","296","1362339","0.0-296.0","5eb074c7e612c1129942044c","6213d21b422090ec3b3868d2","6","","","","","1","6"
"null","","","null","","","","html-keyboard-response","297","1362841","0.0-297.0","5eb074c7e612c1129942044c","6213d21b422090ec3b3868d2","","","","","<p style=""color:darkgreen;font-size:24px;"">Correct :)</p>","",""
"3111","key","v","v","16.66754010695227","500","250","psychophysics","298","1365958","0.0-298.0","5eb074c7e612c1129942044c","6213d21b422090ec3b3868d2","6","","","","","1","3"
"null","","","null","","","","html-keyboard-response","299","1366459","0.0-299.0","5eb074c7e612c1129942044c","6213d21b422090ec3b3868d2","","","","","<p style=""color:darkgreen;font-size:24px;"">Correct :)</p>","",""
"2860","key","n","n","16.666508670519455","500","250","psychophysics","300","1369338","0.0-300.0","5eb074c7e612c1129942044c","6213d21b422090ec3b3868d2","6","","","","","1","8"
"null","","","null","","","","html-keyboard-response","301","1369841","0.0-301.0","5eb074c7e612c1129942044c","6213d21b422090ec3b3868d2","","","","","<p style=""color:darkgreen;font-size:24px;"">Correct :)</p>","",""
"3043","key","n","n","16.66724043715964","500","250","psychophysics","302","1372891","0.0-302.0","5eb074c7e612c1129942044c","6213d21b422090ec3b3868d2","6","","","","","0","8"
"null","","","null","","","","html-keyboard-response","303","1373392","0.0-303.0","5eb074c7e612c1129942044c","6213d21b422090ec3b3868d2","","","","","<p style=""color:darkgreen;font-size:24px;"">Correct :)</p>","",""
"2661","key","n","n","16.667287499998928","500","250","psychophysics","304","1376060","0.0-304.0","5eb074c7e612c1129942044c","6213d21b422090ec3b3868d2","6","","","","","0","6"
"null","","","null","","","","html-keyboard-response","305","1376563","0.0-305.0","5eb074c7e612c1129942044c","6213d21b422090ec3b3868d2","","","","","<p style=""color:darkgreen;font-size:24px;"">Correct :)</p>","",""
"2959","key","n","n","16.666713483146328","500","250","psychophysics","306","1379529","0.0-306.0","5eb074c7e612c1129942044c","6213d21b422090ec3b3868d2","6","","","","","0","4"
"null","","","null","","","","html-keyboard-response","307","1380032","0.0-307.0","5eb074c7e612c1129942044c","6213d21b422090ec3b3868d2","","","","","<p style=""color:darkgreen;font-size:24px;"">Correct :)</p>","",""
"2775","key","n","n","16.66696407185717","500","250","psychophysics","308","1382814","0.0-308.0","5eb074c7e612c1129942044c","6213d21b422090ec3b3868d2","6","","","","","1","9"
"null","","","null","","","","html-keyboard-response","309","1383315","0.0-309.0","5eb074c7e612c1129942044c","6213d21b422090ec3b3868d2","","","","","<p style=""color:darkgreen;font-size:24px;"">Correct :)</p>","",""
"3038","key","n","n","16.667289617486663","500","250","psychophysics","310","1386359","0.0-310.0","5eb074c7e612c1129942044c","6213d21b422090ec3b3868d2","6","","","","","1","9"
"null","","","null","","","","html-keyboard-response","311","1386863","0.0-311.0","5eb074c7e612c1129942044c","6213d21b422090ec3b3868d2","","","","","<p style=""color:darkgreen;font-size:24px;"">Correct :)</p>","",""
"3314","key","v","v","16.666994974873585","500","250","psychophysics","312","1390183","0.0-312.0","5eb074c7e612c1129942044c","6213d21b422090ec3b3868d2","6","","","","","1","2"
"null","","","null","","","","html-keyboard-response","313","1390685","0.0-313.0","5eb074c7e612c1129942044c","6213d21b422090ec3b3868d2","","","","","<p style=""color:darkgreen;font-size:24px;"">Correct :)</p>","",""
"3167","key","n","n","16.667426315789406","500","250","psychophysics","314","1393858","0.0-314.0","5eb074c7e612c1129942044c","6213d21b422090ec3b3868d2","6","","","","","1","6"
"null","","","null","","","","html-keyboard-response","315","1394360","0.0-315.0","5eb074c7e612c1129942044c","6213d21b422090ec3b3868d2","","","","","<p style=""color:darkgreen;font-size:24px;"">Correct :)</p>","",""
"3003","key","n","n","16.66737569060861","500","250","psychophysics","316","1397378","0.0-316.0","5eb074c7e612c1129942044c","6213d21b422090ec3b3868d2","6","","","","","1","7"
"null","","","null","","","","html-keyboard-response","317","1397881","0.0-317.0","5eb074c7e612c1129942044c","6213d21b422090ec3b3868d2","","","","","<p style=""color:darkgreen;font-size:24px;"">Correct :)</p>","",""
"3762","key","v","v","16.66649339207046","500","250","psychophysics","318","1401656","0.0-318.0","5eb074c7e612c1129942044c","6213d21b422090ec3b3868d2","6","","","","","0","7"
"null","","","null","","","","html-keyboard-response","319","1402158","0.0-319.0","5eb074c7e612c1129942044c","6213d21b422090ec3b3868d2","","","","","<p style=""color:darkgreen;font-size:24px;"">Correct :)</p>","",""
"3443","key","n","n","16.666898550724405","500","250","psychophysics","320","1405607","0.0-320.0","5eb074c7e612c1129942044c","6213d21b422090ec3b3868d2","6","","","","","1","6"
"null","","","null","","","","html-keyboard-response","321","1406111","0.0-321.0","5eb074c7e612c1129942044c","6213d21b422090ec3b3868d2","","","","","<p style=""color:darkgreen;font-size:24px;"">Correct :)</p>","",""
"2965","key","v","v","16.667072625698093","500","250","psychophysics","322","1409098","0.0-322.0","5eb074c7e612c1129942044c","6213d21b422090ec3b3868d2","6","","","","","1","3"
"null","","","null","","","","html-keyboard-response","323","1409600","0.0-323.0","5eb074c7e612c1129942044c","6213d21b422090ec3b3868d2","","","","","<p style=""color:darkgreen;font-size:24px;"">Correct :)</p>","",""
"3110","key","v","v","16.75639247311835","500","250","psychophysics","324","1412716","0.0-324.0","5eb074c7e612c1129942044c","6213d21b422090ec3b3868d2","6","","","","","1","4"
"null","","","null","","","","html-keyboard-response","325","1413219","0.0-325.0","5eb074c7e612c1129942044c","6213d21b422090ec3b3868d2","","","","","<p style=""color:darkgreen;font-size:24px;"">Correct :)</p>","",""
"3508","key","v","v","16.66666824644502","500","250","psychophysics","326","1416738","0.0-326.0","5eb074c7e612c1129942044c","6213d21b422090ec3b3868d2","6","","","","","0","7"
"null","","","null","","","","html-keyboard-response","327","1417242","0.0-327.0","5eb074c7e612c1129942044c","6213d21b422090ec3b3868d2","","","","","<p style=""color:darkgreen;font-size:24px;"">Correct :)</p>","",""
"2905","key","v","v","16.666683908046128","500","250","psychophysics","328","1420153","0.0-328.0","5eb074c7e612c1129942044c","6213d21b422090ec3b3868d2","6","","","","","0","9"
"null","","","null","","","","html-keyboard-response","329","1420654","0.0-329.0","5eb074c7e612c1129942044c","6213d21b422090ec3b3868d2","","","","","<p style=""color:darkgreen;font-size:24px;"">Correct :)</p>","",""
"2523","key","n","n","16.667185430464315","500","250","psychophysics","330","1423183","0.0-330.0","5eb074c7e612c1129942044c","6213d21b422090ec3b3868d2","6","","","","","0","8"
"null","","","null","","","","html-keyboard-response","331","1423686","0.0-331.0","5eb074c7e612c1129942044c","6213d21b422090ec3b3868d2","","","","","<p style=""color:darkgreen;font-size:24px;"">Correct :)</p>","",""
"3115","key","v","v","16.666989304812596","500","250","psychophysics","332","1426808","0.0-332.0","5eb074c7e612c1129942044c","6213d21b422090ec3b3868d2","6","","","","","1","3"
"null","","","null","","","","html-keyboard-response","333","1427310","0.0-333.0","5eb074c7e612c1129942044c","6213d21b422090ec3b3868d2","","","","","<p style=""color:darkgreen;font-size:24px;"">Correct :)</p>","",""
"4272","key","v","v","16.666607003890935","500","250","psychophysics","334","1431591","0.0-334.0","5eb074c7e612c1129942044c","6213d21b422090ec3b3868d2","6","","","","","0","3"
"null","","","null","","","","html-keyboard-response","335","1432094","0.0-335.0","5eb074c7e612c1129942044c","6213d21b422090ec3b3868d2","","","","","<p style=""color:darkgreen;font-size:24px;"">Correct :)</p>","",""
"3264","key","n","n","16.66682142857106","500","250","psychophysics","336","1435364","0.0-336.0","5eb074c7e612c1129942044c","6213d21b422090ec3b3868d2","6","","","","","1","8"
"null","","","null","","","","html-keyboard-response","337","1435866","0.0-337.0","5eb074c7e612c1129942044c","6213d21b422090ec3b3868d2","","","","","<p style=""color:darkgreen;font-size:24px;"">Correct :)</p>","",""
"3734","key","n","n","16.666528888889072","500","250","psychophysics","338","1439606","0.0-338.0","5eb074c7e612c1129942044c","6213d21b422090ec3b3868d2","6","","","","","0","6"
"null","","","null","","","","html-keyboard-response","339","1440110","0.0-339.0","5eb074c7e612c1129942044c","6213d21b422090ec3b3868d2","","","","","<p style=""color:darkgreen;font-size:24px;"">Correct :)</p>","",""
"3862","key","v","v","16.666831896552047","500","250","psychophysics","340","1443978","0.0-340.0","5eb074c7e612c1129942044c","6213d21b422090ec3b3868d2","6","","","","","0","1"
"null","","","null","","","","html-keyboard-response","341","1444484","0.0-341.0","5eb074c7e612c1129942044c","6213d21b422090ec3b3868d2","","","","","<p style=""color:darkgreen;font-size:24px;"">Correct :)</p>","",""
"3234","key","v","v","16.752943298969054","500","250","psychophysics","342","1447725","0.0-342.0","5eb074c7e612c1129942044c","6213d21b422090ec3b3868d2","6","","","","","1","2"
"null","","","null","","","","html-keyboard-response","343","1448228","0.0-343.0","5eb074c7e612c1129942044c","6213d21b422090ec3b3868d2","","","","","<p style=""color:darkgreen;font-size:24px;"">Correct :)</p>","",""
"3661","key","v","v","16.6666045454553","500","250","psychophysics","344","1451897","0.0-344.0","5eb074c7e612c1129942044c","6213d21b422090ec3b3868d2","6","","","","","0","7"
"null","","","null","","","","html-keyboard-response","345","1452399","0.0-345.0","5eb074c7e612c1129942044c","6213d21b422090ec3b3868d2","","","","","<p style=""color:darkgreen;font-size:24px;"">Correct :)</p>","",""
"2610","key","n","n","16.66728662420361","500","250","psychophysics","346","1455015","0.0-346.0","5eb074c7e612c1129942044c","6213d21b422090ec3b3868d2","6","","","","","1","8"
"null","","","null","","","","html-keyboard-response","347","1455517","0.0-347.0","5eb074c7e612c1129942044c","6213d21b422090ec3b3868d2","","","","","<p style=""color:darkgreen;font-size:24px;"">Correct :)</p>","",""
"3028","key","v","v","16.757626373626568","500","250","psychophysics","348","1458561","0.0-348.0","5eb074c7e612c1129942044c","6213d21b422090ec3b3868d2","6","","","","","0","9"
"null","","","null","","","","html-keyboard-response","349","1459065","0.0-349.0","5eb074c7e612c1129942044c","6213d21b422090ec3b3868d2","","","","","<p style=""color:darkgreen;font-size:24px;"">Correct :)</p>","",""
"2765","key","n","n","16.667221556886094","500","250","psychophysics","350","1461840","0.0-350.0","5eb074c7e612c1129942044c","6213d21b422090ec3b3868d2","6","","","","","1","7"
"null","","","null","","","","html-keyboard-response","351","1462342","0.0-351.0","5eb074c7e612c1129942044c","6213d21b422090ec3b3868d2","","","","","<p style=""color:darkgreen;font-size:24px;"">Correct :)</p>","",""
"3410","key","n","n","16.667351219511204","500","250","psychophysics","352","1465759","0.0-352.0","5eb074c7e612c1129942044c","6213d21b422090ec3b3868d2","6","","","","","1","7"
"null","","","null","","","","html-keyboard-response","353","1466262","0.0-353.0","5eb074c7e612c1129942044c","6213d21b422090ec3b3868d2","","","","","<p style=""color:darkgreen;font-size:24px;"">Correct :)</p>","",""
"2872","key","v","v","16.666595375722522","500","250","psychophysics","354","1469140","0.0-354.0","5eb074c7e612c1129942044c","6213d21b422090ec3b3868d2","6","","","","","0","1"
"null","","","null","","","","html-keyboard-response","355","1469643","0.0-355.0","5eb074c7e612c1129942044c","6213d21b422090ec3b3868d2","","","","","<p style=""color:darkgreen;font-size:24px;"">Correct :)</p>","",""
"3811","key","v","v","16.66741921397345","500","250","psychophysics","356","1473467","0.0-356.0","5eb074c7e612c1129942044c","6213d21b422090ec3b3868d2","6","","","","","1","3"
"null","","","null","","","","html-keyboard-response","357","1473971","0.0-357.0","5eb074c7e612c1129942044c","6213d21b422090ec3b3868d2","","","","","<p style=""color:darkgreen;font-size:24px;"">Correct :)</p>","",""
"3566","key","n","n","16.666836448598033","500","250","psychophysics","358","1477543","0.0-358.0","5eb074c7e612c1129942044c","6213d21b422090ec3b3868d2","6","","","","","1","8"
"null","","","null","","","","html-keyboard-response","359","1478045","0.0-359.0","5eb074c7e612c1129942044c","6213d21b422090ec3b3868d2","","","","","<p style=""color:darkgreen;font-size:24px;"">Correct :)</p>","",""
"3222","key","n","n","16.666515463917545","500","250","psychophysics","360","1481274","0.0-360.0","5eb074c7e612c1129942044c","6213d21b422090ec3b3868d2","6","","","","","1","9"
"null","","","null","","","","html-keyboard-response","361","1481776","0.0-361.0","5eb074c7e612c1129942044c","6213d21b422090ec3b3868d2","","","","","<p style=""color:darkgreen;font-size:24px;"">Correct :)</p>","",""
"2940","key","v","v","16.667327683616303","500","250","psychophysics","362","1484722","0.0-362.0","5eb074c7e612c1129942044c","6213d21b422090ec3b3868d2","6","","","","","1","4"
"null","","","null","","","","html-keyboard-response","363","1485226","0.0-363.0","5eb074c7e612c1129942044c","6213d21b422090ec3b3868d2","","","","","<p style=""color:darkgreen;font-size:24px;"">Correct :)</p>","",""
"2662","key","v","v","16.66660625000077","500","250","psychophysics","364","1487893","0.0-364.0","5eb074c7e612c1129942044c","6213d21b422090ec3b3868d2","6","","","","","1","1"
"null","","","null","","","","html-keyboard-response","365","1488395","0.0-365.0","5eb074c7e612c1129942044c","6213d21b422090ec3b3868d2","","","","","<p style=""color:darkgreen;font-size:24px;"">Correct :)</p>","",""
"3462","key","v","v","16.66674999999948","500","250","psychophysics","366","1491863","0.0-366.0","5eb074c7e612c1129942044c","6213d21b422090ec3b3868d2","6","","","","","0","9"
"null","","","null","","","","html-keyboard-response","367","1492366","0.0-367.0","5eb074c7e612c1129942044c","6213d21b422090ec3b3868d2","","","","","<p style=""color:darkgreen;font-size:24px;"">Correct :)</p>","",""
"3899","key","n","n","16.667263829787363","500","250","psychophysics","368","1496279","0.0-368.0","5eb074c7e612c1129942044c","6213d21b422090ec3b3868d2","6","","","","","0","4"
"null","","","null","","","","html-keyboard-response","369","1496780","0.0-369.0","5eb074c7e612c1129942044c","6213d21b422090ec3b3868d2","","","","","<p style=""color:darkgreen;font-size:24px;"">Correct :)</p>","",""
"2858","key","n","n","16.666936046511562","500","250","psychophysics","370","1499645","0.0-370.0","5eb074c7e612c1129942044c","6213d21b422090ec3b3868d2","6","","","","","0","4"
"null","","","null","","","","html-keyboard-response","371","1500147","0.0-371.0","5eb074c7e612c1129942044c","6213d21b422090ec3b3868d2","","","","","<p style=""color:darkgreen;font-size:24px;"">Correct :)</p>","",""
"3353","key","v","v","16.66692079207975","500","250","psychophysics","372","1503507","0.0-372.0","5eb074c7e612c1129942044c","6213d21b422090ec3b3868d2","6","","","","","0","7"
"null","","","null","","","","html-keyboard-response","373","1504011","0.0-373.0","5eb074c7e612c1129942044c","6213d21b422090ec3b3868d2","","","","","<p style=""color:darkgreen;font-size:24px;"">Correct :)</p>","",""
"3777","key","n","n","16.666854625551384","500","250","psychophysics","374","1507794","0.0-374.0","5eb074c7e612c1129942044c","6213d21b422090ec3b3868d2","6","","","","","0","2"
"null","","","null","","","","html-keyboard-response","375","1508296","0.0-375.0","5eb074c7e612c1129942044c","6213d21b422090ec3b3868d2","","","","","<p style=""color:darkgreen;font-size:24px;"">Correct :)</p>","",""
"2947","key","n","n","16.66744067796669","500","250","psychophysics","376","1511251","0.0-376.0","5eb074c7e612c1129942044c","6213d21b422090ec3b3868d2","6","","","","","0","2"
"null","","","null","","","","html-keyboard-response","377","1511754","0.0-377.0","5eb074c7e612c1129942044c","6213d21b422090ec3b3868d2","","","","","<p style=""color:darkgreen;font-size:24px;"">Correct :)</p>","",""
"2744","key","n","n","16.66636969697041","500","250","psychophysics","378","1514504","0.0-378.0","5eb074c7e612c1129942044c","6213d21b422090ec3b3868d2","6","","","","","0","2"
"null","","","null","","","","html-keyboard-response","379","1515008","0.0-379.0","5eb074c7e612c1129942044c","6213d21b422090ec3b3868d2","","","","","<p style=""color:darkgreen;font-size:24px;"">Correct :)</p>","",""
"2693","key","n","n","16.666938271604902","500","250","psychophysics","380","1517707","0.0-380.0","5eb074c7e612c1129942044c","6213d21b422090ec3b3868d2","6","","","","","0","8"
"null","","","null","","","","html-keyboard-response","381","1518210","0.0-381.0","5eb074c7e612c1129942044c","6213d21b422090ec3b3868d2","","","","","<p style=""color:darkgreen;font-size:24px;"">Correct :)</p>","",""
"2706","key","v","v","16.66666257668692","500","250","psychophysics","382","1520925","0.0-382.0","5eb074c7e612c1129942044c","6213d21b422090ec3b3868d2","6","","","","","0","3"
"null","","","null","","","","html-keyboard-response","383","1521427","0.0-383.0","5eb074c7e612c1129942044c","6213d21b422090ec3b3868d2","","","","","<p style=""color:darkgreen;font-size:24px;"">Correct :)</p>","",""
"2569","key","n","n","16.66690322580717","500","250","psychophysics","384","1524007","0.0-384.0","5eb074c7e612c1129942044c","6213d21b422090ec3b3868d2","6","","","","","0","2"
"null","","","null","","","","html-keyboard-response","385","1524510","0.0-385.0","5eb074c7e612c1129942044c","6213d21b422090ec3b3868d2","","","","","<p style=""color:darkgreen;font-size:24px;"">Correct :)</p>","",""
"2627","key","n","n","16.667550632911382","500","250","psychophysics","386","1527143","0.0-386.0","5eb074c7e612c1129942044c","6213d21b422090ec3b3868d2","6","","","","","1","8"
"null","","","null","","","","html-keyboard-response","387","1527646","0.0-387.0","5eb074c7e612c1129942044c","6213d21b422090ec3b3868d2","","","","","<p style=""color:darkgreen;font-size:24px;"">Correct :)</p>","",""
"2787","key","v","v","16.666952380952093","500","250","psychophysics","388","1530440","0.0-388.0","5eb074c7e612c1129942044c","6213d21b422090ec3b3868d2","6","","","","","0","3"
"null","","","null","","","","html-keyboard-response","389","1530942","0.0-389.0","5eb074c7e612c1129942044c","6213d21b422090ec3b3868d2","","","","","<p style=""color:darkgreen;font-size:24px;"">Correct :)</p>","",""
"4135","key","v","v","16.66683870967714","500","250","psychophysics","390","1535084","0.0-390.0","5eb074c7e612c1129942044c","6213d21b422090ec3b3868d2","6","","","","","1","2"
"null","","","null","","","","html-keyboard-response","391","1535588","0.0-391.0","5eb074c7e612c1129942044c","6213d21b422090ec3b3868d2","","","","","<p style=""color:darkgreen;font-size:24px;"">Correct :)</p>","",""
"3346","key","v","v","16.666741293531828","500","250","psychophysics","392","1538941","0.0-392.0","5eb074c7e612c1129942044c","6213d21b422090ec3b3868d2","6","","","","","1","1"
"null","","","null","","","","html-keyboard-response","393","1539443","0.0-393.0","5eb074c7e612c1129942044c","6213d21b422090ec3b3868d2","","","","","<p style=""color:darkgreen;font-size:24px;"">Correct :)</p>","",""
"3487","key","v","v","16.667100000000072","500","250","psychophysics","394","1542938","0.0-394.0","5eb074c7e612c1129942044c","6213d21b422090ec3b3868d2","6","","","","","0","3"
"null","","","null","","","","html-keyboard-response","395","1543441","0.0-395.0","5eb074c7e612c1129942044c","6213d21b422090ec3b3868d2","","","","","<p style=""color:darkgreen;font-size:24px;"">Correct :)</p>","",""
"5265","","","n","","","","html-keyboard-response","396","1548708","0.0-396.0","5eb074c7e612c1129942044c","6213d21b422090ec3b3868d2","","","","","<p> Last set of trials.  Here, the tasks are going to switch once again.  We are going to do 50 of these.  And then you are done with the experiment.  </p>  <br><br>  Ready? (press v or n)","",""
"2757","key","v","v","16.667710843374","500","250","psychophysics","397","1551472","0.0-397.0","5eb074c7e612c1129942044c","6213d21b422090ec3b3868d2","7","","","","","1","3"
"null","","","null","","","","html-keyboard-response","398","1551976","0.0-398.0","5eb074c7e612c1129942044c","6213d21b422090ec3b3868d2","","","","","<p style=""color:darkgreen;font-size:24px;"">Correct :)</p>","",""
"3439","key","v","v","16.66663461538533","500","250","psychophysics","399","1555439","0.0-399.0","5eb074c7e612c1129942044c","6213d21b422090ec3b3868d2","7","","","","","0","1"
"null","","","null","","","","html-keyboard-response","400","1555941","0.0-400.0","5eb074c7e612c1129942044c","6213d21b422090ec3b3868d2","","","","","<p style=""color:darkgreen;font-size:24px;"">Correct :)</p>","",""
"4211","key","v","v","16.666486166008074","500","250","psychophysics","401","1560158","0.0-401.0","5eb074c7e612c1129942044c","6213d21b422090ec3b3868d2","7","","","","","0","1"
"null","","","null","","","","html-keyboard-response","402","1560661","0.0-402.0","5eb074c7e612c1129942044c","6213d21b422090ec3b3868d2","","","","","<p style=""color:darkgreen;font-size:24px;"">Correct :)</p>","",""
"3276","key","v","v","16.751867346939566","500","250","psychophysics","403","1563943","0.0-403.0","5eb074c7e612c1129942044c","6213d21b422090ec3b3868d2","7","","","","","0","1"
"null","","","null","","","","html-keyboard-response","404","1564445","0.0-404.0","5eb074c7e612c1129942044c","6213d21b422090ec3b3868d2","","","","","<p style=""color:darkgreen;font-size:24px;"">Correct :)</p>","",""
"2636","key","v","v","16.667666666666573","500","250","psychophysics","405","1567091","0.0-405.0","5eb074c7e612c1129942044c","6213d21b422090ec3b3868d2","7","","","","","0","1"
"null","","","null","","","","html-keyboard-response","406","1567594","0.0-406.0","5eb074c7e612c1129942044c","6213d21b422090ec3b3868d2","","","","","<p style=""color:darkgreen;font-size:24px;"">Correct :)</p>","",""
"3375","key","n","n","16.666778325123868","500","250","psychophysics","407","1570975","0.0-407.0","5eb074c7e612c1129942044c","6213d21b422090ec3b3868d2","7","","","","","0","2"
"null","","","null","","","","html-keyboard-response","408","1571478","0.0-408.0","5eb074c7e612c1129942044c","6213d21b422090ec3b3868d2","","","","","<p style=""color:darkgreen;font-size:24px;"">Correct :)</p>","",""
"2874","key","n","n","16.667127167629722","500","250","psychophysics","409","1574357","0.0-409.0","5eb074c7e612c1129942044c","6213d21b422090ec3b3868d2","7","","","","","0","4"
"null","","","null","","","","html-keyboard-response","410","1574860","0.0-410.0","5eb074c7e612c1129942044c","6213d21b422090ec3b3868d2","","","","","<p style=""color:darkgreen;font-size:24px;"">Correct :)</p>","",""
"2595","key","v","v","16.667320512821718","500","250","psychophysics","411","1577461","0.0-411.0","5eb074c7e612c1129942044c","6213d21b422090ec3b3868d2","7","","","","","1","2"
"null","","","null","","","","html-keyboard-response","412","1577963","0.0-412.0","5eb074c7e612c1129942044c","6213d21b422090ec3b3868d2","","","","","<p style=""color:darkgreen;font-size:24px;"">Correct :)</p>","",""
"2668","key","v","v","16.666658385092774","500","250","psychophysics","413","1580640","0.0-413.0","5eb074c7e612c1129942044c","6213d21b422090ec3b3868d2","7","","","","","1","4"
"null","","","null","","","","html-keyboard-response","414","1581142","0.0-414.0","5eb074c7e612c1129942044c","6213d21b422090ec3b3868d2","","","","","<p style=""color:darkgreen;font-size:24px;"">Correct :)</p>","",""
"3294","key","v","v","16.66710101010165","500","250","psychophysics","415","1584442","0.0-415.0","5eb074c7e612c1129942044c","6213d21b422090ec3b3868d2","7","","","","","1","1"
"null","","","null","","","","html-keyboard-response","416","1584944","0.0-416.0","5eb074c7e612c1129942044c","6213d21b422090ec3b3868d2","","","","","<p style=""color:darkgreen;font-size:24px;"">Correct :)</p>","",""
"2927","key","n","n","16.66650000000002","500","250","psychophysics","417","1587878","0.0-417.0","5eb074c7e612c1129942044c","6213d21b422090ec3b3868d2","7","","","","","1","6"
"null","","","null","","","","html-keyboard-response","418","1588380","0.0-418.0","5eb074c7e612c1129942044c","6213d21b422090ec3b3868d2","","","","","<p style=""color:darkgreen;font-size:24px;"">Correct :)</p>","",""
"3598","key","v","v","16.667699074074065","500","250","psychophysics","419","1591985","0.0-419.0","5eb074c7e612c1129942044c","6213d21b422090ec3b3868d2","7","","","","","0","1"
"null","","","null","","","","html-keyboard-response","420","1592490","0.0-420.0","5eb074c7e612c1129942044c","6213d21b422090ec3b3868d2","","","","","<p style=""color:darkgreen;font-size:24px;"">Correct :)</p>","",""
"3066","key","v","v","16.666940217391012","500","250","psychophysics","421","1595562","0.0-421.0","5eb074c7e612c1129942044c","6213d21b422090ec3b3868d2","7","","","","","1","4"
"null","","","null","","","","html-keyboard-response","422","1596064","0.0-422.0","5eb074c7e612c1129942044c","6213d21b422090ec3b3868d2","","","","","<p style=""color:darkgreen;font-size:24px;"">Correct :)</p>","",""
"3066","key","n","n","16.666459459459055","500","250","psychophysics","423","1599140","0.0-423.0","5eb074c7e612c1129942044c","6213d21b422090ec3b3868d2","7","","","","","1","6"
"null","","","null","","","","html-keyboard-response","424","1599642","0.0-424.0","5eb074c7e612c1129942044c","6213d21b422090ec3b3868d2","","","","","<p style=""color:darkgreen;font-size:24px;"">Correct :)</p>","",""
"2562","key","v","v","16.666603896103183","500","250","psychophysics","425","1602210","0.0-425.0","5eb074c7e612c1129942044c","6213d21b422090ec3b3868d2","7","","","","","1","3"
"null","","","null","","","","html-keyboard-response","426","1602713","0.0-426.0","5eb074c7e612c1129942044c","6213d21b422090ec3b3868d2","","","","","<p style=""color:darkgreen;font-size:24px;"">Correct :)</p>","",""
"2722","key","n","n","16.667256097562","500","250","psychophysics","427","1605441","0.0-427.0","5eb074c7e612c1129942044c","6213d21b422090ec3b3868d2","7","","","","","0","6"
"null","","","null","","","","html-keyboard-response","428","1605943","0.0-428.0","5eb074c7e612c1129942044c","6213d21b422090ec3b3868d2","","","","","<p style=""color:darkgreen;font-size:24px;"">Correct :)</p>","",""
"3158","key","v","v","16.666573684210398","500","250","psychophysics","429","1609107","0.0-429.0","5eb074c7e612c1129942044c","6213d21b422090ec3b3868d2","7","","","","","1","2"
"null","","","null","","","","html-keyboard-response","430","1609611","0.0-430.0","5eb074c7e612c1129942044c","6213d21b422090ec3b3868d2","","","","","<p style=""color:darkgreen;font-size:24px;"">Correct :)</p>","",""
"3172","key","v","v","16.667031413612214","500","250","psychophysics","431","1612789","0.0-431.0","5eb074c7e612c1129942044c","6213d21b422090ec3b3868d2","7","","","","","1","3"
"null","","","null","","","","html-keyboard-response","432","1613292","0.0-432.0","5eb074c7e612c1129942044c","6213d21b422090ec3b3868d2","","","","","<p style=""color:darkgreen;font-size:24px;"">Correct :)</p>","",""
"3069","key","n","n","16.667318918918436","500","250","psychophysics","433","1616381","0.0-433.0","5eb074c7e612c1129942044c","6213d21b422090ec3b3868d2","7","","","","","0","2"
"null","","","null","","","","html-keyboard-response","434","1616883","0.0-434.0","5eb074c7e612c1129942044c","6213d21b422090ec3b3868d2","","","","","<p style=""color:darkgreen;font-size:24px;"">Correct :)</p>","",""
"2904","key","n","n","16.76272413793191","500","250","psychophysics","435","1619793","0.0-435.0","5eb074c7e612c1129942044c","6213d21b422090ec3b3868d2","7","","","","","0","6"
"null","","","null","","","","html-keyboard-response","436","1620295","0.0-436.0","5eb074c7e612c1129942044c","6213d21b422090ec3b3868d2","","","","","<p style=""color:darkgreen;font-size:24px;"">Correct :)</p>","",""
"2576","key","v","v","16.66669032258102","500","250","psychophysics","437","1622878","0.0-437.0","5eb074c7e612c1129942044c","6213d21b422090ec3b3868d2","7","","","","","1","2"
"null","","","null","","","","html-keyboard-response","438","1623380","0.0-438.0","5eb074c7e612c1129942044c","6213d21b422090ec3b3868d2","","","","","<p style=""color:darkgreen;font-size:24px;"">Correct :)</p>","",""
"2856","key","v","v","16.66666860465193","500","250","psychophysics","439","1626242","0.0-439.0","5eb074c7e612c1129942044c","6213d21b422090ec3b3868d2","7","","","","","1","2"
"null","","","null","","","","html-keyboard-response","440","1626744","0.0-440.0","5eb074c7e612c1129942044c","6213d21b422090ec3b3868d2","","","","","<p style=""color:darkgreen;font-size:24px;"">Correct :)</p>","",""
"2506","key","n","n","16.666476821192287","500","250","psychophysics","441","1629256","0.0-441.0","5eb074c7e612c1129942044c","6213d21b422090ec3b3868d2","7","","","","","1","6"
"null","","","null","","","","html-keyboard-response","442","1629759","0.0-442.0","5eb074c7e612c1129942044c","6213d21b422090ec3b3868d2","","","","","<p style=""color:darkgreen;font-size:24px;"">Correct :)</p>","",""
"2857","key","v","v","16.667063953487613","500","250","psychophysics","443","1632622","0.0-443.0","5eb074c7e612c1129942044c","6213d21b422090ec3b3868d2","7","","","","","0","7"
"null","","","null","","","","html-keyboard-response","444","1633126","0.0-444.0","5eb074c7e612c1129942044c","6213d21b422090ec3b3868d2","","","","","<p style=""color:darkgreen;font-size:24px;"">Correct :)</p>","",""
"2756","key","n","n","16.666795180723387","500","250","psychophysics","445","1635888","0.0-445.0","5eb074c7e612c1129942044c","6213d21b422090ec3b3868d2","7","","","","","0","4"
"null","","","null","","","","html-keyboard-response","446","1636393","0.0-446.0","5eb074c7e612c1129942044c","6213d21b422090ec3b3868d2","","","","","<p style=""color:darkgreen;font-size:24px;"">Correct :)</p>","",""
"2943","key","n","n","16.66750282485901","500","250","psychophysics","447","1639344","0.0-447.0","5eb074c7e612c1129942044c","6213d21b422090ec3b3868d2","7","","","","","1","7"
"null","","","null","","","","html-keyboard-response","448","1639847","0.0-448.0","5eb074c7e612c1129942044c","6213d21b422090ec3b3868d2","","","","","<p style=""color:darkgreen;font-size:24px;"">Correct :)</p>","",""
"2944","key","v","v","16.666779661017053","500","250","psychophysics","449","1642797","0.0-449.0","5eb074c7e612c1129942044c","6213d21b422090ec3b3868d2","7","","","","","1","1"
"null","","","null","","","","html-keyboard-response","450","1643300","0.0-450.0","5eb074c7e612c1129942044c","6213d21b422090ec3b3868d2","","","","","<p style=""color:darkgreen;font-size:24px;"">Correct :)</p>","",""
"2786","key","v","v","16.667165680472966","500","250","psychophysics","451","1646107","0.0-451.0","5eb074c7e612c1129942044c","6213d21b422090ec3b3868d2","7","","","","","1","1"
"null","","","null","","","","html-keyboard-response","452","1646610","0.0-452.0","5eb074c7e612c1129942044c","6213d21b422090ec3b3868d2","","","","","<p style=""color:darkgreen;font-size:24px;"">Correct :)</p>","",""
"3036","key","n","n","16.666835164835494","500","250","psychophysics","453","1649653","0.0-453.0","5eb074c7e612c1129942044c","6213d21b422090ec3b3868d2","7","","","","","0","2"
"null","","","null","","","","html-keyboard-response","454","1650155","0.0-454.0","5eb074c7e612c1129942044c","6213d21b422090ec3b3868d2","","","","","<p style=""color:darkgreen;font-size:24px;"">Correct :)</p>","",""
"3324","key","v","v","16.66678894472299","500","250","psychophysics","455","1653485","0.0-455.0","5eb074c7e612c1129942044c","6213d21b422090ec3b3868d2","7","","","","","0","1"
"null","","","null","","","","html-keyboard-response","456","1653988","0.0-456.0","5eb074c7e612c1129942044c","6213d21b422090ec3b3868d2","","","","","<p style=""color:darkgreen;font-size:24px;"">Correct :)</p>","",""
"3316","key","v","v","16.666949748743708","500","250","psychophysics","457","1657310","0.0-457.0","5eb074c7e612c1129942044c","6213d21b422090ec3b3868d2","7","","","","","0","3"
"null","","","null","","","","html-keyboard-response","458","1657812","0.0-458.0","5eb074c7e612c1129942044c","6213d21b422090ec3b3868d2","","","","","<p style=""color:darkgreen;font-size:24px;"">Correct :)</p>","",""
"2715","key","n","n","16.666582822086905","500","250","psychophysics","459","1660536","0.0-459.0","5eb074c7e612c1129942044c","6213d21b422090ec3b3868d2","7","","","","","0","6"
"null","","","null","","","","html-keyboard-response","460","1661040","0.0-460.0","5eb074c7e612c1129942044c","6213d21b422090ec3b3868d2","","","","","<p style=""color:darkgreen;font-size:24px;"">Correct :)</p>","",""
"2561","key","v","v","16.66698701298711","500","250","psychophysics","461","1663611","0.0-461.0","5eb074c7e612c1129942044c","6213d21b422090ec3b3868d2","7","","","","","0","1"
"null","","","null","","","","html-keyboard-response","462","1664114","0.0-462.0","5eb074c7e612c1129942044c","6213d21b422090ec3b3868d2","","","","","<p style=""color:darkgreen;font-size:24px;"">Correct :)</p>","",""
"3170","key","v","v","16.666952879581338","500","250","psychophysics","463","1667290","0.0-463.0","5eb074c7e612c1129942044c","6213d21b422090ec3b3868d2","7","","","","","0","3"
"null","","","null","","","","html-keyboard-response","464","1667792","0.0-464.0","5eb074c7e612c1129942044c","6213d21b422090ec3b3868d2","","","","","<p style=""color:darkgreen;font-size:24px;"">Correct :)</p>","",""
"3264","key","n","n","16.66691326530655","500","250","psychophysics","465","1671062","0.0-465.0","5eb074c7e612c1129942044c","6213d21b422090ec3b3868d2","7","","","","","0","4"
"null","","","null","","","","html-keyboard-response","466","1671565","0.0-466.0","5eb074c7e612c1129942044c","6213d21b422090ec3b3868d2","","","","","<p style=""color:darkgreen;font-size:24px;"">Correct :)</p>","",""
"2838","key","v","v","16.666690058479283","500","250","psychophysics","467","1674417","0.0-467.0","5eb074c7e612c1129942044c","6213d21b422090ec3b3868d2","7","","","","","0","1"
"null","","","null","","","","html-keyboard-response","468","1674922","0.0-468.0","5eb074c7e612c1129942044c","6213d21b422090ec3b3868d2","","","","","<p style=""color:darkgreen;font-size:24px;"">Correct :)</p>","",""
"3459","key","n","n","16.666778846153576","500","250","psychophysics","469","1678391","0.0-469.0","5eb074c7e612c1129942044c","6213d21b422090ec3b3868d2","7","","","","","1","6"
"null","","","null","","","","html-keyboard-response","470","1678894","0.0-470.0","5eb074c7e612c1129942044c","6213d21b422090ec3b3868d2","","","","","<p style=""color:darkgreen;font-size:24px;"">Correct :)</p>","",""
"2721","key","v","v","16.666341463413385","500","250","psychophysics","471","1681621","0.0-471.0","5eb074c7e612c1129942044c","6213d21b422090ec3b3868d2","7","","","","","1","1"
"null","","","null","","","","html-keyboard-response","472","1682124","0.0-472.0","5eb074c7e612c1129942044c","6213d21b422090ec3b3868d2","","","","","<p style=""color:darkgreen;font-size:24px;"">Correct :)</p>","",""
"3836","key","v","v","16.666786956521886","500","250","psychophysics","473","1685966","0.0-473.0","5eb074c7e612c1129942044c","6213d21b422090ec3b3868d2","7","","","","","0","7"
"null","","","null","","","","html-keyboard-response","474","1686470","0.0-474.0","5eb074c7e612c1129942044c","6213d21b422090ec3b3868d2","","","","","<p style=""color:darkgreen;font-size:24px;"">Correct :)</p>","",""
"2750","key","n","n","16.666757575756954","500","250","psychophysics","475","1689231","0.0-475.0","5eb074c7e612c1129942044c","6213d21b422090ec3b3868d2","7","","","","","1","6"
"null","","","null","","","","html-keyboard-response","476","1689733","0.0-476.0","5eb074c7e612c1129942044c","6213d21b422090ec3b3868d2","","","","","<p style=""color:darkgreen;font-size:24px;"">Correct :)</p>","",""
"2934","key","v","v","16.761261363635473","500","250","psychophysics","477","1692673","0.0-477.0","5eb074c7e612c1129942044c","6213d21b422090ec3b3868d2","7","","","","","0","7"
"null","","","null","","","","html-keyboard-response","478","1693176","0.0-478.0","5eb074c7e612c1129942044c","6213d21b422090ec3b3868d2","","","","","<p style=""color:darkgreen;font-size:24px;"">Correct :)</p>","",""
"2672","key","n","n","16.667018633541183","500","250","psychophysics","479","1695858","0.0-479.0","5eb074c7e612c1129942044c","6213d21b422090ec3b3868d2","7","","","","","0","2"
"null","","","null","","","","html-keyboard-response","480","1696360","0.0-480.0","5eb074c7e612c1129942044c","6213d21b422090ec3b3868d2","","","","","<p style=""color:darkgreen;font-size:24px;"">Correct :)</p>","",""
"2844","key","v","v","16.666742690058687","500","250","psychophysics","481","1699210","0.0-481.0","5eb074c7e612c1129942044c","6213d21b422090ec3b3868d2","7","","","","","0","3"
"null","","","null","","","","html-keyboard-response","482","1699712","0.0-482.0","5eb074c7e612c1129942044c","6213d21b422090ec3b3868d2","","","","","<p style=""color:darkgreen;font-size:24px;"">Correct :)</p>","",""
"3824","key","n","n","16.6669260869572","500","250","psychophysics","483","1703543","0.0-483.0","5eb074c7e612c1129942044c","6213d21b422090ec3b3868d2","7","","","","","0","4"
"null","","","null","","","","html-keyboard-response","484","1704045","0.0-484.0","5eb074c7e612c1129942044c","6213d21b422090ec3b3868d2","","","","","<p style=""color:darkgreen;font-size:24px;"">Correct :)</p>","",""
"2646","key","v","v","16.66699371069125","500","250","psychophysics","485","1706698","0.0-485.0","5eb074c7e612c1129942044c","6213d21b422090ec3b3868d2","7","","","","","0","3"
"null","","","null","","","","html-keyboard-response","486","1707201","0.0-486.0","5eb074c7e612c1129942044c","6213d21b422090ec3b3868d2","","","","","<p style=""color:darkgreen;font-size:24px;"">Correct :)</p>","",""
"3055","key","v","v","16.66719672131057","500","250","psychophysics","487","1710262","0.0-487.0","5eb074c7e612c1129942044c","6213d21b422090ec3b3868d2","7","","","","","0","1"
"null","","","null","","","","html-keyboard-response","488","1710765","0.0-488.0","5eb074c7e612c1129942044c","6213d21b422090ec3b3868d2","","","","","<p style=""color:darkgreen;font-size:24px;"">Correct :)</p>","",""
"2745","key","n","n","16.66691515151496","500","250","psychophysics","489","1713517","0.0-489.0","5eb074c7e612c1129942044c","6213d21b422090ec3b3868d2","7","","","","","0","4"
"null","","","null","","","","html-keyboard-response","490","1714021","0.0-490.0","5eb074c7e612c1129942044c","6213d21b422090ec3b3868d2","","","","","<p style=""color:darkgreen;font-size:24px;"">Correct :)</p>","",""
"2999","key","n","n","16.666561111110624","500","250","psychophysics","491","1717026","0.0-491.0","5eb074c7e612c1129942044c","6213d21b422090ec3b3868d2","7","","","","","0","2"
"null","","","null","","","","html-keyboard-response","492","1717528","0.0-492.0","5eb074c7e612c1129942044c","6213d21b422090ec3b3868d2","","","","","<p style=""color:darkgreen;font-size:24px;"">Correct :)</p>","",""
"2597","key","v","v","16.666102564101145","500","250","psychophysics","493","1720132","0.0-493.0","5eb074c7e612c1129942044c","6213d21b422090ec3b3868d2","7","","","","","1","1"
"null","","","null","","","","html-keyboard-response","494","1720634","0.0-494.0","5eb074c7e612c1129942044c","6213d21b422090ec3b3868d2","","","","","<p style=""color:darkgreen;font-size:24px;"">Correct :)</p>","",""
"2926","key","v","v","16.76253714285658","500","250","psychophysics","495","1723566","0.0-495.0","5eb074c7e612c1129942044c","6213d21b422090ec3b3868d2","7","","","","","0","1"
"null","","","null","","","","html-keyboard-response","496","1724068","0.0-496.0","5eb074c7e612c1129942044c","6213d21b422090ec3b3868d2","","","","","<p style=""color:darkgreen;font-size:24px;"">Correct :)</p>","",""
