"rt","response_type","key_press","response","avg_frame_time","center_x","center_y","trial_type","trial_index","time_elapsed","internal_node_id","pid","sid","phase","guide","targ","resp","stimulus","is5","stim"
"3261","key"," "," ","16.751730964467008","500","250","psychophysics","0","3285","0.0-0.0","6147724c13bb365774e24af1","6213c7da1417d9ca36263979","","","","","","",""
"1786","key"," "," ","16.667411214953276","500","250","psychophysics","1","5078","0.0-1.0","6147724c13bb365774e24af1","6213c7da1417d9ca36263979","","","","","","",""
"4589","key"," "," ","16.667923357664232","500","250","psychophysics","2","9669","0.0-2.0","6147724c13bb365774e24af1","6213c7da1417d9ca36263979","","","","","","",""
"1205","key"," "," ","16.66719444444445","500","250","psychophysics","3","10880","0.0-3.0","6147724c13bb365774e24af1","6213c7da1417d9ca36263979","","","","","","",""
"3496","key"," "," ","16.667277511961718","500","250","psychophysics","4","14378","0.0-4.0","6147724c13bb365774e24af1","6213c7da1417d9ca36263979","","","","","","",""
"9382","key"," "," ","16.66725978647687","500","250","psychophysics","5","23763","0.0-5.0","6147724c13bb365774e24af1","6213c7da1417d9ca36263979","","","","","","",""
"5193","key"," "," ","16.66711897106109","500","250","psychophysics","6","28958","0.0-6.0","6147724c13bb365774e24af1","6213c7da1417d9ca36263979","","","","","","",""
"3842","key"," "," ","16.66834934497815","500","250","psychophysics","7","32803","0.0-7.0","6147724c13bb365774e24af1","6213c7da1417d9ca36263979","","","","","","",""
"13542","key"," "," ","16.667402709359603","500","250","psychophysics","8","46350","0.0-8.0","6147724c13bb365774e24af1","6213c7da1417d9ca36263979","0","0","23","23","","",""
"2642","key"," "," ","16.66815822784812","500","250","psychophysics","9","48995","0.0-9.0","6147724c13bb365774e24af1","6213c7da1417d9ca36263979","","","","","","",""
"647","key"," "," ","16.672210526315833","500","250","psychophysics","10","49646","0.0-10.0","6147724c13bb365774e24af1","6213c7da1417d9ca36263979","","","","","","",""
"2370","key"," "," ","16.66679432624116","500","250","psychophysics","11","52020","0.0-11.0","6147724c13bb365774e24af1","6213c7da1417d9ca36263979","","","","","","",""
"1657","key"," "," ","16.668989898989857","500","250","psychophysics","12","53683","0.0-12.0","6147724c13bb365774e24af1","6213c7da1417d9ca36263979","","","","","","",""
"1644","key"," "," ","16.66728571428572","500","250","psychophysics","13","55330","0.0-13.0","6147724c13bb365774e24af1","6213c7da1417d9ca36263979","","","","","","",""
"2965","key"," "," ","16.667689265536705","500","250","psychophysics","14","58298","0.0-14.0","6147724c13bb365774e24af1","6213c7da1417d9ca36263979","","","","","","",""
"2124","key"," "," ","16.667188976377954","500","250","psychophysics","15","60425","0.0-15.0","6147724c13bb365774e24af1","6213c7da1417d9ca36263979","","","","","","",""
"4199","key"," "," ","16.668258964143455","500","250","psychophysics","16","64627","0.0-16.0","6147724c13bb365774e24af1","6213c7da1417d9ca36263979","","","","","","",""
"4988","key"," "," ","16.66659731543622","500","250","psychophysics","17","69617","0.0-17.0","6147724c13bb365774e24af1","6213c7da1417d9ca36263979","1","0","57","64","","",""
"5802","key"," "," ","16.667461095100855","500","250","psychophysics","18","75420","0.0-18.0","6147724c13bb365774e24af1","6213c7da1417d9ca36263979","1","5","55","63","","",""
"7543","key"," "," ","16.66710398230086","500","250","psychophysics","19","82966","0.0-19.0","6147724c13bb365774e24af1","6213c7da1417d9ca36263979","1","0","40","87","","",""
"4655","key"," "," ","16.668064748201417","500","250","psychophysics","20","87622","0.0-20.0","6147724c13bb365774e24af1","6213c7da1417d9ca36263979","1","5","59","72","","",""
"6075","key"," "," ","16.66717582417582","500","250","psychophysics","21","93703","0.0-21.0","6147724c13bb365774e24af1","6213c7da1417d9ca36263979","1","0","44","74","","",""
"3228","key"," "," ","16.667476683937846","500","250","psychophysics","22","96933","0.0-22.0","6147724c13bb365774e24af1","6213c7da1417d9ca36263979","1","5","21","28","","",""
"4677","key"," "," ","16.666996428571448","500","250","psychophysics","23","101613","0.0-23.0","6147724c13bb365774e24af1","6213c7da1417d9ca36263979","1","0","24","84","","",""
"2904","key"," "," ","16.666936416184914","500","250","psychophysics","24","104519","0.0-24.0","6147724c13bb365774e24af1","6213c7da1417d9ca36263979","1","5","26","43","","",""
"4859","key"," "," ","16.667656357388317","500","250","psychophysics","25","109380","0.0-25.0","6147724c13bb365774e24af1","6213c7da1417d9ca36263979","1","0","33","75","","",""
"4854","key"," "," ","16.666931034482772","500","250","psychophysics","26","114237","0.0-26.0","6147724c13bb365774e24af1","6213c7da1417d9ca36263979","1","5","49","51","","",""
"6006","key"," "," ","16.667888888888896","500","250","psychophysics","27","120245","0.0-27.0","6147724c13bb365774e24af1","6213c7da1417d9ca36263979","1","0","52","107","","",""
"4007","key"," "," ","16.666891213389132","500","250","psychophysics","28","124255","0.0-28.0","6147724c13bb365774e24af1","6213c7da1417d9ca36263979","1","5","48","59","","",""
"4623","key"," "," ","16.668093862815905","500","250","psychophysics","29","128883","0.0-29.0","6147724c13bb365774e24af1","6213c7da1417d9ca36263979","1","0","39","96","","",""
"3412","key"," "," ","16.66719607843134","500","250","psychophysics","30","132297","0.0-30.0","6147724c13bb365774e24af1","6213c7da1417d9ca36263979","1","5","42","50","","",""
"5212","key"," "," ","16.66723076923079","500","250","psychophysics","31","137511","0.0-31.0","6147724c13bb365774e24af1","6213c7da1417d9ca36263979","1","0","41","129","","",""
"2249","key"," "," ","16.66760447761196","500","250","psychophysics","32","139763","0.0-32.0","6147724c13bb365774e24af1","6213c7da1417d9ca36263979","1","5","28","47","","",""
"4003","key"," "," ","16.667510460251062","500","250","psychophysics","33","143768","0.0-33.0","6147724c13bb365774e24af1","6213c7da1417d9ca36263979","1","0","44","99","","",""
"2478","key"," "," ","16.668945945945854","500","250","psychophysics","34","146249","0.0-34.0","6147724c13bb365774e24af1","6213c7da1417d9ca36263979","1","5","27","42","","",""
"9144","key"," "," ","16.66707116788325","500","250","psychophysics","35","155396","0.0-35.0","6147724c13bb365774e24af1","6213c7da1417d9ca36263979","1","0","35","72","","",""
"2381","key"," "," ","16.668436619718346","500","250","psychophysics","36","157779","0.0-36.0","6147724c13bb365774e24af1","6213c7da1417d9ca36263979","1","5","40","48","","",""
"1898","key"," "," ","16.667557522123968","500","250","psychophysics","37","159679","0.0-37.0","6147724c13bb365774e24af1","6213c7da1417d9ca36263979","","","","","","",""
"3098","key"," "," ","16.66742702702696","500","250","psychophysics","38","162779","0.0-38.0","6147724c13bb365774e24af1","6213c7da1417d9ca36263979","","","","","","",""
"1315","key"," "," ","16.667333333333282","500","250","psychophysics","39","164096","0.0-39.0","6147724c13bb365774e24af1","6213c7da1417d9ca36263979","","","","","","",""
"4341","key"," "," ","16.667436293436328","500","250","psychophysics","40","168439","0.0-40.0","6147724c13bb365774e24af1","6213c7da1417d9ca36263979","2","0","47","90","","",""
"2041","key"," "," ","16.668680327868834","500","250","psychophysics","41","170488","0.0-41.0","6147724c13bb365774e24af1","6213c7da1417d9ca36263979","","","","","","",""
"4267","key"," "," ","16.66736470588241","500","250","psychophysics","42","174758","0.0-42.0","6147724c13bb365774e24af1","6213c7da1417d9ca36263979","2","0","32","44","","",""
"1080","key"," "," ","16.665261538461515","500","250","psychophysics","43","175843","0.0-43.0","6147724c13bb365774e24af1","6213c7da1417d9ca36263979","","","","","","",""
"2251","key"," "," ","16.6668582089552","500","250","psychophysics","44","178098","0.0-44.0","6147724c13bb365774e24af1","6213c7da1417d9ca36263979","2","0","33","40","","",""
"987","key"," "," ","16.666120689655333","500","250","psychophysics","45","179087","0.0-45.0","6147724c13bb365774e24af1","6213c7da1417d9ca36263979","","","","","","",""
"2864","key"," "," ","16.66757894736835","500","250","psychophysics","46","181953","0.0-46.0","6147724c13bb365774e24af1","6213c7da1417d9ca36263979","2","0","53","61","","",""
"1344","key"," "," ","16.669175000000177","500","250","psychophysics","47","183299","0.0-47.0","6147724c13bb365774e24af1","6213c7da1417d9ca36263979","","","","","","",""
"3638","key"," "," ","16.6670691244239","500","250","psychophysics","48","186940","0.0-48.0","6147724c13bb365774e24af1","6213c7da1417d9ca36263979","2","0","53","58","","",""
"974","key"," "," ","16.668448275861888","500","250","psychophysics","49","187916","0.0-49.0","6147724c13bb365774e24af1","6213c7da1417d9ca36263979","","","","","","",""
"684","key"," "," ","16.67282500000001","500","250","psychophysics","50","188602","0.0-50.0","6147724c13bb365774e24af1","6213c7da1417d9ca36263979","2","0","24","11","","",""
"908","key"," "," ","16.664388888888492","500","250","psychophysics","51","189512","0.0-51.0","6147724c13bb365774e24af1","6213c7da1417d9ca36263979","","","","","","",""
"1630","key"," "," ","16.666515463917545","500","250","psychophysics","52","191145","0.0-52.0","6147724c13bb365774e24af1","6213c7da1417d9ca36263979","2","0","24","25","","",""
"1323","key"," "," ","16.668179487179703","500","250","psychophysics","53","192471","0.0-53.0","6147724c13bb365774e24af1","6213c7da1417d9ca36263979","","","","","","",""
"1909","key"," "," ","16.667535087719187","500","250","psychophysics","54","194383","0.0-54.0","6147724c13bb365774e24af1","6213c7da1417d9ca36263979","2","0","24","22","","",""
"832","key"," "," ","16.66459183673474","500","250","psychophysics","55","195217","0.0-55.0","6147724c13bb365774e24af1","6213c7da1417d9ca36263979","","","","","","",""
"2009","key"," "," ","16.667449999999857","500","250","psychophysics","56","197229","0.0-56.0","6147724c13bb365774e24af1","6213c7da1417d9ca36263979","2","0","30","34","","",""
"622","key"," "," ","16.667666666666467","500","250","psychophysics","57","197854","0.0-57.0","6147724c13bb365774e24af1","6213c7da1417d9ca36263979","","","","","","",""
"3355","key"," "," ","16.668825870646806","500","250","psychophysics","58","201211","0.0-58.0","6147724c13bb365774e24af1","6213c7da1417d9ca36263979","2","0","48","46","","",""
"850","key"," "," ","16.66710000000021","500","250","psychophysics","59","202064","0.0-59.0","6147724c13bb365774e24af1","6213c7da1417d9ca36263979","","","","","","",""
"3114","key"," "," ","16.666930107526877","500","250","psychophysics","60","205180","0.0-60.0","6147724c13bb365774e24af1","6213c7da1417d9ca36263979","2","0","43","40","","",""
"748","key"," "," ","16.66374999999971","500","250","psychophysics","61","205931","0.0-61.0","6147724c13bb365774e24af1","6213c7da1417d9ca36263979","","","","","","",""
"3717","key"," "," ","16.66728378378373","500","250","psychophysics","62","209650","0.0-62.0","6147724c13bb365774e24af1","6213c7da1417d9ca36263979","2","0","54","54","","",""
"2828","key"," "," ","16.66813609467443","500","250","psychophysics","63","212481","0.0-63.0","6147724c13bb365774e24af1","6213c7da1417d9ca36263979","","","","","","",""
"4281","key"," "," ","16.667593750000037","500","250","psychophysics","64","216764","0.0-64.0","6147724c13bb365774e24af1","6213c7da1417d9ca36263979","2","0","56","59","","",""
"1156","key"," "," ","16.667147058823236","500","250","psychophysics","65","217923","0.0-65.0","6147724c13bb365774e24af1","6213c7da1417d9ca36263979","","","","","","",""
"5263","key"," "," ","16.667558730158692","500","250","psychophysics","66","223189","0.0-66.0","6147724c13bb365774e24af1","6213c7da1417d9ca36263979","2","0","53","55","","",""
"1143","key"," "," ","16.667147058823662","500","250","psychophysics","67","224334","0.0-67.0","6147724c13bb365774e24af1","6213c7da1417d9ca36263979","","","","","","",""
"3962","key"," "," ","16.667210970464076","500","250","psychophysics","68","228299","0.0-68.0","6147724c13bb365774e24af1","6213c7da1417d9ca36263979","2","0","31","35","","",""
"1074","key"," "," ","16.67101587301595","500","250","psychophysics","69","229375","0.0-69.0","6147724c13bb365774e24af1","6213c7da1417d9ca36263979","","","","","","",""
"2356","key"," "," ","16.668546099290673","500","250","psychophysics","70","231734","0.0-70.0","6147724c13bb365774e24af1","6213c7da1417d9ca36263979","","","","","","",""
"1650","key"," "," ","16.666377551020634","500","250","psychophysics","71","233386","0.0-71.0","6147724c13bb365774e24af1","6213c7da1417d9ca36263979","","","","","","",""
"6463","key"," "," ","16.667338501291937","500","250","psychophysics","72","239853","0.0-72.0","6147724c13bb365774e24af1","6213c7da1417d9ca36263979","3","5","53","42","","",""
"3730","key"," "," ","16.66731390134523","500","250","psychophysics","73","243586","0.0-73.0","6147724c13bb365774e24af1","6213c7da1417d9ca36263979","3","0","21","27","","",""
"1041","key"," "," ","16.667145161290517","500","250","psychophysics","74","244630","0.0-74.0","6147724c13bb365774e24af1","6213c7da1417d9ca36263979","3","5","56","11","","",""
"4260","key"," "," ","16.666393700787385","500","250","psychophysics","75","248893","0.0-75.0","6147724c13bb365774e24af1","6213c7da1417d9ca36263979","3","0","30","47","","",""
"518","key"," "," ","16.670838709677486","500","250","psychophysics","76","249417","0.0-76.0","6147724c13bb365774e24af1","6213c7da1417d9ca36263979","3","5","59","10","","",""
"3786","key"," "," ","16.66694247787607","500","250","psychophysics","77","253205","0.0-77.0","6147724c13bb365774e24af1","6213c7da1417d9ca36263979","3","0","52","64","","",""
"2447","key"," "," ","16.668301369862913","500","250","psychophysics","78","255654","0.0-78.0","6147724c13bb365774e24af1","6213c7da1417d9ca36263979","3","5","25","22","","",""
"4493","key"," "," ","16.667044609665417","500","250","psychophysics","79","260150","0.0-79.0","6147724c13bb365774e24af1","6213c7da1417d9ca36263979","3","0","31","36","","",""
"3989","key"," "," ","16.66735294117654","500","250","psychophysics","80","264141","0.0-80.0","6147724c13bb365774e24af1","6213c7da1417d9ca36263979","3","5","23","21","","",""
"4072","key"," "," ","16.667881147541177","500","250","psychophysics","81","268216","0.0-81.0","6147724c13bb365774e24af1","6213c7da1417d9ca36263979","3","0","28","33","","",""
"4812","key"," "," ","16.66739930555559","500","250","psychophysics","82","273031","0.0-82.0","6147724c13bb365774e24af1","6213c7da1417d9ca36263979","3","5","57","50","","",""
"3208","key"," "," ","16.667712041884794","500","250","psychophysics","83","276242","0.0-83.0","6147724c13bb365774e24af1","6213c7da1417d9ca36263979","3","0","44","49","","",""
"2332","key"," "," ","16.665654676259084","500","250","psychophysics","84","278577","0.0-84.0","6147724c13bb365774e24af1","6213c7da1417d9ca36263979","3","5","23","18","","",""
"4409","key"," "," ","16.66796212121214","500","250","psychophysics","85","282989","0.0-85.0","6147724c13bb365774e24af1","6213c7da1417d9ca36263979","3","0","59","61","","",""
"1973","key"," "," ","16.6657966101696","500","250","psychophysics","86","284965","0.0-86.0","6147724c13bb365774e24af1","6213c7da1417d9ca36263979","3","5","26","20","","",""
"3576","key"," "," ","16.668460093896908","500","250","psychophysics","87","288545","0.0-87.0","6147724c13bb365774e24af1","6213c7da1417d9ca36263979","3","0","51","52","","",""
"3788","key"," "," ","16.66829955947123","500","250","psychophysics","88","292338","0.0-88.0","6147724c13bb365774e24af1","6213c7da1417d9ca36263979","3","5","55","44","","",""
"2779","key"," "," ","16.66586746987943","500","250","psychophysics","89","295119","0.0-89.0","6147724c13bb365774e24af1","6213c7da1417d9ca36263979","3","0","34","38","","",""
"3583","key"," "," ","16.667065420560647","500","250","psychophysics","90","298704","0.0-90.0","6147724c13bb365774e24af1","6213c7da1417d9ca36263979","3","5","27","24","","",""
"3043","key"," "," ","16.668181318681302","500","250","psychophysics","91","301750","0.0-91.0","6147724c13bb365774e24af1","6213c7da1417d9ca36263979","3","0","22","23","","",""
"1270","key"," "," ","16.665560000000212","500","250","psychophysics","92","303023","0.0-92.0","6147724c13bb365774e24af1","6213c7da1417d9ca36263979","","","","","","",""
"26214","","","v","","","","html-keyboard-response","93","329238","0.0-93.0","6147724c13bb365774e24af1","6213c7da1417d9ca36263979","","","","","<p> In this part of the experiment, we are going present digits 1, 2, 3, 4, 6, 7, 8, and 9.  Notice that 5 is missing.  Your job is to say whether the presented digit is less than or greater than 5.  For example, 3 is less than 5 and 7 is greater than 5.  If the digit is less than 5, press the v key; if it is greater than 5, press the n key. We are going to do 200 of these in total, but only 50 righ now. They go real fast.</p>  <br><br>  Ready? (press v or n)","",""
"3570","key","v","v","16.669560747663382","500","250","psychophysics","94","332816","0.0-94.0","6147724c13bb365774e24af1","6213c7da1417d9ca36263979","4","","","","","1","3"
"null","","","null","","","","html-keyboard-response","95","333318","0.0-95.0","6147724c13bb365774e24af1","6213c7da1417d9ca36263979","","","","","<p style=""color:darkgreen;font-size:24px;"">Correct :)</p>","",""
"2588","key","n","n","16.667367741935735","500","250","psychophysics","96","335909","0.0-96.0","6147724c13bb365774e24af1","6213c7da1417d9ca36263979","4","","","","","1","9"
"null","","","null","","","","html-keyboard-response","97","336410","0.0-97.0","6147724c13bb365774e24af1","6213c7da1417d9ca36263979","","","","","<p style=""color:darkgreen;font-size:24px;"">Correct :)</p>","",""
"2578","key","v","v","16.66756129032226","500","250","psychophysics","98","338991","0.0-98.0","6147724c13bb365774e24af1","6213c7da1417d9ca36263979","4","","","","","1","2"
"null","","","null","","","","html-keyboard-response","99","339493","0.0-99.0","6147724c13bb365774e24af1","6213c7da1417d9ca36263979","","","","","<p style=""color:darkgreen;font-size:24px;"">Correct :)</p>","",""
"2540","key","n","n","16.66643790849652","500","250","psychophysics","100","342036","0.0-100.0","6147724c13bb365774e24af1","6213c7da1417d9ca36263979","4","","","","","1","7"
"null","","","null","","","","html-keyboard-response","101","342537","0.0-101.0","6147724c13bb365774e24af1","6213c7da1417d9ca36263979","","","","","<p style=""color:darkgreen;font-size:24px;"">Correct :)</p>","",""
"2644","key","v","v","16.668968553459358","500","250","psychophysics","102","345185","0.0-102.0","6147724c13bb365774e24af1","6213c7da1417d9ca36263979","4","","","","","1","2"
"null","","","null","","","","html-keyboard-response","103","345688","0.0-103.0","6147724c13bb365774e24af1","6213c7da1417d9ca36263979","","","","","<p style=""color:darkgreen;font-size:24px;"">Correct :)</p>","",""
"2403","key","n","n","16.667187500000082","500","250","psychophysics","104","348095","0.0-104.0","6147724c13bb365774e24af1","6213c7da1417d9ca36263979","4","","","","","1","8"
"null","","","null","","","","html-keyboard-response","105","348596","0.0-105.0","6147724c13bb365774e24af1","6213c7da1417d9ca36263979","","","","","<p style=""color:darkgreen;font-size:24px;"">Correct :)</p>","",""
"2441","key","n","n","16.667122448979857","500","250","psychophysics","106","351041","0.0-106.0","6147724c13bb365774e24af1","6213c7da1417d9ca36263979","4","","","","","1","7"
"null","","","null","","","","html-keyboard-response","107","351542","0.0-107.0","6147724c13bb365774e24af1","6213c7da1417d9ca36263979","","","","","<p style=""color:darkgreen;font-size:24px;"">Correct :)</p>","",""
"2504","key","n","n","16.666959999999964","500","250","psychophysics","108","354049","0.0-108.0","6147724c13bb365774e24af1","6213c7da1417d9ca36263979","4","","","","","1","9"
"null","","","null","","","","html-keyboard-response","109","354552","0.0-109.0","6147724c13bb365774e24af1","6213c7da1417d9ca36263979","","","","","<p style=""color:darkgreen;font-size:24px;"">Correct :)</p>","",""
"2688","key","n","n","16.665770186335486","500","250","psychophysics","110","357243","0.0-110.0","6147724c13bb365774e24af1","6213c7da1417d9ca36263979","4","","","","","1","6"
"null","","","null","","","","html-keyboard-response","111","357744","0.0-111.0","6147724c13bb365774e24af1","6213c7da1417d9ca36263979","","","","","<p style=""color:darkgreen;font-size:24px;"">Correct :)</p>","",""
"2578","key","v","v","16.665858064516026","500","250","psychophysics","112","360325","0.0-112.0","6147724c13bb365774e24af1","6213c7da1417d9ca36263979","4","","","","","1","4"
"null","","","null","","","","html-keyboard-response","113","360826","0.0-113.0","6147724c13bb365774e24af1","6213c7da1417d9ca36263979","","","","","<p style=""color:darkgreen;font-size:24px;"">Correct :)</p>","",""
"2696","key","v","v","16.666438271604868","500","250","psychophysics","114","363526","0.0-114.0","6147724c13bb365774e24af1","6213c7da1417d9ca36263979","4","","","","","1","1"
"null","","","null","","","","html-keyboard-response","115","364027","0.0-115.0","6147724c13bb365774e24af1","6213c7da1417d9ca36263979","","","","","<p style=""color:darkgreen;font-size:24px;"">Correct :)</p>","",""
"2721","key","v","v","16.66729878048766","500","250","psychophysics","116","366752","0.0-116.0","6147724c13bb365774e24af1","6213c7da1417d9ca36263979","4","","","","","1","2"
"null","","","null","","","","html-keyboard-response","117","367253","0.0-117.0","6147724c13bb365774e24af1","6213c7da1417d9ca36263979","","","","","<p style=""color:darkgreen;font-size:24px;"">Correct :)</p>","",""
"2379","key","n","n","16.667699300699503","500","250","psychophysics","118","369635","0.0-118.0","6147724c13bb365774e24af1","6213c7da1417d9ca36263979","4","","","","","1","9"
"null","","","null","","","","html-keyboard-response","119","370137","0.0-119.0","6147724c13bb365774e24af1","6213c7da1417d9ca36263979","","","","","<p style=""color:darkgreen;font-size:24px;"">Correct :)</p>","",""
"3093","key","n","n","16.66601075268831","500","250","psychophysics","120","373234","0.0-120.0","6147724c13bb365774e24af1","6213c7da1417d9ca36263979","4","","","","","1","6"
"null","","","null","","","","html-keyboard-response","121","373736","0.0-121.0","6147724c13bb365774e24af1","6213c7da1417d9ca36263979","","","","","<p style=""color:darkgreen;font-size:24px;"">Correct :)</p>","",""
"3022","key","n","n","16.666994475138257","500","250","psychophysics","122","376762","0.0-122.0","6147724c13bb365774e24af1","6213c7da1417d9ca36263979","4","","","","","1","6"
"null","","","null","","","","html-keyboard-response","123","377264","0.0-123.0","6147724c13bb365774e24af1","6213c7da1417d9ca36263979","","","","","<p style=""color:darkgreen;font-size:24px;"">Correct :)</p>","",""
"2865","key","n","n","16.66790116279045","500","250","psychophysics","124","380132","0.0-124.0","6147724c13bb365774e24af1","6213c7da1417d9ca36263979","4","","","","","1","7"
"null","","","null","","","","html-keyboard-response","125","380634","0.0-125.0","6147724c13bb365774e24af1","6213c7da1417d9ca36263979","","","","","<p style=""color:darkgreen;font-size:24px;"">Correct :)</p>","",""
"2736","key","v","v","16.66661585365861","500","250","psychophysics","126","383374","0.0-126.0","6147724c13bb365774e24af1","6213c7da1417d9ca36263979","4","","","","","1","3"
"null","","","null","","","","html-keyboard-response","127","383876","0.0-127.0","6147724c13bb365774e24af1","6213c7da1417d9ca36263979","","","","","<p style=""color:darkgreen;font-size:24px;"">Correct :)</p>","",""
"3027","key","v","v","16.666280219780095","500","250","psychophysics","128","386906","0.0-128.0","6147724c13bb365774e24af1","6213c7da1417d9ca36263979","4","","","","","1","1"
"null","","","null","","","","html-keyboard-response","129","387408","0.0-129.0","6147724c13bb365774e24af1","6213c7da1417d9ca36263979","","","","","<p style=""color:darkgreen;font-size:24px;"">Correct :)</p>","",""
"2685","key","v","v","16.66705590062117","500","250","psychophysics","130","390096","0.0-130.0","6147724c13bb365774e24af1","6213c7da1417d9ca36263979","4","","","","","1","4"
"null","","","null","","","","html-keyboard-response","131","390598","0.0-131.0","6147724c13bb365774e24af1","6213c7da1417d9ca36263979","","","","","<p style=""color:darkgreen;font-size:24px;"">Correct :)</p>","",""
"2572","key","n","n","16.66827741935511","500","250","psychophysics","132","393174","0.0-132.0","6147724c13bb365774e24af1","6213c7da1417d9ca36263979","4","","","","","1","9"
"null","","","null","","","","html-keyboard-response","133","393675","0.0-133.0","6147724c13bb365774e24af1","6213c7da1417d9ca36263979","","","","","<p style=""color:darkgreen;font-size:24px;"">Correct :)</p>","",""
"2734","key","n","n","16.667719512195085","500","250","psychophysics","134","396413","0.0-134.0","6147724c13bb365774e24af1","6213c7da1417d9ca36263979","4","","","","","1","6"
"null","","","null","","","","html-keyboard-response","135","396914","0.0-135.0","6147724c13bb365774e24af1","6213c7da1417d9ca36263979","","","","","<p style=""color:darkgreen;font-size:24px;"">Correct :)</p>","",""
"2522","key","n","n","16.66594736842097","500","250","psychophysics","136","399440","0.0-136.0","6147724c13bb365774e24af1","6213c7da1417d9ca36263979","4","","","","","1","6"
"null","","","null","","","","html-keyboard-response","137","399942","0.0-137.0","6147724c13bb365774e24af1","6213c7da1417d9ca36263979","","","","","<p style=""color:darkgreen;font-size:24px;"">Correct :)</p>","",""
"2713","key","n","n","16.66694478527607","500","250","psychophysics","138","402659","0.0-138.0","6147724c13bb365774e24af1","6213c7da1417d9ca36263979","4","","","","","1","6"
"null","","","null","","","","html-keyboard-response","139","403161","0.0-139.0","6147724c13bb365774e24af1","6213c7da1417d9ca36263979","","","","","<p style=""color:darkgreen;font-size:24px;"">Correct :)</p>","",""
"2549","key","n","n","16.665529411764712","500","250","psychophysics","140","405713","0.0-140.0","6147724c13bb365774e24af1","6213c7da1417d9ca36263979","4","","","","","1","7"
"null","","","null","","","","html-keyboard-response","141","406215","0.0-141.0","6147724c13bb365774e24af1","6213c7da1417d9ca36263979","","","","","<p style=""color:darkgreen;font-size:24px;"">Correct :)</p>","",""
"2604","key","v","v","16.667898089171885","500","250","psychophysics","142","408821","0.0-142.0","6147724c13bb365774e24af1","6213c7da1417d9ca36263979","4","","","","","1","4"
"null","","","null","","","","html-keyboard-response","143","409323","0.0-143.0","6147724c13bb365774e24af1","6213c7da1417d9ca36263979","","","","","<p style=""color:darkgreen;font-size:24px;"">Correct :)</p>","",""
"3059","key","v","v","16.667929347825954","500","250","psychophysics","144","412387","0.0-144.0","6147724c13bb365774e24af1","6213c7da1417d9ca36263979","4","","","","","1","2"
"null","","","null","","","","html-keyboard-response","145","412888","0.0-145.0","6147724c13bb365774e24af1","6213c7da1417d9ca36263979","","","","","<p style=""color:darkgreen;font-size:24px;"">Correct :)</p>","",""
"2921","key","n","n","16.667514285714297","500","250","psychophysics","146","415813","0.0-146.0","6147724c13bb365774e24af1","6213c7da1417d9ca36263979","4","","","","","1","9"
"null","","","null","","","","html-keyboard-response","147","416314","0.0-147.0","6147724c13bb365774e24af1","6213c7da1417d9ca36263979","","","","","<p style=""color:darkgreen;font-size:24px;"">Correct :)</p>","",""
"2984","key","n","n","16.66790000000005","500","250","psychophysics","148","419303","0.0-148.0","6147724c13bb365774e24af1","6213c7da1417d9ca36263979","4","","","","","1","9"
"null","","","null","","","","html-keyboard-response","149","419805","0.0-149.0","6147724c13bb365774e24af1","6213c7da1417d9ca36263979","","","","","<p style=""color:darkgreen;font-size:24px;"">Correct :)</p>","",""
"2665","key","n","n","16.66693750000013","500","250","psychophysics","150","422474","0.0-150.0","6147724c13bb365774e24af1","6213c7da1417d9ca36263979","4","","","","","1","6"
"null","","","null","","","","html-keyboard-response","151","422986","0.0-151.0","6147724c13bb365774e24af1","6213c7da1417d9ca36263979","","","","","<p style=""color:darkgreen;font-size:24px;"">Correct :)</p>","",""
"2723","key","v","v","16.668889570552384","500","250","psychophysics","152","425713","0.0-152.0","6147724c13bb365774e24af1","6213c7da1417d9ca36263979","4","","","","","1","2"
"null","","","null","","","","html-keyboard-response","153","426214","0.0-153.0","6147724c13bb365774e24af1","6213c7da1417d9ca36263979","","","","","<p style=""color:darkgreen;font-size:24px;"">Correct :)</p>","",""
"2598","key","n","n","16.66619871794888","500","250","psychophysics","154","428816","0.0-154.0","6147724c13bb365774e24af1","6213c7da1417d9ca36263979","4","","","","","1","6"
"null","","","null","","","","html-keyboard-response","155","429318","0.0-155.0","6147724c13bb365774e24af1","6213c7da1417d9ca36263979","","","","","<p style=""color:darkgreen;font-size:24px;"">Correct :)</p>","",""
"2900","key","v","v","16.668329479768698","500","250","psychophysics","156","432220","0.0-156.0","6147724c13bb365774e24af1","6213c7da1417d9ca36263979","4","","","","","1","2"
"null","","","null","","","","html-keyboard-response","157","432731","0.0-157.0","6147724c13bb365774e24af1","6213c7da1417d9ca36263979","","","","","<p style=""color:darkgreen;font-size:24px;"">Correct :)</p>","",""
"2695","key","n","n","16.66735802469114","500","250","psychophysics","158","435428","0.0-158.0","6147724c13bb365774e24af1","6213c7da1417d9ca36263979","4","","","","","1","7"
"null","","","null","","","","html-keyboard-response","159","435930","0.0-159.0","6147724c13bb365774e24af1","6213c7da1417d9ca36263979","","","","","<p style=""color:darkgreen;font-size:24px;"">Correct :)</p>","",""
"2780","key","n","n","16.66564071856294","500","250","psychophysics","160","438714","0.0-160.0","6147724c13bb365774e24af1","6213c7da1417d9ca36263979","4","","","","","1","9"
"null","","","null","","","","html-keyboard-response","161","439215","0.0-161.0","6147724c13bb365774e24af1","6213c7da1417d9ca36263979","","","","","<p style=""color:darkgreen;font-size:24px;"">Correct :)</p>","",""
"2575","key","n","n","16.668535483871107","500","250","psychophysics","162","441794","0.0-162.0","6147724c13bb365774e24af1","6213c7da1417d9ca36263979","4","","","","","1","7"
"null","","","null","","","","html-keyboard-response","163","442296","0.0-163.0","6147724c13bb365774e24af1","6213c7da1417d9ca36263979","","","","","<p style=""color:darkgreen;font-size:24px;"">Correct :)</p>","",""
"2610","key","v","v","16.66619745222926","500","250","psychophysics","164","444910","0.0-164.0","6147724c13bb365774e24af1","6213c7da1417d9ca36263979","4","","","","","1","2"
"null","","","null","","","","html-keyboard-response","165","445411","0.0-165.0","6147724c13bb365774e24af1","6213c7da1417d9ca36263979","","","","","<p style=""color:darkgreen;font-size:24px;"">Correct :)</p>","",""
"2817","key","n","n","16.66788757396428","500","250","psychophysics","166","448233","0.0-166.0","6147724c13bb365774e24af1","6213c7da1417d9ca36263979","4","","","","","1","9"
"null","","","null","","","","html-keyboard-response","167","448735","0.0-167.0","6147724c13bb365774e24af1","6213c7da1417d9ca36263979","","","","","<p style=""color:darkgreen;font-size:24px;"">Correct :)</p>","",""
"2475","key","n","n","16.780432432432537","500","250","psychophysics","168","451212","0.0-168.0","6147724c13bb365774e24af1","6213c7da1417d9ca36263979","4","","","","","1","3"
"null","","","null","","","","html-keyboard-response","169","451714","0.0-169.0","6147724c13bb365774e24af1","6213c7da1417d9ca36263979","","","","","<p style=""color:red;font-size:24px;"">Error :(</p>","",""
"2554","key","n","n","16.666292207792186","500","250","psychophysics","170","454271","0.0-170.0","6147724c13bb365774e24af1","6213c7da1417d9ca36263979","4","","","","","1","6"
"null","","","null","","","","html-keyboard-response","171","454774","0.0-171.0","6147724c13bb365774e24af1","6213c7da1417d9ca36263979","","","","","<p style=""color:darkgreen;font-size:24px;"">Correct :)</p>","",""
"2456","key","v","v","16.66792517006801","500","250","psychophysics","172","457234","0.0-172.0","6147724c13bb365774e24af1","6213c7da1417d9ca36263979","4","","","","","1","3"
"null","","","null","","","","html-keyboard-response","173","457735","0.0-173.0","6147724c13bb365774e24af1","6213c7da1417d9ca36263979","","","","","<p style=""color:darkgreen;font-size:24px;"">Correct :)</p>","",""
"2493","key","v","v","16.66682432432434","500","250","psychophysics","174","460231","0.0-174.0","6147724c13bb365774e24af1","6213c7da1417d9ca36263979","4","","","","","1","1"
"null","","","null","","","","html-keyboard-response","175","460733","0.0-175.0","6147724c13bb365774e24af1","6213c7da1417d9ca36263979","","","","","<p style=""color:darkgreen;font-size:24px;"">Correct :)</p>","",""
"2549","key","v","v","16.668013071895462","500","250","psychophysics","176","463287","0.0-176.0","6147724c13bb365774e24af1","6213c7da1417d9ca36263979","4","","","","","1","3"
"null","","","null","","","","html-keyboard-response","177","463788","0.0-177.0","6147724c13bb365774e24af1","6213c7da1417d9ca36263979","","","","","<p style=""color:darkgreen;font-size:24px;"">Correct :)</p>","",""
"2498","key","v","v","16.66540666666658","500","250","psychophysics","178","466291","0.0-178.0","6147724c13bb365774e24af1","6213c7da1417d9ca36263979","4","","","","","1","1"
"null","","","null","","","","html-keyboard-response","179","466791","0.0-179.0","6147724c13bb365774e24af1","6213c7da1417d9ca36263979","","","","","<p style=""color:darkgreen;font-size:24px;"">Correct :)</p>","",""
"2480","key","v","v","16.667536912751604","500","250","psychophysics","180","469275","0.0-180.0","6147724c13bb365774e24af1","6213c7da1417d9ca36263979","4","","","","","1","2"
"null","","","null","","","","html-keyboard-response","181","469777","0.0-181.0","6147724c13bb365774e24af1","6213c7da1417d9ca36263979","","","","","<p style=""color:darkgreen;font-size:24px;"">Correct :)</p>","",""
"2750","key","n","n","16.66732121212126","500","250","psychophysics","182","472530","0.0-182.0","6147724c13bb365774e24af1","6213c7da1417d9ca36263979","4","","","","","1","8"
"null","","","null","","","","html-keyboard-response","183","473031","0.0-183.0","6147724c13bb365774e24af1","6213c7da1417d9ca36263979","","","","","<p style=""color:darkgreen;font-size:24px;"">Correct :)</p>","",""
"2801","key","v","v","16.66857142857147","500","250","psychophysics","184","475837","0.0-184.0","6147724c13bb365774e24af1","6213c7da1417d9ca36263979","4","","","","","1","4"
"null","","","null","","","","html-keyboard-response","185","476339","0.0-185.0","6147724c13bb365774e24af1","6213c7da1417d9ca36263979","","","","","<p style=""color:darkgreen;font-size:24px;"">Correct :)</p>","",""
"2827","key","n","n","16.667455621301706","500","250","psychophysics","186","479170","0.0-186.0","6147724c13bb365774e24af1","6213c7da1417d9ca36263979","4","","","","","1","7"
"null","","","null","","","","html-keyboard-response","187","479671","0.0-187.0","6147724c13bb365774e24af1","6213c7da1417d9ca36263979","","","","","<p style=""color:darkgreen;font-size:24px;"">Correct :)</p>","",""
"2637","key","n","n","16.668335443038032","500","250","psychophysics","188","482312","0.0-188.0","6147724c13bb365774e24af1","6213c7da1417d9ca36263979","4","","","","","1","8"
"null","","","null","","","","html-keyboard-response","189","482812","0.0-189.0","6147724c13bb365774e24af1","6213c7da1417d9ca36263979","","","","","<p style=""color:darkgreen;font-size:24px;"">Correct :)</p>","",""
"3277","key","v","v","16.666243654822335","500","250","psychophysics","190","486093","0.0-190.0","6147724c13bb365774e24af1","6213c7da1417d9ca36263979","4","","","","","1","2"
"null","","","null","","","","html-keyboard-response","191","486594","0.0-191.0","6147724c13bb365774e24af1","6213c7da1417d9ca36263979","","","","","<p style=""color:darkgreen;font-size:24px;"">Correct :)</p>","",""
"3010","key","v","v","16.66756906077357","500","250","psychophysics","192","489606","0.0-192.0","6147724c13bb365774e24af1","6213c7da1417d9ca36263979","4","","","","","1","2"
"null","","","null","","","","html-keyboard-response","193","490108","0.0-193.0","6147724c13bb365774e24af1","6213c7da1417d9ca36263979","","","","","<p style=""color:darkgreen;font-size:24px;"">Correct :)</p>","",""
"8252","","","v","","","","html-keyboard-response","194","498361","0.0-194.0","6147724c13bb365774e24af1","6213c7da1417d9ca36263979","","","","","<p> Ok, now we are going present the same digits as before.  Your job is to say whether the digit is even or odd  If the digit is odd, press to v key; if it is even, press the n key. We are going to do 50 of these.  </p>  <br><br>  Ready? (press v or n)","",""
"2623","key","n","n","16.666651898734212","500","250","psychophysics","195","500989","0.0-195.0","6147724c13bb365774e24af1","6213c7da1417d9ca36263979","5","","","","","0","4"
"null","","","null","","","","html-keyboard-response","196","501504","0.0-196.0","6147724c13bb365774e24af1","6213c7da1417d9ca36263979","","","","","<p style=""color:darkgreen;font-size:24px;"">Correct :)</p>","",""
"2612","key","v","v","16.774051282051516","500","250","psychophysics","197","504119","0.0-197.0","6147724c13bb365774e24af1","6213c7da1417d9ca36263979","5","","","","","0","1"
"null","","","null","","","","html-keyboard-response","198","504621","0.0-198.0","6147724c13bb365774e24af1","6213c7da1417d9ca36263979","","","","","<p style=""color:darkgreen;font-size:24px;"">Correct :)</p>","",""
"3423","key","v","v","16.748785365853607","500","250","psychophysics","199","508049","0.0-199.0","6147724c13bb365774e24af1","6213c7da1417d9ca36263979","5","","","","","0","3"
"null","","","null","","","","html-keyboard-response","200","508549","0.0-200.0","6147724c13bb365774e24af1","6213c7da1417d9ca36263979","","","","","<p style=""color:darkgreen;font-size:24px;"">Correct :)</p>","",""
"3671","key","v","v","16.666651583710482","500","250","psychophysics","201","512224","0.0-201.0","6147724c13bb365774e24af1","6213c7da1417d9ca36263979","5","","","","","0","9"
"null","","","null","","","","html-keyboard-response","202","512725","0.0-202.0","6147724c13bb365774e24af1","6213c7da1417d9ca36263979","","","","","<p style=""color:darkgreen;font-size:24px;"">Correct :)</p>","",""
"3083","key","v","v","16.667443243243316","500","250","psychophysics","203","515811","0.0-203.0","6147724c13bb365774e24af1","6213c7da1417d9ca36263979","5","","","","","0","1"
"null","","","null","","","","html-keyboard-response","204","516314","0.0-204.0","6147724c13bb365774e24af1","6213c7da1417d9ca36263979","","","","","<p style=""color:darkgreen;font-size:24px;"">Correct :)</p>","",""
"2674","key","n","n","16.667521739130557","500","250","psychophysics","205","518991","0.0-205.0","6147724c13bb365774e24af1","6213c7da1417d9ca36263979","5","","","","","0","4"
"null","","","null","","","","html-keyboard-response","206","519494","0.0-206.0","6147724c13bb365774e24af1","6213c7da1417d9ca36263979","","","","","<p style=""color:darkgreen;font-size:24px;"">Correct :)</p>","",""
"2401","key","n","n","16.668909722222452","500","250","psychophysics","207","521899","0.0-207.0","6147724c13bb365774e24af1","6213c7da1417d9ca36263979","5","","","","","0","4"
"null","","","null","","","","html-keyboard-response","208","522401","0.0-208.0","6147724c13bb365774e24af1","6213c7da1417d9ca36263979","","","","","<p style=""color:darkgreen;font-size:24px;"">Correct :)</p>","",""
"2435","key","n","n","16.66878082191736","500","250","psychophysics","209","524839","0.0-209.0","6147724c13bb365774e24af1","6213c7da1417d9ca36263979","5","","","","","0","4"
"null","","","null","","","","html-keyboard-response","210","525343","0.0-210.0","6147724c13bb365774e24af1","6213c7da1417d9ca36263979","","","","","<p style=""color:darkgreen;font-size:24px;"">Correct :)</p>","",""
"2870","key","v","v","16.667965116279152","500","250","psychophysics","211","528216","0.0-211.0","6147724c13bb365774e24af1","6213c7da1417d9ca36263979","5","","","","","0","9"
"null","","","null","","","","html-keyboard-response","212","528718","0.0-212.0","6147724c13bb365774e24af1","6213c7da1417d9ca36263979","","","","","<p style=""color:darkgreen;font-size:24px;"">Correct :)</p>","",""
"2687","key","v","v","16.666092592592634","500","250","psychophysics","213","531408","0.0-213.0","6147724c13bb365774e24af1","6213c7da1417d9ca36263979","5","","","","","0","4"
"null","","","null","","","","html-keyboard-response","214","531909","0.0-214.0","6147724c13bb365774e24af1","6213c7da1417d9ca36263979","","","","","<p style=""color:red;font-size:24px;"">Error :(</p>","",""
"2759","key","v","v","16.667599999999883","500","250","psychophysics","215","534671","0.0-215.0","6147724c13bb365774e24af1","6213c7da1417d9ca36263979","5","","","","","0","3"
"null","","","null","","","","html-keyboard-response","216","535173","0.0-216.0","6147724c13bb365774e24af1","6213c7da1417d9ca36263979","","","","","<p style=""color:darkgreen;font-size:24px;"">Correct :)</p>","",""
"2560","key","v","v","16.66730065359521","500","250","psychophysics","217","537739","0.0-217.0","6147724c13bb365774e24af1","6213c7da1417d9ca36263979","5","","","","","0","1"
"null","","","null","","","","html-keyboard-response","218","538241","0.0-218.0","6147724c13bb365774e24af1","6213c7da1417d9ca36263979","","","","","<p style=""color:darkgreen;font-size:24px;"">Correct :)</p>","",""
"2658","key","v","v","16.6664968553459","500","250","psychophysics","219","540903","0.0-219.0","6147724c13bb365774e24af1","6213c7da1417d9ca36263979","5","","","","","0","9"
"null","","","null","","","","html-keyboard-response","220","541405","0.0-220.0","6147724c13bb365774e24af1","6213c7da1417d9ca36263979","","","","","<p style=""color:darkgreen;font-size:24px;"">Correct :)</p>","",""
"3162","key","n","n","16.75596825396839","500","250","psychophysics","221","544570","0.0-221.0","6147724c13bb365774e24af1","6213c7da1417d9ca36263979","5","","","","","0","2"
"null","","","null","","","","html-keyboard-response","222","545072","0.0-222.0","6147724c13bb365774e24af1","6213c7da1417d9ca36263979","","","","","<p style=""color:darkgreen;font-size:24px;"">Correct :)</p>","",""
"3955","key","n","n","16.737852320674794","500","250","psychophysics","223","549030","0.0-223.0","6147724c13bb365774e24af1","6213c7da1417d9ca36263979","5","","","","","0","2"
"null","","","null","","","","html-keyboard-response","224","549532","0.0-224.0","6147724c13bb365774e24af1","6213c7da1417d9ca36263979","","","","","<p style=""color:darkgreen;font-size:24px;"">Correct :)</p>","",""
"2957","key","v","v","16.66780898876402","500","250","psychophysics","225","552491","0.0-225.0","6147724c13bb365774e24af1","6213c7da1417d9ca36263979","5","","","","","0","9"
"null","","","null","","","","html-keyboard-response","226","552993","0.0-226.0","6147724c13bb365774e24af1","6213c7da1417d9ca36263979","","","","","<p style=""color:darkgreen;font-size:24px;"">Correct :)</p>","",""
"2608","key","v","v","16.66751923076943","500","250","psychophysics","227","555604","0.0-227.0","6147724c13bb365774e24af1","6213c7da1417d9ca36263979","5","","","","","0","3"
"null","","","null","","","","html-keyboard-response","228","556106","0.0-228.0","6147724c13bb365774e24af1","6213c7da1417d9ca36263979","","","","","<p style=""color:darkgreen;font-size:24px;"">Correct :)</p>","",""
"2684","key","v","v","16.772260869565415","500","250","psychophysics","229","558793","0.0-229.0","6147724c13bb365774e24af1","6213c7da1417d9ca36263979","5","","","","","0","7"
"null","","","null","","","","html-keyboard-response","230","559295","0.0-230.0","6147724c13bb365774e24af1","6213c7da1417d9ca36263979","","","","","<p style=""color:darkgreen;font-size:24px;"">Correct :)</p>","",""
"2763","key","v","v","16.664120481928098","500","250","psychophysics","231","562063","0.0-231.0","6147724c13bb365774e24af1","6213c7da1417d9ca36263979","5","","","","","0","7"
"null","","","null","","","","html-keyboard-response","232","562564","0.0-232.0","6147724c13bb365774e24af1","6213c7da1417d9ca36263979","","","","","<p style=""color:darkgreen;font-size:24px;"">Correct :)</p>","",""
"2720","key","v","v","16.665828220859066","500","250","psychophysics","233","565290","0.0-233.0","6147724c13bb365774e24af1","6213c7da1417d9ca36263979","5","","","","","0","9"
"null","","","null","","","","html-keyboard-response","234","565792","0.0-234.0","6147724c13bb365774e24af1","6213c7da1417d9ca36263979","","","","","<p style=""color:darkgreen;font-size:24px;"">Correct :)</p>","",""
"2592","key","n","n","16.666406451613312","500","250","psychophysics","235","568387","0.0-235.0","6147724c13bb365774e24af1","6213c7da1417d9ca36263979","5","","","","","0","6"
"null","","","null","","","","html-keyboard-response","236","568889","0.0-236.0","6147724c13bb365774e24af1","6213c7da1417d9ca36263979","","","","","<p style=""color:darkgreen;font-size:24px;"">Correct :)</p>","",""
"2800","key","v","v","16.66657396449677","500","250","psychophysics","237","571692","0.0-237.0","6147724c13bb365774e24af1","6213c7da1417d9ca36263979","5","","","","","0","7"
"null","","","null","","","","html-keyboard-response","238","572196","0.0-238.0","6147724c13bb365774e24af1","6213c7da1417d9ca36263979","","","","","<p style=""color:darkgreen;font-size:24px;"">Correct :)</p>","",""
"2889","key","v","v","16.668497109826724","500","250","psychophysics","239","575088","0.0-239.0","6147724c13bb365774e24af1","6213c7da1417d9ca36263979","5","","","","","0","7"
"null","","","null","","","","html-keyboard-response","240","575589","0.0-240.0","6147724c13bb365774e24af1","6213c7da1417d9ca36263979","","","","","<p style=""color:darkgreen;font-size:24px;"">Correct :)</p>","",""
"3333","key","n","n","16.750034999999915","500","250","psychophysics","241","578926","0.0-241.0","6147724c13bb365774e24af1","6213c7da1417d9ca36263979","5","","","","","0","4"
"null","","","null","","","","html-keyboard-response","242","579428","0.0-242.0","6147724c13bb365774e24af1","6213c7da1417d9ca36263979","","","","","<p style=""color:darkgreen;font-size:24px;"">Correct :)</p>","",""
"3552","key","n","n","16.666460093896738","500","250","psychophysics","243","582983","0.0-243.0","6147724c13bb365774e24af1","6213c7da1417d9ca36263979","5","","","","","0","6"
"null","","","null","","","","html-keyboard-response","244","583490","0.0-244.0","6147724c13bb365774e24af1","6213c7da1417d9ca36263979","","","","","<p style=""color:darkgreen;font-size:24px;"">Correct :)</p>","",""
"3245","key","v","v","16.83864248704667","500","250","psychophysics","245","586739","0.0-245.0","6147724c13bb365774e24af1","6213c7da1417d9ca36263979","5","","","","","0","3"
"null","","","null","","","","html-keyboard-response","246","587249","0.0-246.0","6147724c13bb365774e24af1","6213c7da1417d9ca36263979","","","","","<p style=""color:darkgreen;font-size:24px;"">Correct :)</p>","",""
"2854","key","n","n","16.667491228069853","500","250","psychophysics","247","590107","0.0-247.0","6147724c13bb365774e24af1","6213c7da1417d9ca36263979","5","","","","","0","8"
"null","","","null","","","","html-keyboard-response","248","590608","0.0-248.0","6147724c13bb365774e24af1","6213c7da1417d9ca36263979","","","","","<p style=""color:darkgreen;font-size:24px;"">Correct :)</p>","",""
"3081","key","n","n","16.666516304348278","500","250","psychophysics","249","593691","0.0-249.0","6147724c13bb365774e24af1","6213c7da1417d9ca36263979","5","","","","","0","6"
"null","","","null","","","","html-keyboard-response","250","594193","0.0-250.0","6147724c13bb365774e24af1","6213c7da1417d9ca36263979","","","","","<p style=""color:darkgreen;font-size:24px;"">Correct :)</p>","",""
"2612","key","n","n","16.6667371794868","500","250","psychophysics","251","596809","0.0-251.0","6147724c13bb365774e24af1","6213c7da1417d9ca36263979","5","","","","","0","6"
"null","","","null","","","","html-keyboard-response","252","597311","0.0-252.0","6147724c13bb365774e24af1","6213c7da1417d9ca36263979","","","","","<p style=""color:darkgreen;font-size:24px;"">Correct :)</p>","",""
"2845","key","v","v","16.668397660818556","500","250","psychophysics","253","600160","0.0-253.0","6147724c13bb365774e24af1","6213c7da1417d9ca36263979","5","","","","","0","9"
"null","","","null","","","","html-keyboard-response","254","600663","0.0-254.0","6147724c13bb365774e24af1","6213c7da1417d9ca36263979","","","","","<p style=""color:darkgreen;font-size:24px;"">Correct :)</p>","",""
"3182","key","v","v","16.667120418848388","500","250","psychophysics","255","603850","0.0-255.0","6147724c13bb365774e24af1","6213c7da1417d9ca36263979","5","","","","","0","7"
"null","","","null","","","","html-keyboard-response","256","604351","0.0-256.0","6147724c13bb365774e24af1","6213c7da1417d9ca36263979","","","","","<p style=""color:darkgreen;font-size:24px;"">Correct :)</p>","",""
"3195","key","n","n","16.666895833333303","500","250","psychophysics","257","607550","0.0-257.0","6147724c13bb365774e24af1","6213c7da1417d9ca36263979","5","","","","","0","6"
"null","","","null","","","","html-keyboard-response","258","608051","0.0-258.0","6147724c13bb365774e24af1","6213c7da1417d9ca36263979","","","","","<p style=""color:darkgreen;font-size:24px;"">Correct :)</p>","",""
"2724","key","v","v","16.665890243902474","500","250","psychophysics","259","610778","0.0-259.0","6147724c13bb365774e24af1","6213c7da1417d9ca36263979","5","","","","","0","3"
"null","","","null","","","","html-keyboard-response","260","611280","0.0-260.0","6147724c13bb365774e24af1","6213c7da1417d9ca36263979","","","","","<p style=""color:darkgreen;font-size:24px;"">Correct :)</p>","",""
"15382","key","n","n","16.667166847237315","500","250","psychophysics","261","626665","0.0-261.0","6147724c13bb365774e24af1","6213c7da1417d9ca36263979","5","","","","","0","2"
"null","","","null","","","","html-keyboard-response","262","627165","0.0-262.0","6147724c13bb365774e24af1","6213c7da1417d9ca36263979","","","","","<p style=""color:darkgreen;font-size:24px;"">Correct :)</p>","",""
"188","key","n","n","16.680090909093533","500","250","psychophysics","263","627357","0.0-263.0","6147724c13bb365774e24af1","6213c7da1417d9ca36263979","5","","","","","0","3"
"null","","","null","","","","html-keyboard-response","264","627859","0.0-264.0","6147724c13bb365774e24af1","6213c7da1417d9ca36263979","","","","","<p style=""color:red;font-size:24px;"">Error :(</p>","",""
"3078","key","v","v","16.758853260869333","500","250","psychophysics","265","630940","0.0-265.0","6147724c13bb365774e24af1","6213c7da1417d9ca36263979","5","","","","","0","3"
"null","","","null","","","","html-keyboard-response","266","631442","0.0-266.0","6147724c13bb365774e24af1","6213c7da1417d9ca36263979","","","","","<p style=""color:darkgreen;font-size:24px;"">Correct :)</p>","",""
"2579","key","v","v","16.77514935064949","500","250","psychophysics","267","634024","0.0-267.0","6147724c13bb365774e24af1","6213c7da1417d9ca36263979","5","","","","","0","1"
"null","","","null","","","","html-keyboard-response","268","634526","0.0-268.0","6147724c13bb365774e24af1","6213c7da1417d9ca36263979","","","","","<p style=""color:darkgreen;font-size:24px;"">Correct :)</p>","",""
"3171","key","v","v","16.66703684210569","500","250","psychophysics","269","637698","0.0-269.0","6147724c13bb365774e24af1","6213c7da1417d9ca36263979","5","","","","","0","9"
"null","","","null","","","","html-keyboard-response","270","638201","0.0-270.0","6147724c13bb365774e24af1","6213c7da1417d9ca36263979","","","","","<p style=""color:darkgreen;font-size:24px;"">Correct :)</p>","",""
"2981","key","n","n","16.66568715083829","500","250","psychophysics","271","641185","0.0-271.0","6147724c13bb365774e24af1","6213c7da1417d9ca36263979","5","","","","","0","6"
"null","","","null","","","","html-keyboard-response","272","641686","0.0-272.0","6147724c13bb365774e24af1","6213c7da1417d9ca36263979","","","","","<p style=""color:darkgreen;font-size:24px;"">Correct :)</p>","",""
"3329","key","v","v","16.667835000000196","500","250","psychophysics","273","645018","0.0-273.0","6147724c13bb365774e24af1","6213c7da1417d9ca36263979","5","","","","","0","3"
"null","","","null","","","","html-keyboard-response","274","645519","0.0-274.0","6147724c13bb365774e24af1","6213c7da1417d9ca36263979","","","","","<p style=""color:darkgreen;font-size:24px;"">Correct :)</p>","",""
"2845","key","n","n","16.66843274853816","500","250","psychophysics","275","648369","0.0-275.0","6147724c13bb365774e24af1","6213c7da1417d9ca36263979","5","","","","","0","6"
"null","","","null","","","","html-keyboard-response","276","648870","0.0-276.0","6147724c13bb365774e24af1","6213c7da1417d9ca36263979","","","","","<p style=""color:darkgreen;font-size:24px;"">Correct :)</p>","",""
"2958","key","n","n","16.66802247190976","500","250","psychophysics","277","651832","0.0-277.0","6147724c13bb365774e24af1","6213c7da1417d9ca36263979","5","","","","","0","6"
"null","","","null","","","","html-keyboard-response","278","652333","0.0-278.0","6147724c13bb365774e24af1","6213c7da1417d9ca36263979","","","","","<p style=""color:darkgreen;font-size:24px;"">Correct :)</p>","",""
"3127","key","n","n","16.666191489362046","500","250","psychophysics","279","655463","0.0-279.0","6147724c13bb365774e24af1","6213c7da1417d9ca36263979","5","","","","","0","2"
"null","","","null","","","","html-keyboard-response","280","655964","0.0-280.0","6147724c13bb365774e24af1","6213c7da1417d9ca36263979","","","","","<p style=""color:darkgreen;font-size:24px;"">Correct :)</p>","",""
"3331","key","n","n","16.667864999999875","500","250","psychophysics","281","659298","0.0-281.0","6147724c13bb365774e24af1","6213c7da1417d9ca36263979","5","","","","","0","4"
"null","","","null","","","","html-keyboard-response","282","659799","0.0-282.0","6147724c13bb365774e24af1","6213c7da1417d9ca36263979","","","","","<p style=""color:darkgreen;font-size:24px;"">Correct :)</p>","",""
"2731","key","v","v","16.666640243901895","500","250","psychophysics","283","662535","0.0-283.0","6147724c13bb365774e24af1","6213c7da1417d9ca36263979","5","","","","","0","3"
"null","","","null","","","","html-keyboard-response","284","663036","0.0-284.0","6147724c13bb365774e24af1","6213c7da1417d9ca36263979","","","","","<p style=""color:darkgreen;font-size:24px;"">Correct :)</p>","",""
"3309","key","n","n","16.667753768844374","500","250","psychophysics","285","666349","0.0-285.0","6147724c13bb365774e24af1","6213c7da1417d9ca36263979","5","","","","","0","6"
"null","","","null","","","","html-keyboard-response","286","666850","0.0-286.0","6147724c13bb365774e24af1","6213c7da1417d9ca36263979","","","","","<p style=""color:darkgreen;font-size:24px;"">Correct :)</p>","",""
"3503","key","n","n","16.666195238095575","500","250","psychophysics","287","670357","0.0-287.0","6147724c13bb365774e24af1","6213c7da1417d9ca36263979","5","","","","","0","8"
"null","","","null","","","","html-keyboard-response","288","670858","0.0-288.0","6147724c13bb365774e24af1","6213c7da1417d9ca36263979","","","","","<p style=""color:darkgreen;font-size:24px;"">Correct :)</p>","",""
"3700","key","n","n","16.66766216216225","500","250","psychophysics","289","674560","0.0-289.0","6147724c13bb365774e24af1","6213c7da1417d9ca36263979","5","","","","","0","4"
"null","","","null","","","","html-keyboard-response","290","675061","0.0-290.0","6147724c13bb365774e24af1","6213c7da1417d9ca36263979","","","","","<p style=""color:darkgreen;font-size:24px;"">Correct :)</p>","",""
"2820","key","v","v","16.66684023668637","500","250","psychophysics","291","677884","0.0-291.0","6147724c13bb365774e24af1","6213c7da1417d9ca36263979","5","","","","","0","1"
"null","","","null","","","","html-keyboard-response","292","678385","0.0-292.0","6147724c13bb365774e24af1","6213c7da1417d9ca36263979","","","","","<p style=""color:darkgreen;font-size:24px;"">Correct :)</p>","",""
"3949","key","v","v","16.666033755274164","500","250","psychophysics","293","682337","0.0-293.0","6147724c13bb365774e24af1","6213c7da1417d9ca36263979","5","","","","","0","7"
"null","","","null","","","","html-keyboard-response","294","682839","0.0-294.0","6147724c13bb365774e24af1","6213c7da1417d9ca36263979","","","","","<p style=""color:darkgreen;font-size:24px;"">Correct :)</p>","",""
"8555","","","v","","","","html-keyboard-response","295","691394","0.0-295.0","6147724c13bb365774e24af1","6213c7da1417d9ca36263979","","","","","<p> Here, the tasks are going to switch.  For some trials, your job is to decide if the digit is less than or greater than 5.  For others, it is to decide if the digit is even or odd.  You will be told which type of trial the current one is.  But, pay attention, the type of trial changes too.  We are going to do 50 of these.  </p>  <br><br>  Ready? (press v or n)","",""
"2978","key","n","n","16.66906179775277","500","250","psychophysics","296","694376","0.0-296.0","6147724c13bb365774e24af1","6213c7da1417d9ca36263979","6","","","","","0","6"
"null","","","null","","","","html-keyboard-response","297","694878","0.0-297.0","6147724c13bb365774e24af1","6213c7da1417d9ca36263979","","","","","<p style=""color:darkgreen;font-size:24px;"">Correct :)</p>","",""
"2592","key","n","n","16.667122580645785","500","250","psychophysics","298","697474","0.0-298.0","6147724c13bb365774e24af1","6213c7da1417d9ca36263979","6","","","","","0","6"
"null","","","null","","","","html-keyboard-response","299","697976","0.0-299.0","6147724c13bb365774e24af1","6213c7da1417d9ca36263979","","","","","<p style=""color:darkgreen;font-size:24px;"">Correct :)</p>","",""
"2762","key","n","n","16.666753012048087","500","250","psychophysics","300","700742","0.0-300.0","6147724c13bb365774e24af1","6213c7da1417d9ca36263979","6","","","","","1","6"
"null","","","null","","","","html-keyboard-response","301","701245","0.0-301.0","6147724c13bb365774e24af1","6213c7da1417d9ca36263979","","","","","<p style=""color:darkgreen;font-size:24px;"">Correct :)</p>","",""
"2923","key","v","v","16.667477011494608","500","250","psychophysics","302","704169","0.0-302.0","6147724c13bb365774e24af1","6213c7da1417d9ca36263979","6","","","","","1","3"
"null","","","null","","","","html-keyboard-response","303","704671","0.0-303.0","6147724c13bb365774e24af1","6213c7da1417d9ca36263979","","","","","<p style=""color:darkgreen;font-size:24px;"">Correct :)</p>","",""
"2824","key","n","n","16.667582352941526","500","250","psychophysics","304","707498","0.0-304.0","6147724c13bb365774e24af1","6213c7da1417d9ca36263979","6","","","","","0","2"
"null","","","null","","","","html-keyboard-response","305","708001","0.0-305.0","6147724c13bb365774e24af1","6213c7da1417d9ca36263979","","","","","<p style=""color:darkgreen;font-size:24px;"">Correct :)</p>","",""
"2952","key","v","v","16.66600564971703","500","250","psychophysics","306","710957","0.0-306.0","6147724c13bb365774e24af1","6213c7da1417d9ca36263979","6","","","","","0","3"
"null","","","null","","","","html-keyboard-response","307","711464","0.0-307.0","6147724c13bb365774e24af1","6213c7da1417d9ca36263979","","","","","<p style=""color:darkgreen;font-size:24px;"">Correct :)</p>","",""
"2955","key","v","v","16.667706214689314","500","250","psychophysics","308","714423","0.0-308.0","6147724c13bb365774e24af1","6213c7da1417d9ca36263979","6","","","","","0","1"
"null","","","null","","","","html-keyboard-response","309","714924","0.0-309.0","6147724c13bb365774e24af1","6213c7da1417d9ca36263979","","","","","<p style=""color:darkgreen;font-size:24px;"">Correct :)</p>","",""
"2573","key","n","n","16.668296774193614","500","250","psychophysics","310","717501","0.0-310.0","6147724c13bb365774e24af1","6213c7da1417d9ca36263979","6","","","","","1","9"
"null","","","null","","","","html-keyboard-response","311","718002","0.0-311.0","6147724c13bb365774e24af1","6213c7da1417d9ca36263979","","","","","<p style=""color:darkgreen;font-size:24px;"">Correct :)</p>","",""
"2907","key","v","v","16.668079999999943","500","250","psychophysics","312","720915","0.0-312.0","6147724c13bb365774e24af1","6213c7da1417d9ca36263979","6","","","","","0","1"
"null","","","null","","","","html-keyboard-response","313","721416","0.0-313.0","6147724c13bb365774e24af1","6213c7da1417d9ca36263979","","","","","<p style=""color:darkgreen;font-size:24px;"">Correct :)</p>","",""
"3435","key","v","v","16.667432038835138","500","250","psychophysics","314","724856","0.0-314.0","6147724c13bb365774e24af1","6213c7da1417d9ca36263979","6","","","","","1","2"
"null","","","null","","","","html-keyboard-response","315","725356","0.0-315.0","6147724c13bb365774e24af1","6213c7da1417d9ca36263979","","","","","<p style=""color:darkgreen;font-size:24px;"">Correct :)</p>","",""
"2967","key","n","n","16.66928089887631","500","250","psychophysics","316","728327","0.0-316.0","6147724c13bb365774e24af1","6213c7da1417d9ca36263979","6","","","","","1","9"
"null","","","null","","","","html-keyboard-response","317","728828","0.0-317.0","6147724c13bb365774e24af1","6213c7da1417d9ca36263979","","","","","<p style=""color:darkgreen;font-size:24px;"">Correct :)</p>","",""
"2685","key","v","v","16.66732716049358","500","250","psychophysics","318","731516","0.0-318.0","6147724c13bb365774e24af1","6213c7da1417d9ca36263979","6","","","","","0","1"
"null","","","null","","","","html-keyboard-response","319","732019","0.0-319.0","6147724c13bb365774e24af1","6213c7da1417d9ca36263979","","","","","<p style=""color:darkgreen;font-size:24px;"">Correct :)</p>","",""
"2664","key","v","v","16.667956250000135","500","250","psychophysics","320","734687","0.0-320.0","6147724c13bb365774e24af1","6213c7da1417d9ca36263979","6","","","","","1","4"
"null","","","null","","","","html-keyboard-response","321","735190","0.0-321.0","6147724c13bb365774e24af1","6213c7da1417d9ca36263979","","","","","<p style=""color:darkgreen;font-size:24px;"">Correct :)</p>","",""
"2875","key","v","v","16.66860115606906","500","250","psychophysics","322","738069","0.0-322.0","6147724c13bb365774e24af1","6213c7da1417d9ca36263979","6","","","","","1","3"
"null","","","null","","","","html-keyboard-response","323","738570","0.0-323.0","6147724c13bb365774e24af1","6213c7da1417d9ca36263979","","","","","<p style=""color:darkgreen;font-size:24px;"">Correct :)</p>","",""
"3212","key","v","v","16.667917098445272","500","250","psychophysics","324","741786","0.0-324.0","6147724c13bb365774e24af1","6213c7da1417d9ca36263979","6","","","","","0","9"
"null","","","null","","","","html-keyboard-response","325","742288","0.0-325.0","6147724c13bb365774e24af1","6213c7da1417d9ca36263979","","","","","<p style=""color:darkgreen;font-size:24px;"">Correct :)</p>","",""
"2587","key","v","v","16.667954838709274","500","250","psychophysics","326","744879","0.0-326.0","6147724c13bb365774e24af1","6213c7da1417d9ca36263979","6","","","","","1","3"
"null","","","null","","","","html-keyboard-response","327","745380","0.0-327.0","6147724c13bb365774e24af1","6213c7da1417d9ca36263979","","","","","<p style=""color:darkgreen;font-size:24px;"">Correct :)</p>","",""
"2793","key","v","v","16.665722891566322","500","250","psychophysics","328","748175","0.0-328.0","6147724c13bb365774e24af1","6213c7da1417d9ca36263979","6","","","","","0","1"
"null","","","null","","","","html-keyboard-response","329","748677","0.0-329.0","6147724c13bb365774e24af1","6213c7da1417d9ca36263979","","","","","<p style=""color:darkgreen;font-size:24px;"">Correct :)</p>","",""
"3145","key","n","n","16.667455026455514","500","250","psychophysics","330","751826","0.0-330.0","6147724c13bb365774e24af1","6213c7da1417d9ca36263979","6","","","","","0","4"
"null","","","null","","","","html-keyboard-response","331","752327","0.0-331.0","6147724c13bb365774e24af1","6213c7da1417d9ca36263979","","","","","<p style=""color:darkgreen;font-size:24px;"">Correct :)</p>","",""
"3643","key","n","n","16.6681415525113","500","250","psychophysics","332","755974","0.0-332.0","6147724c13bb365774e24af1","6213c7da1417d9ca36263979","6","","","","","1","9"
"null","","","null","","","","html-keyboard-response","333","756475","0.0-333.0","6147724c13bb365774e24af1","6213c7da1417d9ca36263979","","","","","<p style=""color:darkgreen;font-size:24px;"">Correct :)</p>","",""
"3704","key","v","v","16.66654260089671","500","250","psychophysics","334","760185","0.0-334.0","6147724c13bb365774e24af1","6213c7da1417d9ca36263979","6","","","","","0","7"
"null","","","null","","","","html-keyboard-response","335","760686","0.0-335.0","6147724c13bb365774e24af1","6213c7da1417d9ca36263979","","","","","<p style=""color:darkgreen;font-size:24px;"">Correct :)</p>","",""
"3769","key","n","n","16.666013274336155","500","250","psychophysics","336","764457","0.0-336.0","6147724c13bb365774e24af1","6213c7da1417d9ca36263979","6","","","","","0","2"
"null","","","null","","","","html-keyboard-response","337","764958","0.0-337.0","6147724c13bb365774e24af1","6213c7da1417d9ca36263979","","","","","<p style=""color:darkgreen;font-size:24px;"">Correct :)</p>","",""
"3439","key","n","n","16.667555555555595","500","250","psychophysics","338","768401","0.0-338.0","6147724c13bb365774e24af1","6213c7da1417d9ca36263979","6","","","","","0","8"
"null","","","null","","","","html-keyboard-response","339","768903","0.0-339.0","6147724c13bb365774e24af1","6213c7da1417d9ca36263979","","","","","<p style=""color:darkgreen;font-size:24px;"">Correct :)</p>","",""
"3534","key","v","v","16.666216981132134","500","250","psychophysics","340","772441","0.0-340.0","6147724c13bb365774e24af1","6213c7da1417d9ca36263979","6","","","","","1","4"
"null","","","null","","","","html-keyboard-response","341","772943","0.0-341.0","6147724c13bb365774e24af1","6213c7da1417d9ca36263979","","","","","<p style=""color:darkgreen;font-size:24px;"">Correct :)</p>","",""
"3300","key","n","n","16.666949494949407","500","250","psychophysics","342","776246","0.0-342.0","6147724c13bb365774e24af1","6213c7da1417d9ca36263979","6","","","","","1","7"
"null","","","null","","","","html-keyboard-response","343","776748","0.0-343.0","6147724c13bb365774e24af1","6213c7da1417d9ca36263979","","","","","<p style=""color:darkgreen;font-size:24px;"">Correct :)</p>","",""
"3211","key","v","v","16.667307291666777","500","250","psychophysics","344","779963","0.0-344.0","6147724c13bb365774e24af1","6213c7da1417d9ca36263979","6","","","","","1","3"
"null","","","null","","","","html-keyboard-response","345","780465","0.0-345.0","6147724c13bb365774e24af1","6213c7da1417d9ca36263979","","","","","<p style=""color:darkgreen;font-size:24px;"">Correct :)</p>","",""
"3435","key","v","v","16.666077669902627","500","250","psychophysics","346","783903","0.0-346.0","6147724c13bb365774e24af1","6213c7da1417d9ca36263979","6","","","","","0","1"
"null","","","null","","","","html-keyboard-response","347","784404","0.0-347.0","6147724c13bb365774e24af1","6213c7da1417d9ca36263979","","","","","<p style=""color:darkgreen;font-size:24px;"">Correct :)</p>","",""
"3166","key","n","n","16.66748947368408","500","250","psychophysics","348","787573","0.0-348.0","6147724c13bb365774e24af1","6213c7da1417d9ca36263979","6","","","","","0","4"
"null","","","null","","","","html-keyboard-response","349","788074","0.0-349.0","6147724c13bb365774e24af1","6213c7da1417d9ca36263979","","","","","<p style=""color:darkgreen;font-size:24px;"">Correct :)</p>","",""
"3727","key","v","v","16.6668749999995","500","250","psychophysics","350","791805","0.0-350.0","6147724c13bb365774e24af1","6213c7da1417d9ca36263979","6","","","","","0","1"
"null","","","null","","","","html-keyboard-response","351","792306","0.0-351.0","6147724c13bb365774e24af1","6213c7da1417d9ca36263979","","","","","<p style=""color:darkgreen;font-size:24px;"">Correct :)</p>","",""
"3585","key","n","n","16.66736279069771","500","250","psychophysics","352","795899","0.0-352.0","6147724c13bb365774e24af1","6213c7da1417d9ca36263979","6","","","","","1","6"
"null","","","null","","","","html-keyboard-response","353","796401","0.0-353.0","6147724c13bb365774e24af1","6213c7da1417d9ca36263979","","","","","<p style=""color:darkgreen;font-size:24px;"">Correct :)</p>","",""
"1683","key","v","v","16.667673267326133","500","250","psychophysics","354","798088","0.0-354.0","6147724c13bb365774e24af1","6213c7da1417d9ca36263979","6","","","","","0","9"
"null","","","null","","","","html-keyboard-response","355","798590","0.0-355.0","6147724c13bb365774e24af1","6213c7da1417d9ca36263979","","","","","<p style=""color:darkgreen;font-size:24px;"">Correct :)</p>","",""
"3682","key","v","v","16.667330316741996","500","250","psychophysics","356","802278","0.0-356.0","6147724c13bb365774e24af1","6213c7da1417d9ca36263979","6","","","","","0","9"
"null","","","null","","","","html-keyboard-response","357","802779","0.0-357.0","6147724c13bb365774e24af1","6213c7da1417d9ca36263979","","","","","<p style=""color:darkgreen;font-size:24px;"">Correct :)</p>","",""
"2443","key","n","n","16.66626530612239","500","250","psychophysics","358","805225","0.0-358.0","6147724c13bb365774e24af1","6213c7da1417d9ca36263979","6","","","","","1","7"
"null","","","null","","","","html-keyboard-response","359","805727","0.0-359.0","6147724c13bb365774e24af1","6213c7da1417d9ca36263979","","","","","<p style=""color:darkgreen;font-size:24px;"">Correct :)</p>","",""
"2523","key","n","n","16.668125000000337","500","250","psychophysics","360","808254","0.0-360.0","6147724c13bb365774e24af1","6213c7da1417d9ca36263979","6","","","","","1","7"
"null","","","null","","","","html-keyboard-response","361","808755","0.0-361.0","6147724c13bb365774e24af1","6213c7da1417d9ca36263979","","","","","<p style=""color:darkgreen;font-size:24px;"">Correct :)</p>","",""
"3000","key","n","n","16.668938888888807","500","250","psychophysics","362","811758","0.0-362.0","6147724c13bb365774e24af1","6213c7da1417d9ca36263979","6","","","","","1","9"
"null","","","null","","","","html-keyboard-response","363","812260","0.0-363.0","6147724c13bb365774e24af1","6213c7da1417d9ca36263979","","","","","<p style=""color:darkgreen;font-size:24px;"">Correct :)</p>","",""
"2405","key","v","v","16.66773103448273","500","250","psychophysics","364","814669","0.0-364.0","6147724c13bb365774e24af1","6213c7da1417d9ca36263979","6","","","","","1","3"
"null","","","null","","","","html-keyboard-response","365","815172","0.0-365.0","6147724c13bb365774e24af1","6213c7da1417d9ca36263979","","","","","<p style=""color:darkgreen;font-size:24px;"">Correct :)</p>","",""
"2798","key","v","v","16.667678571428127","500","250","psychophysics","366","817974","0.0-366.0","6147724c13bb365774e24af1","6213c7da1417d9ca36263979","6","","","","","1","2"
"null","","","null","","","","html-keyboard-response","367","818476","0.0-367.0","6147724c13bb365774e24af1","6213c7da1417d9ca36263979","","","","","<p style=""color:darkgreen;font-size:24px;"">Correct :)</p>","",""
"2924","key","n","n","16.666982954545926","500","250","psychophysics","368","821403","0.0-368.0","6147724c13bb365774e24af1","6213c7da1417d9ca36263979","6","","","","","0","4"
"null","","","null","","","","html-keyboard-response","369","821905","0.0-369.0","6147724c13bb365774e24af1","6213c7da1417d9ca36263979","","","","","<p style=""color:darkgreen;font-size:24px;"">Correct :)</p>","",""
"2982","key","v","v","16.66689944134078","500","250","psychophysics","370","824891","0.0-370.0","6147724c13bb365774e24af1","6213c7da1417d9ca36263979","6","","","","","0","3"
"null","","","null","","","","html-keyboard-response","371","825391","0.0-371.0","6147724c13bb365774e24af1","6213c7da1417d9ca36263979","","","","","<p style=""color:darkgreen;font-size:24px;"">Correct :)</p>","",""
"4205","key","v","v","16.666888888888817","500","250","psychophysics","372","829599","0.0-372.0","6147724c13bb365774e24af1","6213c7da1417d9ca36263979","6","","","","","1","2"
"null","","","null","","","","html-keyboard-response","373","830102","0.0-373.0","6147724c13bb365774e24af1","6213c7da1417d9ca36263979","","","","","<p style=""color:darkgreen;font-size:24px;"">Correct :)</p>","",""
"3275","key","n","n","16.668209183673085","500","250","psychophysics","374","833381","0.0-374.0","6147724c13bb365774e24af1","6213c7da1417d9ca36263979","6","","","","","0","8"
"null","","","null","","","","html-keyboard-response","375","833883","0.0-375.0","6147724c13bb365774e24af1","6213c7da1417d9ca36263979","","","","","<p style=""color:darkgreen;font-size:24px;"">Correct :)</p>","",""
"3254","key","v","v","16.75350256410296","500","250","psychophysics","376","837141","0.0-376.0","6147724c13bb365774e24af1","6213c7da1417d9ca36263979","6","","","","","1","4"
"null","","","null","","","","html-keyboard-response","377","837643","0.0-377.0","6147724c13bb365774e24af1","6213c7da1417d9ca36263979","","","","","<p style=""color:darkgreen;font-size:24px;"">Correct :)</p>","",""
"3505","key","n","n","16.667710900473875","500","250","psychophysics","378","841153","0.0-378.0","6147724c13bb365774e24af1","6213c7da1417d9ca36263979","6","","","","","0","6"
"null","","","null","","","","html-keyboard-response","379","841656","0.0-379.0","6147724c13bb365774e24af1","6213c7da1417d9ca36263979","","","","","<p style=""color:darkgreen;font-size:24px;"">Correct :)</p>","",""
"2940","key","v","v","16.66484090909084","500","250","psychophysics","380","844598","0.0-380.0","6147724c13bb365774e24af1","6213c7da1417d9ca36263979","6","","","","","1","4"
"null","","","null","","","","html-keyboard-response","381","845099","0.0-381.0","6147724c13bb365774e24af1","6213c7da1417d9ca36263979","","","","","<p style=""color:darkgreen;font-size:24px;"">Correct :)</p>","",""
"2738","key","n","n","16.667533333333576","500","250","psychophysics","382","847840","0.0-382.0","6147724c13bb365774e24af1","6213c7da1417d9ca36263979","6","","","","","0","2"
"null","","","null","","","","html-keyboard-response","383","848342","0.0-383.0","6147724c13bb365774e24af1","6213c7da1417d9ca36263979","","","","","<p style=""color:darkgreen;font-size:24px;"">Correct :)</p>","",""
"3053","key","v","v","16.66805464480851","500","250","psychophysics","384","851398","0.0-384.0","6147724c13bb365774e24af1","6213c7da1417d9ca36263979","6","","","","","0","1"
"null","","","null","","","","html-keyboard-response","385","851899","0.0-385.0","6147724c13bb365774e24af1","6213c7da1417d9ca36263979","","","","","<p style=""color:darkgreen;font-size:24px;"">Correct :)</p>","",""
"3187","key","n","n","16.666364583333536","500","250","psychophysics","386","855089","0.0-386.0","6147724c13bb365774e24af1","6213c7da1417d9ca36263979","6","","","","","0","2"
"null","","","null","","","","html-keyboard-response","387","855591","0.0-387.0","6147724c13bb365774e24af1","6213c7da1417d9ca36263979","","","","","<p style=""color:darkgreen;font-size:24px;"">Correct :)</p>","",""
"3071","key","v","v","16.668646739130214","500","250","psychophysics","388","858663","0.0-388.0","6147724c13bb365774e24af1","6213c7da1417d9ca36263979","6","","","","","1","2"
"null","","","null","","","","html-keyboard-response","389","859164","0.0-389.0","6147724c13bb365774e24af1","6213c7da1417d9ca36263979","","","","","<p style=""color:darkgreen;font-size:24px;"">Correct :)</p>","",""
"3077","key","n","n","16.668010810811097","500","250","psychophysics","390","862244","0.0-390.0","6147724c13bb365774e24af1","6213c7da1417d9ca36263979","6","","","","","1","8"
"null","","","null","","","","html-keyboard-response","391","862746","0.0-391.0","6147724c13bb365774e24af1","6213c7da1417d9ca36263979","","","","","<p style=""color:darkgreen;font-size:24px;"">Correct :)</p>","",""
"2732","key","v","v","16.6651158536587","500","250","psychophysics","392","865481","0.0-392.0","6147724c13bb365774e24af1","6213c7da1417d9ca36263979","6","","","","","1","1"
"null","","","null","","","","html-keyboard-response","393","865983","0.0-393.0","6147724c13bb365774e24af1","6213c7da1417d9ca36263979","","","","","<p style=""color:darkgreen;font-size:24px;"">Correct :)</p>","",""
"3563","key","v","v","16.667261682242966","500","250","psychophysics","394","869549","0.0-394.0","6147724c13bb365774e24af1","6213c7da1417d9ca36263979","6","","","","","0","9"
"null","","","null","","","","html-keyboard-response","395","870050","0.0-395.0","6147724c13bb365774e24af1","6213c7da1417d9ca36263979","","","","","<p style=""color:darkgreen;font-size:24px;"">Correct :)</p>","",""
"3029","","","v","","","","html-keyboard-response","396","873080","0.0-396.0","6147724c13bb365774e24af1","6213c7da1417d9ca36263979","","","","","<p> Last set of trials.  Here, the tasks are going to switch once again.  We are going to do 50 of these.  And then you are done with the experiment.  </p>  <br><br>  Ready? (press v or n)","",""
"2653","key","v","v","16.666226415094663","500","250","psychophysics","397","875737","0.0-397.0","6147724c13bb365774e24af1","6213c7da1417d9ca36263979","7","","","","","0","7"
"null","","","null","","","","html-keyboard-response","398","876238","0.0-398.0","6147724c13bb365774e24af1","6213c7da1417d9ca36263979","","","","","<p style=""color:darkgreen;font-size:24px;"">Correct :)</p>","",""
"2397","key","v","v","16.669486111111635","500","250","psychophysics","399","878638","0.0-399.0","6147724c13bb365774e24af1","6213c7da1417d9ca36263979","7","","","","","1","1"
"null","","","null","","","","html-keyboard-response","400","879139","0.0-400.0","6147724c13bb365774e24af1","6213c7da1417d9ca36263979","","","","","<p style=""color:darkgreen;font-size:24px;"">Correct :)</p>","",""
"3270","key","v","v","16.66682142857165","500","250","psychophysics","401","882412","0.0-401.0","6147724c13bb365774e24af1","6213c7da1417d9ca36263979","7","","","","","0","7"
"null","","","null","","","","html-keyboard-response","402","882912","0.0-402.0","6147724c13bb365774e24af1","6213c7da1417d9ca36263979","","","","","<p style=""color:darkgreen;font-size:24px;"">Correct :)</p>","",""
"2515","key","v","v","16.66756953642432","500","250","psychophysics","403","885430","0.0-403.0","6147724c13bb365774e24af1","6213c7da1417d9ca36263979","7","","","","","1","4"
"null","","","null","","","","html-keyboard-response","404","885932","0.0-404.0","6147724c13bb365774e24af1","6213c7da1417d9ca36263979","","","","","<p style=""color:darkgreen;font-size:24px;"">Correct :)</p>","",""
"2682","key","v","v","16.666223602484397","500","250","psychophysics","405","888618","0.0-405.0","6147724c13bb365774e24af1","6213c7da1417d9ca36263979","7","","","","","0","1"
"null","","","null","","","","html-keyboard-response","406","889119","0.0-406.0","6147724c13bb365774e24af1","6213c7da1417d9ca36263979","","","","","<p style=""color:darkgreen;font-size:24px;"">Correct :)</p>","",""
"2588","key","v","v","16.667590909090965","500","250","psychophysics","407","891710","0.0-407.0","6147724c13bb365774e24af1","6213c7da1417d9ca36263979","7","","","","","0","3"
"null","","","null","","","","html-keyboard-response","408","892212","0.0-408.0","6147724c13bb365774e24af1","6213c7da1417d9ca36263979","","","","","<p style=""color:darkgreen;font-size:24px;"">Correct :)</p>","",""
"2701","key","v","v","16.666154320987033","500","250","psychophysics","409","894917","0.0-409.0","6147724c13bb365774e24af1","6213c7da1417d9ca36263979","7","","","","","1","1"
"null","","","null","","","","html-keyboard-response","410","895418","0.0-410.0","6147724c13bb365774e24af1","6213c7da1417d9ca36263979","","","","","<p style=""color:darkgreen;font-size:24px;"">Correct :)</p>","",""
"2986","key","n","n","16.667688888888936","500","250","psychophysics","411","898407","0.0-411.0","6147724c13bb365774e24af1","6213c7da1417d9ca36263979","7","","","","","0","2"
"null","","","null","","","","html-keyboard-response","412","898908","0.0-412.0","6147724c13bb365774e24af1","6213c7da1417d9ca36263979","","","","","<p style=""color:darkgreen;font-size:24px;"">Correct :)</p>","",""
"2533","key","v","v","16.67032236842083","500","250","psychophysics","413","901444","0.0-413.0","6147724c13bb365774e24af1","6213c7da1417d9ca36263979","7","","","","","0","1"
"null","","","null","","","","html-keyboard-response","414","901946","0.0-414.0","6147724c13bb365774e24af1","6213c7da1417d9ca36263979","","","","","<p style=""color:darkgreen;font-size:24px;"">Correct :)</p>","",""
"2937","key","n","n","16.6671136363637","500","250","psychophysics","415","904885","0.0-415.0","6147724c13bb365774e24af1","6213c7da1417d9ca36263979","7","","","","","0","2"
"null","","","null","","","","html-keyboard-response","416","905386","0.0-416.0","6147724c13bb365774e24af1","6213c7da1417d9ca36263979","","","","","<p style=""color:darkgreen;font-size:24px;"">Correct :)</p>","",""
"3127","key","n","n","16.6676042780752","500","250","psychophysics","417","908516","0.0-417.0","6147724c13bb365774e24af1","6213c7da1417d9ca36263979","7","","","","","1","7"
"null","","","null","","","","html-keyboard-response","418","909018","0.0-418.0","6147724c13bb365774e24af1","6213c7da1417d9ca36263979","","","","","<p style=""color:darkgreen;font-size:24px;"">Correct :)</p>","",""
"3079","key","n","n","16.667643243243063","500","250","psychophysics","419","912100","0.0-419.0","6147724c13bb365774e24af1","6213c7da1417d9ca36263979","7","","","","","0","6"
"null","","","null","","","","html-keyboard-response","420","912602","0.0-420.0","6147724c13bb365774e24af1","6213c7da1417d9ca36263979","","","","","<p style=""color:darkgreen;font-size:24px;"">Correct :)</p>","",""
"3082","key","v","v","16.758608695651713","500","250","psychophysics","421","915687","0.0-421.0","6147724c13bb365774e24af1","6213c7da1417d9ca36263979","7","","","","","0","3"
"null","","","null","","","","html-keyboard-response","422","916188","0.0-422.0","6147724c13bb365774e24af1","6213c7da1417d9ca36263979","","","","","<p style=""color:darkgreen;font-size:24px;"">Correct :)</p>","",""
"2826","key","v","v","16.667644970414514","500","250","psychophysics","423","919017","0.0-423.0","6147724c13bb365774e24af1","6213c7da1417d9ca36263979","7","","","","","0","3"
"null","","","null","","","","html-keyboard-response","424","919518","0.0-424.0","6147724c13bb365774e24af1","6213c7da1417d9ca36263979","","","","","<p style=""color:darkgreen;font-size:24px;"">Correct :)</p>","",""
"3240","key","v","v","16.666512820512676","500","250","psychophysics","425","922760","0.0-425.0","6147724c13bb365774e24af1","6213c7da1417d9ca36263979","7","","","","","1","4"
"null","","","null","","","","html-keyboard-response","426","923262","0.0-426.0","6147724c13bb365774e24af1","6213c7da1417d9ca36263979","","","","","<p style=""color:darkgreen;font-size:24px;"">Correct :)</p>","",""
"2845","key","v","v","16.666947368420768","500","250","psychophysics","427","926110","0.0-427.0","6147724c13bb365774e24af1","6213c7da1417d9ca36263979","7","","","","","1","2"
"null","","","null","","","","html-keyboard-response","428","926611","0.0-428.0","6147724c13bb365774e24af1","6213c7da1417d9ca36263979","","","","","<p style=""color:darkgreen;font-size:24px;"">Correct :)</p>","",""
"3078","key","n","n","16.666724324324544","500","250","psychophysics","429","929692","0.0-429.0","6147724c13bb365774e24af1","6213c7da1417d9ca36263979","7","","","","","0","4"
"null","","","null","","","","html-keyboard-response","430","930193","0.0-430.0","6147724c13bb365774e24af1","6213c7da1417d9ca36263979","","","","","<p style=""color:darkgreen;font-size:24px;"">Correct :)</p>","",""
"2436","key","v","v","16.669123287670704","500","250","psychophysics","431","932633","0.0-431.0","6147724c13bb365774e24af1","6213c7da1417d9ca36263979","7","","","","","1","1"
"null","","","null","","","","html-keyboard-response","432","933134","0.0-432.0","6147724c13bb365774e24af1","6213c7da1417d9ca36263979","","","","","<p style=""color:darkgreen;font-size:24px;"">Correct :)</p>","",""
"3221","key","n","n","16.668453608247088","500","250","psychophysics","433","936359","0.0-433.0","6147724c13bb365774e24af1","6213c7da1417d9ca36263979","7","","","","","1","7"
"null","","","null","","","","html-keyboard-response","434","936860","0.0-434.0","6147724c13bb365774e24af1","6213c7da1417d9ca36263979","","","","","<p style=""color:darkgreen;font-size:24px;"">Correct :)</p>","",""
"3555","key","n","n","16.666586854460128","500","250","psychophysics","435","940418","0.0-435.0","6147724c13bb365774e24af1","6213c7da1417d9ca36263979","7","","","","","0","2"
"null","","","null","","","","html-keyboard-response","436","940919","0.0-436.0","6147724c13bb365774e24af1","6213c7da1417d9ca36263979","","","","","<p style=""color:darkgreen;font-size:24px;"">Correct :)</p>","",""
"3004","key","n","n","16.666204419889414","500","250","psychophysics","437","943930","0.0-437.0","6147724c13bb365774e24af1","6213c7da1417d9ca36263979","7","","","","","0","3"
"null","","","null","","","","html-keyboard-response","438","944433","0.0-438.0","6147724c13bb365774e24af1","6213c7da1417d9ca36263979","","","","","<p style=""color:red;font-size:24px;"">Error :(</p>","",""
"2592","key","v","v","16.668487179487084","500","250","psychophysics","439","947028","0.0-439.0","6147724c13bb365774e24af1","6213c7da1417d9ca36263979","7","","","","","1","4"
"null","","","null","","","","html-keyboard-response","440","947529","0.0-440.0","6147724c13bb365774e24af1","6213c7da1417d9ca36263979","","","","","<p style=""color:darkgreen;font-size:24px;"">Correct :)</p>","",""
"2643","key","v","v","16.667842767295813","500","250","psychophysics","441","950176","0.0-441.0","6147724c13bb365774e24af1","6213c7da1417d9ca36263979","7","","","","","1","1"
"null","","","null","","","","html-keyboard-response","442","950678","0.0-442.0","6147724c13bb365774e24af1","6213c7da1417d9ca36263979","","","","","<p style=""color:darkgreen;font-size:24px;"">Correct :)</p>","",""
"3116","key","n","n","16.666727272727663","500","250","psychophysics","443","953796","0.0-443.0","6147724c13bb365774e24af1","6213c7da1417d9ca36263979","7","","","","","0","6"
"null","","","null","","","","html-keyboard-response","444","954296","0.0-444.0","6147724c13bb365774e24af1","6213c7da1417d9ca36263979","","","","","<p style=""color:darkgreen;font-size:24px;"">Correct :)</p>","",""
"2893","key","v","v","16.667258620689672","500","250","psychophysics","445","957193","0.0-445.0","6147724c13bb365774e24af1","6213c7da1417d9ca36263979","7","","","","","1","3"
"null","","","null","","","","html-keyboard-response","446","957694","0.0-446.0","6147724c13bb365774e24af1","6213c7da1417d9ca36263979","","","","","<p style=""color:darkgreen;font-size:24px;"">Correct :)</p>","",""
"2827","key","v","v","16.667405882353126","500","250","psychophysics","447","960523","0.0-447.0","6147724c13bb365774e24af1","6213c7da1417d9ca36263979","7","","","","","1","1"
"null","","","null","","","","html-keyboard-response","448","961025","0.0-448.0","6147724c13bb365774e24af1","6213c7da1417d9ca36263979","","","","","<p style=""color:darkgreen;font-size:24px;"">Correct :)</p>","",""
"2932","key","v","v","16.666829545454345","500","250","psychophysics","449","963959","0.0-449.0","6147724c13bb365774e24af1","6213c7da1417d9ca36263979","7","","","","","1","4"
"null","","","null","","","","html-keyboard-response","450","964461","0.0-450.0","6147724c13bb365774e24af1","6213c7da1417d9ca36263979","","","","","<p style=""color:darkgreen;font-size:24px;"">Correct :)</p>","",""
"2592","key","v","v","16.66692307692257","500","250","psychophysics","451","967057","0.0-451.0","6147724c13bb365774e24af1","6213c7da1417d9ca36263979","7","","","","","1","4"
"null","","","null","","","","html-keyboard-response","452","967559","0.0-452.0","6147724c13bb365774e24af1","6213c7da1417d9ca36263979","","","","","<p style=""color:darkgreen;font-size:24px;"">Correct :)</p>","",""
"2605","key","v","v","16.664891025641015","500","250","psychophysics","453","970168","0.0-453.0","6147724c13bb365774e24af1","6213c7da1417d9ca36263979","7","","","","","0","1"
"null","","","null","","","","html-keyboard-response","454","970683","0.0-454.0","6147724c13bb365774e24af1","6213c7da1417d9ca36263979","","","","","<p style=""color:darkgreen;font-size:24px;"">Correct :)</p>","",""
"2489","key","n","n","16.670480000000293","500","250","psychophysics","455","973176","0.0-455.0","6147724c13bb365774e24af1","6213c7da1417d9ca36263979","7","","","","","1","6"
"null","","","null","","","","html-keyboard-response","456","973677","0.0-456.0","6147724c13bb365774e24af1","6213c7da1417d9ca36263979","","","","","<p style=""color:darkgreen;font-size:24px;"">Correct :)</p>","",""
"2648","key","v","v","16.667628930817187","500","250","psychophysics","457","976330","0.0-457.0","6147724c13bb365774e24af1","6213c7da1417d9ca36263979","7","","","","","1","4"
"null","","","null","","","","html-keyboard-response","458","976831","0.0-458.0","6147724c13bb365774e24af1","6213c7da1417d9ca36263979","","","","","<p style=""color:darkgreen;font-size:24px;"">Correct :)</p>","",""
"2700","key","n","n","16.666827160494265","500","250","psychophysics","459","979535","0.0-459.0","6147724c13bb365774e24af1","6213c7da1417d9ca36263979","7","","","","","1","7"
"null","","","null","","","","html-keyboard-response","460","980036","0.0-460.0","6147724c13bb365774e24af1","6213c7da1417d9ca36263979","","","","","<p style=""color:darkgreen;font-size:24px;"">Correct :)</p>","",""
"3159","key","n","n","16.668373684210113","500","250","psychophysics","461","983199","0.0-461.0","6147724c13bb365774e24af1","6213c7da1417d9ca36263979","7","","","","","0","4"
"null","","","null","","","","html-keyboard-response","462","983701","0.0-462.0","6147724c13bb365774e24af1","6213c7da1417d9ca36263979","","","","","<p style=""color:darkgreen;font-size:24px;"">Correct :)</p>","",""
"3351","key","n","n","16.666427860696178","500","250","psychophysics","463","987055","0.0-463.0","6147724c13bb365774e24af1","6213c7da1417d9ca36263979","7","","","","","0","4"
"null","","","null","","","","html-keyboard-response","464","987556","0.0-464.0","6147724c13bb365774e24af1","6213c7da1417d9ca36263979","","","","","<p style=""color:darkgreen;font-size:24px;"">Correct :)</p>","",""
"3115","key","v","v","16.666695187165885","500","250","psychophysics","465","990675","0.0-465.0","6147724c13bb365774e24af1","6213c7da1417d9ca36263979","7","","","","","1","2"
"null","","","null","","","","html-keyboard-response","466","991178","0.0-466.0","6147724c13bb365774e24af1","6213c7da1417d9ca36263979","","","","","<p style=""color:darkgreen;font-size:24px;"">Correct :)</p>","",""
"3542","key","v","v","16.66670422535171","500","250","psychophysics","467","994724","0.0-467.0","6147724c13bb365774e24af1","6213c7da1417d9ca36263979","7","","","","","0","3"
"null","","","null","","","","html-keyboard-response","468","995225","0.0-468.0","6147724c13bb365774e24af1","6213c7da1417d9ca36263979","","","","","<p style=""color:darkgreen;font-size:24px;"">Correct :)</p>","",""
"2417","key","n","n","16.666724137930554","500","250","psychophysics","469","997646","0.0-469.0","6147724c13bb365774e24af1","6213c7da1417d9ca36263979","7","","","","","0","4"
"null","","","null","","","","html-keyboard-response","470","998147","0.0-470.0","6147724c13bb365774e24af1","6213c7da1417d9ca36263979","","","","","<p style=""color:darkgreen;font-size:24px;"">Correct :)</p>","",""
"2530","key","n","n","16.666276315789315","500","250","psychophysics","471","1000680","0.0-471.0","6147724c13bb365774e24af1","6213c7da1417d9ca36263979","7","","","","","0","4"
"null","","","null","","","","html-keyboard-response","472","1001181","0.0-472.0","6147724c13bb365774e24af1","6213c7da1417d9ca36263979","","","","","<p style=""color:darkgreen;font-size:24px;"">Correct :)</p>","",""
"2532","key","v","v","16.667789473684696","500","250","psychophysics","473","1003716","0.0-473.0","6147724c13bb365774e24af1","6213c7da1417d9ca36263979","7","","","","","1","1"
"null","","","null","","","","html-keyboard-response","474","1004217","0.0-474.0","6147724c13bb365774e24af1","6213c7da1417d9ca36263979","","","","","<p style=""color:darkgreen;font-size:24px;"">Correct :)</p>","",""
"2478","key","v","v","16.668771812080518","500","250","psychophysics","475","1006699","0.0-475.0","6147724c13bb365774e24af1","6213c7da1417d9ca36263979","7","","","","","1","3"
"null","","","null","","","","html-keyboard-response","476","1007200","0.0-476.0","6147724c13bb365774e24af1","6213c7da1417d9ca36263979","","","","","<p style=""color:darkgreen;font-size:24px;"">Correct :)</p>","",""
"2815","key","v","v","16.66908284023641","500","250","psychophysics","477","1010018","0.0-477.0","6147724c13bb365774e24af1","6213c7da1417d9ca36263979","7","","","","","0","3"
"null","","","null","","","","html-keyboard-response","478","1010520","0.0-478.0","6147724c13bb365774e24af1","6213c7da1417d9ca36263979","","","","","<p style=""color:darkgreen;font-size:24px;"">Correct :)</p>","",""
"3375","key","v","v","16.667586206896644","500","250","psychophysics","479","1013899","0.0-479.0","6147724c13bb365774e24af1","6213c7da1417d9ca36263979","7","","","","","0","3"
"null","","","null","","","","html-keyboard-response","480","1014400","0.0-480.0","6147724c13bb365774e24af1","6213c7da1417d9ca36263979","","","","","<p style=""color:darkgreen;font-size:24px;"">Correct :)</p>","",""
"2524","key","v","v","16.666197368420974","500","250","psychophysics","481","1016927","0.0-481.0","6147724c13bb365774e24af1","6213c7da1417d9ca36263979","7","","","","","1","1"
"null","","","null","","","","html-keyboard-response","482","1017429","0.0-482.0","6147724c13bb365774e24af1","6213c7da1417d9ca36263979","","","","","<p style=""color:darkgreen;font-size:24px;"">Correct :)</p>","",""
"2519","key","v","v","16.668774834436995","500","250","psychophysics","483","1019951","0.0-483.0","6147724c13bb365774e24af1","6213c7da1417d9ca36263979","7","","","","","1","1"
"null","","","null","","","","html-keyboard-response","484","1020453","0.0-484.0","6147724c13bb365774e24af1","6213c7da1417d9ca36263979","","","","","<p style=""color:darkgreen;font-size:24px;"">Correct :)</p>","",""
"2600","key","v","v","16.66718589743593","500","250","psychophysics","485","1023057","0.0-485.0","6147724c13bb365774e24af1","6213c7da1417d9ca36263979","7","","","","","0","4"
"null","","","null","","","","html-keyboard-response","486","1023558","0.0-486.0","6147724c13bb365774e24af1","6213c7da1417d9ca36263979","","","","","<p style=""color:red;font-size:24px;"">Error :(</p>","",""
"2869","key","v","v","16.668860465116246","500","250","psychophysics","487","1026430","0.0-487.0","6147724c13bb365774e24af1","6213c7da1417d9ca36263979","7","","","","","1","1"
"null","","","null","","","","html-keyboard-response","488","1026931","0.0-488.0","6147724c13bb365774e24af1","6213c7da1417d9ca36263979","","","","","<p style=""color:darkgreen;font-size:24px;"">Correct :)</p>","",""
"2450","key","n","n","16.670346938775296","500","250","psychophysics","489","1029383","0.0-489.0","6147724c13bb365774e24af1","6213c7da1417d9ca36263979","7","","","","","1","6"
"null","","","null","","","","html-keyboard-response","490","1029885","0.0-490.0","6147724c13bb365774e24af1","6213c7da1417d9ca36263979","","","","","<p style=""color:darkgreen;font-size:24px;"">Correct :)</p>","",""
"2528","key","n","n","16.665750000000116","500","250","psychophysics","491","1032416","0.0-491.0","6147724c13bb365774e24af1","6213c7da1417d9ca36263979","7","","","","","0","6"
"null","","","null","","","","html-keyboard-response","492","1032916","0.0-492.0","6147724c13bb365774e24af1","6213c7da1417d9ca36263979","","","","","<p style=""color:darkgreen;font-size:24px;"">Correct :)</p>","",""
"2559","key","v","v","16.664116883117483","500","250","psychophysics","493","1035479","0.0-493.0","6147724c13bb365774e24af1","6213c7da1417d9ca36263979","7","","","","","1","4"
"null","","","null","","","","html-keyboard-response","494","1035982","0.0-494.0","6147724c13bb365774e24af1","6213c7da1417d9ca36263979","","","","","<p style=""color:darkgreen;font-size:24px;"">Correct :)</p>","",""
"2652","key","n","n","16.66683018867969","500","250","psychophysics","495","1038639","0.0-495.0","6147724c13bb365774e24af1","6213c7da1417d9ca36263979","7","","","","","0","4"
"null","","","null","","","","html-keyboard-response","496","1039141","0.0-496.0","6147724c13bb365774e24af1","6213c7da1417d9ca36263979","","","","","<p style=""color:darkgreen;font-size:24px;"">Correct :)</p>","",""
