"rt","response_type","key_press","response","avg_frame_time","center_x","center_y","trial_type","trial_index","time_elapsed","internal_node_id","pid","sid","phase","guide","targ","resp","stimulus","is5","stim"
"3915","key"," "," ","8.608411378555799","500","250","psychophysics","0","3943","0.0-0.0","5f4a5b3dccae1c5e215cfe3e","6213ce04213869dae5884be0","","","","","","",""
"1480","key"," "," ","8.33438983050848","500","250","psychophysics","1","5426","0.0-1.0","5f4a5b3dccae1c5e215cfe3e","6213ce04213869dae5884be0","","","","","","",""
"1310","key"," "," ","8.334133757961782","500","250","psychophysics","2","6738","0.0-2.0","5f4a5b3dccae1c5e215cfe3e","6213ce04213869dae5884be0","","","","","","",""
"847","key"," "," ","8.334869999999992","500","250","psychophysics","3","7588","0.0-3.0","5f4a5b3dccae1c5e215cfe3e","6213ce04213869dae5884be0","","","","","","",""
"1878","key"," "," ","8.372102678571427","500","250","psychophysics","4","9469","0.0-4.0","5f4a5b3dccae1c5e215cfe3e","6213ce04213869dae5884be0","","","","","","",""
"5706","key"," "," ","8.346956076134699","500","250","psychophysics","5","15179","0.0-5.0","5f4a5b3dccae1c5e215cfe3e","6213ce04213869dae5884be0","","","","","","",""
"5802","key"," "," ","8.358714697406338","500","250","psychophysics","6","20985","0.0-6.0","5f4a5b3dccae1c5e215cfe3e","6213ce04213869dae5884be0","","","","","","",""
"4874","key"," "," ","8.334806506849318","500","250","psychophysics","7","25862","0.0-7.0","5f4a5b3dccae1c5e215cfe3e","6213ce04213869dae5884be0","","","","","","",""
"3861","key"," "," ","8.334714902807772","500","250","psychophysics","8","29725","0.0-8.0","5f4a5b3dccae1c5e215cfe3e","6213ce04213869dae5884be0","0","0","56","62","","",""
"1773","key"," "," ","8.334608490566046","500","250","psychophysics","9","31501","0.0-9.0","5f4a5b3dccae1c5e215cfe3e","6213ce04213869dae5884be0","","","","","","",""
"2373","key"," "," ","8.334447183098591","500","250","psychophysics","10","33878","0.0-10.0","5f4a5b3dccae1c5e215cfe3e","6213ce04213869dae5884be0","","","","","","",""
"2904","key"," "," ","8.334775216138333","500","250","psychophysics","11","36784","0.0-11.0","5f4a5b3dccae1c5e215cfe3e","6213ce04213869dae5884be0","","","","","","",""
"2024","key"," "," ","8.334979423868319","500","250","psychophysics","12","38811","0.0-12.0","5f4a5b3dccae1c5e215cfe3e","6213ce04213869dae5884be0","","","","","","",""
"1048","key"," "," ","8.335024000000034","500","250","psychophysics","13","39861","0.0-13.0","5f4a5b3dccae1c5e215cfe3e","6213ce04213869dae5884be0","","","","","","",""
"1368","key"," "," ","8.335012269938629","500","250","psychophysics","14","41233","0.0-14.0","5f4a5b3dccae1c5e215cfe3e","6213ce04213869dae5884be0","","","","","","",""
"1765","key"," "," ","8.334933649289109","500","250","psychophysics","15","43002","0.0-15.0","5f4a5b3dccae1c5e215cfe3e","6213ce04213869dae5884be0","","","","","","",""
"637","key"," "," ","8.334763157894677","500","250","psychophysics","16","43641","0.0-16.0","5f4a5b3dccae1c5e215cfe3e","6213ce04213869dae5884be0","","","","","","",""
"5308","key"," "," ","8.334680817610069","500","250","psychophysics","17","48951","0.0-17.0","5f4a5b3dccae1c5e215cfe3e","6213ce04213869dae5884be0","1","0","50","51","","",""
"4298","key"," "," ","8.334850485436887","500","250","psychophysics","18","53252","0.0-18.0","5f4a5b3dccae1c5e215cfe3e","6213ce04213869dae5884be0","1","5","50","53","","",""
"4175","key"," "," ","8.335023952095797","500","250","psychophysics","19","57430","0.0-19.0","5f4a5b3dccae1c5e215cfe3e","6213ce04213869dae5884be0","1","0","49","49","","",""
"2921","key"," "," ","8.334859598853873","500","250","psychophysics","20","60354","0.0-20.0","5f4a5b3dccae1c5e215cfe3e","6213ce04213869dae5884be0","1","5","40","52","","",""
"3087","key"," "," ","8.334845945945956","500","250","psychophysics","21","63444","0.0-21.0","5f4a5b3dccae1c5e215cfe3e","6213ce04213869dae5884be0","1","0","26","29","","",""
"4036","key"," "," ","8.33472314049587","500","250","psychophysics","22","67482","0.0-22.0","5f4a5b3dccae1c5e215cfe3e","6213ce04213869dae5884be0","1","5","49","52","","",""
"2328","key"," "," ","8.334514388489191","500","250","psychophysics","23","69812","0.0-23.0","5f4a5b3dccae1c5e215cfe3e","6213ce04213869dae5884be0","1","0","39","43","","",""
"2968","key"," "," ","8.334608450704206","500","250","psychophysics","24","72782","0.0-24.0","5f4a5b3dccae1c5e215cfe3e","6213ce04213869dae5884be0","1","5","38","45","","",""
"2332","key"," "," ","8.394370503597104","500","250","psychophysics","25","75118","0.0-25.0","5f4a5b3dccae1c5e215cfe3e","6213ce04213869dae5884be0","1","0","23","30","","",""
"2169","key"," "," ","8.334756756756718","500","250","psychophysics","26","77290","0.0-26.0","5f4a5b3dccae1c5e215cfe3e","6213ce04213869dae5884be0","1","5","48","41","","",""
"3459","key"," "," ","8.334792771084368","500","250","psychophysics","27","80752","0.0-27.0","5f4a5b3dccae1c5e215cfe3e","6213ce04213869dae5884be0","1","0","54","51","","",""
"2213","key"," "," ","8.334996226415113","500","250","psychophysics","28","82968","0.0-28.0","5f4a5b3dccae1c5e215cfe3e","6213ce04213869dae5884be0","1","5","20","25","","",""
"2536","key"," "," ","8.334838283828402","500","250","psychophysics","29","85507","0.0-29.0","5f4a5b3dccae1c5e215cfe3e","6213ce04213869dae5884be0","1","0","37","30","","",""
"1754","key"," "," ","8.334747619047647","500","250","psychophysics","30","87263","0.0-30.0","5f4a5b3dccae1c5e215cfe3e","6213ce04213869dae5884be0","1","5","33","33","","",""
"2453","key"," "," ","8.334765306122456","500","250","psychophysics","31","89719","0.0-31.0","5f4a5b3dccae1c5e215cfe3e","6213ce04213869dae5884be0","1","0","42","45","","",""
"3372","key"," "," ","8.334689826302741","500","250","psychophysics","32","93093","0.0-32.0","5f4a5b3dccae1c5e215cfe3e","6213ce04213869dae5884be0","1","5","35","42","","",""
"1787","key"," "," ","8.334985981308368","500","250","psychophysics","33","94883","0.0-33.0","5f4a5b3dccae1c5e215cfe3e","6213ce04213869dae5884be0","1","0","20","22","","",""
"6582","key"," "," ","8.334653992395438","500","250","psychophysics","34","101467","0.0-34.0","5f4a5b3dccae1c5e215cfe3e","6213ce04213869dae5884be0","1","5","60","68","","",""
"2781","key"," "," ","8.334789789789792","500","250","psychophysics","35","104251","0.0-35.0","5f4a5b3dccae1c5e215cfe3e","6213ce04213869dae5884be0","1","0","26","28","","",""
"2339","key"," "," ","8.33467500000001","500","250","psychophysics","36","106593","0.0-36.0","5f4a5b3dccae1c5e215cfe3e","6213ce04213869dae5884be0","1","5","27","30","","",""
"2168","key"," "," ","8.335026923076937","500","250","psychophysics","37","108764","0.0-37.0","5f4a5b3dccae1c5e215cfe3e","6213ce04213869dae5884be0","","","","","","",""
"2086","key"," "," ","8.334919678714876","500","250","psychophysics","38","110852","0.0-38.0","5f4a5b3dccae1c5e215cfe3e","6213ce04213869dae5884be0","","","","","","",""
"762","key"," "," ","8.335516483516555","500","250","psychophysics","39","111617","0.0-39.0","5f4a5b3dccae1c5e215cfe3e","6213ce04213869dae5884be0","","","","","","",""
"2648","key"," "," ","8.33509148264985","500","250","psychophysics","40","114267","0.0-40.0","5f4a5b3dccae1c5e215cfe3e","6213ce04213869dae5884be0","2","0","26","28","","",""
"2397","key"," "," ","8.334954703832745","500","250","psychophysics","41","116666","0.0-41.0","5f4a5b3dccae1c5e215cfe3e","6213ce04213869dae5884be0","","","","","","",""
"4861","key"," "," ","8.334565292096228","500","250","psychophysics","42","121530","0.0-42.0","5f4a5b3dccae1c5e215cfe3e","6213ce04213869dae5884be0","2","0","59","71","","",""
"2141","key"," "," ","8.33487159533076","500","250","psychophysics","43","123674","0.0-43.0","5f4a5b3dccae1c5e215cfe3e","6213ce04213869dae5884be0","","","","","","",""
"2291","key"," "," ","8.334770072992697","500","250","psychophysics","44","125967","0.0-44.0","5f4a5b3dccae1c5e215cfe3e","6213ce04213869dae5884be0","2","0","22","28","","",""
"1056","key"," "," ","8.33423015873014","500","250","psychophysics","45","127026","0.0-45.0","5f4a5b3dccae1c5e215cfe3e","6213ce04213869dae5884be0","","","","","","",""
"4198","key"," "," ","8.334650099403575","500","250","psychophysics","46","131226","0.0-46.0","5f4a5b3dccae1c5e215cfe3e","6213ce04213869dae5884be0","2","0","40","38","","",""
"1355","key"," "," ","8.33457407407408","500","250","psychophysics","47","132584","0.0-47.0","5f4a5b3dccae1c5e215cfe3e","6213ce04213869dae5884be0","","","","","","",""
"2897","key"," "," ","8.33469942196535","500","250","psychophysics","48","135484","0.0-48.0","5f4a5b3dccae1c5e215cfe3e","6213ce04213869dae5884be0","2","0","60","56","","",""
"1456","key"," "," ","8.334689655172271","500","250","psychophysics","49","136942","0.0-49.0","5f4a5b3dccae1c5e215cfe3e","6213ce04213869dae5884be0","","","","","","",""
"2551","key"," "," ","8.334754901960777","500","250","psychophysics","50","139496","0.0-50.0","5f4a5b3dccae1c5e215cfe3e","6213ce04213869dae5884be0","2","0","30","35","","",""
"1171","key"," "," ","8.334628571428558","500","250","psychophysics","51","140669","0.0-51.0","5f4a5b3dccae1c5e215cfe3e","6213ce04213869dae5884be0","","","","","","",""
"2612","key"," "," ","8.33461146496815","500","250","psychophysics","52","143294","0.0-52.0","5f4a5b3dccae1c5e215cfe3e","6213ce04213869dae5884be0","2","0","45","46","","",""
"1371","key"," "," ","8.334914110429361","500","250","psychophysics","53","144667","0.0-53.0","5f4a5b3dccae1c5e215cfe3e","6213ce04213869dae5884be0","","","","","","",""
"2201","key"," "," ","8.334950757575742","500","250","psychophysics","54","146871","0.0-54.0","5f4a5b3dccae1c5e215cfe3e","6213ce04213869dae5884be0","2","0","34","38","","",""
"737","key"," "," ","8.335249999999757","500","250","psychophysics","55","147611","0.0-55.0","5f4a5b3dccae1c5e215cfe3e","6213ce04213869dae5884be0","","","","","","",""
"1881","key"," "," ","8.334537777777813","500","250","psychophysics","56","149495","0.0-56.0","5f4a5b3dccae1c5e215cfe3e","6213ce04213869dae5884be0","2","0","26","32","","",""
"703","key"," "," ","8.333469879517896","500","250","psychophysics","57","150200","0.0-57.0","5f4a5b3dccae1c5e215cfe3e","6213ce04213869dae5884be0","","","","","","",""
"1800","key"," "," ","8.334655813953493","500","250","psychophysics","58","152002","0.0-58.0","5f4a5b3dccae1c5e215cfe3e","6213ce04213869dae5884be0","2","0","25","29","","",""
"701","key"," "," ","8.3356785714284","500","250","psychophysics","59","152706","0.0-59.0","5f4a5b3dccae1c5e215cfe3e","6213ce04213869dae5884be0","","","","","","",""
"1925","key"," "," ","8.334695652173831","500","250","psychophysics","60","154634","0.0-60.0","5f4a5b3dccae1c5e215cfe3e","6213ce04213869dae5884be0","2","0","34","37","","",""
"690","key"," "," ","8.333609756097559","500","250","psychophysics","61","155326","0.0-61.0","5f4a5b3dccae1c5e215cfe3e","6213ce04213869dae5884be0","","","","","","",""
"2590","key"," "," ","8.334548387096747","500","250","psychophysics","62","157918","0.0-62.0","5f4a5b3dccae1c5e215cfe3e","6213ce04213869dae5884be0","2","0","49","38","","",""
"1002","key"," "," ","8.335158333333432","500","250","psychophysics","63","158922","0.0-63.0","5f4a5b3dccae1c5e215cfe3e","6213ce04213869dae5884be0","","","","","","",""
"1887","key"," "," ","8.334431111111124","500","250","psychophysics","64","160813","0.0-64.0","5f4a5b3dccae1c5e215cfe3e","6213ce04213869dae5884be0","2","0","22","33","","",""
"624","key"," "," ","8.333413333333253","500","250","psychophysics","65","161440","0.0-65.0","5f4a5b3dccae1c5e215cfe3e","6213ce04213869dae5884be0","","","","","","",""
"2916","key"," "," ","8.334839541547268","500","250","psychophysics","66","164358","0.0-66.0","5f4a5b3dccae1c5e215cfe3e","6213ce04213869dae5884be0","2","0","57","59","","",""
"952","key"," "," ","8.334061946902493","500","250","psychophysics","67","165312","0.0-67.0","5f4a5b3dccae1c5e215cfe3e","6213ce04213869dae5884be0","","","","","","",""
"1785","key"," "," ","8.33549999999996","500","250","psychophysics","68","167100","0.0-68.0","5f4a5b3dccae1c5e215cfe3e","6213ce04213869dae5884be0","2","0","34","33","","",""
"656","key"," "," ","8.33505128205154","500","250","psychophysics","69","167758","0.0-69.0","5f4a5b3dccae1c5e215cfe3e","6213ce04213869dae5884be0","","","","","","",""
"1570","key"," "," ","8.334390374331642","500","250","psychophysics","70","169331","0.0-70.0","5f4a5b3dccae1c5e215cfe3e","6213ce04213869dae5884be0","","","","","","",""
"1962","key"," "," ","8.334106382978783","500","250","psychophysics","71","171297","0.0-71.0","5f4a5b3dccae1c5e215cfe3e","6213ce04213869dae5884be0","","","","","","",""
"4246","key"," "," ","8.334691552062884","500","250","psychophysics","72","175546","0.0-72.0","5f4a5b3dccae1c5e215cfe3e","6213ce04213869dae5884be0","3","5","28","26","","",""
"2910","key"," "," ","8.33443553008594","500","250","psychophysics","73","178458","0.0-73.0","5f4a5b3dccae1c5e215cfe3e","6213ce04213869dae5884be0","3","0","60","59","","",""
"2953","key"," "," ","8.358247159090917","500","250","psychophysics","74","181413","0.0-74.0","5f4a5b3dccae1c5e215cfe3e","6213ce04213869dae5884be0","3","5","37","29","","",""
"2261","key"," "," ","8.334357933579245","500","250","psychophysics","75","183677","0.0-75.0","5f4a5b3dccae1c5e215cfe3e","6213ce04213869dae5884be0","3","0","37","33","","",""
"2427","key"," "," ","8.334548275862069","500","250","psychophysics","76","186107","0.0-76.0","5f4a5b3dccae1c5e215cfe3e","6213ce04213869dae5884be0","3","5","34","38","","",""
"2958","key"," "," ","8.334686440677944","500","250","psychophysics","77","189067","0.0-77.0","5f4a5b3dccae1c5e215cfe3e","6213ce04213869dae5884be0","3","0","30","48","","",""
"1613","key"," "," ","8.33424870466326","500","250","psychophysics","78","190683","0.0-78.0","5f4a5b3dccae1c5e215cfe3e","6213ce04213869dae5884be0","3","5","43","30","","",""
"2313","key"," "," ","8.334736462093895","500","250","psychophysics","79","192999","0.0-79.0","5f4a5b3dccae1c5e215cfe3e","6213ce04213869dae5884be0","3","0","56","49","","",""
"1798","key"," "," ","8.334339534883728","500","250","psychophysics","80","194799","0.0-80.0","5f4a5b3dccae1c5e215cfe3e","6213ce04213869dae5884be0","3","5","47","38","","",""
"1680","key"," "," ","8.334661691542252","500","250","psychophysics","81","196481","0.0-81.0","5f4a5b3dccae1c5e215cfe3e","6213ce04213869dae5884be0","3","0","22","30","","",""
"1480","key"," "," ","8.334502824858728","500","250","psychophysics","82","197963","0.0-82.0","5f4a5b3dccae1c5e215cfe3e","6213ce04213869dae5884be0","3","5","40","28","","",""
"2341","key"," "," ","8.334539285714293","500","250","psychophysics","83","200307","0.0-83.0","5f4a5b3dccae1c5e215cfe3e","6213ce04213869dae5884be0","3","0","43","48","","",""
"1944","key"," "," ","8.334562231759694","500","250","psychophysics","84","202254","0.0-84.0","5f4a5b3dccae1c5e215cfe3e","6213ce04213869dae5884be0","3","5","56","42","","",""
"3643","key"," "," ","8.334649082568822","500","250","psychophysics","85","205899","0.0-85.0","5f4a5b3dccae1c5e215cfe3e","6213ce04213869dae5884be0","3","0","60","58","","",""
"1996","key"," "," ","8.334489539748951","500","250","psychophysics","86","207897","0.0-86.0","5f4a5b3dccae1c5e215cfe3e","6213ce04213869dae5884be0","3","5","24","42","","",""
"2307","key"," "," ","8.334938405797098","500","250","psychophysics","87","210207","0.0-87.0","5f4a5b3dccae1c5e215cfe3e","6213ce04213869dae5884be0","3","0","45","50","","",""
"1536","key"," "," ","8.33491803278677","500","250","psychophysics","88","211746","0.0-88.0","5f4a5b3dccae1c5e215cfe3e","6213ce04213869dae5884be0","3","5","25","29","","",""
"1514","key"," "," ","8.334287292817645","500","250","psychophysics","89","213263","0.0-89.0","5f4a5b3dccae1c5e215cfe3e","6213ce04213869dae5884be0","3","0","25","31","","",""
"1500","key"," "," ","8.334416666666705","500","250","psychophysics","90","214766","0.0-90.0","5f4a5b3dccae1c5e215cfe3e","6213ce04213869dae5884be0","3","5","36","29","","",""
"1570","key"," "," ","8.335229946524036","500","250","psychophysics","91","216338","0.0-91.0","5f4a5b3dccae1c5e215cfe3e","6213ce04213869dae5884be0","3","0","27","30","","",""
"2735","key"," "," ","8.334838414634117","500","250","psychophysics","92","219076","0.0-92.0","5f4a5b3dccae1c5e215cfe3e","6213ce04213869dae5884be0","","","","","","",""
"18778","","","v","","","","html-keyboard-response","93","237855","0.0-93.0","5f4a5b3dccae1c5e215cfe3e","6213ce04213869dae5884be0","","","","","<p> In this part of the experiment, we are going present digits 1, 2, 3, 4, 6, 7, 8, and 9.  Notice that 5 is missing.  Your job is to say whether the presented digit is less than or greater than 5.  For example, 3 is less than 5 and 7 is greater than 5.  If the digit is less than 5, press the v key; if it is greater than 5, press the n key. We are going to do 200 of these in total, but only 50 righ now. They go real fast.</p>  <br><br>  Ready? (press v or n)","",""
"2652","key","n","n","8.339617554858991","500","250","psychophysics","94","240517","0.0-94.0","5f4a5b3dccae1c5e215cfe3e","6213ce04213869dae5884be0","4","","","","","1","6"
"null","","","null","","","","html-keyboard-response","95","241020","0.0-95.0","5f4a5b3dccae1c5e215cfe3e","6213ce04213869dae5884be0","","","","","<p style=""color:darkgreen;font-size:24px;"">Correct :)</p>","",""
"2495","key","n","n","8.334919732441483","500","250","psychophysics","96","243517","0.0-96.0","5f4a5b3dccae1c5e215cfe3e","6213ce04213869dae5884be0","4","","","","","1","6"
"null","","","null","","","","html-keyboard-response","97","244019","0.0-97.0","5f4a5b3dccae1c5e215cfe3e","6213ce04213869dae5884be0","","","","","<p style=""color:darkgreen;font-size:24px;"">Correct :)</p>","",""
"2453","key","n","n","8.33479931972793","500","250","psychophysics","98","246475","0.0-98.0","5f4a5b3dccae1c5e215cfe3e","6213ce04213869dae5884be0","4","","","","","1","8"
"null","","","null","","","","html-keyboard-response","99","246977","0.0-99.0","5f4a5b3dccae1c5e215cfe3e","6213ce04213869dae5884be0","","","","","<p style=""color:darkgreen;font-size:24px;"">Correct :)</p>","",""
"2617","key","n","n","8.361315286624231","500","250","psychophysics","100","249595","0.0-100.0","5f4a5b3dccae1c5e215cfe3e","6213ce04213869dae5884be0","4","","","","","1","7"
"null","","","null","","","","html-keyboard-response","101","250097","0.0-101.0","5f4a5b3dccae1c5e215cfe3e","6213ce04213869dae5884be0","","","","","<p style=""color:darkgreen;font-size:24px;"">Correct :)</p>","",""
"2433","key","n","n","8.334835616438347","500","250","psychophysics","102","252533","0.0-102.0","5f4a5b3dccae1c5e215cfe3e","6213ce04213869dae5884be0","4","","","","","1","7"
"null","","","null","","","","html-keyboard-response","103","253034","0.0-103.0","5f4a5b3dccae1c5e215cfe3e","6213ce04213869dae5884be0","","","","","<p style=""color:darkgreen;font-size:24px;"">Correct :)</p>","",""
"2425","key","n","n","8.334972508591012","500","250","psychophysics","104","255461","0.0-104.0","5f4a5b3dccae1c5e215cfe3e","6213ce04213869dae5884be0","4","","","","","1","4"
"null","","","null","","","","html-keyboard-response","105","255962","0.0-105.0","5f4a5b3dccae1c5e215cfe3e","6213ce04213869dae5884be0","","","","","<p style=""color:red;font-size:24px;"">Error :(</p>","",""
"2550","key","v","v","8.362065573770469","500","250","psychophysics","106","258515","0.0-106.0","5f4a5b3dccae1c5e215cfe3e","6213ce04213869dae5884be0","4","","","","","1","1"
"null","","","null","","","","html-keyboard-response","107","259017","0.0-107.0","5f4a5b3dccae1c5e215cfe3e","6213ce04213869dae5884be0","","","","","<p style=""color:darkgreen;font-size:24px;"">Correct :)</p>","",""
"2382","key","v","v","8.334713286713297","500","250","psychophysics","108","261401","0.0-108.0","5f4a5b3dccae1c5e215cfe3e","6213ce04213869dae5884be0","4","","","","","1","2"
"null","","","null","","","","html-keyboard-response","109","261902","0.0-109.0","5f4a5b3dccae1c5e215cfe3e","6213ce04213869dae5884be0","","","","","<p style=""color:darkgreen;font-size:24px;"">Correct :)</p>","",""
"2593","key","n","n","8.334736334405154","500","250","psychophysics","110","264497","0.0-110.0","5f4a5b3dccae1c5e215cfe3e","6213ce04213869dae5884be0","4","","","","","1","9"
"null","","","null","","","","html-keyboard-response","111","264998","0.0-111.0","5f4a5b3dccae1c5e215cfe3e","6213ce04213869dae5884be0","","","","","<p style=""color:darkgreen;font-size:24px;"">Correct :)</p>","",""
"2627","key","v","v","8.334901587301607","500","250","psychophysics","112","267627","0.0-112.0","5f4a5b3dccae1c5e215cfe3e","6213ce04213869dae5884be0","4","","","","","1","3"
"null","","","null","","","","html-keyboard-response","113","268128","0.0-113.0","5f4a5b3dccae1c5e215cfe3e","6213ce04213869dae5884be0","","","","","<p style=""color:darkgreen;font-size:24px;"">Correct :)</p>","",""
"2487","key","v","v","8.334829431438132","500","250","psychophysics","114","270616","0.0-114.0","5f4a5b3dccae1c5e215cfe3e","6213ce04213869dae5884be0","4","","","","","1","3"
"null","","","null","","","","html-keyboard-response","115","271118","0.0-115.0","5f4a5b3dccae1c5e215cfe3e","6213ce04213869dae5884be0","","","","","<p style=""color:darkgreen;font-size:24px;"">Correct :)</p>","",""
"2430","key","v","v","8.334910958904091","500","250","psychophysics","116","273550","0.0-116.0","5f4a5b3dccae1c5e215cfe3e","6213ce04213869dae5884be0","4","","","","","1","2"
"null","","","null","","","","html-keyboard-response","117","274051","0.0-117.0","5f4a5b3dccae1c5e215cfe3e","6213ce04213869dae5884be0","","","","","<p style=""color:darkgreen;font-size:24px;"">Correct :)</p>","",""
"2599","key","n","n","8.335022435897441","500","250","psychophysics","118","276651","0.0-118.0","5f4a5b3dccae1c5e215cfe3e","6213ce04213869dae5884be0","4","","","","","1","9"
"null","","","null","","","","html-keyboard-response","119","277152","0.0-119.0","5f4a5b3dccae1c5e215cfe3e","6213ce04213869dae5884be0","","","","","<p style=""color:darkgreen;font-size:24px;"">Correct :)</p>","",""
"2941","key","v","v","8.358397727272775","500","250","psychophysics","120","280095","0.0-120.0","5f4a5b3dccae1c5e215cfe3e","6213ce04213869dae5884be0","4","","","","","1","3"
"null","","","null","","","","html-keyboard-response","121","280597","0.0-121.0","5f4a5b3dccae1c5e215cfe3e","6213ce04213869dae5884be0","","","","","<p style=""color:darkgreen;font-size:24px;"">Correct :)</p>","",""
"2573","key","v","v","8.33495792880252","500","250","psychophysics","122","283174","0.0-122.0","5f4a5b3dccae1c5e215cfe3e","6213ce04213869dae5884be0","4","","","","","1","2"
"null","","","null","","","","html-keyboard-response","123","283675","0.0-123.0","5f4a5b3dccae1c5e215cfe3e","6213ce04213869dae5884be0","","","","","<p style=""color:darkgreen;font-size:24px;"">Correct :)</p>","",""
"2690","key","n","n","8.3347616099072","500","250","psychophysics","124","286368","0.0-124.0","5f4a5b3dccae1c5e215cfe3e","6213ce04213869dae5884be0","4","","","","","1","6"
"null","","","null","","","","html-keyboard-response","125","286869","0.0-125.0","5f4a5b3dccae1c5e215cfe3e","6213ce04213869dae5884be0","","","","","<p style=""color:darkgreen;font-size:24px;"">Correct :)</p>","",""
"2372","key","n","n","8.334768421052784","500","250","psychophysics","126","289243","0.0-126.0","5f4a5b3dccae1c5e215cfe3e","6213ce04213869dae5884be0","4","","","","","1","7"
"null","","","null","","","","html-keyboard-response","127","289744","0.0-127.0","5f4a5b3dccae1c5e215cfe3e","6213ce04213869dae5884be0","","","","","<p style=""color:darkgreen;font-size:24px;"">Correct :)</p>","",""
"2393","key","n","n","8.33492682926833","500","250","psychophysics","128","292139","0.0-128.0","5f4a5b3dccae1c5e215cfe3e","6213ce04213869dae5884be0","4","","","","","1","3"
"null","","","null","","","","html-keyboard-response","129","292641","0.0-129.0","5f4a5b3dccae1c5e215cfe3e","6213ce04213869dae5884be0","","","","","<p style=""color:red;font-size:24px;"">Error :(</p>","",""
"2569","key","v","v","8.334851132686028","500","250","psychophysics","130","295212","0.0-130.0","5f4a5b3dccae1c5e215cfe3e","6213ce04213869dae5884be0","4","","","","","1","1"
"null","","","null","","","","html-keyboard-response","131","295714","0.0-131.0","5f4a5b3dccae1c5e215cfe3e","6213ce04213869dae5884be0","","","","","<p style=""color:darkgreen;font-size:24px;"">Correct :)</p>","",""
"2776","key","v","v","8.334837837837807","500","250","psychophysics","132","298494","0.0-132.0","5f4a5b3dccae1c5e215cfe3e","6213ce04213869dae5884be0","4","","","","","1","4"
"null","","","null","","","","html-keyboard-response","133","298996","0.0-133.0","5f4a5b3dccae1c5e215cfe3e","6213ce04213869dae5884be0","","","","","<p style=""color:darkgreen;font-size:24px;"">Correct :)</p>","",""
"2692","key","n","n","8.335024767801823","500","250","psychophysics","134","301689","0.0-134.0","5f4a5b3dccae1c5e215cfe3e","6213ce04213869dae5884be0","4","","","","","1","9"
"null","","","null","","","","html-keyboard-response","135","302191","0.0-135.0","5f4a5b3dccae1c5e215cfe3e","6213ce04213869dae5884be0","","","","","<p style=""color:darkgreen;font-size:24px;"">Correct :)</p>","",""
"2986","key","n","n","8.334740947075266","500","250","psychophysics","136","305179","0.0-136.0","5f4a5b3dccae1c5e215cfe3e","6213ce04213869dae5884be0","4","","","","","1","7"
"null","","","null","","","","html-keyboard-response","137","305681","0.0-137.0","5f4a5b3dccae1c5e215cfe3e","6213ce04213869dae5884be0","","","","","<p style=""color:darkgreen;font-size:24px;"">Correct :)</p>","",""
"3022","key","v","v","8.334592286501364","500","250","psychophysics","138","308705","0.0-138.0","5f4a5b3dccae1c5e215cfe3e","6213ce04213869dae5884be0","4","","","","","1","3"
"null","","","null","","","","html-keyboard-response","139","309209","0.0-139.0","5f4a5b3dccae1c5e215cfe3e","6213ce04213869dae5884be0","","","","","<p style=""color:darkgreen;font-size:24px;"">Correct :)</p>","",""
"2591","key","n","n","8.334610932475925","500","250","psychophysics","140","311802","0.0-140.0","5f4a5b3dccae1c5e215cfe3e","6213ce04213869dae5884be0","4","","","","","1","6"
"null","","","null","","","","html-keyboard-response","141","312304","0.0-141.0","5f4a5b3dccae1c5e215cfe3e","6213ce04213869dae5884be0","","","","","<p style=""color:darkgreen;font-size:24px;"">Correct :)</p>","",""
"2552","key","n","n","8.334911764705907","500","250","psychophysics","142","314858","0.0-142.0","5f4a5b3dccae1c5e215cfe3e","6213ce04213869dae5884be0","4","","","","","1","6"
"null","","","null","","","","html-keyboard-response","143","315359","0.0-143.0","5f4a5b3dccae1c5e215cfe3e","6213ce04213869dae5884be0","","","","","<p style=""color:darkgreen;font-size:24px;"">Correct :)</p>","",""
"5431","key","v","v","8.334788343558293","500","250","psychophysics","144","320794","0.0-144.0","5f4a5b3dccae1c5e215cfe3e","6213ce04213869dae5884be0","4","","","","","1","2"
"null","","","null","","","","html-keyboard-response","145","321296","0.0-145.0","5f4a5b3dccae1c5e215cfe3e","6213ce04213869dae5884be0","","","","","<p style=""color:darkgreen;font-size:24px;"">Correct :)</p>","",""
"4398","key","v","v","8.33466287878786","500","250","psychophysics","146","325696","0.0-146.0","5f4a5b3dccae1c5e215cfe3e","6213ce04213869dae5884be0","4","","","","","1","6"
"null","","","null","","","","html-keyboard-response","147","326197","0.0-147.0","5f4a5b3dccae1c5e215cfe3e","6213ce04213869dae5884be0","","","","","<p style=""color:red;font-size:24px;"">Error :(</p>","",""
"3080","key","v","v","8.334656756756688","500","250","psychophysics","148","329281","0.0-148.0","5f4a5b3dccae1c5e215cfe3e","6213ce04213869dae5884be0","4","","","","","1","3"
"null","","","null","","","","html-keyboard-response","149","329783","0.0-149.0","5f4a5b3dccae1c5e215cfe3e","6213ce04213869dae5884be0","","","","","<p style=""color:darkgreen;font-size:24px;"">Correct :)</p>","",""
"7619","key","v","v","8.334818380743956","500","250","psychophysics","150","337404","0.0-150.0","5f4a5b3dccae1c5e215cfe3e","6213ce04213869dae5884be0","4","","","","","1","2"
"null","","","null","","","","html-keyboard-response","151","337905","0.0-151.0","5f4a5b3dccae1c5e215cfe3e","6213ce04213869dae5884be0","","","","","<p style=""color:darkgreen;font-size:24px;"">Correct :)</p>","",""
"4631","key","n","n","8.334827338129479","500","250","psychophysics","152","342537","0.0-152.0","5f4a5b3dccae1c5e215cfe3e","6213ce04213869dae5884be0","4","","","","","1","8"
"null","","","null","","","","html-keyboard-response","153","343039","0.0-153.0","5f4a5b3dccae1c5e215cfe3e","6213ce04213869dae5884be0","","","","","<p style=""color:darkgreen;font-size:24px;"">Correct :)</p>","",""
"3625","key","n","n","8.33465517241382","500","250","psychophysics","154","346666","0.0-154.0","5f4a5b3dccae1c5e215cfe3e","6213ce04213869dae5884be0","4","","","","","1","7"
"null","","","null","","","","html-keyboard-response","155","347168","0.0-155.0","5f4a5b3dccae1c5e215cfe3e","6213ce04213869dae5884be0","","","","","<p style=""color:darkgreen;font-size:24px;"">Correct :)</p>","",""
"4180","key","n","n","8.334743027888383","500","250","psychophysics","156","351350","0.0-156.0","5f4a5b3dccae1c5e215cfe3e","6213ce04213869dae5884be0","4","","","","","1","9"
"null","","","null","","","","html-keyboard-response","157","351851","0.0-157.0","5f4a5b3dccae1c5e215cfe3e","6213ce04213869dae5884be0","","","","","<p style=""color:darkgreen;font-size:24px;"">Correct :)</p>","",""
"3990","key","n","n","8.334665970772429","500","250","psychophysics","158","355844","0.0-158.0","5f4a5b3dccae1c5e215cfe3e","6213ce04213869dae5884be0","4","","","","","1","6"
"null","","","null","","","","html-keyboard-response","159","356344","0.0-159.0","5f4a5b3dccae1c5e215cfe3e","6213ce04213869dae5884be0","","","","","<p style=""color:darkgreen;font-size:24px;"">Correct :)</p>","",""
"3520","key","v","v","8.334718676122819","500","250","psychophysics","160","359867","0.0-160.0","5f4a5b3dccae1c5e215cfe3e","6213ce04213869dae5884be0","4","","","","","1","1"
"null","","","null","","","","html-keyboard-response","161","360369","0.0-161.0","5f4a5b3dccae1c5e215cfe3e","6213ce04213869dae5884be0","","","","","<p style=""color:darkgreen;font-size:24px;"">Correct :)</p>","",""
"3162","key","n","n","8.33467894736846","500","250","psychophysics","162","363534","0.0-162.0","5f4a5b3dccae1c5e215cfe3e","6213ce04213869dae5884be0","4","","","","","1","9"
"null","","","null","","","","html-keyboard-response","163","364035","0.0-163.0","5f4a5b3dccae1c5e215cfe3e","6213ce04213869dae5884be0","","","","","<p style=""color:darkgreen;font-size:24px;"">Correct :)</p>","",""
"3360","key","n","n","8.334826302729523","500","250","psychophysics","164","367396","0.0-164.0","5f4a5b3dccae1c5e215cfe3e","6213ce04213869dae5884be0","4","","","","","1","9"
"null","","","null","","","","html-keyboard-response","165","367898","0.0-165.0","5f4a5b3dccae1c5e215cfe3e","6213ce04213869dae5884be0","","","","","<p style=""color:darkgreen;font-size:24px;"">Correct :)</p>","",""
"3541","key","n","n","8.334795294117647","500","250","psychophysics","166","371441","0.0-166.0","5f4a5b3dccae1c5e215cfe3e","6213ce04213869dae5884be0","4","","","","","1","6"
"null","","","null","","","","html-keyboard-response","167","371949","0.0-167.0","5f4a5b3dccae1c5e215cfe3e","6213ce04213869dae5884be0","","","","","<p style=""color:darkgreen;font-size:24px;"">Correct :)</p>","",""
"3616","key","n","n","8.334776497695865","500","250","psychophysics","168","375567","0.0-168.0","5f4a5b3dccae1c5e215cfe3e","6213ce04213869dae5884be0","4","","","","","1","9"
"null","","","null","","","","html-keyboard-response","169","376068","0.0-169.0","5f4a5b3dccae1c5e215cfe3e","6213ce04213869dae5884be0","","","","","<p style=""color:darkgreen;font-size:24px;"">Correct :)</p>","",""
"13190","key","v","v","8.33476058117497","500","250","psychophysics","170","389260","0.0-170.0","5f4a5b3dccae1c5e215cfe3e","6213ce04213869dae5884be0","4","","","","","1","4"
"null","","","null","","","","html-keyboard-response","171","389762","0.0-171.0","5f4a5b3dccae1c5e215cfe3e","6213ce04213869dae5884be0","","","","","<p style=""color:darkgreen;font-size:24px;"">Correct :)</p>","",""
"3373","key","n","n","8.334802469135733","500","250","psychophysics","172","393137","0.0-172.0","5f4a5b3dccae1c5e215cfe3e","6213ce04213869dae5884be0","4","","","","","1","7"
"null","","","null","","","","html-keyboard-response","173","393638","0.0-173.0","5f4a5b3dccae1c5e215cfe3e","6213ce04213869dae5884be0","","","","","<p style=""color:darkgreen;font-size:24px;"">Correct :)</p>","",""
"6368","key","n","n","8.33487827225132","500","250","psychophysics","174","400008","0.0-174.0","5f4a5b3dccae1c5e215cfe3e","6213ce04213869dae5884be0","4","","","","","1","9"
"null","","","null","","","","html-keyboard-response","175","400510","0.0-175.0","5f4a5b3dccae1c5e215cfe3e","6213ce04213869dae5884be0","","","","","<p style=""color:darkgreen;font-size:24px;"">Correct :)</p>","",""
"2673","key","v","v","8.334853582554555","500","250","psychophysics","176","403186","0.0-176.0","5f4a5b3dccae1c5e215cfe3e","6213ce04213869dae5884be0","4","","","","","1","2"
"null","","","null","","","","html-keyboard-response","177","403688","0.0-177.0","5f4a5b3dccae1c5e215cfe3e","6213ce04213869dae5884be0","","","","","<p style=""color:darkgreen;font-size:24px;"">Correct :)</p>","",""
"2460","key","n","n","8.335094915254247","500","250","psychophysics","178","406150","0.0-178.0","5f4a5b3dccae1c5e215cfe3e","6213ce04213869dae5884be0","4","","","","","1","8"
"null","","","null","","","","html-keyboard-response","179","406652","0.0-179.0","5f4a5b3dccae1c5e215cfe3e","6213ce04213869dae5884be0","","","","","<p style=""color:darkgreen;font-size:24px;"">Correct :)</p>","",""
"7929","key","n","n","8.334670168067257","500","250","psychophysics","180","414582","0.0-180.0","5f4a5b3dccae1c5e215cfe3e","6213ce04213869dae5884be0","4","","","","","1","4"
"null","","","null","","","","html-keyboard-response","181","415084","0.0-181.0","5f4a5b3dccae1c5e215cfe3e","6213ce04213869dae5884be0","","","","","<p style=""color:red;font-size:24px;"">Error :(</p>","",""
"2594","key","n","n","8.334758842443685","500","250","psychophysics","182","417680","0.0-182.0","5f4a5b3dccae1c5e215cfe3e","6213ce04213869dae5884be0","4","","","","","1","8"
"null","","","null","","","","html-keyboard-response","183","418182","0.0-183.0","5f4a5b3dccae1c5e215cfe3e","6213ce04213869dae5884be0","","","","","<p style=""color:darkgreen;font-size:24px;"">Correct :)</p>","",""
"2498","key","v","v","8.334826666666777","500","250","psychophysics","184","420684","0.0-184.0","5f4a5b3dccae1c5e215cfe3e","6213ce04213869dae5884be0","4","","","","","1","7"
"null","","","null","","","","html-keyboard-response","185","421186","0.0-185.0","5f4a5b3dccae1c5e215cfe3e","6213ce04213869dae5884be0","","","","","<p style=""color:red;font-size:24px;"">Error :(</p>","",""
"6586","key","v","v","8.334782553729486","500","250","psychophysics","186","427775","0.0-186.0","5f4a5b3dccae1c5e215cfe3e","6213ce04213869dae5884be0","4","","","","","1","1"
"null","","","null","","","","html-keyboard-response","187","428277","0.0-187.0","5f4a5b3dccae1c5e215cfe3e","6213ce04213869dae5884be0","","","","","<p style=""color:darkgreen;font-size:24px;"">Correct :)</p>","",""
"4876","key","n","n","8.334750427350473","500","250","psychophysics","188","433155","0.0-188.0","5f4a5b3dccae1c5e215cfe3e","6213ce04213869dae5884be0","4","","","","","1","6"
"null","","","null","","","","html-keyboard-response","189","433666","0.0-189.0","5f4a5b3dccae1c5e215cfe3e","6213ce04213869dae5884be0","","","","","<p style=""color:darkgreen;font-size:24px;"">Correct :)</p>","",""
"4296","key","v","v","8.33483883495142","500","250","psychophysics","190","437965","0.0-190.0","5f4a5b3dccae1c5e215cfe3e","6213ce04213869dae5884be0","4","","","","","1","2"
"null","","","null","","","","html-keyboard-response","191","438466","0.0-191.0","5f4a5b3dccae1c5e215cfe3e","6213ce04213869dae5884be0","","","","","<p style=""color:darkgreen;font-size:24px;"">Correct :)</p>","",""
"6440","key","n","n","8.35638780804146","500","250","psychophysics","192","444909","0.0-192.0","5f4a5b3dccae1c5e215cfe3e","6213ce04213869dae5884be0","4","","","","","1","8"
"null","","","null","","","","html-keyboard-response","193","445410","0.0-193.0","5f4a5b3dccae1c5e215cfe3e","6213ce04213869dae5884be0","","","","","<p style=""color:darkgreen;font-size:24px;"">Correct :)</p>","",""
"6970","","","v","","","","html-keyboard-response","194","452381","0.0-194.0","5f4a5b3dccae1c5e215cfe3e","6213ce04213869dae5884be0","","","","","<p> Ok, now we are going present the same digits as before.  Your job is to say whether the digit is even or odd  If the digit is odd, press to v key; if it is even, press the n key. We are going to do 50 of these.  </p>  <br><br>  Ready? (press v or n)","",""
"2637","key","n","n","8.33652050473194","500","250","psychophysics","195","455022","0.0-195.0","5f4a5b3dccae1c5e215cfe3e","6213ce04213869dae5884be0","5","","","","","0","6"
"null","","","null","","","","html-keyboard-response","196","455524","0.0-196.0","5f4a5b3dccae1c5e215cfe3e","6213ce04213869dae5884be0","","","","","<p style=""color:darkgreen;font-size:24px;"">Correct :)</p>","",""
"2556","key","n","n","8.334771986970571","500","250","psychophysics","197","458082","0.0-197.0","5f4a5b3dccae1c5e215cfe3e","6213ce04213869dae5884be0","5","","","","","0","4"
"null","","","null","","","","html-keyboard-response","198","458584","0.0-198.0","5f4a5b3dccae1c5e215cfe3e","6213ce04213869dae5884be0","","","","","<p style=""color:darkgreen;font-size:24px;"">Correct :)</p>","",""
"2499","key","n","n","8.334679999999935","500","250","psychophysics","199","461085","0.0-199.0","5f4a5b3dccae1c5e215cfe3e","6213ce04213869dae5884be0","5","","","","","0","6"
"null","","","null","","","","html-keyboard-response","200","461587","0.0-200.0","5f4a5b3dccae1c5e215cfe3e","6213ce04213869dae5884be0","","","","","<p style=""color:darkgreen;font-size:24px;"">Correct :)</p>","",""
"2672","key","v","v","8.334931250000045","500","250","psychophysics","201","464262","0.0-201.0","5f4a5b3dccae1c5e215cfe3e","6213ce04213869dae5884be0","5","","","","","0","7"
"null","","","null","","","","html-keyboard-response","202","464763","0.0-202.0","5f4a5b3dccae1c5e215cfe3e","6213ce04213869dae5884be0","","","","","<p style=""color:darkgreen;font-size:24px;"">Correct :)</p>","",""
"2669","key","v","v","8.33485625000012","500","250","psychophysics","203","467435","0.0-203.0","5f4a5b3dccae1c5e215cfe3e","6213ce04213869dae5884be0","5","","","","","0","1"
"null","","","null","","","","html-keyboard-response","204","467937","0.0-204.0","5f4a5b3dccae1c5e215cfe3e","6213ce04213869dae5884be0","","","","","<p style=""color:darkgreen;font-size:24px;"">Correct :)</p>","",""
"3741","key","v","v","8.334717149220491","500","250","psychophysics","205","471679","0.0-205.0","5f4a5b3dccae1c5e215cfe3e","6213ce04213869dae5884be0","5","","","","","0","9"
"null","","","null","","","","html-keyboard-response","206","472181","0.0-206.0","5f4a5b3dccae1c5e215cfe3e","6213ce04213869dae5884be0","","","","","<p style=""color:darkgreen;font-size:24px;"">Correct :)</p>","",""
"2810","key","n","n","8.334777448071238","500","250","psychophysics","207","474994","0.0-207.0","5f4a5b3dccae1c5e215cfe3e","6213ce04213869dae5884be0","5","","","","","0","4"
"null","","","null","","","","html-keyboard-response","208","475495","0.0-208.0","5f4a5b3dccae1c5e215cfe3e","6213ce04213869dae5884be0","","","","","<p style=""color:darkgreen;font-size:24px;"">Correct :)</p>","",""
"2656","key","n","n","8.33496865203756","500","250","psychophysics","209","478153","0.0-209.0","5f4a5b3dccae1c5e215cfe3e","6213ce04213869dae5884be0","5","","","","","0","6"
"null","","","null","","","","html-keyboard-response","210","478655","0.0-210.0","5f4a5b3dccae1c5e215cfe3e","6213ce04213869dae5884be0","","","","","<p style=""color:darkgreen;font-size:24px;"">Correct :)</p>","",""
"5171","key","n","n","8.334776167471832","500","250","psychophysics","211","483830","0.0-211.0","5f4a5b3dccae1c5e215cfe3e","6213ce04213869dae5884be0","5","","","","","0","4"
"null","","","null","","","","html-keyboard-response","212","484332","0.0-212.0","5f4a5b3dccae1c5e215cfe3e","6213ce04213869dae5884be0","","","","","<p style=""color:darkgreen;font-size:24px;"">Correct :)</p>","",""
"3519","key","v","v","8.35467061611368","500","250","psychophysics","213","487855","0.0-213.0","5f4a5b3dccae1c5e215cfe3e","6213ce04213869dae5884be0","5","","","","","0","9"
"null","","","null","","","","html-keyboard-response","214","488356","0.0-214.0","5f4a5b3dccae1c5e215cfe3e","6213ce04213869dae5884be0","","","","","<p style=""color:darkgreen;font-size:24px;"">Correct :)</p>","",""
"3342","key","v","v","8.334770573566127","500","250","psychophysics","215","491700","0.0-215.0","5f4a5b3dccae1c5e215cfe3e","6213ce04213869dae5884be0","5","","","","","0","3"
"null","","","null","","","","html-keyboard-response","216","492201","0.0-216.0","5f4a5b3dccae1c5e215cfe3e","6213ce04213869dae5884be0","","","","","<p style=""color:darkgreen;font-size:24px;"">Correct :)</p>","",""
"2669","key","n","n","8.334996874999888","500","250","psychophysics","217","494873","0.0-217.0","5f4a5b3dccae1c5e215cfe3e","6213ce04213869dae5884be0","5","","","","","0","9"
"null","","","null","","","","html-keyboard-response","218","495374","0.0-218.0","5f4a5b3dccae1c5e215cfe3e","6213ce04213869dae5884be0","","","","","<p style=""color:red;font-size:24px;"">Error :(</p>","",""
"2915","key","v","v","8.335011428571473","500","250","psychophysics","219","498291","0.0-219.0","5f4a5b3dccae1c5e215cfe3e","6213ce04213869dae5884be0","5","","","","","0","1"
"null","","","null","","","","html-keyboard-response","220","498793","0.0-220.0","5f4a5b3dccae1c5e215cfe3e","6213ce04213869dae5884be0","","","","","<p style=""color:darkgreen;font-size:24px;"">Correct :)</p>","",""
"2883","key","v","v","8.334601156069356","500","250","psychophysics","221","501679","0.0-221.0","5f4a5b3dccae1c5e215cfe3e","6213ce04213869dae5884be0","5","","","","","0","2"
"null","","","null","","","","html-keyboard-response","222","502181","0.0-222.0","5f4a5b3dccae1c5e215cfe3e","6213ce04213869dae5884be0","","","","","<p style=""color:red;font-size:24px;"">Error :(</p>","",""
"3202","key","v","v","8.334718750000016","500","250","psychophysics","223","505385","0.0-223.0","5f4a5b3dccae1c5e215cfe3e","6213ce04213869dae5884be0","5","","","","","0","1"
"null","","","null","","","","html-keyboard-response","224","505887","0.0-224.0","5f4a5b3dccae1c5e215cfe3e","6213ce04213869dae5884be0","","","","","<p style=""color:darkgreen;font-size:24px;"">Correct :)</p>","",""
"2554","key","v","v","8.334722222222375","500","250","psychophysics","225","508443","0.0-225.0","5f4a5b3dccae1c5e215cfe3e","6213ce04213869dae5884be0","5","","","","","0","1"
"null","","","null","","","","html-keyboard-response","226","508945","0.0-226.0","5f4a5b3dccae1c5e215cfe3e","6213ce04213869dae5884be0","","","","","<p style=""color:darkgreen;font-size:24px;"">Correct :)</p>","",""
"3074","key","v","v","8.33485636856362","500","250","psychophysics","227","512021","0.0-227.0","5f4a5b3dccae1c5e215cfe3e","6213ce04213869dae5884be0","5","","","","","0","7"
"null","","","null","","","","html-keyboard-response","228","512523","0.0-228.0","5f4a5b3dccae1c5e215cfe3e","6213ce04213869dae5884be0","","","","","<p style=""color:darkgreen;font-size:24px;"">Correct :)</p>","",""
"2902","key","n","n","8.335025862068903","500","250","psychophysics","229","515427","0.0-229.0","5f4a5b3dccae1c5e215cfe3e","6213ce04213869dae5884be0","5","","","","","0","8"
"null","","","null","","","","html-keyboard-response","230","515929","0.0-230.0","5f4a5b3dccae1c5e215cfe3e","6213ce04213869dae5884be0","","","","","<p style=""color:darkgreen;font-size:24px;"">Correct :)</p>","",""
"2855","key","n","n","8.334976676384832","500","250","psychophysics","231","518788","0.0-231.0","5f4a5b3dccae1c5e215cfe3e","6213ce04213869dae5884be0","5","","","","","0","2"
"null","","","null","","","","html-keyboard-response","232","519290","0.0-232.0","5f4a5b3dccae1c5e215cfe3e","6213ce04213869dae5884be0","","","","","<p style=""color:darkgreen;font-size:24px;"">Correct :)</p>","",""
"2818","key","v","v","8.334819526627202","500","250","psychophysics","233","522110","0.0-233.0","5f4a5b3dccae1c5e215cfe3e","6213ce04213869dae5884be0","5","","","","","0","9"
"null","","","null","","","","html-keyboard-response","234","522612","0.0-234.0","5f4a5b3dccae1c5e215cfe3e","6213ce04213869dae5884be0","","","","","<p style=""color:darkgreen;font-size:24px;"">Correct :)</p>","",""
"2586","key","n","n","8.334948553054831","500","250","psychophysics","235","525200","0.0-235.0","5f4a5b3dccae1c5e215cfe3e","6213ce04213869dae5884be0","5","","","","","0","6"
"null","","","null","","","","html-keyboard-response","236","525702","0.0-236.0","5f4a5b3dccae1c5e215cfe3e","6213ce04213869dae5884be0","","","","","<p style=""color:darkgreen;font-size:24px;"">Correct :)</p>","",""
"2572","key","v","v","8.334757281553594","500","250","psychophysics","237","528276","0.0-237.0","5f4a5b3dccae1c5e215cfe3e","6213ce04213869dae5884be0","5","","","","","0","3"
"null","","","null","","","","html-keyboard-response","238","528777","0.0-238.0","5f4a5b3dccae1c5e215cfe3e","6213ce04213869dae5884be0","","","","","<p style=""color:darkgreen;font-size:24px;"">Correct :)</p>","",""
"2619","key","n","n","8.334907643311986","500","250","psychophysics","239","531398","0.0-239.0","5f4a5b3dccae1c5e215cfe3e","6213ce04213869dae5884be0","5","","","","","0","4"
"null","","","null","","","","html-keyboard-response","240","531899","0.0-240.0","5f4a5b3dccae1c5e215cfe3e","6213ce04213869dae5884be0","","","","","<p style=""color:darkgreen;font-size:24px;"">Correct :)</p>","",""
"2632","key","v","v","8.335221518987135","500","250","psychophysics","241","534534","0.0-241.0","5f4a5b3dccae1c5e215cfe3e","6213ce04213869dae5884be0","5","","","","","0","1"
"null","","","null","","","","html-keyboard-response","242","535035","0.0-242.0","5f4a5b3dccae1c5e215cfe3e","6213ce04213869dae5884be0","","","","","<p style=""color:darkgreen;font-size:24px;"">Correct :)</p>","",""
"2405","key","n","n","8.334692041522574","500","250","psychophysics","243","537443","0.0-243.0","5f4a5b3dccae1c5e215cfe3e","6213ce04213869dae5884be0","5","","","","","0","4"
"null","","","null","","","","html-keyboard-response","244","537943","0.0-244.0","5f4a5b3dccae1c5e215cfe3e","6213ce04213869dae5884be0","","","","","<p style=""color:darkgreen;font-size:24px;"">Correct :)</p>","",""
"2619","key","n","n","8.334515923566695","500","250","psychophysics","245","540564","0.0-245.0","5f4a5b3dccae1c5e215cfe3e","6213ce04213869dae5884be0","5","","","","","0","2"
"null","","","null","","","","html-keyboard-response","246","541065","0.0-246.0","5f4a5b3dccae1c5e215cfe3e","6213ce04213869dae5884be0","","","","","<p style=""color:darkgreen;font-size:24px;"">Correct :)</p>","",""
"2761","key","n","n","8.335195783132628","500","250","psychophysics","247","543828","0.0-247.0","5f4a5b3dccae1c5e215cfe3e","6213ce04213869dae5884be0","5","","","","","0","2"
"null","","","null","","","","html-keyboard-response","248","544329","0.0-248.0","5f4a5b3dccae1c5e215cfe3e","6213ce04213869dae5884be0","","","","","<p style=""color:darkgreen;font-size:24px;"">Correct :)</p>","",""
"2705","key","v","v","8.33465230769227","500","250","psychophysics","249","547036","0.0-249.0","5f4a5b3dccae1c5e215cfe3e","6213ce04213869dae5884be0","5","","","","","0","3"
"null","","","null","","","","html-keyboard-response","250","547537","0.0-250.0","5f4a5b3dccae1c5e215cfe3e","6213ce04213869dae5884be0","","","","","<p style=""color:darkgreen;font-size:24px;"">Correct :)</p>","",""
"2993","key","v","v","8.358122905027889","500","250","psychophysics","251","550532","0.0-251.0","5f4a5b3dccae1c5e215cfe3e","6213ce04213869dae5884be0","5","","","","","0","7"
"null","","","null","","","","html-keyboard-response","252","551034","0.0-252.0","5f4a5b3dccae1c5e215cfe3e","6213ce04213869dae5884be0","","","","","<p style=""color:darkgreen;font-size:24px;"">Correct :)</p>","",""
"2619","key","v","v","8.334926984126916","500","250","psychophysics","253","553655","0.0-253.0","5f4a5b3dccae1c5e215cfe3e","6213ce04213869dae5884be0","5","","","","","0","7"
"null","","","null","","","","html-keyboard-response","254","554165","0.0-254.0","5f4a5b3dccae1c5e215cfe3e","6213ce04213869dae5884be0","","","","","<p style=""color:darkgreen;font-size:24px;"">Correct :)</p>","",""
"2615","key","v","v","8.33492356687888","500","250","psychophysics","255","556782","0.0-255.0","5f4a5b3dccae1c5e215cfe3e","6213ce04213869dae5884be0","5","","","","","0","1"
"null","","","null","","","","html-keyboard-response","256","557290","0.0-256.0","5f4a5b3dccae1c5e215cfe3e","6213ce04213869dae5884be0","","","","","<p style=""color:darkgreen;font-size:24px;"">Correct :)</p>","",""
"2624","key","v","v","8.334653968253868","500","250","psychophysics","257","559918","0.0-257.0","5f4a5b3dccae1c5e215cfe3e","6213ce04213869dae5884be0","5","","","","","0","3"
"null","","","null","","","","html-keyboard-response","258","560419","0.0-258.0","5f4a5b3dccae1c5e215cfe3e","6213ce04213869dae5884be0","","","","","<p style=""color:darkgreen;font-size:24px;"">Correct :)</p>","",""
"3010","key","v","v","8.334745856353791","500","250","psychophysics","259","563432","0.0-259.0","5f4a5b3dccae1c5e215cfe3e","6213ce04213869dae5884be0","5","","","","","0","3"
"null","","","null","","","","html-keyboard-response","260","563932","0.0-260.0","5f4a5b3dccae1c5e215cfe3e","6213ce04213869dae5884be0","","","","","<p style=""color:darkgreen;font-size:24px;"">Correct :)</p>","",""
"2898","key","n","n","8.33481896551722","500","250","psychophysics","261","566834","0.0-261.0","5f4a5b3dccae1c5e215cfe3e","6213ce04213869dae5884be0","5","","","","","0","7"
"null","","","null","","","","html-keyboard-response","262","567336","0.0-262.0","5f4a5b3dccae1c5e215cfe3e","6213ce04213869dae5884be0","","","","","<p style=""color:red;font-size:24px;"">Error :(</p>","",""
"3400","key","n","n","8.334644607842932","500","250","psychophysics","263","570738","0.0-263.0","5f4a5b3dccae1c5e215cfe3e","6213ce04213869dae5884be0","5","","","","","0","4"
"null","","","null","","","","html-keyboard-response","264","571240","0.0-264.0","5f4a5b3dccae1c5e215cfe3e","6213ce04213869dae5884be0","","","","","<p style=""color:darkgreen;font-size:24px;"">Correct :)</p>","",""
"3717","key","n","n","8.335049327354326","500","250","psychophysics","265","574959","0.0-265.0","5f4a5b3dccae1c5e215cfe3e","6213ce04213869dae5884be0","5","","","","","0","4"
"null","","","null","","","","html-keyboard-response","266","575461","0.0-266.0","5f4a5b3dccae1c5e215cfe3e","6213ce04213869dae5884be0","","","","","<p style=""color:darkgreen;font-size:24px;"">Correct :)</p>","",""
"2965","key","n","n","8.334598314606655","500","250","psychophysics","267","578428","0.0-267.0","5f4a5b3dccae1c5e215cfe3e","6213ce04213869dae5884be0","5","","","","","0","2"
"null","","","null","","","","html-keyboard-response","268","578929","0.0-268.0","5f4a5b3dccae1c5e215cfe3e","6213ce04213869dae5884be0","","","","","<p style=""color:darkgreen;font-size:24px;"">Correct :)</p>","",""
"3240","key","v","v","8.33467609254502","500","250","psychophysics","269","582172","0.0-269.0","5f4a5b3dccae1c5e215cfe3e","6213ce04213869dae5884be0","5","","","","","0","7"
"null","","","null","","","","html-keyboard-response","270","582673","0.0-270.0","5f4a5b3dccae1c5e215cfe3e","6213ce04213869dae5884be0","","","","","<p style=""color:darkgreen;font-size:24px;"">Correct :)</p>","",""
"2708","key","n","n","8.334705521472575","500","250","psychophysics","271","585384","0.0-271.0","5f4a5b3dccae1c5e215cfe3e","6213ce04213869dae5884be0","5","","","","","0","2"
"null","","","null","","","","html-keyboard-response","272","585887","0.0-272.0","5f4a5b3dccae1c5e215cfe3e","6213ce04213869dae5884be0","","","","","<p style=""color:darkgreen;font-size:24px;"">Correct :)</p>","",""
"2542","key","n","n","8.334586885245898","500","250","psychophysics","273","588431","0.0-273.0","5f4a5b3dccae1c5e215cfe3e","6213ce04213869dae5884be0","5","","","","","0","8"
"null","","","null","","","","html-keyboard-response","274","588932","0.0-274.0","5f4a5b3dccae1c5e215cfe3e","6213ce04213869dae5884be0","","","","","<p style=""color:darkgreen;font-size:24px;"">Correct :)</p>","",""
"2660","key","n","n","8.334628125000018","500","250","psychophysics","275","591597","0.0-275.0","5f4a5b3dccae1c5e215cfe3e","6213ce04213869dae5884be0","5","","","","","0","2"
"null","","","null","","","","html-keyboard-response","276","592099","0.0-276.0","5f4a5b3dccae1c5e215cfe3e","6213ce04213869dae5884be0","","","","","<p style=""color:darkgreen;font-size:24px;"">Correct :)</p>","",""
"2871","key","v","v","8.334904347825795","500","250","psychophysics","277","594973","0.0-277.0","5f4a5b3dccae1c5e215cfe3e","6213ce04213869dae5884be0","5","","","","","0","1"
"null","","","null","","","","html-keyboard-response","278","595474","0.0-278.0","5f4a5b3dccae1c5e215cfe3e","6213ce04213869dae5884be0","","","","","<p style=""color:darkgreen;font-size:24px;"">Correct :)</p>","",""
"5385","key","v","v","8.334828173374612","500","250","psychophysics","279","600861","0.0-279.0","5f4a5b3dccae1c5e215cfe3e","6213ce04213869dae5884be0","5","","","","","0","1"
"null","","","null","","","","html-keyboard-response","280","601362","0.0-280.0","5f4a5b3dccae1c5e215cfe3e","6213ce04213869dae5884be0","","","","","<p style=""color:darkgreen;font-size:24px;"">Correct :)</p>","",""
"3580","key","n","n","8.334986013986088","500","250","psychophysics","281","604945","0.0-281.0","5f4a5b3dccae1c5e215cfe3e","6213ce04213869dae5884be0","5","","","","","0","7"
"null","","","null","","","","html-keyboard-response","282","605447","0.0-282.0","5f4a5b3dccae1c5e215cfe3e","6213ce04213869dae5884be0","","","","","<p style=""color:red;font-size:24px;"">Error :(</p>","",""
"2455","key","n","n","8.334894557823237","500","250","psychophysics","283","607904","0.0-283.0","5f4a5b3dccae1c5e215cfe3e","6213ce04213869dae5884be0","5","","","","","0","8"
"null","","","null","","","","html-keyboard-response","284","608407","0.0-284.0","5f4a5b3dccae1c5e215cfe3e","6213ce04213869dae5884be0","","","","","<p style=""color:darkgreen;font-size:24px;"">Correct :)</p>","",""
"4100","key","v","v","8.35190427698581","500","250","psychophysics","285","612511","0.0-285.0","5f4a5b3dccae1c5e215cfe3e","6213ce04213869dae5884be0","5","","","","","0","7"
"null","","","null","","","","html-keyboard-response","286","613013","0.0-286.0","5f4a5b3dccae1c5e215cfe3e","6213ce04213869dae5884be0","","","","","<p style=""color:darkgreen;font-size:24px;"">Correct :)</p>","",""
"3165","key","v","v","8.334680738786387","500","250","psychophysics","287","616180","0.0-287.0","5f4a5b3dccae1c5e215cfe3e","6213ce04213869dae5884be0","5","","","","","0","9"
"null","","","null","","","","html-keyboard-response","288","616682","0.0-288.0","5f4a5b3dccae1c5e215cfe3e","6213ce04213869dae5884be0","","","","","<p style=""color:darkgreen;font-size:24px;"">Correct :)</p>","",""
"3138","key","v","v","8.334890957446794","500","250","psychophysics","289","619822","0.0-289.0","5f4a5b3dccae1c5e215cfe3e","6213ce04213869dae5884be0","5","","","","","0","3"
"null","","","null","","","","html-keyboard-response","290","620323","0.0-290.0","5f4a5b3dccae1c5e215cfe3e","6213ce04213869dae5884be0","","","","","<p style=""color:darkgreen;font-size:24px;"">Correct :)</p>","",""
"3015","key","n","n","8.334925414364687","500","250","psychophysics","291","623342","0.0-291.0","5f4a5b3dccae1c5e215cfe3e","6213ce04213869dae5884be0","5","","","","","0","4"
"null","","","null","","","","html-keyboard-response","292","623843","0.0-292.0","5f4a5b3dccae1c5e215cfe3e","6213ce04213869dae5884be0","","","","","<p style=""color:darkgreen;font-size:24px;"">Correct :)</p>","",""
"2572","key","n","n","8.334870550161737","500","250","psychophysics","293","626417","0.0-293.0","5f4a5b3dccae1c5e215cfe3e","6213ce04213869dae5884be0","5","","","","","0","2"
"null","","","null","","","","html-keyboard-response","294","626918","0.0-294.0","5f4a5b3dccae1c5e215cfe3e","6213ce04213869dae5884be0","","","","","<p style=""color:darkgreen;font-size:24px;"">Correct :)</p>","",""
"8725","","","v","","","","html-keyboard-response","295","635643","0.0-295.0","5f4a5b3dccae1c5e215cfe3e","6213ce04213869dae5884be0","","","","","<p> Here, the tasks are going to switch.  For some trials, your job is to decide if the digit is less than or greater than 5.  For others, it is to decide if the digit is even or odd.  You will be told which type of trial the current one is.  But, pay attention, the type of trial changes too.  We are going to do 50 of these.  </p>  <br><br>  Ready? (press v or n)","",""
"3754","key","n","n","8.336324444444488","500","250","psychophysics","296","639400","0.0-296.0","5f4a5b3dccae1c5e215cfe3e","6213ce04213869dae5884be0","6","","","","","1","9"
"null","","","null","","","","html-keyboard-response","297","639901","0.0-297.0","5f4a5b3dccae1c5e215cfe3e","6213ce04213869dae5884be0","","","","","<p style=""color:darkgreen;font-size:24px;"">Correct :)</p>","",""
"3372","key","v","v","8.33483910891066","500","250","psychophysics","298","643276","0.0-298.0","5f4a5b3dccae1c5e215cfe3e","6213ce04213869dae5884be0","6","","","","","0","9"
"null","","","null","","","","html-keyboard-response","299","643777","0.0-299.0","5f4a5b3dccae1c5e215cfe3e","6213ce04213869dae5884be0","","","","","<p style=""color:darkgreen;font-size:24px;"">Correct :)</p>","",""
"3113","key","n","n","8.334635388739681","500","250","psychophysics","300","646893","0.0-300.0","5f4a5b3dccae1c5e215cfe3e","6213ce04213869dae5884be0","6","","","","","1","9"
"null","","","null","","","","html-keyboard-response","301","647394","0.0-301.0","5f4a5b3dccae1c5e215cfe3e","6213ce04213869dae5884be0","","","","","<p style=""color:darkgreen;font-size:24px;"">Correct :)</p>","",""
"3702","key","v","v","8.334797297297088","500","250","psychophysics","302","651099","0.0-302.0","5f4a5b3dccae1c5e215cfe3e","6213ce04213869dae5884be0","6","","","","","0","9"
"null","","","null","","","","html-keyboard-response","303","651600","0.0-303.0","5f4a5b3dccae1c5e215cfe3e","6213ce04213869dae5884be0","","","","","<p style=""color:darkgreen;font-size:24px;"">Correct :)</p>","",""
"4421","key","v","v","8.350500000000027","500","250","psychophysics","304","656022","0.0-304.0","5f4a5b3dccae1c5e215cfe3e","6213ce04213869dae5884be0","6","","","","","1","4"
"null","","","null","","","","html-keyboard-response","305","656524","0.0-305.0","5f4a5b3dccae1c5e215cfe3e","6213ce04213869dae5884be0","","","","","<p style=""color:darkgreen;font-size:24px;"">Correct :)</p>","",""
"3147","key","v","v","8.356907161803724","500","250","psychophysics","306","659674","0.0-306.0","5f4a5b3dccae1c5e215cfe3e","6213ce04213869dae5884be0","6","","","","","1","3"
"null","","","null","","","","html-keyboard-response","307","660175","0.0-307.0","5f4a5b3dccae1c5e215cfe3e","6213ce04213869dae5884be0","","","","","<p style=""color:darkgreen;font-size:24px;"">Correct :)</p>","",""
"3270","key","v","v","8.334824427480942","500","250","psychophysics","308","663447","0.0-308.0","5f4a5b3dccae1c5e215cfe3e","6213ce04213869dae5884be0","6","","","","","0","3"
"null","","","null","","","","html-keyboard-response","309","663948","0.0-309.0","5f4a5b3dccae1c5e215cfe3e","6213ce04213869dae5884be0","","","","","<p style=""color:darkgreen;font-size:24px;"">Correct :)</p>","",""
"3163","key","n","n","8.356809523809398","500","250","psychophysics","310","667113","0.0-310.0","5f4a5b3dccae1c5e215cfe3e","6213ce04213869dae5884be0","6","","","","","0","6"
"null","","","null","","","","html-keyboard-response","311","667620","0.0-311.0","5f4a5b3dccae1c5e215cfe3e","6213ce04213869dae5884be0","","","","","<p style=""color:darkgreen;font-size:24px;"">Correct :)</p>","",""
"3347","key","v","v","8.334661691542252","500","250","psychophysics","312","670969","0.0-312.0","5f4a5b3dccae1c5e215cfe3e","6213ce04213869dae5884be0","6","","","","","0","9"
"null","","","null","","","","html-keyboard-response","313","671470","0.0-313.0","5f4a5b3dccae1c5e215cfe3e","6213ce04213869dae5884be0","","","","","<p style=""color:darkgreen;font-size:24px;"">Correct :)</p>","",""
"8310","key","n","n","8.334877632898602","500","250","psychophysics","314","679781","0.0-314.0","5f4a5b3dccae1c5e215cfe3e","6213ce04213869dae5884be0","6","","","","","0","8"
"null","","","null","","","","html-keyboard-response","315","680283","0.0-315.0","5f4a5b3dccae1c5e215cfe3e","6213ce04213869dae5884be0","","","","","<p style=""color:darkgreen;font-size:24px;"">Correct :)</p>","",""
"5605","key","n","n","8.334712797618911","500","250","psychophysics","316","685889","0.0-316.0","5f4a5b3dccae1c5e215cfe3e","6213ce04213869dae5884be0","6","","","","","0","8"
"null","","","null","","","","html-keyboard-response","317","686391","0.0-317.0","5f4a5b3dccae1c5e215cfe3e","6213ce04213869dae5884be0","","","","","<p style=""color:darkgreen;font-size:24px;"">Correct :)</p>","",""
"4085","key","v","v","8.334824489795945","500","250","psychophysics","318","690479","0.0-318.0","5f4a5b3dccae1c5e215cfe3e","6213ce04213869dae5884be0","6","","","","","1","3"
"null","","","null","","","","html-keyboard-response","319","690981","0.0-319.0","5f4a5b3dccae1c5e215cfe3e","6213ce04213869dae5884be0","","","","","<p style=""color:darkgreen;font-size:24px;"">Correct :)</p>","",""
"2906","key","n","n","8.334808022922632","500","250","psychophysics","320","693889","0.0-320.0","5f4a5b3dccae1c5e215cfe3e","6213ce04213869dae5884be0","6","","","","","0","2"
"null","","","null","","","","html-keyboard-response","321","694391","0.0-321.0","5f4a5b3dccae1c5e215cfe3e","6213ce04213869dae5884be0","","","","","<p style=""color:darkgreen;font-size:24px;"">Correct :)</p>","",""
"4213","key","v","v","8.401193227091817","500","250","psychophysics","322","698607","0.0-322.0","5f4a5b3dccae1c5e215cfe3e","6213ce04213869dae5884be0","6","","","","","1","7"
"null","","","null","","","","html-keyboard-response","323","699108","0.0-323.0","5f4a5b3dccae1c5e215cfe3e","6213ce04213869dae5884be0","","","","","<p style=""color:red;font-size:24px;"">Error :(</p>","",""
"2774","key","n","n","8.33475975975969","500","250","psychophysics","324","701885","0.0-324.0","5f4a5b3dccae1c5e215cfe3e","6213ce04213869dae5884be0","6","","","","","0","8"
"null","","","null","","","","html-keyboard-response","325","702386","0.0-325.0","5f4a5b3dccae1c5e215cfe3e","6213ce04213869dae5884be0","","","","","<p style=""color:darkgreen;font-size:24px;"">Correct :)</p>","",""
"2689","key","v","v","8.334913043478092","500","250","psychophysics","326","705077","0.0-326.0","5f4a5b3dccae1c5e215cfe3e","6213ce04213869dae5884be0","6","","","","","0","1"
"null","","","null","","","","html-keyboard-response","327","705579","0.0-327.0","5f4a5b3dccae1c5e215cfe3e","6213ce04213869dae5884be0","","","","","<p style=""color:darkgreen;font-size:24px;"">Correct :)</p>","",""
"3155","key","v","v","8.356809018567619","500","250","psychophysics","328","708736","0.0-328.0","5f4a5b3dccae1c5e215cfe3e","6213ce04213869dae5884be0","6","","","","","0","9"
"null","","","null","","","","html-keyboard-response","329","709237","0.0-329.0","5f4a5b3dccae1c5e215cfe3e","6213ce04213869dae5884be0","","","","","<p style=""color:darkgreen;font-size:24px;"">Correct :)</p>","",""
"3237","key","n","n","8.334899484536061","500","250","psychophysics","330","712476","0.0-330.0","5f4a5b3dccae1c5e215cfe3e","6213ce04213869dae5884be0","6","","","","","1","7"
"null","","","null","","","","html-keyboard-response","331","712976","0.0-331.0","5f4a5b3dccae1c5e215cfe3e","6213ce04213869dae5884be0","","","","","<p style=""color:darkgreen;font-size:24px;"">Correct :)</p>","",""
"5131","key","v","v","8.334842532467402","500","250","psychophysics","332","718110","0.0-332.0","5f4a5b3dccae1c5e215cfe3e","6213ce04213869dae5884be0","6","","","","","1","1"
"null","","","null","","","","html-keyboard-response","333","718611","0.0-333.0","5f4a5b3dccae1c5e215cfe3e","6213ce04213869dae5884be0","","","","","<p style=""color:darkgreen;font-size:24px;"">Correct :)</p>","",""
"4700","key","n","n","8.334806737588663","500","250","psychophysics","334","723312","0.0-334.0","5f4a5b3dccae1c5e215cfe3e","6213ce04213869dae5884be0","6","","","","","0","6"
"null","","","null","","","","html-keyboard-response","335","723814","0.0-335.0","5f4a5b3dccae1c5e215cfe3e","6213ce04213869dae5884be0","","","","","<p style=""color:darkgreen;font-size:24px;"">Correct :)</p>","",""
"3247","key","n","n","8.3350642673524","500","250","psychophysics","336","727063","0.0-336.0","5f4a5b3dccae1c5e215cfe3e","6213ce04213869dae5884be0","6","","","","","0","8"
"null","","","null","","","","html-keyboard-response","337","727565","0.0-337.0","5f4a5b3dccae1c5e215cfe3e","6213ce04213869dae5884be0","","","","","<p style=""color:darkgreen;font-size:24px;"">Correct :)</p>","",""
"5462","key","n","n","8.334899236641306","500","250","psychophysics","338","733029","0.0-338.0","5f4a5b3dccae1c5e215cfe3e","6213ce04213869dae5884be0","6","","","","","1","6"
"null","","","null","","","","html-keyboard-response","339","733530","0.0-339.0","5f4a5b3dccae1c5e215cfe3e","6213ce04213869dae5884be0","","","","","<p style=""color:darkgreen;font-size:24px;"">Correct :)</p>","",""
"3627","key","n","n","8.35389195402292","500","250","psychophysics","340","737159","0.0-340.0","5f4a5b3dccae1c5e215cfe3e","6213ce04213869dae5884be0","6","","","","","1","4"
"null","","","null","","","","html-keyboard-response","341","737661","0.0-341.0","5f4a5b3dccae1c5e215cfe3e","6213ce04213869dae5884be0","","","","","<p style=""color:red;font-size:24px;"">Error :(</p>","",""
"6839","key","v","v","8.334572472594408","500","250","psychophysics","342","744502","0.0-342.0","5f4a5b3dccae1c5e215cfe3e","6213ce04213869dae5884be0","6","","","","","1","2"
"null","","","null","","","","html-keyboard-response","343","745004","0.0-343.0","5f4a5b3dccae1c5e215cfe3e","6213ce04213869dae5884be0","","","","","<p style=""color:darkgreen;font-size:24px;"">Correct :)</p>","",""
"3418","key","n","n","8.334580487805056","500","250","psychophysics","344","748424","0.0-344.0","5f4a5b3dccae1c5e215cfe3e","6213ce04213869dae5884be0","6","","","","","0","8"
"null","","","null","","","","html-keyboard-response","345","748926","0.0-345.0","5f4a5b3dccae1c5e215cfe3e","6213ce04213869dae5884be0","","","","","<p style=""color:darkgreen;font-size:24px;"">Correct :)</p>","",""
"5319","key","v","v","8.33477308294198","500","250","psychophysics","346","754247","0.0-346.0","5f4a5b3dccae1c5e215cfe3e","6213ce04213869dae5884be0","6","","","","","1","4"
"null","","","null","","","","html-keyboard-response","347","754749","0.0-347.0","5f4a5b3dccae1c5e215cfe3e","6213ce04213869dae5884be0","","","","","<p style=""color:darkgreen;font-size:24px;"">Correct :)</p>","",""
"7769","key","v","v","8.334806866952706","500","250","psychophysics","348","762520","0.0-348.0","5f4a5b3dccae1c5e215cfe3e","6213ce04213869dae5884be0","6","","","","","0","1"
"null","","","null","","","","html-keyboard-response","349","763022","0.0-349.0","5f4a5b3dccae1c5e215cfe3e","6213ce04213869dae5884be0","","","","","<p style=""color:darkgreen;font-size:24px;"">Correct :)</p>","",""
"8241","key","n","n","8.334681496461071","500","250","psychophysics","350","771265","0.0-350.0","5f4a5b3dccae1c5e215cfe3e","6213ce04213869dae5884be0","6","","","","","1","9"
"null","","","null","","","","html-keyboard-response","351","771773","0.0-351.0","5f4a5b3dccae1c5e215cfe3e","6213ce04213869dae5884be0","","","","","<p style=""color:darkgreen;font-size:24px;"">Correct :)</p>","",""
"5886","key","v","v","8.334780453257764","500","250","psychophysics","352","777662","0.0-352.0","5f4a5b3dccae1c5e215cfe3e","6213ce04213869dae5884be0","6","","","","","0","9"
"null","","","null","","","","html-keyboard-response","353","778172","0.0-353.0","5f4a5b3dccae1c5e215cfe3e","6213ce04213869dae5884be0","","","","","<p style=""color:darkgreen;font-size:24px;"">Correct :)</p>","",""
"4970","key","n","n","8.348904362415986","500","250","psychophysics","354","783147","0.0-354.0","5f4a5b3dccae1c5e215cfe3e","6213ce04213869dae5884be0","6","","","","","0","8"
"null","","","null","","","","html-keyboard-response","355","783657","0.0-355.0","5f4a5b3dccae1c5e215cfe3e","6213ce04213869dae5884be0","","","","","<p style=""color:darkgreen;font-size:24px;"">Correct :)</p>","",""
"4537","key","n","n","8.334897247706369","500","250","psychophysics","356","788197","0.0-356.0","5f4a5b3dccae1c5e215cfe3e","6213ce04213869dae5884be0","6","","","","","1","6"
"null","","","null","","","","html-keyboard-response","357","788699","0.0-357.0","5f4a5b3dccae1c5e215cfe3e","6213ce04213869dae5884be0","","","","","<p style=""color:darkgreen;font-size:24px;"">Correct :)</p>","",""
"3015","key","n","n","8.334881215469812","500","250","psychophysics","358","791717","0.0-358.0","5f4a5b3dccae1c5e215cfe3e","6213ce04213869dae5884be0","6","","","","","0","8"
"null","","","null","","","","html-keyboard-response","359","792218","0.0-359.0","5f4a5b3dccae1c5e215cfe3e","6213ce04213869dae5884be0","","","","","<p style=""color:darkgreen;font-size:24px;"">Correct :)</p>","",""
"2800","key","n","n","8.33476190476185","500","250","psychophysics","360","795020","0.0-360.0","5f4a5b3dccae1c5e215cfe3e","6213ce04213869dae5884be0","6","","","","","0","6"
"null","","","null","","","","html-keyboard-response","361","795521","0.0-361.0","5f4a5b3dccae1c5e215cfe3e","6213ce04213869dae5884be0","","","","","<p style=""color:darkgreen;font-size:24px;"">Correct :)</p>","",""
"2475","key","v","v","8.334380471380427","500","250","psychophysics","362","797998","0.0-362.0","5f4a5b3dccae1c5e215cfe3e","6213ce04213869dae5884be0","6","","","","","1","1"
"null","","","null","","","","html-keyboard-response","363","798500","0.0-363.0","5f4a5b3dccae1c5e215cfe3e","6213ce04213869dae5884be0","","","","","<p style=""color:darkgreen;font-size:24px;"">Correct :)</p>","",""
"4193","key","v","v","8.33479166666664","500","250","psychophysics","364","802696","0.0-364.0","5f4a5b3dccae1c5e215cfe3e","6213ce04213869dae5884be0","6","","","","","1","2"
"null","","","null","","","","html-keyboard-response","365","803206","0.0-365.0","5f4a5b3dccae1c5e215cfe3e","6213ce04213869dae5884be0","","","","","<p style=""color:darkgreen;font-size:24px;"">Correct :)</p>","",""
"3510","key","v","v","8.334750593824074","500","250","psychophysics","366","806720","0.0-366.0","5f4a5b3dccae1c5e215cfe3e","6213ce04213869dae5884be0","6","","","","","0","9"
"null","","","null","","","","html-keyboard-response","367","807222","0.0-367.0","5f4a5b3dccae1c5e215cfe3e","6213ce04213869dae5884be0","","","","","<p style=""color:darkgreen;font-size:24px;"">Correct :)</p>","",""
"2814","key","n","n","8.434467065868157","500","250","psychophysics","368","810038","0.0-368.0","5f4a5b3dccae1c5e215cfe3e","6213ce04213869dae5884be0","6","","","","","0","4"
"null","","","null","","","","html-keyboard-response","369","810539","0.0-369.0","5f4a5b3dccae1c5e215cfe3e","6213ce04213869dae5884be0","","","","","<p style=""color:darkgreen;font-size:24px;"">Correct :)</p>","",""
"3539","key","n","n","8.334997647058712","500","250","psychophysics","370","814080","0.0-370.0","5f4a5b3dccae1c5e215cfe3e","6213ce04213869dae5884be0","6","","","","","0","2"
"null","","","null","","","","html-keyboard-response","371","814582","0.0-371.0","5f4a5b3dccae1c5e215cfe3e","6213ce04213869dae5884be0","","","","","<p style=""color:darkgreen;font-size:24px;"">Correct :)</p>","",""
"2772","key","v","v","8.334741741741515","500","250","psychophysics","372","817357","0.0-372.0","5f4a5b3dccae1c5e215cfe3e","6213ce04213869dae5884be0","6","","","","","0","7"
"null","","","null","","","","html-keyboard-response","373","817859","0.0-373.0","5f4a5b3dccae1c5e215cfe3e","6213ce04213869dae5884be0","","","","","<p style=""color:darkgreen;font-size:24px;"">Correct :)</p>","",""
"8118","key","v","v","8.343307297019468","500","250","psychophysics","374","825980","0.0-374.0","5f4a5b3dccae1c5e215cfe3e","6213ce04213869dae5884be0","6","","","","","1","1"
"null","","","null","","","","html-keyboard-response","375","826481","0.0-375.0","5f4a5b3dccae1c5e215cfe3e","6213ce04213869dae5884be0","","","","","<p style=""color:darkgreen;font-size:24px;"">Correct :)</p>","",""
"6780","key","v","v","8.334843788437889","500","250","psychophysics","376","833264","0.0-376.0","5f4a5b3dccae1c5e215cfe3e","6213ce04213869dae5884be0","6","","","","","1","2"
"null","","","null","","","","html-keyboard-response","377","833765","0.0-377.0","5f4a5b3dccae1c5e215cfe3e","6213ce04213869dae5884be0","","","","","<p style=""color:darkgreen;font-size:24px;"">Correct :)</p>","",""
"3353","key","n","n","8.334898263027386","500","250","psychophysics","378","837121","0.0-378.0","5f4a5b3dccae1c5e215cfe3e","6213ce04213869dae5884be0","6","","","","","1","9"
"null","","","null","","","","html-keyboard-response","379","837622","0.0-379.0","5f4a5b3dccae1c5e215cfe3e","6213ce04213869dae5884be0","","","","","<p style=""color:darkgreen;font-size:24px;"">Correct :)</p>","",""
"2931","key","v","v","8.33482670454528","500","250","psychophysics","380","840556","0.0-380.0","5f4a5b3dccae1c5e215cfe3e","6213ce04213869dae5884be0","6","","","","","0","3"
"null","","","null","","","","html-keyboard-response","381","841057","0.0-381.0","5f4a5b3dccae1c5e215cfe3e","6213ce04213869dae5884be0","","","","","<p style=""color:darkgreen;font-size:24px;"">Correct :)</p>","",""
"2971","key","n","n","8.334650837988645","500","250","psychophysics","382","844038","0.0-382.0","5f4a5b3dccae1c5e215cfe3e","6213ce04213869dae5884be0","6","","","","","0","2"
"null","","","null","","","","html-keyboard-response","383","844540","0.0-383.0","5f4a5b3dccae1c5e215cfe3e","6213ce04213869dae5884be0","","","","","<p style=""color:darkgreen;font-size:24px;"">Correct :)</p>","",""
"4122","key","v","v","8.334838383838374","500","250","psychophysics","384","848664","0.0-384.0","5f4a5b3dccae1c5e215cfe3e","6213ce04213869dae5884be0","6","","","","","1","1"
"null","","","null","","","","html-keyboard-response","385","849166","0.0-385.0","5f4a5b3dccae1c5e215cfe3e","6213ce04213869dae5884be0","","","","","<p style=""color:darkgreen;font-size:24px;"">Correct :)</p>","",""
"3352","key","v","v","8.334585607940419","500","250","psychophysics","386","852520","0.0-386.0","5f4a5b3dccae1c5e215cfe3e","6213ce04213869dae5884be0","6","","","","","1","4"
"null","","","null","","","","html-keyboard-response","387","853022","0.0-387.0","5f4a5b3dccae1c5e215cfe3e","6213ce04213869dae5884be0","","","","","<p style=""color:darkgreen;font-size:24px;"">Correct :)</p>","",""
"3429","key","n","n","8.334549878345499","500","250","psychophysics","388","856452","0.0-388.0","5f4a5b3dccae1c5e215cfe3e","6213ce04213869dae5884be0","6","","","","","0","6"
"null","","","null","","","","html-keyboard-response","389","856953","0.0-389.0","5f4a5b3dccae1c5e215cfe3e","6213ce04213869dae5884be0","","","","","<p style=""color:darkgreen;font-size:24px;"">Correct :)</p>","",""
"4258","key","v","v","8.334890410959048","500","250","psychophysics","390","861213","0.0-390.0","5f4a5b3dccae1c5e215cfe3e","6213ce04213869dae5884be0","6","","","","","0","2"
"null","","","null","","","","html-keyboard-response","391","861714","0.0-391.0","5f4a5b3dccae1c5e215cfe3e","6213ce04213869dae5884be0","","","","","<p style=""color:red;font-size:24px;"">Error :(</p>","",""
"3339","key","n","n","8.334857855361719","500","250","psychophysics","392","865055","0.0-392.0","5f4a5b3dccae1c5e215cfe3e","6213ce04213869dae5884be0","6","","","","","1","9"
"null","","","null","","","","html-keyboard-response","393","865556","0.0-393.0","5f4a5b3dccae1c5e215cfe3e","6213ce04213869dae5884be0","","","","","<p style=""color:darkgreen;font-size:24px;"">Correct :)</p>","",""
"6495","key","v","v","8.345516709511612","500","250","psychophysics","394","872053","0.0-394.0","5f4a5b3dccae1c5e215cfe3e","6213ce04213869dae5884be0","6","","","","","0","9"
"null","","","null","","","","html-keyboard-response","395","872555","0.0-395.0","5f4a5b3dccae1c5e215cfe3e","6213ce04213869dae5884be0","","","","","<p style=""color:darkgreen;font-size:24px;"">Correct :)</p>","",""
"7040","","","v","","","","html-keyboard-response","396","879595","0.0-396.0","5f4a5b3dccae1c5e215cfe3e","6213ce04213869dae5884be0","","","","","<p> Last set of trials.  Here, the tasks are going to switch once again.  We are going to do 50 of these.  And then you are done with the experiment.  </p>  <br><br>  Ready? (press v or n)","",""
"3989","key","v","v","8.335947807933183","500","250","psychophysics","397","883585","0.0-397.0","5f4a5b3dccae1c5e215cfe3e","6213ce04213869dae5884be0","7","","","","","0","3"
"null","","","null","","","","html-keyboard-response","398","884088","0.0-398.0","5f4a5b3dccae1c5e215cfe3e","6213ce04213869dae5884be0","","","","","<p style=""color:darkgreen;font-size:24px;"">Correct :)</p>","",""
"3573","key","v","v","8.334636363636383","500","250","psychophysics","399","887663","0.0-399.0","5f4a5b3dccae1c5e215cfe3e","6213ce04213869dae5884be0","7","","","","","1","2"
"null","","","null","","","","html-keyboard-response","400","888164","0.0-400.0","5f4a5b3dccae1c5e215cfe3e","6213ce04213869dae5884be0","","","","","<p style=""color:darkgreen;font-size:24px;"">Correct :)</p>","",""
"4196","key","n","n","8.334787698412713","500","250","psychophysics","401","892362","0.0-401.0","5f4a5b3dccae1c5e215cfe3e","6213ce04213869dae5884be0","7","","","","","0","2"
"null","","","null","","","","html-keyboard-response","402","892863","0.0-402.0","5f4a5b3dccae1c5e215cfe3e","6213ce04213869dae5884be0","","","","","<p style=""color:darkgreen;font-size:24px;"">Correct :)</p>","",""
"2893","key","v","v","8.334824207492819","500","250","psychophysics","403","895758","0.0-403.0","5f4a5b3dccae1c5e215cfe3e","6213ce04213869dae5884be0","7","","","","","0","1"
"null","","","null","","","","html-keyboard-response","404","896260","0.0-404.0","5f4a5b3dccae1c5e215cfe3e","6213ce04213869dae5884be0","","","","","<p style=""color:darkgreen;font-size:24px;"">Correct :)</p>","",""
"3328","key","v","v","8.334869674185494","500","250","psychophysics","405","899590","0.0-405.0","5f4a5b3dccae1c5e215cfe3e","6213ce04213869dae5884be0","7","","","","","1","7"
"null","","","null","","","","html-keyboard-response","406","900090","0.0-406.0","5f4a5b3dccae1c5e215cfe3e","6213ce04213869dae5884be0","","","","","<p style=""color:red;font-size:24px;"">Error :(</p>","",""
"2797","key","n","n","8.334693452380764","500","250","psychophysics","407","902889","0.0-407.0","5f4a5b3dccae1c5e215cfe3e","6213ce04213869dae5884be0","7","","","","","0","6"
"null","","","null","","","","html-keyboard-response","408","903391","0.0-408.0","5f4a5b3dccae1c5e215cfe3e","6213ce04213869dae5884be0","","","","","<p style=""color:darkgreen;font-size:24px;"">Correct :)</p>","",""
"6767","key","n","n","8.33471921182268","500","250","psychophysics","409","910160","0.0-409.0","5f4a5b3dccae1c5e215cfe3e","6213ce04213869dae5884be0","7","","","","","1","7"
"null","","","null","","","","html-keyboard-response","410","910662","0.0-410.0","5f4a5b3dccae1c5e215cfe3e","6213ce04213869dae5884be0","","","","","<p style=""color:darkgreen;font-size:24px;"">Correct :)</p>","",""
"3504","key","n","n","8.334728571428595","500","250","psychophysics","411","914168","0.0-411.0","5f4a5b3dccae1c5e215cfe3e","6213ce04213869dae5884be0","7","","","","","0","6"
"null","","","null","","","","html-keyboard-response","412","914669","0.0-412.0","5f4a5b3dccae1c5e215cfe3e","6213ce04213869dae5884be0","","","","","<p style=""color:darkgreen;font-size:24px;"">Correct :)</p>","",""
"3214","key","n","n","8.334735751295296","500","250","psychophysics","413","917885","0.0-413.0","5f4a5b3dccae1c5e215cfe3e","6213ce04213869dae5884be0","7","","","","","0","4"
"null","","","null","","","","html-keyboard-response","414","918387","0.0-414.0","5f4a5b3dccae1c5e215cfe3e","6213ce04213869dae5884be0","","","","","<p style=""color:darkgreen;font-size:24px;"">Correct :)</p>","",""
"2745","key","n","n","8.334848484848484","500","250","psychophysics","415","921134","0.0-415.0","5f4a5b3dccae1c5e215cfe3e","6213ce04213869dae5884be0","7","","","","","0","6"
"null","","","null","","","","html-keyboard-response","416","921635","0.0-416.0","5f4a5b3dccae1c5e215cfe3e","6213ce04213869dae5884be0","","","","","<p style=""color:darkgreen;font-size:24px;"">Correct :)</p>","",""
"2643","key","n","n","8.334829652997039","500","250","psychophysics","417","924281","0.0-417.0","5f4a5b3dccae1c5e215cfe3e","6213ce04213869dae5884be0","7","","","","","0","4"
"null","","","null","","","","html-keyboard-response","418","924783","0.0-418.0","5f4a5b3dccae1c5e215cfe3e","6213ce04213869dae5884be0","","","","","<p style=""color:darkgreen;font-size:24px;"">Correct :)</p>","",""
"2550","key","n","n","8.335068627450847","500","250","psychophysics","419","927335","0.0-419.0","5f4a5b3dccae1c5e215cfe3e","6213ce04213869dae5884be0","7","","","","","1","4"
"null","","","null","","","","html-keyboard-response","420","927848","0.0-420.0","5f4a5b3dccae1c5e215cfe3e","6213ce04213869dae5884be0","","","","","<p style=""color:red;font-size:24px;"">Error :(</p>","",""
"3635","key","n","n","8.33498623853212","500","250","psychophysics","421","931486","0.0-421.0","5f4a5b3dccae1c5e215cfe3e","6213ce04213869dae5884be0","7","","","","","0","2"
"null","","","null","","","","html-keyboard-response","422","931987","0.0-422.0","5f4a5b3dccae1c5e215cfe3e","6213ce04213869dae5884be0","","","","","<p style=""color:darkgreen;font-size:24px;"">Correct :)</p>","",""
"4430","key","n","n","8.33445676691726","500","250","psychophysics","423","936420","0.0-423.0","5f4a5b3dccae1c5e215cfe3e","6213ce04213869dae5884be0","7","","","","","0","4"
"null","","","null","","","","html-keyboard-response","424","936922","0.0-424.0","5f4a5b3dccae1c5e215cfe3e","6213ce04213869dae5884be0","","","","","<p style=""color:darkgreen;font-size:24px;"">Correct :)</p>","",""
"7023","key","v","v","8.33466666666661","500","250","psychophysics","425","943949","0.0-425.0","5f4a5b3dccae1c5e215cfe3e","6213ce04213869dae5884be0","7","","","","","1","2"
"null","","","null","","","","html-keyboard-response","426","944450","0.0-426.0","5f4a5b3dccae1c5e215cfe3e","6213ce04213869dae5884be0","","","","","<p style=""color:darkgreen;font-size:24px;"">Correct :)</p>","",""
"2448","key","v","v","8.335187074830074","500","250","psychophysics","427","946900","0.0-427.0","5f4a5b3dccae1c5e215cfe3e","6213ce04213869dae5884be0","7","","","","","1","4"
"null","","","null","","","","html-keyboard-response","428","947401","0.0-428.0","5f4a5b3dccae1c5e215cfe3e","6213ce04213869dae5884be0","","","","","<p style=""color:darkgreen;font-size:24px;"">Correct :)</p>","",""
"19611","key","n","n","8.334698682532975","500","250","psychophysics","429","967014","0.0-429.0","5f4a5b3dccae1c5e215cfe3e","6213ce04213869dae5884be0","7","","","","","0","2"
"null","","","null","","","","html-keyboard-response","430","967516","0.0-430.0","5f4a5b3dccae1c5e215cfe3e","6213ce04213869dae5884be0","","","","","<p style=""color:darkgreen;font-size:24px;"">Correct :)</p>","",""
"6941","key","v","v","8.334769507803136","500","250","psychophysics","431","974459","0.0-431.0","5f4a5b3dccae1c5e215cfe3e","6213ce04213869dae5884be0","7","","","","","0","7"
"null","","","null","","","","html-keyboard-response","432","974969","0.0-432.0","5f4a5b3dccae1c5e215cfe3e","6213ce04213869dae5884be0","","","","","<p style=""color:darkgreen;font-size:24px;"">Correct :)</p>","",""
"7313","key","n","n","8.334825740318855","500","250","psychophysics","433","982286","0.0-433.0","5f4a5b3dccae1c5e215cfe3e","6213ce04213869dae5884be0","7","","","","","1","6"
"null","","","null","","","","html-keyboard-response","434","982790","0.0-434.0","5f4a5b3dccae1c5e215cfe3e","6213ce04213869dae5884be0","","","","","<p style=""color:darkgreen;font-size:24px;"">Correct :)</p>","",""
"6615","key","n","n","8.334676322418145","500","250","psychophysics","435","989408","0.0-435.0","5f4a5b3dccae1c5e215cfe3e","6213ce04213869dae5884be0","7","","","","","1","6"
"null","","","null","","","","html-keyboard-response","436","989910","0.0-436.0","5f4a5b3dccae1c5e215cfe3e","6213ce04213869dae5884be0","","","","","<p style=""color:darkgreen;font-size:24px;"">Correct :)</p>","",""
"4552","key","n","n","8.350091743119352","500","250","psychophysics","437","994464","0.0-437.0","5f4a5b3dccae1c5e215cfe3e","6213ce04213869dae5884be0","7","","","","","0","2"
"null","","","null","","","","html-keyboard-response","438","994965","0.0-438.0","5f4a5b3dccae1c5e215cfe3e","6213ce04213869dae5884be0","","","","","<p style=""color:darkgreen;font-size:24px;"">Correct :)</p>","",""
"4894","key","v","v","8.334942176870742","500","250","psychophysics","439","999864","0.0-439.0","5f4a5b3dccae1c5e215cfe3e","6213ce04213869dae5884be0","7","","","","","1","3"
"null","","","null","","","","html-keyboard-response","440","1000366","0.0-440.0","5f4a5b3dccae1c5e215cfe3e","6213ce04213869dae5884be0","","","","","<p style=""color:darkgreen;font-size:24px;"">Correct :)</p>","",""
"3688","key","n","n","8.334498871332002","500","250","psychophysics","441","1004056","0.0-441.0","5f4a5b3dccae1c5e215cfe3e","6213ce04213869dae5884be0","7","","","","","1","6"
"null","","","null","","","","html-keyboard-response","442","1004558","0.0-442.0","5f4a5b3dccae1c5e215cfe3e","6213ce04213869dae5884be0","","","","","<p style=""color:darkgreen;font-size:24px;"">Correct :)</p>","",""
"7722","key","n","n","8.334782092772377","500","250","psychophysics","443","1012282","0.0-443.0","5f4a5b3dccae1c5e215cfe3e","6213ce04213869dae5884be0","7","","","","","1","6"
"null","","","null","","","","html-keyboard-response","444","1012783","0.0-444.0","5f4a5b3dccae1c5e215cfe3e","6213ce04213869dae5884be0","","","","","<p style=""color:darkgreen;font-size:24px;"">Correct :)</p>","",""
"5374","key","n","n","8.3348279069768","500","250","psychophysics","445","1018159","0.0-445.0","5f4a5b3dccae1c5e215cfe3e","6213ce04213869dae5884be0","7","","","","","1","7"
"null","","","null","","","","html-keyboard-response","446","1018661","0.0-446.0","5f4a5b3dccae1c5e215cfe3e","6213ce04213869dae5884be0","","","","","<p style=""color:darkgreen;font-size:24px;"">Correct :)</p>","",""
"9870","key","n","n","8.341798141891903","500","250","psychophysics","447","1028533","0.0-447.0","5f4a5b3dccae1c5e215cfe3e","6213ce04213869dae5884be0","7","","","","","0","2"
"null","","","null","","","","html-keyboard-response","448","1029036","0.0-448.0","5f4a5b3dccae1c5e215cfe3e","6213ce04213869dae5884be0","","","","","<p style=""color:darkgreen;font-size:24px;"">Correct :)</p>","",""
"4748","key","v","v","8.334821052631575","500","250","psychophysics","449","1033787","0.0-449.0","5f4a5b3dccae1c5e215cfe3e","6213ce04213869dae5884be0","7","","","","","1","1"
"null","","","null","","","","html-keyboard-response","450","1034288","0.0-450.0","5f4a5b3dccae1c5e215cfe3e","6213ce04213869dae5884be0","","","","","<p style=""color:darkgreen;font-size:24px;"">Correct :)</p>","",""
"3430","key","v","v","8.335016990291267","500","250","psychophysics","451","1037721","0.0-451.0","5f4a5b3dccae1c5e215cfe3e","6213ce04213869dae5884be0","7","","","","","0","1"
"null","","","null","","","","html-keyboard-response","452","1038222","0.0-452.0","5f4a5b3dccae1c5e215cfe3e","6213ce04213869dae5884be0","","","","","<p style=""color:darkgreen;font-size:24px;"">Correct :)</p>","",""
"2607","key","n","n","8.334629392971065","500","250","psychophysics","453","1040831","0.0-453.0","5f4a5b3dccae1c5e215cfe3e","6213ce04213869dae5884be0","7","","","","","0","4"
"null","","","null","","","","html-keyboard-response","454","1041332","0.0-454.0","5f4a5b3dccae1c5e215cfe3e","6213ce04213869dae5884be0","","","","","<p style=""color:darkgreen;font-size:24px;"">Correct :)</p>","",""
"4629","key","v","v","8.334884892086324","500","250","psychophysics","455","1045964","0.0-455.0","5f4a5b3dccae1c5e215cfe3e","6213ce04213869dae5884be0","7","","","","","1","2"
"null","","","null","","","","html-keyboard-response","456","1046465","0.0-456.0","5f4a5b3dccae1c5e215cfe3e","6213ce04213869dae5884be0","","","","","<p style=""color:darkgreen;font-size:24px;"">Correct :)</p>","",""
"4581","key","v","v","8.334887272727421","500","250","psychophysics","457","1051048","0.0-457.0","5f4a5b3dccae1c5e215cfe3e","6213ce04213869dae5884be0","7","","","","","0","3"
"null","","","null","","","","html-keyboard-response","458","1051550","0.0-458.0","5f4a5b3dccae1c5e215cfe3e","6213ce04213869dae5884be0","","","","","<p style=""color:darkgreen;font-size:24px;"">Correct :)</p>","",""
"2549","key","v","v","8.335003267973661","500","250","psychophysics","459","1054102","0.0-459.0","5f4a5b3dccae1c5e215cfe3e","6213ce04213869dae5884be0","7","","","","","0","3"
"null","","","null","","","","html-keyboard-response","460","1054604","0.0-460.0","5f4a5b3dccae1c5e215cfe3e","6213ce04213869dae5884be0","","","","","<p style=""color:darkgreen;font-size:24px;"">Correct :)</p>","",""
"3256","key","n","n","8.356282051282529","500","250","psychophysics","461","1057862","0.0-461.0","5f4a5b3dccae1c5e215cfe3e","6213ce04213869dae5884be0","7","","","","","0","4"
"null","","","null","","","","html-keyboard-response","462","1058364","0.0-462.0","5f4a5b3dccae1c5e215cfe3e","6213ce04213869dae5884be0","","","","","<p style=""color:darkgreen;font-size:24px;"">Correct :)</p>","",""
"2835","key","n","n","8.33499411764719","500","250","psychophysics","463","1061202","0.0-463.0","5f4a5b3dccae1c5e215cfe3e","6213ce04213869dae5884be0","7","","","","","1","7"
"null","","","null","","","","html-keyboard-response","464","1061703","0.0-464.0","5f4a5b3dccae1c5e215cfe3e","6213ce04213869dae5884be0","","","","","<p style=""color:darkgreen;font-size:24px;"">Correct :)</p>","",""
"2544","key","v","v","8.33484590163943","500","250","psychophysics","465","1064250","0.0-465.0","5f4a5b3dccae1c5e215cfe3e","6213ce04213869dae5884be0","7","","","","","1","6"
"null","","","null","","","","html-keyboard-response","466","1064750","0.0-466.0","5f4a5b3dccae1c5e215cfe3e","6213ce04213869dae5884be0","","","","","<p style=""color:red;font-size:24px;"">Error :(</p>","",""
"1171","key","v","v","8.335085106382794","500","250","psychophysics","467","1065924","0.0-467.0","5f4a5b3dccae1c5e215cfe3e","6213ce04213869dae5884be0","7","","","","","0","2"
"null","","","null","","","","html-keyboard-response","468","1066425","0.0-468.0","5f4a5b3dccae1c5e215cfe3e","6213ce04213869dae5884be0","","","","","<p style=""color:red;font-size:24px;"">Error :(</p>","",""
"2787","key","n","n","8.334898507462315","500","250","psychophysics","469","1069214","0.0-469.0","5f4a5b3dccae1c5e215cfe3e","6213ce04213869dae5884be0","7","","","","","1","7"
"null","","","null","","","","html-keyboard-response","470","1069715","0.0-470.0","5f4a5b3dccae1c5e215cfe3e","6213ce04213869dae5884be0","","","","","<p style=""color:darkgreen;font-size:24px;"">Correct :)</p>","",""
"2902","key","v","v","8.334887931034391","500","250","psychophysics","471","1072619","0.0-471.0","5f4a5b3dccae1c5e215cfe3e","6213ce04213869dae5884be0","7","","","","","0","3"
"null","","","null","","","","html-keyboard-response","472","1073121","0.0-472.0","5f4a5b3dccae1c5e215cfe3e","6213ce04213869dae5884be0","","","","","<p style=""color:darkgreen;font-size:24px;"">Correct :)</p>","",""
"3105","key","n","n","8.334975871313663","500","250","psychophysics","473","1076229","0.0-473.0","5f4a5b3dccae1c5e215cfe3e","6213ce04213869dae5884be0","7","","","","","0","4"
"null","","","null","","","","html-keyboard-response","474","1076730","0.0-474.0","5f4a5b3dccae1c5e215cfe3e","6213ce04213869dae5884be0","","","","","<p style=""color:darkgreen;font-size:24px;"">Correct :)</p>","",""
"3614","key","v","v","8.334649769585013","500","250","psychophysics","475","1080346","0.0-475.0","5f4a5b3dccae1c5e215cfe3e","6213ce04213869dae5884be0","7","","","","","1","2"
"null","","","null","","","","html-keyboard-response","476","1080848","0.0-476.0","5f4a5b3dccae1c5e215cfe3e","6213ce04213869dae5884be0","","","","","<p style=""color:darkgreen;font-size:24px;"">Correct :)</p>","",""
"2992","key","n","n","8.334727019498327","500","250","psychophysics","477","1083842","0.0-477.0","5f4a5b3dccae1c5e215cfe3e","6213ce04213869dae5884be0","7","","","","","0","1"
"null","","","null","","","","html-keyboard-response","478","1084344","0.0-478.0","5f4a5b3dccae1c5e215cfe3e","6213ce04213869dae5884be0","","","","","<p style=""color:red;font-size:24px;"">Error :(</p>","",""
"2840","key","n","n","8.383929203539829","500","250","psychophysics","479","1087186","0.0-479.0","5f4a5b3dccae1c5e215cfe3e","6213ce04213869dae5884be0","7","","","","","1","7"
"null","","","null","","","","html-keyboard-response","480","1087688","0.0-480.0","5f4a5b3dccae1c5e215cfe3e","6213ce04213869dae5884be0","","","","","<p style=""color:darkgreen;font-size:24px;"">Correct :)</p>","",""
"3454","key","v","v","8.334814457830984","500","250","psychophysics","481","1091144","0.0-481.0","5f4a5b3dccae1c5e215cfe3e","6213ce04213869dae5884be0","7","","","","","0","1"
"null","","","null","","","","html-keyboard-response","482","1091646","0.0-482.0","5f4a5b3dccae1c5e215cfe3e","6213ce04213869dae5884be0","","","","","<p style=""color:darkgreen;font-size:24px;"">Correct :)</p>","",""
"2615","key","n","n","8.334691082802898","500","250","psychophysics","483","1094263","0.0-483.0","5f4a5b3dccae1c5e215cfe3e","6213ce04213869dae5884be0","7","","","","","0","6"
"null","","","null","","","","html-keyboard-response","484","1094765","0.0-484.0","5f4a5b3dccae1c5e215cfe3e","6213ce04213869dae5884be0","","","","","<p style=""color:darkgreen;font-size:24px;"">Correct :)</p>","",""
"2804","key","n","n","8.334813056380325","500","250","psychophysics","485","1097570","0.0-485.0","5f4a5b3dccae1c5e215cfe3e","6213ce04213869dae5884be0","7","","","","","1","7"
"null","","","null","","","","html-keyboard-response","486","1098072","0.0-486.0","5f4a5b3dccae1c5e215cfe3e","6213ce04213869dae5884be0","","","","","<p style=""color:darkgreen;font-size:24px;"">Correct :)</p>","",""
"3281","key","v","v","8.334908629441989","500","250","psychophysics","487","1101354","0.0-487.0","5f4a5b3dccae1c5e215cfe3e","6213ce04213869dae5884be0","7","","","","","1","4"
"null","","","null","","","","html-keyboard-response","488","1101855","0.0-488.0","5f4a5b3dccae1c5e215cfe3e","6213ce04213869dae5884be0","","","","","<p style=""color:darkgreen;font-size:24px;"">Correct :)</p>","",""
"2673","key","n","n","8.33469470404959","500","250","psychophysics","489","1104531","0.0-489.0","5f4a5b3dccae1c5e215cfe3e","6213ce04213869dae5884be0","7","","","","","0","7"
"null","","","null","","","","html-keyboard-response","490","1105032","0.0-490.0","5f4a5b3dccae1c5e215cfe3e","6213ce04213869dae5884be0","","","","","<p style=""color:red;font-size:24px;"">Error :(</p>","",""
"2952","key","v","v","8.335144067796126","500","250","psychophysics","491","1107985","0.0-491.0","5f4a5b3dccae1c5e215cfe3e","6213ce04213869dae5884be0","7","","","","","0","1"
"null","","","null","","","","html-keyboard-response","492","1108488","0.0-492.0","5f4a5b3dccae1c5e215cfe3e","6213ce04213869dae5884be0","","","","","<p style=""color:darkgreen;font-size:24px;"">Correct :)</p>","",""
"2556","key","n","n","8.334684039087639","500","250","psychophysics","493","1111046","0.0-493.0","5f4a5b3dccae1c5e215cfe3e","6213ce04213869dae5884be0","7","","","","","1","7"
"null","","","null","","","","html-keyboard-response","494","1111548","0.0-494.0","5f4a5b3dccae1c5e215cfe3e","6213ce04213869dae5884be0","","","","","<p style=""color:darkgreen;font-size:24px;"">Correct :)</p>","",""
"3247","key","n","n","8.334905128204861","500","250","psychophysics","495","1114797","0.0-495.0","5f4a5b3dccae1c5e215cfe3e","6213ce04213869dae5884be0","7","","","","","1","7"
"null","","","null","","","","html-keyboard-response","496","1115299","0.0-496.0","5f4a5b3dccae1c5e215cfe3e","6213ce04213869dae5884be0","","","","","<p style=""color:darkgreen;font-size:24px;"">Correct :)</p>","",""
