"rt","response_type","key_press","response","avg_frame_time","center_x","center_y","trial_type","trial_index","time_elapsed","internal_node_id","pid","sid","phase","guide","targ","resp","stimulus","is5","stim"
"5535","key"," "," ","17.142519877675838","500","250","psychophysics","0","5613","0.0-0.0","5facc4201f33582f15dcf9bf","6213cda7f5052ba7b6e88c29","","","","","","",""
"8744","key"," "," ","16.68330534351145","500","250","psychophysics","1","14369","0.0-1.0","5facc4201f33582f15dcf9bf","6213cda7f5052ba7b6e88c29","","","","","","",""
"5132","key"," "," ","16.683295454545462","500","250","psychophysics","2","19511","0.0-2.0","5facc4201f33582f15dcf9bf","6213cda7f5052ba7b6e88c29","","","","","","",""
"2269","key"," "," ","16.683355555555533","500","250","psychophysics","3","21784","0.0-3.0","5facc4201f33582f15dcf9bf","6213cda7f5052ba7b6e88c29","","","","","","",""
"10104","key"," "," ","16.683337190082646","500","250","psychophysics","4","31894","0.0-4.0","5facc4201f33582f15dcf9bf","6213cda7f5052ba7b6e88c29","","","","","","",""
"9417","key"," "," ","16.683317375886517","500","250","psychophysics","5","41316","0.0-5.0","5facc4201f33582f15dcf9bf","6213cda7f5052ba7b6e88c29","","","","","","",""
"8529","key"," "," ","16.683309803921563","500","250","psychophysics","6","49850","0.0-6.0","5facc4201f33582f15dcf9bf","6213cda7f5052ba7b6e88c29","","","","","","",""
"5980","key"," "," ","16.68330726256984","500","250","psychophysics","7","55833","0.0-7.0","5facc4201f33582f15dcf9bf","6213cda7f5052ba7b6e88c29","","","","","","",""
"22854","key"," "," ","16.6955182748538","500","250","psychophysics","8","78692","0.0-8.0","5facc4201f33582f15dcf9bf","6213cda7f5052ba7b6e88c29","0","0","52","50","","",""
"6120","key"," "," ","16.683303278688545","500","250","psychophysics","9","84816","0.0-9.0","5facc4201f33582f15dcf9bf","6213cda7f5052ba7b6e88c29","","","","","","",""
"4662","key"," "," ","16.683419354838705","500","250","psychophysics","10","89486","0.0-10.0","5facc4201f33582f15dcf9bf","6213cda7f5052ba7b6e88c29","","","","","","",""
"8558","key"," "," ","16.683328125000003","500","250","psychophysics","11","98052","0.0-11.0","5facc4201f33582f15dcf9bf","6213cda7f5052ba7b6e88c29","","","","","","",""
"5867","key"," "," ","16.68332386363636","500","250","psychophysics","12","103929","0.0-12.0","5facc4201f33582f15dcf9bf","6213cda7f5052ba7b6e88c29","","","","","","",""
"4212","key"," "," ","16.683314741035865","500","250","psychophysics","13","108146","0.0-13.0","5facc4201f33582f15dcf9bf","6213cda7f5052ba7b6e88c29","","","","","","",""
"7332","key"," "," ","16.683334851936245","500","250","psychophysics","14","115485","0.0-14.0","5facc4201f33582f15dcf9bf","6213cda7f5052ba7b6e88c29","","","","","","",""
"6777","key"," "," ","16.68332512315269","500","250","psychophysics","15","122270","0.0-15.0","5facc4201f33582f15dcf9bf","6213cda7f5052ba7b6e88c29","","","","","","",""
"4628","key"," "," ","16.683328519855618","500","250","psychophysics","16","126902","0.0-16.0","5facc4201f33582f15dcf9bf","6213cda7f5052ba7b6e88c29","","","","","","",""
"20601","key"," "," ","16.68332576985412","500","250","psychophysics","17","147507","0.0-17.0","5facc4201f33582f15dcf9bf","6213cda7f5052ba7b6e88c29","1","0","22","27","","",""
"20959","key"," "," ","16.683304382470112","500","250","psychophysics","18","168471","0.0-18.0","5facc4201f33582f15dcf9bf","6213cda7f5052ba7b6e88c29","1","5","58","57","","",""
"12144","key"," "," ","16.683288461538474","500","250","psychophysics","19","180623","0.0-19.0","5facc4201f33582f15dcf9bf","6213cda7f5052ba7b6e88c29","1","0","47","57","","",""
"18983","key"," "," ","16.69802288732394","500","250","psychophysics","20","199611","0.0-20.0","5facc4201f33582f15dcf9bf","6213cda7f5052ba7b6e88c29","1","5","32","38","","",""
"16024","key"," "," ","16.68331562500001","500","250","psychophysics","21","215639","0.0-21.0","5facc4201f33582f15dcf9bf","6213cda7f5052ba7b6e88c29","1","0","42","48","","",""
"15341","key"," "," ","16.683297385620907","500","250","psychophysics","22","230985","0.0-22.0","5facc4201f33582f15dcf9bf","6213cda7f5052ba7b6e88c29","1","5","43","46","","",""
"19786","key"," "," ","16.68330607082632","500","250","psychophysics","23","250779","0.0-23.0","5facc4201f33582f15dcf9bf","6213cda7f5052ba7b6e88c29","1","0","51","56","","",""
"13210","key"," "," ","16.683340075853348","500","250","psychophysics","24","263993","0.0-24.0","5facc4201f33582f15dcf9bf","6213cda7f5052ba7b6e88c29","1","5","51","52","","",""
"16717","key"," "," ","16.68328871128872","500","250","psychophysics","25","280715","0.0-25.0","5facc4201f33582f15dcf9bf","6213cda7f5052ba7b6e88c29","1","0","27","34","","",""
"13530","key"," "," ","16.683290998766996","500","250","psychophysics","26","294253","0.0-26.0","5facc4201f33582f15dcf9bf","6213cda7f5052ba7b6e88c29","1","5","46","48","","",""
"10858","key"," "," ","16.683278461538542","500","250","psychophysics","27","305115","0.0-27.0","5facc4201f33582f15dcf9bf","6213cda7f5052ba7b6e88c29","1","0","39","47","","",""
"14449","key"," "," ","16.683295953757266","500","250","psychophysics","28","319569","0.0-28.0","5facc4201f33582f15dcf9bf","6213cda7f5052ba7b6e88c29","1","5","50","50","","",""
"10187","key"," "," ","16.683267213114764","500","250","psychophysics","29","329763","0.0-29.0","5facc4201f33582f15dcf9bf","6213cda7f5052ba7b6e88c29","1","0","43","53","","",""
"7643","key"," "," ","16.683268558951912","500","250","psychophysics","30","337411","0.0-30.0","5facc4201f33582f15dcf9bf","6213cda7f5052ba7b6e88c29","1","5","36","42","","",""
"15358","key"," "," ","16.701498910675344","500","250","psychophysics","31","352773","0.0-31.0","5facc4201f33582f15dcf9bf","6213cda7f5052ba7b6e88c29","1","0","34","45","","",""
"9137","key"," "," ","16.683233576642355","500","250","psychophysics","32","361919","0.0-32.0","5facc4201f33582f15dcf9bf","6213cda7f5052ba7b6e88c29","1","5","55","54","","",""
"10096","key"," "," ","16.683284768211966","500","250","psychophysics","33","372019","0.0-33.0","5facc4201f33582f15dcf9bf","6213cda7f5052ba7b6e88c29","1","0","33","40","","",""
"9798","key"," "," ","16.68326746166957","500","250","psychophysics","34","381821","0.0-34.0","5facc4201f33582f15dcf9bf","6213cda7f5052ba7b6e88c29","1","5","55","53","","",""
"6303","key"," "," ","16.6832360742706","500","250","psychophysics","35","388130","0.0-35.0","5facc4201f33582f15dcf9bf","6213cda7f5052ba7b6e88c29","1","0","33","41","","",""
"7463","key"," "," ","16.68327802690576","500","250","psychophysics","36","395597","0.0-36.0","5facc4201f33582f15dcf9bf","6213cda7f5052ba7b6e88c29","1","5","41","43","","",""
"5106","key"," "," ","16.683202614379077","500","250","psychophysics","37","400715","0.0-37.0","5facc4201f33582f15dcf9bf","6213cda7f5052ba7b6e88c29","","","","","","",""
"7090","key"," "," ","16.683290094339547","500","250","psychophysics","38","407809","0.0-38.0","5facc4201f33582f15dcf9bf","6213cda7f5052ba7b6e88c29","","","","","","",""
"3852","key"," "," ","16.683281385281337","500","250","psychophysics","39","411668","0.0-39.0","5facc4201f33582f15dcf9bf","6213cda7f5052ba7b6e88c29","","","","","","",""
"17688","key"," "," ","16.683331444759194","500","250","psychophysics","40","429361","0.0-40.0","5facc4201f33582f15dcf9bf","6213cda7f5052ba7b6e88c29","2","0","52","63","","",""
"10658","key"," "," ","16.683250783699044","500","250","psychophysics","41","440025","0.0-41.0","5facc4201f33582f15dcf9bf","6213cda7f5052ba7b6e88c29","","","","","","",""
"9306","key"," "," ","16.68326523297489","500","250","psychophysics","42","449339","0.0-42.0","5facc4201f33582f15dcf9bf","6213cda7f5052ba7b6e88c29","2","0","41","42","","",""
"5290","key"," "," ","16.683265822784847","500","250","psychophysics","43","454635","0.0-43.0","5facc4201f33582f15dcf9bf","6213cda7f5052ba7b6e88c29","","","","","","",""
"20561","key"," "," ","16.68330194805198","500","250","psychophysics","44","475201","0.0-44.0","5facc4201f33582f15dcf9bf","6213cda7f5052ba7b6e88c29","2","0","38","40","","",""
"3721","key"," "," ","16.6832072072073","500","250","psychophysics","45","478925","0.0-45.0","5facc4201f33582f15dcf9bf","6213cda7f5052ba7b6e88c29","","","","","","",""
"11650","key"," "," ","16.683276504298032","500","250","psychophysics","46","490580","0.0-46.0","5facc4201f33582f15dcf9bf","6213cda7f5052ba7b6e88c29","2","0","48","55","","",""
"4126","key"," "," ","16.68326829268282","500","250","psychophysics","47","494711","0.0-47.0","5facc4201f33582f15dcf9bf","6213cda7f5052ba7b6e88c29","","","","","","",""
"12426","key"," "," ","16.68332661290325","500","250","psychophysics","48","507144","0.0-48.0","5facc4201f33582f15dcf9bf","6213cda7f5052ba7b6e88c29","2","0","49","49","","",""
"4105","key"," "," ","16.683288617886326","500","250","psychophysics","49","511255","0.0-49.0","5facc4201f33582f15dcf9bf","6213cda7f5052ba7b6e88c29","","","","","","",""
"11183","key"," "," ","16.683270553064286","500","250","psychophysics","50","522443","0.0-50.0","5facc4201f33582f15dcf9bf","6213cda7f5052ba7b6e88c29","2","0","57","51","","",""
"2878","key"," "," ","16.68315697674366","500","250","psychophysics","51","525328","0.0-51.0","5facc4201f33582f15dcf9bf","6213cda7f5052ba7b6e88c29","","","","","","",""
"9684","key"," "," ","16.68332931034484","500","250","psychophysics","52","535019","0.0-52.0","5facc4201f33582f15dcf9bf","6213cda7f5052ba7b6e88c29","2","0","49","56","","",""
"3711","key"," "," ","16.683162162162212","500","250","psychophysics","53","538734","0.0-53.0","5facc4201f33582f15dcf9bf","6213cda7f5052ba7b6e88c29","","","","","","",""
"8617","key"," "," ","16.68322093023259","500","250","psychophysics","54","547356","0.0-54.0","5facc4201f33582f15dcf9bf","6213cda7f5052ba7b6e88c29","2","0","45","43","","",""
"3358","key"," "," ","16.68324500000046","500","250","psychophysics","55","550718","0.0-55.0","5facc4201f33582f15dcf9bf","6213cda7f5052ba7b6e88c29","","","","","","",""
"7666","key"," "," ","16.683265795206857","500","250","psychophysics","56","558389","0.0-56.0","5facc4201f33582f15dcf9bf","6213cda7f5052ba7b6e88c29","2","0","34","34","","",""
"3337","key"," "," ","16.683150753769063","500","250","psychophysics","57","561732","0.0-57.0","5facc4201f33582f15dcf9bf","6213cda7f5052ba7b6e88c29","","","","","","",""
"10766","key"," "," ","16.683283720930223","500","250","psychophysics","58","572505","0.0-58.0","5facc4201f33582f15dcf9bf","6213cda7f5052ba7b6e88c29","2","0","27","26","","",""
"2966","key"," "," ","16.68318644067796","500","250","psychophysics","59","575475","0.0-59.0","5facc4201f33582f15dcf9bf","6213cda7f5052ba7b6e88c29","","","","","","",""
"8034","key"," "," ","16.683318087318284","500","250","psychophysics","60","583515","0.0-60.0","5facc4201f33582f15dcf9bf","6213cda7f5052ba7b6e88c29","2","0","47","42","","",""
"2663","key"," "," ","16.683257861635443","500","250","psychophysics","61","586183","0.0-61.0","5facc4201f33582f15dcf9bf","6213cda7f5052ba7b6e88c29","","","","","","",""
"9937","key"," "," ","16.683410084033543","500","250","psychophysics","62","596125","0.0-62.0","5facc4201f33582f15dcf9bf","6213cda7f5052ba7b6e88c29","2","0","30","26","","",""
"2732","key"," "," ","16.683380368097822","500","250","psychophysics","63","598861","0.0-63.0","5facc4201f33582f15dcf9bf","6213cda7f5052ba7b6e88c29","","","","","","",""
"6797","key"," "," ","16.683253071253148","500","250","psychophysics","64","605663","0.0-64.0","5facc4201f33582f15dcf9bf","6213cda7f5052ba7b6e88c29","2","0","56","54","","",""
"81316","key"," "," ","16.683320131335936","500","250","psychophysics","65","686985","0.0-65.0","5facc4201f33582f15dcf9bf","6213cda7f5052ba7b6e88c29","","","","","","",""
"11293","key"," "," ","16.6832781065088","500","250","psychophysics","66","698283","0.0-66.0","5facc4201f33582f15dcf9bf","6213cda7f5052ba7b6e88c29","2","0","21","20","","",""
"4906","key"," "," ","16.683241496598317","500","250","psychophysics","67","703195","0.0-67.0","5facc4201f33582f15dcf9bf","6213cda7f5052ba7b6e88c29","","","","","","",""
"13279","key"," "," ","16.683280503144633","500","250","psychophysics","68","716479","0.0-68.0","5facc4201f33582f15dcf9bf","6213cda7f5052ba7b6e88c29","2","0","40","49","","",""
"2975","key"," "," ","16.682685393257998","500","250","psychophysics","69","719459","0.0-69.0","5facc4201f33582f15dcf9bf","6213cda7f5052ba7b6e88c29","","","","","","",""
"3933","key"," "," ","16.683421276595958","500","250","psychophysics","70","723397","0.0-70.0","5facc4201f33582f15dcf9bf","6213cda7f5052ba7b6e88c29","","","","","","",""
"3304","key"," "," ","16.68264974619328","500","250","psychophysics","71","726705","0.0-71.0","5facc4201f33582f15dcf9bf","6213cda7f5052ba7b6e88c29","","","","","","",""
"8566","key"," "," ","16.683278752436642","500","250","psychophysics","72","735275","0.0-72.0","5facc4201f33582f15dcf9bf","6213cda7f5052ba7b6e88c29","3","5","31","33","","",""
"8328","key"," "," ","16.68330321285147","500","250","psychophysics","73","743607","0.0-73.0","5facc4201f33582f15dcf9bf","6213cda7f5052ba7b6e88c29","3","0","30","32","","",""
"13816","key"," "," ","16.683344619105256","500","250","psychophysics","74","757427","0.0-74.0","5facc4201f33582f15dcf9bf","6213cda7f5052ba7b6e88c29","3","5","44","45","","",""
"9613","key"," "," ","16.68333854166667","500","250","psychophysics","75","767048","0.0-75.0","5facc4201f33582f15dcf9bf","6213cda7f5052ba7b6e88c29","3","0","33","37","","",""
"14453","key"," "," ","16.683274826789855","500","250","psychophysics","76","781505","0.0-76.0","5facc4201f33582f15dcf9bf","6213cda7f5052ba7b6e88c29","3","5","54","51","","",""
"9690","key"," "," ","16.68327758620686","500","250","psychophysics","77","791199","0.0-77.0","5facc4201f33582f15dcf9bf","6213cda7f5052ba7b6e88c29","3","0","32","36","","",""
"9755","key"," "," ","16.683311643835623","500","250","psychophysics","78","800959","0.0-78.0","5facc4201f33582f15dcf9bf","6213cda7f5052ba7b6e88c29","3","5","38","38","","",""
"14042","key"," "," ","16.683326991676523","500","250","psychophysics","79","815004","0.0-79.0","5facc4201f33582f15dcf9bf","6213cda7f5052ba7b6e88c29","3","0","57","63","","",""
"10139","key"," "," ","16.68331136738059","500","250","psychophysics","80","825148","0.0-80.0","5facc4201f33582f15dcf9bf","6213cda7f5052ba7b6e88c29","3","5","41","41","","",""
"6187","key"," "," ","16.683289189189296","500","250","psychophysics","81","831339","0.0-81.0","5facc4201f33582f15dcf9bf","6213cda7f5052ba7b6e88c29","3","0","37","39","","",""
"14125","key"," "," ","16.68330378250599","500","250","psychophysics","82","845468","0.0-82.0","5facc4201f33582f15dcf9bf","6213cda7f5052ba7b6e88c29","3","5","20","26","","",""
"7408","key"," "," ","16.683343115123936","500","250","psychophysics","83","852881","0.0-83.0","5facc4201f33582f15dcf9bf","6213cda7f5052ba7b6e88c29","3","0","21","25","","",""
"6646","key"," "," ","16.683248743718494","500","250","psychophysics","84","859532","0.0-84.0","5facc4201f33582f15dcf9bf","6213cda7f5052ba7b6e88c29","3","5","24","30","","",""
"18695","key"," "," ","16.683297587131356","500","250","psychophysics","85","878231","0.0-85.0","5facc4201f33582f15dcf9bf","6213cda7f5052ba7b6e88c29","3","0","55","55","","",""
"7517","key"," "," ","16.68327333333333","500","250","psychophysics","86","885755","0.0-86.0","5facc4201f33582f15dcf9bf","6213cda7f5052ba7b6e88c29","3","5","25","29","","",""
"8805","key"," "," ","16.683274621212288","500","250","psychophysics","87","894569","0.0-87.0","5facc4201f33582f15dcf9bf","6213cda7f5052ba7b6e88c29","3","0","41","38","","",""
"20607","key"," "," ","16.68331361426249","500","250","psychophysics","88","915181","0.0-88.0","5facc4201f33582f15dcf9bf","6213cda7f5052ba7b6e88c29","3","5","53","50","","",""
"8028","key"," "," ","16.683274428274487","500","250","psychophysics","89","923217","0.0-89.0","5facc4201f33582f15dcf9bf","6213cda7f5052ba7b6e88c29","3","0","36","35","","",""
"6268","key"," "," ","16.683341333333402","500","250","psychophysics","90","929489","0.0-90.0","5facc4201f33582f15dcf9bf","6213cda7f5052ba7b6e88c29","3","5","30","31","","",""
"9102","key"," "," ","16.68333944954136","500","250","psychophysics","91","938596","0.0-91.0","5facc4201f33582f15dcf9bf","6213cda7f5052ba7b6e88c29","3","0","55","53","","",""
"5144","key"," "," ","16.68324429967444","500","250","psychophysics","92","943743","0.0-92.0","5facc4201f33582f15dcf9bf","6213cda7f5052ba7b6e88c29","","","","","","",""
"55455","","","v","","","","html-keyboard-response","93","999199","0.0-93.0","5facc4201f33582f15dcf9bf","6213cda7f5052ba7b6e88c29","","","","","<p> In this part of the experiment, we are going present digits 1, 2, 3, 4, 6, 7, 8, and 9.  Notice that 5 is missing.  Your job is to say whether the presented digit is less than or greater than 5.  For example, 3 is less than 5 and 7 is greater than 5.  If the digit is less than 5, press the v key; if it is greater than 5, press the n key. We are going to do 200 of these in total, but only 50 righ now. They go real fast.</p>  <br><br>  Ready? (press v or n)","",""
"3331","key","v","v","16.68923383084559","500","250","psychophysics","94","1002543","0.0-94.0","5facc4201f33582f15dcf9bf","6213cda7f5052ba7b6e88c29","4","","","","","1","4"
"null","","","null","","","","html-keyboard-response","95","1003045","0.0-95.0","5facc4201f33582f15dcf9bf","6213cda7f5052ba7b6e88c29","","","","","<p style=""color:darkgreen;font-size:24px;"">Correct :)</p>","",""
"3807","key","v","v","16.68335526315812","500","250","psychophysics","96","1006857","0.0-96.0","5facc4201f33582f15dcf9bf","6213cda7f5052ba7b6e88c29","4","","","","","1","3"
"null","","","null","","","","html-keyboard-response","97","1007359","0.0-97.0","5facc4201f33582f15dcf9bf","6213cda7f5052ba7b6e88c29","","","","","<p style=""color:darkgreen;font-size:24px;"">Correct :)</p>","",""
"2911","key","n","n","16.77995402298884","500","250","psychophysics","98","1010275","0.0-98.0","5facc4201f33582f15dcf9bf","6213cda7f5052ba7b6e88c29","4","","","","","1","8"
"null","","","null","","","","html-keyboard-response","99","1010778","0.0-99.0","5facc4201f33582f15dcf9bf","6213cda7f5052ba7b6e88c29","","","","","<p style=""color:darkgreen;font-size:24px;"">Correct :)</p>","",""
"3156","key","n","n","16.683536842105127","500","250","psychophysics","100","1013939","0.0-100.0","5facc4201f33582f15dcf9bf","6213cda7f5052ba7b6e88c29","4","","","","","1","9"
"null","","","null","","","","html-keyboard-response","101","1014440","0.0-101.0","5facc4201f33582f15dcf9bf","6213cda7f5052ba7b6e88c29","","","","","<p style=""color:darkgreen;font-size:24px;"">Correct :)</p>","",""
"2968","key","v","v","16.683320224719395","500","250","psychophysics","102","1017413","0.0-102.0","5facc4201f33582f15dcf9bf","6213cda7f5052ba7b6e88c29","4","","","","","1","1"
"null","","","null","","","","html-keyboard-response","103","1017916","0.0-103.0","5facc4201f33582f15dcf9bf","6213cda7f5052ba7b6e88c29","","","","","<p style=""color:darkgreen;font-size:24px;"">Correct :)</p>","",""
"2775","key","n","n","16.6845688622753","500","250","psychophysics","104","1020697","0.0-104.0","5facc4201f33582f15dcf9bf","6213cda7f5052ba7b6e88c29","4","","","","","1","3"
"null","","","null","","","","html-keyboard-response","105","1021200","0.0-105.0","5facc4201f33582f15dcf9bf","6213cda7f5052ba7b6e88c29","","","","","<p style=""color:red;font-size:24px;"">Error :(</p>","",""
"3182","key","v","v","16.682869109948026","500","250","psychophysics","106","1024387","0.0-106.0","5facc4201f33582f15dcf9bf","6213cda7f5052ba7b6e88c29","4","","","","","1","4"
"null","","","null","","","","html-keyboard-response","107","1024890","0.0-107.0","5facc4201f33582f15dcf9bf","6213cda7f5052ba7b6e88c29","","","","","<p style=""color:darkgreen;font-size:24px;"">Correct :)</p>","",""
"3033","key","n","n","16.68314285714315","500","250","psychophysics","108","1027929","0.0-108.0","5facc4201f33582f15dcf9bf","6213cda7f5052ba7b6e88c29","4","","","","","1","7"
"null","","","null","","","","html-keyboard-response","109","1028431","0.0-109.0","5facc4201f33582f15dcf9bf","6213cda7f5052ba7b6e88c29","","","","","<p style=""color:darkgreen;font-size:24px;"">Correct :)</p>","",""
"2839","key","n","n","16.683289940828544","500","250","psychophysics","110","1031273","0.0-110.0","5facc4201f33582f15dcf9bf","6213cda7f5052ba7b6e88c29","4","","","","","1","6"
"null","","","null","","","","html-keyboard-response","111","1031774","0.0-111.0","5facc4201f33582f15dcf9bf","6213cda7f5052ba7b6e88c29","","","","","<p style=""color:darkgreen;font-size:24px;"">Correct :)</p>","",""
"2787","key","v","v","16.683550898203887","500","250","psychophysics","112","1034567","0.0-112.0","5facc4201f33582f15dcf9bf","6213cda7f5052ba7b6e88c29","4","","","","","1","1"
"null","","","null","","","","html-keyboard-response","113","1035069","0.0-113.0","5facc4201f33582f15dcf9bf","6213cda7f5052ba7b6e88c29","","","","","<p style=""color:darkgreen;font-size:24px;"">Correct :)</p>","",""
"2902","key","v","v","16.684262857143104","500","250","psychophysics","114","1037977","0.0-114.0","5facc4201f33582f15dcf9bf","6213cda7f5052ba7b6e88c29","4","","","","","1","2"
"null","","","null","","","","html-keyboard-response","115","1038479","0.0-115.0","5facc4201f33582f15dcf9bf","6213cda7f5052ba7b6e88c29","","","","","<p style=""color:darkgreen;font-size:24px;"">Correct :)</p>","",""
"3050","key","n","n","16.683387978141745","500","250","psychophysics","116","1041535","0.0-116.0","5facc4201f33582f15dcf9bf","6213cda7f5052ba7b6e88c29","4","","","","","1","6"
"null","","","null","","","","html-keyboard-response","117","1042038","0.0-117.0","5facc4201f33582f15dcf9bf","6213cda7f5052ba7b6e88c29","","","","","<p style=""color:darkgreen;font-size:24px;"">Correct :)</p>","",""
"2868","key","v","v","16.683389534883414","500","250","psychophysics","118","1044911","0.0-118.0","5facc4201f33582f15dcf9bf","6213cda7f5052ba7b6e88c29","4","","","","","1","2"
"null","","","null","","","","html-keyboard-response","119","1045412","0.0-119.0","5facc4201f33582f15dcf9bf","6213cda7f5052ba7b6e88c29","","","","","<p style=""color:darkgreen;font-size:24px;"">Correct :)</p>","",""
"2770","key","v","v","16.68407185628737","500","250","psychophysics","120","1048187","0.0-120.0","5facc4201f33582f15dcf9bf","6213cda7f5052ba7b6e88c29","4","","","","","1","3"
"null","","","null","","","","html-keyboard-response","121","1048690","0.0-121.0","5facc4201f33582f15dcf9bf","6213cda7f5052ba7b6e88c29","","","","","<p style=""color:darkgreen;font-size:24px;"">Correct :)</p>","",""
"2997","key","n","n","16.68273888888976","500","250","psychophysics","122","1051693","0.0-122.0","5facc4201f33582f15dcf9bf","6213cda7f5052ba7b6e88c29","4","","","","","1","8"
"null","","","null","","","","html-keyboard-response","123","1052196","0.0-123.0","5facc4201f33582f15dcf9bf","6213cda7f5052ba7b6e88c29","","","","","<p style=""color:darkgreen;font-size:24px;"">Correct :)</p>","",""
"3039","key","v","v","16.683269230769127","500","250","psychophysics","124","1055241","0.0-124.0","5facc4201f33582f15dcf9bf","6213cda7f5052ba7b6e88c29","4","","","","","1","3"
"null","","","null","","","","html-keyboard-response","125","1055743","0.0-125.0","5facc4201f33582f15dcf9bf","6213cda7f5052ba7b6e88c29","","","","","<p style=""color:darkgreen;font-size:24px;"">Correct :)</p>","",""
"3245","key","v","v","16.682860824742747","500","250","psychophysics","126","1058993","0.0-126.0","5facc4201f33582f15dcf9bf","6213cda7f5052ba7b6e88c29","4","","","","","1","4"
"null","","","null","","","","html-keyboard-response","127","1059495","0.0-127.0","5facc4201f33582f15dcf9bf","6213cda7f5052ba7b6e88c29","","","","","<p style=""color:darkgreen;font-size:24px;"">Correct :)</p>","",""
"2947","key","v","v","16.779340909091513","500","250","psychophysics","128","1062447","0.0-128.0","5facc4201f33582f15dcf9bf","6213cda7f5052ba7b6e88c29","4","","","","","1","3"
"null","","","null","","","","html-keyboard-response","129","1062949","0.0-129.0","5facc4201f33582f15dcf9bf","6213cda7f5052ba7b6e88c29","","","","","<p style=""color:darkgreen;font-size:24px;"">Correct :)</p>","",""
"2837","key","n","n","16.683384615385123","500","250","psychophysics","130","1065789","0.0-130.0","5facc4201f33582f15dcf9bf","6213cda7f5052ba7b6e88c29","4","","","","","1","9"
"null","","","null","","","","html-keyboard-response","131","1066292","0.0-131.0","5facc4201f33582f15dcf9bf","6213cda7f5052ba7b6e88c29","","","","","<p style=""color:darkgreen;font-size:24px;"">Correct :)</p>","",""
"2835","key","v","v","16.683352941176032","500","250","psychophysics","132","1069132","0.0-132.0","5facc4201f33582f15dcf9bf","6213cda7f5052ba7b6e88c29","4","","","","","1","1"
"null","","","null","","","","html-keyboard-response","133","1069635","0.0-133.0","5facc4201f33582f15dcf9bf","6213cda7f5052ba7b6e88c29","","","","","<p style=""color:darkgreen;font-size:24px;"">Correct :)</p>","",""
"3473","key","v","v","16.683985645932918","500","250","psychophysics","134","1073114","0.0-134.0","5facc4201f33582f15dcf9bf","6213cda7f5052ba7b6e88c29","4","","","","","1","3"
"null","","","null","","","","html-keyboard-response","135","1073615","0.0-135.0","5facc4201f33582f15dcf9bf","6213cda7f5052ba7b6e88c29","","","","","<p style=""color:darkgreen;font-size:24px;"">Correct :)</p>","",""
"2951","key","n","n","16.683361581921325","500","250","psychophysics","136","1076575","0.0-136.0","5facc4201f33582f15dcf9bf","6213cda7f5052ba7b6e88c29","4","","","","","1","6"
"null","","","null","","","","html-keyboard-response","137","1077077","0.0-137.0","5facc4201f33582f15dcf9bf","6213cda7f5052ba7b6e88c29","","","","","<p style=""color:darkgreen;font-size:24px;"">Correct :)</p>","",""
"3071","key","n","n","16.683210810811286","500","250","psychophysics","138","1080154","0.0-138.0","5facc4201f33582f15dcf9bf","6213cda7f5052ba7b6e88c29","4","","","","","1","8"
"null","","","null","","","","html-keyboard-response","139","1080656","0.0-139.0","5facc4201f33582f15dcf9bf","6213cda7f5052ba7b6e88c29","","","","","<p style=""color:darkgreen;font-size:24px;"">Correct :)</p>","",""
"2649","key","v","v","16.683358490565183","500","250","psychophysics","140","1083309","0.0-140.0","5facc4201f33582f15dcf9bf","6213cda7f5052ba7b6e88c29","4","","","","","1","3"
"null","","","null","","","","html-keyboard-response","141","1083812","0.0-141.0","5facc4201f33582f15dcf9bf","6213cda7f5052ba7b6e88c29","","","","","<p style=""color:darkgreen;font-size:24px;"">Correct :)</p>","",""
"2922","key","v","v","16.683554285714138","500","250","psychophysics","142","1086739","0.0-142.0","5facc4201f33582f15dcf9bf","6213cda7f5052ba7b6e88c29","4","","","","","1","2"
"null","","","null","","","","html-keyboard-response","143","1087242","0.0-143.0","5facc4201f33582f15dcf9bf","6213cda7f5052ba7b6e88c29","","","","","<p style=""color:darkgreen;font-size:24px;"">Correct :)</p>","",""
"2838","key","v","v","16.683547058823407","500","250","psychophysics","144","1090091","0.0-144.0","5facc4201f33582f15dcf9bf","6213cda7f5052ba7b6e88c29","4","","","","","1","3"
"null","","","null","","","","html-keyboard-response","145","1090593","0.0-145.0","5facc4201f33582f15dcf9bf","6213cda7f5052ba7b6e88c29","","","","","<p style=""color:darkgreen;font-size:24px;"">Correct :)</p>","",""
"2637","key","n","n","16.789196202531457","500","250","psychophysics","146","1093235","0.0-146.0","5facc4201f33582f15dcf9bf","6213cda7f5052ba7b6e88c29","4","","","","","1","6"
"null","","","null","","","","html-keyboard-response","147","1093737","0.0-147.0","5facc4201f33582f15dcf9bf","6213cda7f5052ba7b6e88c29","","","","","<p style=""color:darkgreen;font-size:24px;"">Correct :)</p>","",""
"2742","key","n","n","16.683323170731367","500","250","psychophysics","148","1096484","0.0-148.0","5facc4201f33582f15dcf9bf","6213cda7f5052ba7b6e88c29","4","","","","","1","6"
"null","","","null","","","","html-keyboard-response","149","1096987","0.0-149.0","5facc4201f33582f15dcf9bf","6213cda7f5052ba7b6e88c29","","","","","<p style=""color:darkgreen;font-size:24px;"">Correct :)</p>","",""
"2916","key","n","n","16.68351428571423","500","250","psychophysics","150","1099908","0.0-150.0","5facc4201f33582f15dcf9bf","6213cda7f5052ba7b6e88c29","4","","","","","1","9"
"null","","","null","","","","html-keyboard-response","151","1100410","0.0-151.0","5facc4201f33582f15dcf9bf","6213cda7f5052ba7b6e88c29","","","","","<p style=""color:darkgreen;font-size:24px;"">Correct :)</p>","",""
"3203","key","n","n","16.68270833333251","500","250","psychophysics","152","1103618","0.0-152.0","5facc4201f33582f15dcf9bf","6213cda7f5052ba7b6e88c29","4","","","","","1","9"
"null","","","null","","","","html-keyboard-response","153","1104119","0.0-153.0","5facc4201f33582f15dcf9bf","6213cda7f5052ba7b6e88c29","","","","","<p style=""color:darkgreen;font-size:24px;"">Correct :)</p>","",""
"2615","key","v","v","16.68466242038271","500","250","psychophysics","154","1106739","0.0-154.0","5facc4201f33582f15dcf9bf","6213cda7f5052ba7b6e88c29","4","","","","","1","2"
"null","","","null","","","","html-keyboard-response","155","1107242","0.0-155.0","5facc4201f33582f15dcf9bf","6213cda7f5052ba7b6e88c29","","","","","<p style=""color:darkgreen;font-size:24px;"">Correct :)</p>","",""
"2636","key","n","n","16.68354716981064","500","250","psychophysics","156","1109883","0.0-156.0","5facc4201f33582f15dcf9bf","6213cda7f5052ba7b6e88c29","4","","","","","1","7"
"null","","","null","","","","html-keyboard-response","157","1110385","0.0-157.0","5facc4201f33582f15dcf9bf","6213cda7f5052ba7b6e88c29","","","","","<p style=""color:darkgreen;font-size:24px;"">Correct :)</p>","",""
"2835","key","n","n","16.683276470588957","500","250","psychophysics","158","1113225","0.0-158.0","5facc4201f33582f15dcf9bf","6213cda7f5052ba7b6e88c29","4","","","","","1","6"
"null","","","null","","","","html-keyboard-response","159","1113727","0.0-159.0","5facc4201f33582f15dcf9bf","6213cda7f5052ba7b6e88c29","","","","","<p style=""color:darkgreen;font-size:24px;"">Correct :)</p>","",""
"3444","key","n","n","16.68325120772928","500","250","psychophysics","160","1117176","0.0-160.0","5facc4201f33582f15dcf9bf","6213cda7f5052ba7b6e88c29","4","","","","","1","9"
"null","","","null","","","","html-keyboard-response","161","1117678","0.0-161.0","5facc4201f33582f15dcf9bf","6213cda7f5052ba7b6e88c29","","","","","<p style=""color:darkgreen;font-size:24px;"">Correct :)</p>","",""
"2847","key","n","n","16.683467836258117","500","250","psychophysics","162","1120531","0.0-162.0","5facc4201f33582f15dcf9bf","6213cda7f5052ba7b6e88c29","4","","","","","1","7"
"null","","","null","","","","html-keyboard-response","163","1121033","0.0-163.0","5facc4201f33582f15dcf9bf","6213cda7f5052ba7b6e88c29","","","","","<p style=""color:darkgreen;font-size:24px;"">Correct :)</p>","",""
"3329","key","n","n","16.683279999999794","500","250","psychophysics","164","1124367","0.0-164.0","5facc4201f33582f15dcf9bf","6213cda7f5052ba7b6e88c29","4","","","","","1","6"
"null","","","null","","","","html-keyboard-response","165","1124868","0.0-165.0","5facc4201f33582f15dcf9bf","6213cda7f5052ba7b6e88c29","","","","","<p style=""color:darkgreen;font-size:24px;"">Correct :)</p>","",""
"2894","key","v","v","16.683913793103052","500","250","psychophysics","166","1127767","0.0-166.0","5facc4201f33582f15dcf9bf","6213cda7f5052ba7b6e88c29","4","","","","","1","3"
"null","","","null","","","","html-keyboard-response","167","1128271","0.0-167.0","5facc4201f33582f15dcf9bf","6213cda7f5052ba7b6e88c29","","","","","<p style=""color:darkgreen;font-size:24px;"">Correct :)</p>","",""
"2875","key","v","v","16.683261627906685","500","250","psychophysics","168","1131151","0.0-168.0","5facc4201f33582f15dcf9bf","6213cda7f5052ba7b6e88c29","4","","","","","1","4"
"null","","","null","","","","html-keyboard-response","169","1131653","0.0-169.0","5facc4201f33582f15dcf9bf","6213cda7f5052ba7b6e88c29","","","","","<p style=""color:darkgreen;font-size:24px;"">Correct :)</p>","",""
"2929","key","n","n","16.68339428571452","500","250","psychophysics","170","1134587","0.0-170.0","5facc4201f33582f15dcf9bf","6213cda7f5052ba7b6e88c29","4","","","","","1","9"
"null","","","null","","","","html-keyboard-response","171","1135089","0.0-171.0","5facc4201f33582f15dcf9bf","6213cda7f5052ba7b6e88c29","","","","","<p style=""color:darkgreen;font-size:24px;"">Correct :)</p>","",""
"3797","key","n","n","16.683383259910983","500","250","psychophysics","172","1138891","0.0-172.0","5facc4201f33582f15dcf9bf","6213cda7f5052ba7b6e88c29","4","","","","","1","9"
"null","","","null","","","","html-keyboard-response","173","1139392","0.0-173.0","5facc4201f33582f15dcf9bf","6213cda7f5052ba7b6e88c29","","","","","<p style=""color:darkgreen;font-size:24px;"">Correct :)</p>","",""
"2910","key","n","n","16.68321714285761","500","250","psychophysics","174","1142314","0.0-174.0","5facc4201f33582f15dcf9bf","6213cda7f5052ba7b6e88c29","4","","","","","1","9"
"null","","","null","","","","html-keyboard-response","175","1142815","0.0-175.0","5facc4201f33582f15dcf9bf","6213cda7f5052ba7b6e88c29","","","","","<p style=""color:darkgreen;font-size:24px;"">Correct :)</p>","",""
"2930","key","n","n","16.683374999999863","500","250","psychophysics","176","1145751","0.0-176.0","5facc4201f33582f15dcf9bf","6213cda7f5052ba7b6e88c29","4","","","","","1","7"
"null","","","null","","","","html-keyboard-response","177","1146253","0.0-177.0","5facc4201f33582f15dcf9bf","6213cda7f5052ba7b6e88c29","","","","","<p style=""color:darkgreen;font-size:24px;"">Correct :)</p>","",""
"3233","key","v","v","16.68326804123713","500","250","psychophysics","178","1149495","0.0-178.0","5facc4201f33582f15dcf9bf","6213cda7f5052ba7b6e88c29","4","","","","","1","2"
"null","","","null","","","","html-keyboard-response","179","1149997","0.0-179.0","5facc4201f33582f15dcf9bf","6213cda7f5052ba7b6e88c29","","","","","<p style=""color:darkgreen;font-size:24px;"">Correct :)</p>","",""
"2856","key","n","n","16.683395348837177","500","250","psychophysics","180","1152858","0.0-180.0","5facc4201f33582f15dcf9bf","6213cda7f5052ba7b6e88c29","4","","","","","1","9"
"null","","","null","","","","html-keyboard-response","181","1153359","0.0-181.0","5facc4201f33582f15dcf9bf","6213cda7f5052ba7b6e88c29","","","","","<p style=""color:darkgreen;font-size:24px;"">Correct :)</p>","",""
"2808","key","v","v","16.68339285714319","500","250","psychophysics","182","1156173","0.0-182.0","5facc4201f33582f15dcf9bf","6213cda7f5052ba7b6e88c29","4","","","","","1","3"
"null","","","null","","","","html-keyboard-response","183","1156674","0.0-183.0","5facc4201f33582f15dcf9bf","6213cda7f5052ba7b6e88c29","","","","","<p style=""color:darkgreen;font-size:24px;"">Correct :)</p>","",""
"3998","key","v","v","16.68382083333369","500","250","psychophysics","184","1160677","0.0-184.0","5facc4201f33582f15dcf9bf","6213cda7f5052ba7b6e88c29","4","","","","","1","1"
"null","","","null","","","","html-keyboard-response","185","1161179","0.0-185.0","5facc4201f33582f15dcf9bf","6213cda7f5052ba7b6e88c29","","","","","<p style=""color:darkgreen;font-size:24px;"">Correct :)</p>","",""
"2695","key","n","n","16.785926380368988","500","250","psychophysics","186","1163902","0.0-186.0","5facc4201f33582f15dcf9bf","6213cda7f5052ba7b6e88c29","4","","","","","1","9"
"null","","","null","","","","html-keyboard-response","187","1164405","0.0-187.0","5facc4201f33582f15dcf9bf","6213cda7f5052ba7b6e88c29","","","","","<p style=""color:darkgreen;font-size:24px;"">Correct :)</p>","",""
"2951","key","v","v","16.68336723163845","500","250","psychophysics","188","1167361","0.0-188.0","5facc4201f33582f15dcf9bf","6213cda7f5052ba7b6e88c29","4","","","","","1","3"
"null","","","null","","","","html-keyboard-response","189","1167863","0.0-189.0","5facc4201f33582f15dcf9bf","6213cda7f5052ba7b6e88c29","","","","","<p style=""color:darkgreen;font-size:24px;"">Correct :)</p>","",""
"2888","key","n","n","16.68342528735614","500","250","psychophysics","190","1170761","0.0-190.0","5facc4201f33582f15dcf9bf","6213cda7f5052ba7b6e88c29","4","","","","","1","7"
"null","","","null","","","","html-keyboard-response","191","1171262","0.0-191.0","5facc4201f33582f15dcf9bf","6213cda7f5052ba7b6e88c29","","","","","<p style=""color:darkgreen;font-size:24px;"">Correct :)</p>","",""
"3067","key","n","n","16.683304347826734","500","250","psychophysics","192","1174335","0.0-192.0","5facc4201f33582f15dcf9bf","6213cda7f5052ba7b6e88c29","4","","","","","1","6"
"null","","","null","","","","html-keyboard-response","193","1174837","0.0-193.0","5facc4201f33582f15dcf9bf","6213cda7f5052ba7b6e88c29","","","","","<p style=""color:darkgreen;font-size:24px;"">Correct :)</p>","",""
"25860","","","v","","","","html-keyboard-response","194","1200698","0.0-194.0","5facc4201f33582f15dcf9bf","6213cda7f5052ba7b6e88c29","","","","","<p> Ok, now we are going present the same digits as before.  Your job is to say whether the digit is even or odd  If the digit is odd, press to v key; if it is even, press the n key. We are going to do 50 of these.  </p>  <br><br>  Ready? (press v or n)","",""
"3603","key","n","n","16.684231481481454","500","250","psychophysics","195","1204308","0.0-195.0","5facc4201f33582f15dcf9bf","6213cda7f5052ba7b6e88c29","5","","","","","0","8"
"null","","","null","","","","html-keyboard-response","196","1204812","0.0-196.0","5facc4201f33582f15dcf9bf","6213cda7f5052ba7b6e88c29","","","","","<p style=""color:darkgreen;font-size:24px;"">Correct :)</p>","",""
"2872","key","n","n","16.683191860464216","500","250","psychophysics","197","1207689","0.0-197.0","5facc4201f33582f15dcf9bf","6213cda7f5052ba7b6e88c29","5","","","","","0","4"
"null","","","null","","","","html-keyboard-response","198","1208190","0.0-198.0","5facc4201f33582f15dcf9bf","6213cda7f5052ba7b6e88c29","","","","","<p style=""color:darkgreen;font-size:24px;"">Correct :)</p>","",""
"2666","key","n","n","16.683312500000465","500","250","psychophysics","199","1210861","0.0-199.0","5facc4201f33582f15dcf9bf","6213cda7f5052ba7b6e88c29","5","","","","","0","4"
"null","","","null","","","","html-keyboard-response","200","1211363","0.0-200.0","5facc4201f33582f15dcf9bf","6213cda7f5052ba7b6e88c29","","","","","<p style=""color:darkgreen;font-size:24px;"">Correct :)</p>","",""
"2790","key","n","n","16.783359281437104","500","250","psychophysics","201","1214159","0.0-201.0","5facc4201f33582f15dcf9bf","6213cda7f5052ba7b6e88c29","5","","","","","0","4"
"null","","","null","","","","html-keyboard-response","202","1214662","0.0-202.0","5facc4201f33582f15dcf9bf","6213cda7f5052ba7b6e88c29","","","","","<p style=""color:darkgreen;font-size:24px;"">Correct :)</p>","",""
"2708","key","v","v","16.683570552147366","500","250","psychophysics","203","1217381","0.0-203.0","5facc4201f33582f15dcf9bf","6213cda7f5052ba7b6e88c29","5","","","","","0","1"
"null","","","null","","","","html-keyboard-response","204","1217884","0.0-204.0","5facc4201f33582f15dcf9bf","6213cda7f5052ba7b6e88c29","","","","","<p style=""color:darkgreen;font-size:24px;"">Correct :)</p>","",""
"3498","key","n","n","16.683757142856763","500","250","psychophysics","205","1221387","0.0-205.0","5facc4201f33582f15dcf9bf","6213cda7f5052ba7b6e88c29","5","","","","","0","2"
"null","","","null","","","","html-keyboard-response","206","1221888","0.0-206.0","5facc4201f33582f15dcf9bf","6213cda7f5052ba7b6e88c29","","","","","<p style=""color:darkgreen;font-size:24px;"">Correct :)</p>","",""
"2944","key","n","n","16.683265536723628","500","250","psychophysics","207","1224837","0.0-207.0","5facc4201f33582f15dcf9bf","6213cda7f5052ba7b6e88c29","5","","","","","0","7"
"null","","","null","","","","html-keyboard-response","208","1225338","0.0-208.0","5facc4201f33582f15dcf9bf","6213cda7f5052ba7b6e88c29","","","","","<p style=""color:red;font-size:24px;"">Error :(</p>","",""
"3010","key","n","n","16.683348066298272","500","250","psychophysics","209","1228353","0.0-209.0","5facc4201f33582f15dcf9bf","6213cda7f5052ba7b6e88c29","5","","","","","0","8"
"null","","","null","","","","html-keyboard-response","210","1228855","0.0-210.0","5facc4201f33582f15dcf9bf","6213cda7f5052ba7b6e88c29","","","","","<p style=""color:darkgreen;font-size:24px;"">Correct :)</p>","",""
"3084","key","v","v","16.683378378377373","500","250","psychophysics","211","1231943","0.0-211.0","5facc4201f33582f15dcf9bf","6213cda7f5052ba7b6e88c29","5","","","","","0","7"
"null","","","null","","","","html-keyboard-response","212","1232445","0.0-212.0","5facc4201f33582f15dcf9bf","6213cda7f5052ba7b6e88c29","","","","","<p style=""color:darkgreen;font-size:24px;"">Correct :)</p>","",""
"3289","key","n","n","16.68326262626303","500","250","psychophysics","213","1235743","0.0-213.0","5facc4201f33582f15dcf9bf","6213cda7f5052ba7b6e88c29","5","","","","","0","2"
"null","","","null","","","","html-keyboard-response","214","1236244","0.0-214.0","5facc4201f33582f15dcf9bf","6213cda7f5052ba7b6e88c29","","","","","<p style=""color:darkgreen;font-size:24px;"">Correct :)</p>","",""
"2933","key","n","n","16.68321022727204","500","250","psychophysics","215","1239183","0.0-215.0","5facc4201f33582f15dcf9bf","6213cda7f5052ba7b6e88c29","5","","","","","0","4"
"null","","","null","","","","html-keyboard-response","216","1239684","0.0-216.0","5facc4201f33582f15dcf9bf","6213cda7f5052ba7b6e88c29","","","","","<p style=""color:darkgreen;font-size:24px;"">Correct :)</p>","",""
"2914","key","v","v","16.683462857142356","500","250","psychophysics","217","1242609","0.0-217.0","5facc4201f33582f15dcf9bf","6213cda7f5052ba7b6e88c29","5","","","","","0","3"
"null","","","null","","","","html-keyboard-response","218","1243112","0.0-218.0","5facc4201f33582f15dcf9bf","6213cda7f5052ba7b6e88c29","","","","","<p style=""color:darkgreen;font-size:24px;"">Correct :)</p>","",""
"2964","key","n","n","16.683536723164032","500","250","psychophysics","219","1246081","0.0-219.0","5facc4201f33582f15dcf9bf","6213cda7f5052ba7b6e88c29","5","","","","","0","4"
"null","","","null","","","","html-keyboard-response","220","1246583","0.0-220.0","5facc4201f33582f15dcf9bf","6213cda7f5052ba7b6e88c29","","","","","<p style=""color:darkgreen;font-size:24px;"">Correct :)</p>","",""
"2910","key","n","n","16.683591954023363","500","250","psychophysics","221","1249497","0.0-221.0","5facc4201f33582f15dcf9bf","6213cda7f5052ba7b6e88c29","5","","","","","0","8"
"null","","","null","","","","html-keyboard-response","222","1249999","0.0-222.0","5facc4201f33582f15dcf9bf","6213cda7f5052ba7b6e88c29","","","","","<p style=""color:darkgreen;font-size:24px;"">Correct :)</p>","",""
"2982","key","n","n","16.683162011173632","500","250","psychophysics","223","1252985","0.0-223.0","5facc4201f33582f15dcf9bf","6213cda7f5052ba7b6e88c29","5","","","","","0","8"
"null","","","null","","","","html-keyboard-response","224","1253488","0.0-224.0","5facc4201f33582f15dcf9bf","6213cda7f5052ba7b6e88c29","","","","","<p style=""color:darkgreen;font-size:24px;"">Correct :)</p>","",""
"3245","key","n","n","16.770010309278263","500","250","psychophysics","225","1256741","0.0-225.0","5facc4201f33582f15dcf9bf","6213cda7f5052ba7b6e88c29","5","","","","","0","2"
"null","","","null","","","","html-keyboard-response","226","1257244","0.0-226.0","5facc4201f33582f15dcf9bf","6213cda7f5052ba7b6e88c29","","","","","<p style=""color:darkgreen;font-size:24px;"">Correct :)</p>","",""
"2692","key","n","n","16.683366459628036","500","250","psychophysics","227","1259941","0.0-227.0","5facc4201f33582f15dcf9bf","6213cda7f5052ba7b6e88c29","5","","","","","0","2"
"null","","","null","","","","html-keyboard-response","228","1260443","0.0-228.0","5facc4201f33582f15dcf9bf","6213cda7f5052ba7b6e88c29","","","","","<p style=""color:darkgreen;font-size:24px;"">Correct :)</p>","",""
"3139","key","n","n","16.683534391534824","500","250","psychophysics","229","1263587","0.0-229.0","5facc4201f33582f15dcf9bf","6213cda7f5052ba7b6e88c29","5","","","","","0","4"
"null","","","null","","","","html-keyboard-response","230","1264090","0.0-230.0","5facc4201f33582f15dcf9bf","6213cda7f5052ba7b6e88c29","","","","","<p style=""color:darkgreen;font-size:24px;"">Correct :)</p>","",""
"3766","key","n","n","16.683287610619256","500","250","psychophysics","231","1267861","0.0-231.0","5facc4201f33582f15dcf9bf","6213cda7f5052ba7b6e88c29","5","","","","","0","2"
"null","","","null","","","","html-keyboard-response","232","1268363","0.0-232.0","5facc4201f33582f15dcf9bf","6213cda7f5052ba7b6e88c29","","","","","<p style=""color:darkgreen;font-size:24px;"">Correct :)</p>","",""
"3464","key","v","v","16.683408653846037","500","250","psychophysics","233","1271831","0.0-233.0","5facc4201f33582f15dcf9bf","6213cda7f5052ba7b6e88c29","5","","","","","0","9"
"null","","","null","","","","html-keyboard-response","234","1272333","0.0-234.0","5facc4201f33582f15dcf9bf","6213cda7f5052ba7b6e88c29","","","","","<p style=""color:darkgreen;font-size:24px;"">Correct :)</p>","",""
"2725","key","v","v","16.68404268292659","500","250","psychophysics","235","1275066","0.0-235.0","5facc4201f33582f15dcf9bf","6213cda7f5052ba7b6e88c29","5","","","","","0","7"
"null","","","null","","","","html-keyboard-response","236","1275568","0.0-236.0","5facc4201f33582f15dcf9bf","6213cda7f5052ba7b6e88c29","","","","","<p style=""color:darkgreen;font-size:24px;"">Correct :)</p>","",""
"2745","key","n","n","16.683509090909677","500","250","psychophysics","237","1278318","0.0-237.0","5facc4201f33582f15dcf9bf","6213cda7f5052ba7b6e88c29","5","","","","","0","8"
"null","","","null","","","","html-keyboard-response","238","1278820","0.0-238.0","5facc4201f33582f15dcf9bf","6213cda7f5052ba7b6e88c29","","","","","<p style=""color:darkgreen;font-size:24px;"">Correct :)</p>","",""
"3391","key","n","n","16.683416666666172","500","250","psychophysics","239","1282222","0.0-239.0","5facc4201f33582f15dcf9bf","6213cda7f5052ba7b6e88c29","5","","","","","0","2"
"null","","","null","","","","html-keyboard-response","240","1282724","0.0-240.0","5facc4201f33582f15dcf9bf","6213cda7f5052ba7b6e88c29","","","","","<p style=""color:darkgreen;font-size:24px;"">Correct :)</p>","",""
"3039","key","n","n","16.683401098900863","500","250","psychophysics","241","1285768","0.0-241.0","5facc4201f33582f15dcf9bf","6213cda7f5052ba7b6e88c29","5","","","","","0","8"
"null","","","null","","","","html-keyboard-response","242","1286270","0.0-242.0","5facc4201f33582f15dcf9bf","6213cda7f5052ba7b6e88c29","","","","","<p style=""color:darkgreen;font-size:24px;"">Correct :)</p>","",""
"2805","key","n","n","16.68343786982208","500","250","psychophysics","243","1289085","0.0-243.0","5facc4201f33582f15dcf9bf","6213cda7f5052ba7b6e88c29","5","","","","","0","8"
"null","","","null","","","","html-keyboard-response","244","1289589","0.0-244.0","5facc4201f33582f15dcf9bf","6213cda7f5052ba7b6e88c29","","","","","<p style=""color:darkgreen;font-size:24px;"">Correct :)</p>","",""
"2878","key","n","n","16.683121387284206","500","250","psychophysics","245","1292471","0.0-245.0","5facc4201f33582f15dcf9bf","6213cda7f5052ba7b6e88c29","5","","","","","0","4"
"null","","","null","","","","html-keyboard-response","246","1292973","0.0-246.0","5facc4201f33582f15dcf9bf","6213cda7f5052ba7b6e88c29","","","","","<p style=""color:darkgreen;font-size:24px;"">Correct :)</p>","",""
"2586","key","v","v","16.6833205128205","500","250","psychophysics","247","1295569","0.0-247.0","5facc4201f33582f15dcf9bf","6213cda7f5052ba7b6e88c29","5","","","","","0","1"
"null","","","null","","","","html-keyboard-response","248","1296071","0.0-248.0","5facc4201f33582f15dcf9bf","6213cda7f5052ba7b6e88c29","","","","","<p style=""color:darkgreen;font-size:24px;"">Correct :)</p>","",""
"3091","key","v","v","16.683254054054064","500","250","psychophysics","249","1299168","0.0-249.0","5facc4201f33582f15dcf9bf","6213cda7f5052ba7b6e88c29","5","","","","","0","3"
"null","","","null","","","","html-keyboard-response","250","1299669","0.0-250.0","5facc4201f33582f15dcf9bf","6213cda7f5052ba7b6e88c29","","","","","<p style=""color:darkgreen;font-size:24px;"">Correct :)</p>","",""
"2845","key","v","v","16.683403508771722","500","250","psychophysics","251","1302524","0.0-251.0","5facc4201f33582f15dcf9bf","6213cda7f5052ba7b6e88c29","5","","","","","0","3"
"null","","","null","","","","html-keyboard-response","252","1303027","0.0-252.0","5facc4201f33582f15dcf9bf","6213cda7f5052ba7b6e88c29","","","","","<p style=""color:darkgreen;font-size:24px;"">Correct :)</p>","",""
"3408","key","v","v","16.68342156862662","500","250","psychophysics","253","1306439","0.0-253.0","5facc4201f33582f15dcf9bf","6213cda7f5052ba7b6e88c29","5","","","","","0","9"
"null","","","null","","","","html-keyboard-response","254","1306943","0.0-254.0","5facc4201f33582f15dcf9bf","6213cda7f5052ba7b6e88c29","","","","","<p style=""color:darkgreen;font-size:24px;"">Correct :)</p>","",""
"3310","key","n","n","16.76818181818229","500","250","psychophysics","255","1310260","0.0-255.0","5facc4201f33582f15dcf9bf","6213cda7f5052ba7b6e88c29","5","","","","","0","8"
"null","","","null","","","","html-keyboard-response","256","1310761","0.0-256.0","5facc4201f33582f15dcf9bf","6213cda7f5052ba7b6e88c29","","","","","<p style=""color:darkgreen;font-size:24px;"">Correct :)</p>","",""
"3707","key","n","n","16.682677130044684","500","250","psychophysics","257","1314473","0.0-257.0","5facc4201f33582f15dcf9bf","6213cda7f5052ba7b6e88c29","5","","","","","0","8"
"null","","","null","","","","html-keyboard-response","258","1314975","0.0-258.0","5facc4201f33582f15dcf9bf","6213cda7f5052ba7b6e88c29","","","","","<p style=""color:darkgreen;font-size:24px;"">Correct :)</p>","",""
"3342","key","v","v","16.683268656716706","500","250","psychophysics","259","1318327","0.0-259.0","5facc4201f33582f15dcf9bf","6213cda7f5052ba7b6e88c29","5","","","","","0","9"
"null","","","null","","","","html-keyboard-response","260","1318830","0.0-260.0","5facc4201f33582f15dcf9bf","6213cda7f5052ba7b6e88c29","","","","","<p style=""color:darkgreen;font-size:24px;"">Correct :)</p>","",""
"2933","key","v","v","16.683306818182412","500","250","psychophysics","261","1321767","0.0-261.0","5facc4201f33582f15dcf9bf","6213cda7f5052ba7b6e88c29","5","","","","","0","3"
"null","","","null","","","","html-keyboard-response","262","1322269","0.0-262.0","5facc4201f33582f15dcf9bf","6213cda7f5052ba7b6e88c29","","","","","<p style=""color:darkgreen;font-size:24px;"">Correct :)</p>","",""
"3158","key","n","n","16.68351052631624","500","250","psychophysics","263","1325431","0.0-263.0","5facc4201f33582f15dcf9bf","6213cda7f5052ba7b6e88c29","5","","","","","0","4"
"null","","","null","","","","html-keyboard-response","264","1325934","0.0-264.0","5facc4201f33582f15dcf9bf","6213cda7f5052ba7b6e88c29","","","","","<p style=""color:darkgreen;font-size:24px;"">Correct :)</p>","",""
"3322","key","v","v","16.68343718592943","500","250","psychophysics","265","1329261","0.0-265.0","5facc4201f33582f15dcf9bf","6213cda7f5052ba7b6e88c29","5","","","","","0","9"
"null","","","null","","","","html-keyboard-response","266","1329763","0.0-266.0","5facc4201f33582f15dcf9bf","6213cda7f5052ba7b6e88c29","","","","","<p style=""color:darkgreen;font-size:24px;"">Correct :)</p>","",""
"3315","key","n","n","16.68282499999972","500","250","psychophysics","267","1333090","0.0-267.0","5facc4201f33582f15dcf9bf","6213cda7f5052ba7b6e88c29","5","","","","","0","2"
"null","","","null","","","","html-keyboard-response","268","1333593","0.0-268.0","5facc4201f33582f15dcf9bf","6213cda7f5052ba7b6e88c29","","","","","<p style=""color:darkgreen;font-size:24px;"">Correct :)</p>","",""
"3072","key","n","n","16.683494565217583","500","250","psychophysics","269","1336669","0.0-269.0","5facc4201f33582f15dcf9bf","6213cda7f5052ba7b6e88c29","5","","","","","0","2"
"null","","","null","","","","html-keyboard-response","270","1337172","0.0-270.0","5facc4201f33582f15dcf9bf","6213cda7f5052ba7b6e88c29","","","","","<p style=""color:darkgreen;font-size:24px;"">Correct :)</p>","",""
"2794","key","v","v","16.783203592813926","500","250","psychophysics","271","1339971","0.0-271.0","5facc4201f33582f15dcf9bf","6213cda7f5052ba7b6e88c29","5","","","","","0","1"
"null","","","null","","","","html-keyboard-response","272","1340473","0.0-272.0","5facc4201f33582f15dcf9bf","6213cda7f5052ba7b6e88c29","","","","","<p style=""color:darkgreen;font-size:24px;"">Correct :)</p>","",""
"3236","key","n","n","16.6841340206177","500","250","psychophysics","273","1343714","0.0-273.0","5facc4201f33582f15dcf9bf","6213cda7f5052ba7b6e88c29","5","","","","","0","4"
"null","","","null","","","","html-keyboard-response","274","1344218","0.0-274.0","5facc4201f33582f15dcf9bf","6213cda7f5052ba7b6e88c29","","","","","<p style=""color:darkgreen;font-size:24px;"">Correct :)</p>","",""
"2870","key","v","v","16.68287790697718","500","250","psychophysics","275","1347093","0.0-275.0","5facc4201f33582f15dcf9bf","6213cda7f5052ba7b6e88c29","5","","","","","0","1"
"null","","","null","","","","html-keyboard-response","276","1347595","0.0-276.0","5facc4201f33582f15dcf9bf","6213cda7f5052ba7b6e88c29","","","","","<p style=""color:darkgreen;font-size:24px;"">Correct :)</p>","",""
"3547","key","v","v","16.683920187792552","500","250","psychophysics","277","1351153","0.0-277.0","5facc4201f33582f15dcf9bf","6213cda7f5052ba7b6e88c29","5","","","","","0","7"
"null","","","null","","","","html-keyboard-response","278","1351657","0.0-278.0","5facc4201f33582f15dcf9bf","6213cda7f5052ba7b6e88c29","","","","","<p style=""color:darkgreen;font-size:24px;"">Correct :)</p>","",""
"3063","key","v","v","16.68273913043389","500","250","psychophysics","279","1354726","0.0-279.0","5facc4201f33582f15dcf9bf","6213cda7f5052ba7b6e88c29","5","","","","","0","9"
"null","","","null","","","","html-keyboard-response","280","1355228","0.0-280.0","5facc4201f33582f15dcf9bf","6213cda7f5052ba7b6e88c29","","","","","<p style=""color:darkgreen;font-size:24px;"">Correct :)</p>","",""
"3059","key","n","n","16.683431693988908","500","250","psychophysics","281","1358291","0.0-281.0","5facc4201f33582f15dcf9bf","6213cda7f5052ba7b6e88c29","5","","","","","0","4"
"null","","","null","","","","html-keyboard-response","282","1358794","0.0-282.0","5facc4201f33582f15dcf9bf","6213cda7f5052ba7b6e88c29","","","","","<p style=""color:darkgreen;font-size:24px;"">Correct :)</p>","",""
"2880","key","n","n","16.780337209302964","500","250","psychophysics","283","1361679","0.0-283.0","5facc4201f33582f15dcf9bf","6213cda7f5052ba7b6e88c29","5","","","","","0","8"
"null","","","null","","","","html-keyboard-response","284","1362181","0.0-284.0","5facc4201f33582f15dcf9bf","6213cda7f5052ba7b6e88c29","","","","","<p style=""color:darkgreen;font-size:24px;"">Correct :)</p>","",""
"2854","key","n","n","16.78094152046765","500","250","psychophysics","285","1365039","0.0-285.0","5facc4201f33582f15dcf9bf","6213cda7f5052ba7b6e88c29","5","","","","","0","6"
"null","","","null","","","","html-keyboard-response","286","1365541","0.0-286.0","5facc4201f33582f15dcf9bf","6213cda7f5052ba7b6e88c29","","","","","<p style=""color:darkgreen;font-size:24px;"">Correct :)</p>","",""
"2689","key","n","n","16.683335403726662","500","250","psychophysics","287","1368235","0.0-287.0","5facc4201f33582f15dcf9bf","6213cda7f5052ba7b6e88c29","5","","","","","0","8"
"null","","","null","","","","html-keyboard-response","288","1368737","0.0-288.0","5facc4201f33582f15dcf9bf","6213cda7f5052ba7b6e88c29","","","","","<p style=""color:darkgreen;font-size:24px;"">Correct :)</p>","",""
"2802","key","v","v","16.782684523810445","500","250","psychophysics","289","1371544","0.0-289.0","5facc4201f33582f15dcf9bf","6213cda7f5052ba7b6e88c29","5","","","","","0","9"
"null","","","null","","","","html-keyboard-response","290","1372046","0.0-290.0","5facc4201f33582f15dcf9bf","6213cda7f5052ba7b6e88c29","","","","","<p style=""color:darkgreen;font-size:24px;"">Correct :)</p>","",""
"3354","key","v","v","16.68398507462643","500","250","psychophysics","291","1375405","0.0-291.0","5facc4201f33582f15dcf9bf","6213cda7f5052ba7b6e88c29","5","","","","","0","1"
"null","","","null","","","","html-keyboard-response","292","1375907","0.0-292.0","5facc4201f33582f15dcf9bf","6213cda7f5052ba7b6e88c29","","","","","<p style=""color:darkgreen;font-size:24px;"">Correct :)</p>","",""
"3208","key","n","n","16.68339896373031","500","250","psychophysics","293","1379119","0.0-293.0","5facc4201f33582f15dcf9bf","6213cda7f5052ba7b6e88c29","5","","","","","0","8"
"null","","","null","","","","html-keyboard-response","294","1379621","0.0-294.0","5facc4201f33582f15dcf9bf","6213cda7f5052ba7b6e88c29","","","","","<p style=""color:darkgreen;font-size:24px;"">Correct :)</p>","",""
"21292","","","v","","","","html-keyboard-response","295","1400914","0.0-295.0","5facc4201f33582f15dcf9bf","6213cda7f5052ba7b6e88c29","","","","","<p> Here, the tasks are going to switch.  For some trials, your job is to decide if the digit is less than or greater than 5.  For others, it is to decide if the digit is even or odd.  You will be told which type of trial the current one is.  But, pay attention, the type of trial changes too.  We are going to do 50 of these.  </p>  <br><br>  Ready? (press v or n)","",""
"3370","key","n","n","16.683866336632814","500","250","psychophysics","296","1404289","0.0-296.0","5facc4201f33582f15dcf9bf","6213cda7f5052ba7b6e88c29","6","","","","","1","7"
"null","","","null","","","","html-keyboard-response","297","1404791","0.0-297.0","5facc4201f33582f15dcf9bf","6213cda7f5052ba7b6e88c29","","","","","<p style=""color:darkgreen;font-size:24px;"">Correct :)</p>","",""
"3016","key","n","n","16.68339444444411","500","250","psychophysics","298","1407811","0.0-298.0","5facc4201f33582f15dcf9bf","6213cda7f5052ba7b6e88c29","6","","","","","0","2"
"null","","","null","","","","html-keyboard-response","299","1408314","0.0-299.0","5facc4201f33582f15dcf9bf","6213cda7f5052ba7b6e88c29","","","","","<p style=""color:darkgreen;font-size:24px;"">Correct :)</p>","",""
"2944","key","n","n","16.683397727272347","500","250","psychophysics","300","1411263","0.0-300.0","5facc4201f33582f15dcf9bf","6213cda7f5052ba7b6e88c29","6","","","","","0","2"
"null","","","null","","","","html-keyboard-response","301","1411765","0.0-301.0","5facc4201f33582f15dcf9bf","6213cda7f5052ba7b6e88c29","","","","","<p style=""color:darkgreen;font-size:24px;"">Correct :)</p>","",""
"3071","key","v","v","16.68343478260921","500","250","psychophysics","302","1414841","0.0-302.0","5facc4201f33582f15dcf9bf","6213cda7f5052ba7b6e88c29","6","","","","","1","4"
"null","","","null","","","","html-keyboard-response","303","1415343","0.0-303.0","5facc4201f33582f15dcf9bf","6213cda7f5052ba7b6e88c29","","","","","<p style=""color:darkgreen;font-size:24px;"">Correct :)</p>","",""
"4538","key","v","v","16.684003676470155","500","250","psychophysics","304","1419885","0.0-304.0","5facc4201f33582f15dcf9bf","6213cda7f5052ba7b6e88c29","6","","","","","0","1"
"null","","","null","","","","html-keyboard-response","305","1420387","0.0-305.0","5facc4201f33582f15dcf9bf","6213cda7f5052ba7b6e88c29","","","","","<p style=""color:darkgreen;font-size:24px;"">Correct :)</p>","",""
"3008","key","v","v","16.68282320441997","500","250","psychophysics","306","1423400","0.0-306.0","5facc4201f33582f15dcf9bf","6213cda7f5052ba7b6e88c29","6","","","","","0","1"
"null","","","null","","","","html-keyboard-response","307","1423901","0.0-307.0","5facc4201f33582f15dcf9bf","6213cda7f5052ba7b6e88c29","","","","","<p style=""color:darkgreen;font-size:24px;"">Correct :)</p>","",""
"3938","key","v","v","16.6837966101692","500","250","psychophysics","308","1427844","0.0-308.0","5facc4201f33582f15dcf9bf","6213cda7f5052ba7b6e88c29","6","","","","","0","7"
"null","","","null","","","","html-keyboard-response","309","1428347","0.0-309.0","5facc4201f33582f15dcf9bf","6213cda7f5052ba7b6e88c29","","","","","<p style=""color:darkgreen;font-size:24px;"">Correct :)</p>","",""
"3515","key","n","n","16.68190909090951","500","250","psychophysics","310","1431865","0.0-310.0","5facc4201f33582f15dcf9bf","6213cda7f5052ba7b6e88c29","6","","","","","0","2"
"null","","","null","","","","html-keyboard-response","311","1432367","0.0-311.0","5facc4201f33582f15dcf9bf","6213cda7f5052ba7b6e88c29","","","","","<p style=""color:darkgreen;font-size:24px;"">Correct :)</p>","",""
"3048","key","v","v","16.775109890110247","500","250","psychophysics","312","1435419","0.0-312.0","5facc4201f33582f15dcf9bf","6213cda7f5052ba7b6e88c29","6","","","","","1","2"
"null","","","null","","","","html-keyboard-response","313","1435921","0.0-313.0","5facc4201f33582f15dcf9bf","6213cda7f5052ba7b6e88c29","","","","","<p style=""color:darkgreen;font-size:24px;"">Correct :)</p>","",""
"3285","key","n","n","16.768487309644634","500","250","psychophysics","314","1439213","0.0-314.0","5facc4201f33582f15dcf9bf","6213cda7f5052ba7b6e88c29","6","","","","","0","8"
"null","","","null","","","","html-keyboard-response","315","1439715","0.0-315.0","5facc4201f33582f15dcf9bf","6213cda7f5052ba7b6e88c29","","","","","<p style=""color:darkgreen;font-size:24px;"">Correct :)</p>","",""
"2819","key","v","v","16.683556213017454","500","250","psychophysics","316","1442540","0.0-316.0","5facc4201f33582f15dcf9bf","6213cda7f5052ba7b6e88c29","6","","","","","1","3"
"null","","","null","","","","html-keyboard-response","317","1443041","0.0-317.0","5facc4201f33582f15dcf9bf","6213cda7f5052ba7b6e88c29","","","","","<p style=""color:darkgreen;font-size:24px;"">Correct :)</p>","",""
"3089","key","n","n","16.68321505376333","500","250","psychophysics","318","1446135","0.0-318.0","5facc4201f33582f15dcf9bf","6213cda7f5052ba7b6e88c29","6","","","","","0","8"
"null","","","null","","","","html-keyboard-response","319","1446638","0.0-319.0","5facc4201f33582f15dcf9bf","6213cda7f5052ba7b6e88c29","","","","","<p style=""color:darkgreen;font-size:24px;"">Correct :)</p>","",""
"5040","key","n","n","16.68308940397372","500","250","psychophysics","320","1451683","0.0-320.0","5facc4201f33582f15dcf9bf","6213cda7f5052ba7b6e88c29","6","","","","","0","8"
"null","","","null","","","","html-keyboard-response","321","1452185","0.0-321.0","5facc4201f33582f15dcf9bf","6213cda7f5052ba7b6e88c29","","","","","<p style=""color:darkgreen;font-size:24px;"">Correct :)</p>","",""
"3506","key","v","v","16.683393364928893","500","250","psychophysics","322","1455696","0.0-322.0","5facc4201f33582f15dcf9bf","6213cda7f5052ba7b6e88c29","6","","","","","1","3"
"null","","","null","","","","html-keyboard-response","323","1456198","0.0-323.0","5facc4201f33582f15dcf9bf","6213cda7f5052ba7b6e88c29","","","","","<p style=""color:darkgreen;font-size:24px;"">Correct :)</p>","",""
"2745","key","v","v","16.683339393938976","500","250","psychophysics","324","1458948","0.0-324.0","5facc4201f33582f15dcf9bf","6213cda7f5052ba7b6e88c29","6","","","","","0","3"
"null","","","null","","","","html-keyboard-response","325","1459450","0.0-325.0","5facc4201f33582f15dcf9bf","6213cda7f5052ba7b6e88c29","","","","","<p style=""color:darkgreen;font-size:24px;"">Correct :)</p>","",""
"2912","key","n","n","16.682885714286407","500","250","psychophysics","326","1462367","0.0-326.0","5facc4201f33582f15dcf9bf","6213cda7f5052ba7b6e88c29","6","","","","","0","4"
"null","","","null","","","","html-keyboard-response","327","1462869","0.0-327.0","5facc4201f33582f15dcf9bf","6213cda7f5052ba7b6e88c29","","","","","<p style=""color:darkgreen;font-size:24px;"">Correct :)</p>","",""
"3090","key","n","n","16.68333513513585","500","250","psychophysics","328","1465969","0.0-328.0","5facc4201f33582f15dcf9bf","6213cda7f5052ba7b6e88c29","6","","","","","1","6"
"null","","","null","","","","html-keyboard-response","329","1466473","0.0-329.0","5facc4201f33582f15dcf9bf","6213cda7f5052ba7b6e88c29","","","","","<p style=""color:darkgreen;font-size:24px;"">Correct :)</p>","",""
"3026","key","v","v","16.683419889502886","500","250","psychophysics","330","1469503","0.0-330.0","5facc4201f33582f15dcf9bf","6213cda7f5052ba7b6e88c29","6","","","","","1","3"
"null","","","null","","","","html-keyboard-response","331","1470006","0.0-331.0","5facc4201f33582f15dcf9bf","6213cda7f5052ba7b6e88c29","","","","","<p style=""color:darkgreen;font-size:24px;"">Correct :)</p>","",""
"3026","key","v","v","16.683381215468543","500","250","psychophysics","332","1473037","0.0-332.0","5facc4201f33582f15dcf9bf","6213cda7f5052ba7b6e88c29","6","","","","","1","1"
"null","","","null","","","","html-keyboard-response","333","1473540","0.0-333.0","5facc4201f33582f15dcf9bf","6213cda7f5052ba7b6e88c29","","","","","<p style=""color:darkgreen;font-size:24px;"">Correct :)</p>","",""
"4588","key","v","v","16.683322463767514","500","250","psychophysics","334","1478133","0.0-334.0","5facc4201f33582f15dcf9bf","6213cda7f5052ba7b6e88c29","6","","","","","1","1"
"null","","","null","","","","html-keyboard-response","335","1478636","0.0-335.0","5facc4201f33582f15dcf9bf","6213cda7f5052ba7b6e88c29","","","","","<p style=""color:darkgreen;font-size:24px;"">Correct :)</p>","",""
"2875","key","n","n","16.683337209302238","500","250","psychophysics","336","1481515","0.0-336.0","5facc4201f33582f15dcf9bf","6213cda7f5052ba7b6e88c29","6","","","","","0","8"
"null","","","null","","","","html-keyboard-response","337","1482017","0.0-337.0","5facc4201f33582f15dcf9bf","6213cda7f5052ba7b6e88c29","","","","","<p style=""color:darkgreen;font-size:24px;"">Correct :)</p>","",""
"3181","key","v","v","16.771673684210615","500","250","psychophysics","338","1485203","0.0-338.0","5facc4201f33582f15dcf9bf","6213cda7f5052ba7b6e88c29","6","","","","","1","2"
"null","","","null","","","","html-keyboard-response","339","1485706","0.0-339.0","5facc4201f33582f15dcf9bf","6213cda7f5052ba7b6e88c29","","","","","<p style=""color:darkgreen;font-size:24px;"">Correct :)</p>","",""
"3054","key","n","n","16.682759562841888","500","250","psychophysics","340","1488765","0.0-340.0","5facc4201f33582f15dcf9bf","6213cda7f5052ba7b6e88c29","6","","","","","1","7"
"null","","","null","","","","html-keyboard-response","341","1489267","0.0-341.0","5facc4201f33582f15dcf9bf","6213cda7f5052ba7b6e88c29","","","","","<p style=""color:darkgreen;font-size:24px;"">Correct :)</p>","",""
"4030","key","v","v","16.68326033057918","500","250","psychophysics","342","1493301","0.0-342.0","5facc4201f33582f15dcf9bf","6213cda7f5052ba7b6e88c29","6","","","","","0","3"
"null","","","null","","","","html-keyboard-response","343","1493804","0.0-343.0","5facc4201f33582f15dcf9bf","6213cda7f5052ba7b6e88c29","","","","","<p style=""color:darkgreen;font-size:24px;"">Correct :)</p>","",""
"5229","key","v","v","16.683324840764374","500","250","psychophysics","344","1499038","0.0-344.0","5facc4201f33582f15dcf9bf","6213cda7f5052ba7b6e88c29","6","","","","","1","4"
"null","","","null","","","","html-keyboard-response","345","1499539","0.0-345.0","5facc4201f33582f15dcf9bf","6213cda7f5052ba7b6e88c29","","","","","<p style=""color:darkgreen;font-size:24px;"">Correct :)</p>","",""
"3769","key","v","v","16.68336283185919","500","250","psychophysics","346","1503314","0.0-346.0","5facc4201f33582f15dcf9bf","6213cda7f5052ba7b6e88c29","6","","","","","0","1"
"null","","","null","","","","html-keyboard-response","347","1503815","0.0-347.0","5facc4201f33582f15dcf9bf","6213cda7f5052ba7b6e88c29","","","","","<p style=""color:darkgreen;font-size:24px;"">Correct :)</p>","",""
"2767","key","v","v","16.683439759035448","500","250","psychophysics","348","1506587","0.0-348.0","5facc4201f33582f15dcf9bf","6213cda7f5052ba7b6e88c29","6","","","","","1","3"
"null","","","null","","","","html-keyboard-response","349","1507090","0.0-349.0","5facc4201f33582f15dcf9bf","6213cda7f5052ba7b6e88c29","","","","","<p style=""color:darkgreen;font-size:24px;"">Correct :)</p>","",""
"3335","key","n","n","16.683895000000483","500","250","psychophysics","350","1510429","0.0-350.0","5facc4201f33582f15dcf9bf","6213cda7f5052ba7b6e88c29","6","","","","","1","9"
"null","","","null","","","","html-keyboard-response","351","1510932","0.0-351.0","5facc4201f33582f15dcf9bf","6213cda7f5052ba7b6e88c29","","","","","<p style=""color:darkgreen;font-size:24px;"">Correct :)</p>","",""
"3500","key","n","n","16.6834857142863","500","250","psychophysics","352","1514437","0.0-352.0","5facc4201f33582f15dcf9bf","6213cda7f5052ba7b6e88c29","6","","","","","1","6"
"null","","","null","","","","html-keyboard-response","353","1514940","0.0-353.0","5facc4201f33582f15dcf9bf","6213cda7f5052ba7b6e88c29","","","","","<p style=""color:darkgreen;font-size:24px;"">Correct :)</p>","",""
"3587","key","v","v","16.682832558139033","500","250","psychophysics","354","1518531","0.0-354.0","5facc4201f33582f15dcf9bf","6213cda7f5052ba7b6e88c29","6","","","","","1","4"
"null","","","null","","","","html-keyboard-response","355","1519032","0.0-355.0","5facc4201f33582f15dcf9bf","6213cda7f5052ba7b6e88c29","","","","","<p style=""color:darkgreen;font-size:24px;"">Correct :)</p>","",""
"5127","key","n","n","16.68341558441511","500","250","psychophysics","356","1524169","0.0-356.0","5facc4201f33582f15dcf9bf","6213cda7f5052ba7b6e88c29","6","","","","","0","4"
"null","","","null","","","","html-keyboard-response","357","1524671","0.0-357.0","5facc4201f33582f15dcf9bf","6213cda7f5052ba7b6e88c29","","","","","<p style=""color:darkgreen;font-size:24px;"">Correct :)</p>","",""
"2929","key","v","v","16.683289772726393","500","250","psychophysics","358","1527605","0.0-358.0","5facc4201f33582f15dcf9bf","6213cda7f5052ba7b6e88c29","6","","","","","0","3"
"null","","","null","","","","html-keyboard-response","359","1528106","0.0-359.0","5facc4201f33582f15dcf9bf","6213cda7f5052ba7b6e88c29","","","","","<p style=""color:darkgreen;font-size:24px;"">Correct :)</p>","",""
"3160","key","n","n","16.683199999999793","500","250","psychophysics","360","1531271","0.0-360.0","5facc4201f33582f15dcf9bf","6213cda7f5052ba7b6e88c29","6","","","","","1","7"
"null","","","null","","","","html-keyboard-response","361","1531772","0.0-361.0","5facc4201f33582f15dcf9bf","6213cda7f5052ba7b6e88c29","","","","","<p style=""color:darkgreen;font-size:24px;"">Correct :)</p>","",""
"5132","key","n","n","16.683370129870518","500","250","psychophysics","362","1536915","0.0-362.0","5facc4201f33582f15dcf9bf","6213cda7f5052ba7b6e88c29","6","","","","","1","6"
"null","","","null","","","","html-keyboard-response","363","1537417","0.0-363.0","5facc4201f33582f15dcf9bf","6213cda7f5052ba7b6e88c29","","","","","<p style=""color:darkgreen;font-size:24px;"">Correct :)</p>","",""
"5397","key","v","v","16.683370370370405","500","250","psychophysics","364","1542819","0.0-364.0","5facc4201f33582f15dcf9bf","6213cda7f5052ba7b6e88c29","6","","","","","1","4"
"null","","","null","","","","html-keyboard-response","365","1543320","0.0-365.0","5facc4201f33582f15dcf9bf","6213cda7f5052ba7b6e88c29","","","","","<p style=""color:darkgreen;font-size:24px;"">Correct :)</p>","",""
"4310","key","n","n","16.683806949806613","500","250","psychophysics","366","1547635","0.0-366.0","5facc4201f33582f15dcf9bf","6213cda7f5052ba7b6e88c29","6","","","","","0","2"
"null","","","null","","","","html-keyboard-response","367","1548139","0.0-367.0","5facc4201f33582f15dcf9bf","6213cda7f5052ba7b6e88c29","","","","","<p style=""color:darkgreen;font-size:24px;"">Correct :)</p>","",""
"2653","key","n","n","16.68340251572231","500","250","psychophysics","368","1550797","0.0-368.0","5facc4201f33582f15dcf9bf","6213cda7f5052ba7b6e88c29","6","","","","","0","2"
"null","","","null","","","","html-keyboard-response","369","1551300","0.0-369.0","5facc4201f33582f15dcf9bf","6213cda7f5052ba7b6e88c29","","","","","<p style=""color:darkgreen;font-size:24px;"">Correct :)</p>","",""
"3126","key","v","v","16.683377659574962","500","250","psychophysics","370","1554431","0.0-370.0","5facc4201f33582f15dcf9bf","6213cda7f5052ba7b6e88c29","6","","","","","0","7"
"null","","","null","","","","html-keyboard-response","371","1554933","0.0-371.0","5facc4201f33582f15dcf9bf","6213cda7f5052ba7b6e88c29","","","","","<p style=""color:darkgreen;font-size:24px;"">Correct :)</p>","",""
"2994","key","v","v","16.68343333333291","500","250","psychophysics","372","1557931","0.0-372.0","5facc4201f33582f15dcf9bf","6213cda7f5052ba7b6e88c29","6","","","","","0","7"
"null","","","null","","","","html-keyboard-response","373","1558432","0.0-373.0","5facc4201f33582f15dcf9bf","6213cda7f5052ba7b6e88c29","","","","","<p style=""color:darkgreen;font-size:24px;"">Correct :)</p>","",""
"4021","key","v","v","16.683473029046386","500","250","psychophysics","374","1562459","0.0-374.0","5facc4201f33582f15dcf9bf","6213cda7f5052ba7b6e88c29","6","","","","","1","2"
"null","","","null","","","","html-keyboard-response","375","1562961","0.0-375.0","5facc4201f33582f15dcf9bf","6213cda7f5052ba7b6e88c29","","","","","<p style=""color:darkgreen;font-size:24px;"">Correct :)</p>","",""
"3215","key","n","n","16.683238341968863","500","250","psychophysics","376","1566181","0.0-376.0","5facc4201f33582f15dcf9bf","6213cda7f5052ba7b6e88c29","6","","","","","1","7"
"null","","","null","","","","html-keyboard-response","377","1566684","0.0-377.0","5facc4201f33582f15dcf9bf","6213cda7f5052ba7b6e88c29","","","","","<p style=""color:darkgreen;font-size:24px;"">Correct :)</p>","",""
"3028","key","v","v","16.77562983425396","500","250","psychophysics","378","1569717","0.0-378.0","5facc4201f33582f15dcf9bf","6213cda7f5052ba7b6e88c29","6","","","","","0","1"
"null","","","null","","","","html-keyboard-response","379","1570220","0.0-379.0","5facc4201f33582f15dcf9bf","6213cda7f5052ba7b6e88c29","","","","","<p style=""color:darkgreen;font-size:24px;"">Correct :)</p>","",""
"4221","key","n","n","16.68299606299178","500","250","psychophysics","380","1574451","0.0-380.0","5facc4201f33582f15dcf9bf","6213cda7f5052ba7b6e88c29","6","","","","","1","8"
"null","","","null","","","","html-keyboard-response","381","1574953","0.0-381.0","5facc4201f33582f15dcf9bf","6213cda7f5052ba7b6e88c29","","","","","<p style=""color:darkgreen;font-size:24px;"">Correct :)</p>","",""
"3133","key","v","v","16.6835851063828","500","250","psychophysics","382","1578091","0.0-382.0","5facc4201f33582f15dcf9bf","6213cda7f5052ba7b6e88c29","6","","","","","1","4"
"null","","","null","","","","html-keyboard-response","383","1578593","0.0-383.0","5facc4201f33582f15dcf9bf","6213cda7f5052ba7b6e88c29","","","","","<p style=""color:darkgreen;font-size:24px;"">Correct :)</p>","",""
"5174","key","n","n","16.683630225080186","500","250","psychophysics","384","1583772","0.0-384.0","5facc4201f33582f15dcf9bf","6213cda7f5052ba7b6e88c29","6","","","","","0","9"
"null","","","null","","","","html-keyboard-response","385","1584275","0.0-385.0","5facc4201f33582f15dcf9bf","6213cda7f5052ba7b6e88c29","","","","","<p style=""color:red;font-size:24px;"">Error :(</p>","",""
"4433","key","v","v","16.683368421052897","500","250","psychophysics","386","1588713","0.0-386.0","5facc4201f33582f15dcf9bf","6213cda7f5052ba7b6e88c29","6","","","","","1","2"
"null","","","null","","","","html-keyboard-response","387","1589216","0.0-387.0","5facc4201f33582f15dcf9bf","6213cda7f5052ba7b6e88c29","","","","","<p style=""color:darkgreen;font-size:24px;"">Correct :)</p>","",""
"2888","key","n","n","16.683502890173656","500","250","psychophysics","388","1592109","0.0-388.0","5facc4201f33582f15dcf9bf","6213cda7f5052ba7b6e88c29","6","","","","","0","2"
"null","","","null","","","","html-keyboard-response","389","1592612","0.0-389.0","5facc4201f33582f15dcf9bf","6213cda7f5052ba7b6e88c29","","","","","<p style=""color:darkgreen;font-size:24px;"">Correct :)</p>","",""
"5416","key","v","v","16.683089506172827","500","250","psychophysics","390","1598033","0.0-390.0","5facc4201f33582f15dcf9bf","6213cda7f5052ba7b6e88c29","6","","","","","0","9"
"null","","","null","","","","html-keyboard-response","391","1598535","0.0-391.0","5facc4201f33582f15dcf9bf","6213cda7f5052ba7b6e88c29","","","","","<p style=""color:darkgreen;font-size:24px;"">Correct :)</p>","",""
"3731","key","n","n","16.683233183856654","500","250","psychophysics","392","1602271","0.0-392.0","5facc4201f33582f15dcf9bf","6213cda7f5052ba7b6e88c29","6","","","","","0","6"
"null","","","null","","","","html-keyboard-response","393","1602774","0.0-393.0","5facc4201f33582f15dcf9bf","6213cda7f5052ba7b6e88c29","","","","","<p style=""color:darkgreen;font-size:24px;"">Correct :)</p>","",""
"3173","key","v","v","16.683373684210604","500","250","psychophysics","394","1605953","0.0-394.0","5facc4201f33582f15dcf9bf","6213cda7f5052ba7b6e88c29","6","","","","","0","3"
"null","","","null","","","","html-keyboard-response","395","1606455","0.0-395.0","5facc4201f33582f15dcf9bf","6213cda7f5052ba7b6e88c29","","","","","<p style=""color:darkgreen;font-size:24px;"">Correct :)</p>","",""
"23379","","","v","","","","html-keyboard-response","396","1629836","0.0-396.0","5facc4201f33582f15dcf9bf","6213cda7f5052ba7b6e88c29","","","","","<p> Last set of trials.  Here, the tasks are going to switch once again.  We are going to do 50 of these.  And then you are done with the experiment.  </p>  <br><br>  Ready? (press v or n)","",""
"3282","key","v","v","16.68499492385855","500","250","psychophysics","397","1633123","0.0-397.0","5facc4201f33582f15dcf9bf","6213cda7f5052ba7b6e88c29","7","","","","","1","1"
"null","","","null","","","","html-keyboard-response","398","1633624","0.0-398.0","5facc4201f33582f15dcf9bf","6213cda7f5052ba7b6e88c29","","","","","<p style=""color:darkgreen;font-size:24px;"">Correct :)</p>","",""
"3006","key","v","v","16.683408839778604","500","250","psychophysics","399","1636641","0.0-399.0","5facc4201f33582f15dcf9bf","6213cda7f5052ba7b6e88c29","7","","","","","1","1"
"null","","","null","","","","html-keyboard-response","400","1637144","0.0-400.0","5facc4201f33582f15dcf9bf","6213cda7f5052ba7b6e88c29","","","","","<p style=""color:darkgreen;font-size:24px;"">Correct :)</p>","",""
"2608","key","v","v","16.683371794871235","500","250","psychophysics","401","1639757","0.0-401.0","5facc4201f33582f15dcf9bf","6213cda7f5052ba7b6e88c29","7","","","","","1","3"
"null","","","null","","","","html-keyboard-response","402","1640259","0.0-402.0","5facc4201f33582f15dcf9bf","6213cda7f5052ba7b6e88c29","","","","","<p style=""color:darkgreen;font-size:24px;"">Correct :)</p>","",""
"2880","key","v","v","16.683393063583555","500","250","psychophysics","403","1643150","0.0-403.0","5facc4201f33582f15dcf9bf","6213cda7f5052ba7b6e88c29","7","","","","","1","3"
"null","","","null","","","","html-keyboard-response","404","1643653","0.0-404.0","5facc4201f33582f15dcf9bf","6213cda7f5052ba7b6e88c29","","","","","<p style=""color:darkgreen;font-size:24px;"">Correct :)</p>","",""
"3151","key","v","v","16.68238624338696","500","250","psychophysics","405","1646809","0.0-405.0","5facc4201f33582f15dcf9bf","6213cda7f5052ba7b6e88c29","7","","","","","1","4"
"null","","","null","","","","html-keyboard-response","406","1647311","0.0-406.0","5facc4201f33582f15dcf9bf","6213cda7f5052ba7b6e88c29","","","","","<p style=""color:darkgreen;font-size:24px;"">Correct :)</p>","",""
"3148","key","v","v","16.683328042327915","500","250","psychophysics","407","1650463","0.0-407.0","5facc4201f33582f15dcf9bf","6213cda7f5052ba7b6e88c29","7","","","","","1","2"
"null","","","null","","","","html-keyboard-response","408","1650967","0.0-408.0","5facc4201f33582f15dcf9bf","6213cda7f5052ba7b6e88c29","","","","","<p style=""color:darkgreen;font-size:24px;"">Correct :)</p>","",""
"2130","key","v","v","16.683445312501135","500","250","psychophysics","409","1653101","0.0-409.0","5facc4201f33582f15dcf9bf","6213cda7f5052ba7b6e88c29","7","","","","","1","4"
"null","","","null","","","","html-keyboard-response","410","1653605","0.0-410.0","5facc4201f33582f15dcf9bf","6213cda7f5052ba7b6e88c29","","","","","<p style=""color:darkgreen;font-size:24px;"">Correct :)</p>","",""
"3763","key","v","v","16.757653333333632","500","250","psychophysics","411","1657374","0.0-411.0","5facc4201f33582f15dcf9bf","6213cda7f5052ba7b6e88c29","7","","","","","0","7"
"null","","","null","","","","html-keyboard-response","412","1657875","0.0-412.0","5facc4201f33582f15dcf9bf","6213cda7f5052ba7b6e88c29","","","","","<p style=""color:darkgreen;font-size:24px;"">Correct :)</p>","",""
"2928","key","v","v","16.68356818181796","500","250","psychophysics","413","1660815","0.0-413.0","5facc4201f33582f15dcf9bf","6213cda7f5052ba7b6e88c29","7","","","","","1","3"
"null","","","null","","","","html-keyboard-response","414","1661317","0.0-414.0","5facc4201f33582f15dcf9bf","6213cda7f5052ba7b6e88c29","","","","","<p style=""color:darkgreen;font-size:24px;"">Correct :)</p>","",""
"3171","key","v","v","16.683347368420495","500","250","psychophysics","415","1664493","0.0-415.0","5facc4201f33582f15dcf9bf","6213cda7f5052ba7b6e88c29","7","","","","","1","4"
"null","","","null","","","","html-keyboard-response","416","1664995","0.0-416.0","5facc4201f33582f15dcf9bf","6213cda7f5052ba7b6e88c29","","","","","<p style=""color:darkgreen;font-size:24px;"">Correct :)</p>","",""
"3608","key","n","n","16.68345161290273","500","250","psychophysics","417","1668614","0.0-417.0","5facc4201f33582f15dcf9bf","6213cda7f5052ba7b6e88c29","7","","","","","1","7"
"null","","","null","","","","html-keyboard-response","418","1669116","0.0-418.0","5facc4201f33582f15dcf9bf","6213cda7f5052ba7b6e88c29","","","","","<p style=""color:darkgreen;font-size:24px;"">Correct :)</p>","",""
"3154","key","v","v","16.68345789473602","500","250","psychophysics","419","1672277","0.0-419.0","5facc4201f33582f15dcf9bf","6213cda7f5052ba7b6e88c29","7","","","","","1","4"
"null","","","null","","","","html-keyboard-response","420","1672779","0.0-420.0","5facc4201f33582f15dcf9bf","6213cda7f5052ba7b6e88c29","","","","","<p style=""color:darkgreen;font-size:24px;"">Correct :)</p>","",""
"3024","key","v","v","16.68338121546983","500","250","psychophysics","421","1675807","0.0-421.0","5facc4201f33582f15dcf9bf","6213cda7f5052ba7b6e88c29","7","","","","","1","3"
"null","","","null","","","","html-keyboard-response","422","1676309","0.0-422.0","5facc4201f33582f15dcf9bf","6213cda7f5052ba7b6e88c29","","","","","<p style=""color:darkgreen;font-size:24px;"">Correct :)</p>","",""
"2937","key","v","v","16.683389830508265","500","250","psychophysics","423","1679252","0.0-423.0","5facc4201f33582f15dcf9bf","6213cda7f5052ba7b6e88c29","7","","","","","0","3"
"null","","","null","","","","html-keyboard-response","424","1679754","0.0-424.0","5facc4201f33582f15dcf9bf","6213cda7f5052ba7b6e88c29","","","","","<p style=""color:darkgreen;font-size:24px;"">Correct :)</p>","",""
"3695","key","n","n","16.683198198197864","500","250","psychophysics","425","1683459","0.0-425.0","5facc4201f33582f15dcf9bf","6213cda7f5052ba7b6e88c29","7","","","","","1","7"
"null","","","null","","","","html-keyboard-response","426","1683961","0.0-426.0","5facc4201f33582f15dcf9bf","6213cda7f5052ba7b6e88c29","","","","","<p style=""color:darkgreen;font-size:24px;"">Correct :)</p>","",""
"2975","key","v","v","16.683418994413053","500","250","psychophysics","427","1686942","0.0-427.0","5facc4201f33582f15dcf9bf","6213cda7f5052ba7b6e88c29","7","","","","","1","4"
"null","","","null","","","","html-keyboard-response","428","1687445","0.0-428.0","5facc4201f33582f15dcf9bf","6213cda7f5052ba7b6e88c29","","","","","<p style=""color:darkgreen;font-size:24px;"">Correct :)</p>","",""
"3342","key","n","n","16.683445000000066","500","250","psychophysics","429","1690792","0.0-429.0","5facc4201f33582f15dcf9bf","6213cda7f5052ba7b6e88c29","7","","","","","0","2"
"null","","","null","","","","html-keyboard-response","430","1691295","0.0-430.0","5facc4201f33582f15dcf9bf","6213cda7f5052ba7b6e88c29","","","","","<p style=""color:darkgreen;font-size:24px;"">Correct :)</p>","",""
"3058","key","v","v","16.68359562841529","500","250","psychophysics","431","1694358","0.0-431.0","5facc4201f33582f15dcf9bf","6213cda7f5052ba7b6e88c29","7","","","","","1","2"
"null","","","null","","","","html-keyboard-response","432","1694861","0.0-432.0","5facc4201f33582f15dcf9bf","6213cda7f5052ba7b6e88c29","","","","","<p style=""color:darkgreen;font-size:24px;"">Correct :)</p>","",""
"3684","key","n","n","16.683339366516545","500","250","psychophysics","433","1698549","0.0-433.0","5facc4201f33582f15dcf9bf","6213cda7f5052ba7b6e88c29","7","","","","","0","6"
"null","","","null","","","","html-keyboard-response","434","1699051","0.0-434.0","5facc4201f33582f15dcf9bf","6213cda7f5052ba7b6e88c29","","","","","<p style=""color:darkgreen;font-size:24px;"">Correct :)</p>","",""
"3428","key","n","n","16.674617647058696","500","250","psychophysics","435","1702481","0.0-435.0","5facc4201f33582f15dcf9bf","6213cda7f5052ba7b6e88c29","7","","","","","0","4"
"null","","","null","","","","html-keyboard-response","436","1702983","0.0-436.0","5facc4201f33582f15dcf9bf","6213cda7f5052ba7b6e88c29","","","","","<p style=""color:darkgreen;font-size:24px;"">Correct :)</p>","",""
"2635","key","v","v","16.684158227847053","500","250","psychophysics","437","1705623","0.0-437.0","5facc4201f33582f15dcf9bf","6213cda7f5052ba7b6e88c29","7","","","","","1","4"
"null","","","null","","","","html-keyboard-response","438","1706124","0.0-438.0","5facc4201f33582f15dcf9bf","6213cda7f5052ba7b6e88c29","","","","","<p style=""color:darkgreen;font-size:24px;"">Correct :)</p>","",""
"3371","key","v","v","16.68336138613914","500","250","psychophysics","439","1709501","0.0-439.0","5facc4201f33582f15dcf9bf","6213cda7f5052ba7b6e88c29","7","","","","","1","3"
"null","","","null","","","","html-keyboard-response","440","1710002","0.0-440.0","5facc4201f33582f15dcf9bf","6213cda7f5052ba7b6e88c29","","","","","<p style=""color:darkgreen;font-size:24px;"">Correct :)</p>","",""
"3386","key","n","n","16.683349753694444","500","250","psychophysics","441","1713399","0.0-441.0","5facc4201f33582f15dcf9bf","6213cda7f5052ba7b6e88c29","7","","","","","0","7"
"null","","","null","","","","html-keyboard-response","442","1713902","0.0-442.0","5facc4201f33582f15dcf9bf","6213cda7f5052ba7b6e88c29","","","","","<p style=""color:red;font-size:24px;"">Error :(</p>","",""
"3284","key","n","n","16.68336548223302","500","250","psychophysics","443","1717191","0.0-443.0","5facc4201f33582f15dcf9bf","6213cda7f5052ba7b6e88c29","7","","","","","1","7"
"null","","","null","","","","html-keyboard-response","444","1717694","0.0-444.0","5facc4201f33582f15dcf9bf","6213cda7f5052ba7b6e88c29","","","","","<p style=""color:darkgreen;font-size:24px;"">Correct :)</p>","",""
"2980","key","v","v","16.684016759776608","500","250","psychophysics","445","1720679","0.0-445.0","5facc4201f33582f15dcf9bf","6213cda7f5052ba7b6e88c29","7","","","","","1","2"
"null","","","null","","","","html-keyboard-response","446","1721180","0.0-446.0","5facc4201f33582f15dcf9bf","6213cda7f5052ba7b6e88c29","","","","","<p style=""color:darkgreen;font-size:24px;"">Correct :)</p>","",""
"2665","key","v","v","16.684087499999443","500","250","psychophysics","447","1723851","0.0-447.0","5facc4201f33582f15dcf9bf","6213cda7f5052ba7b6e88c29","7","","","","","1","4"
"null","","","null","","","","html-keyboard-response","448","1724352","0.0-448.0","5facc4201f33582f15dcf9bf","6213cda7f5052ba7b6e88c29","","","","","<p style=""color:darkgreen;font-size:24px;"">Correct :)</p>","",""
"4895","key","v","v","16.68327210884348","500","250","psychophysics","449","1729257","0.0-449.0","5facc4201f33582f15dcf9bf","6213cda7f5052ba7b6e88c29","7","","","","","1","4"
"null","","","null","","","","html-keyboard-response","450","1729759","0.0-450.0","5facc4201f33582f15dcf9bf","6213cda7f5052ba7b6e88c29","","","","","<p style=""color:darkgreen;font-size:24px;"">Correct :)</p>","",""
"4215","key","v","v","16.682703557312895","500","250","psychophysics","451","1733979","0.0-451.0","5facc4201f33582f15dcf9bf","6213cda7f5052ba7b6e88c29","7","","","","","1","2"
"null","","","null","","","","html-keyboard-response","452","1734481","0.0-452.0","5facc4201f33582f15dcf9bf","6213cda7f5052ba7b6e88c29","","","","","<p style=""color:darkgreen;font-size:24px;"">Correct :)</p>","",""
"2975","key","v","v","16.68334636871583","500","250","psychophysics","453","1737461","0.0-453.0","5facc4201f33582f15dcf9bf","6213cda7f5052ba7b6e88c29","7","","","","","1","1"
"null","","","null","","","","html-keyboard-response","454","1737962","0.0-454.0","5facc4201f33582f15dcf9bf","6213cda7f5052ba7b6e88c29","","","","","<p style=""color:darkgreen;font-size:24px;"">Correct :)</p>","",""
"4601","key","v","v","16.682771739130672","500","250","psychophysics","455","1742569","0.0-455.0","5facc4201f33582f15dcf9bf","6213cda7f5052ba7b6e88c29","7","","","","","1","3"
"null","","","null","","","","html-keyboard-response","456","1743070","0.0-456.0","5facc4201f33582f15dcf9bf","6213cda7f5052ba7b6e88c29","","","","","<p style=""color:darkgreen;font-size:24px;"">Correct :)</p>","",""
"3167","key","n","n","16.683257894737547","500","250","psychophysics","457","1746243","0.0-457.0","5facc4201f33582f15dcf9bf","6213cda7f5052ba7b6e88c29","7","","","","","0","4"
"null","","","null","","","","html-keyboard-response","458","1746745","0.0-458.0","5facc4201f33582f15dcf9bf","6213cda7f5052ba7b6e88c29","","","","","<p style=""color:darkgreen;font-size:24px;"">Correct :)</p>","",""
"4601","key","v","v","16.683387681159388","500","250","psychophysics","459","1751351","0.0-459.0","5facc4201f33582f15dcf9bf","6213cda7f5052ba7b6e88c29","7","","","","","0","1"
"null","","","null","","","","html-keyboard-response","460","1751852","0.0-460.0","5facc4201f33582f15dcf9bf","6213cda7f5052ba7b6e88c29","","","","","<p style=""color:darkgreen;font-size:24px;"">Correct :)</p>","",""
"4110","key","v","v","16.750780487805038","500","250","psychophysics","461","1755969","0.0-461.0","5facc4201f33582f15dcf9bf","6213cda7f5052ba7b6e88c29","7","","","","","1","3"
"null","","","null","","","","html-keyboard-response","462","1756470","0.0-462.0","5facc4201f33582f15dcf9bf","6213cda7f5052ba7b6e88c29","","","","","<p style=""color:darkgreen;font-size:24px;"">Correct :)</p>","",""
"3080","key","v","v","16.683302702703134","500","250","psychophysics","463","1759555","0.0-463.0","5facc4201f33582f15dcf9bf","6213cda7f5052ba7b6e88c29","7","","","","","1","3"
"null","","","null","","","","html-keyboard-response","464","1760058","0.0-464.0","5facc4201f33582f15dcf9bf","6213cda7f5052ba7b6e88c29","","","","","<p style=""color:darkgreen;font-size:24px;"">Correct :)</p>","",""
"2838","key","n","n","16.683479532163744","500","250","psychophysics","465","1762902","0.0-465.0","5facc4201f33582f15dcf9bf","6213cda7f5052ba7b6e88c29","7","","","","","1","6"
"null","","","null","","","","html-keyboard-response","466","1763403","0.0-466.0","5facc4201f33582f15dcf9bf","6213cda7f5052ba7b6e88c29","","","","","<p style=""color:darkgreen;font-size:24px;"">Correct :)</p>","",""
"4073","key","n","n","16.68338934426219","500","250","psychophysics","467","1767481","0.0-467.0","5facc4201f33582f15dcf9bf","6213cda7f5052ba7b6e88c29","7","","","","","0","2"
"null","","","null","","","","html-keyboard-response","468","1767984","0.0-468.0","5facc4201f33582f15dcf9bf","6213cda7f5052ba7b6e88c29","","","","","<p style=""color:darkgreen;font-size:24px;"">Correct :)</p>","",""
"3490","key","n","n","16.683447619047502","500","250","psychophysics","469","1771486","0.0-469.0","5facc4201f33582f15dcf9bf","6213cda7f5052ba7b6e88c29","7","","","","","1","6"
"null","","","null","","","","html-keyboard-response","470","1771988","0.0-470.0","5facc4201f33582f15dcf9bf","6213cda7f5052ba7b6e88c29","","","","","<p style=""color:darkgreen;font-size:24px;"">Correct :)</p>","",""
"2924","key","n","n","16.68335795454517","500","250","psychophysics","471","1774917","0.0-471.0","5facc4201f33582f15dcf9bf","6213cda7f5052ba7b6e88c29","7","","","","","0","6"
"null","","","null","","","","html-keyboard-response","472","1775419","0.0-472.0","5facc4201f33582f15dcf9bf","6213cda7f5052ba7b6e88c29","","","","","<p style=""color:darkgreen;font-size:24px;"">Correct :)</p>","",""
"3066","key","v","v","16.683358695652874","500","250","psychophysics","473","1778489","0.0-473.0","5facc4201f33582f15dcf9bf","6213cda7f5052ba7b6e88c29","7","","","","","0","1"
"null","","","null","","","","html-keyboard-response","474","1778992","0.0-474.0","5facc4201f33582f15dcf9bf","6213cda7f5052ba7b6e88c29","","","","","<p style=""color:darkgreen;font-size:24px;"">Correct :)</p>","",""
"2762","key","v","v","16.6841385542157","500","250","psychophysics","475","1781760","0.0-475.0","5facc4201f33582f15dcf9bf","6213cda7f5052ba7b6e88c29","7","","","","","1","3"
"null","","","null","","","","html-keyboard-response","476","1782262","0.0-476.0","5facc4201f33582f15dcf9bf","6213cda7f5052ba7b6e88c29","","","","","<p style=""color:darkgreen;font-size:24px;"">Correct :)</p>","",""
"4079","key","v","v","16.683363265305644","500","250","psychophysics","477","1786345","0.0-477.0","5facc4201f33582f15dcf9bf","6213cda7f5052ba7b6e88c29","7","","","","","1","3"
"null","","","null","","","","html-keyboard-response","478","1786848","0.0-478.0","5facc4201f33582f15dcf9bf","6213cda7f5052ba7b6e88c29","","","","","<p style=""color:darkgreen;font-size:24px;"">Correct :)</p>","",""
"3707","key","n","n","16.683855855856343","500","250","psychophysics","479","1790560","0.0-479.0","5facc4201f33582f15dcf9bf","6213cda7f5052ba7b6e88c29","7","","","","","1","6"
"null","","","null","","","","html-keyboard-response","480","1791063","0.0-480.0","5facc4201f33582f15dcf9bf","6213cda7f5052ba7b6e88c29","","","","","<p style=""color:darkgreen;font-size:24px;"">Correct :)</p>","",""
"5844","key","v","v","16.68303142857139","500","250","psychophysics","481","1796912","0.0-481.0","5facc4201f33582f15dcf9bf","6213cda7f5052ba7b6e88c29","7","","","","","0","7"
"null","","","null","","","","html-keyboard-response","482","1797413","0.0-482.0","5facc4201f33582f15dcf9bf","6213cda7f5052ba7b6e88c29","","","","","<p style=""color:darkgreen;font-size:24px;"">Correct :)</p>","",""
"2904","key","n","n","16.684137142856738","500","250","psychophysics","483","1800322","0.0-483.0","5facc4201f33582f15dcf9bf","6213cda7f5052ba7b6e88c29","7","","","","","0","6"
"null","","","null","","","","html-keyboard-response","484","1800825","0.0-484.0","5facc4201f33582f15dcf9bf","6213cda7f5052ba7b6e88c29","","","","","<p style=""color:darkgreen;font-size:24px;"">Correct :)</p>","",""
"2723","key","v","v","16.68273619631951","500","250","psychophysics","485","1803553","0.0-485.0","5facc4201f33582f15dcf9bf","6213cda7f5052ba7b6e88c29","7","","","","","1","2"
"null","","","null","","","","html-keyboard-response","486","1804055","0.0-486.0","5facc4201f33582f15dcf9bf","6213cda7f5052ba7b6e88c29","","","","","<p style=""color:darkgreen;font-size:24px;"">Correct :)</p>","",""
"3657","key","n","n","16.759515981735305","500","250","psychophysics","487","1807716","0.0-487.0","5facc4201f33582f15dcf9bf","6213cda7f5052ba7b6e88c29","7","","","","","0","4"
"null","","","null","","","","html-keyboard-response","488","1808218","0.0-488.0","5facc4201f33582f15dcf9bf","6213cda7f5052ba7b6e88c29","","","","","<p style=""color:darkgreen;font-size:24px;"">Correct :)</p>","",""
"3749","key","v","v","16.68323555555505","500","250","psychophysics","489","1811971","0.0-489.0","5facc4201f33582f15dcf9bf","6213cda7f5052ba7b6e88c29","7","","","","","0","1"
"null","","","null","","","","html-keyboard-response","490","1812474","0.0-490.0","5facc4201f33582f15dcf9bf","6213cda7f5052ba7b6e88c29","","","","","<p style=""color:darkgreen;font-size:24px;"">Correct :)</p>","",""
"2992","key","v","v","16.683305555556178","500","250","psychophysics","491","1815477","0.0-491.0","5facc4201f33582f15dcf9bf","6213cda7f5052ba7b6e88c29","7","","","","","0","1"
"null","","","null","","","","html-keyboard-response","492","1815979","0.0-492.0","5facc4201f33582f15dcf9bf","6213cda7f5052ba7b6e88c29","","","","","<p style=""color:darkgreen;font-size:24px;"">Correct :)</p>","",""
"4627","key","v","v","16.683816546762678","500","250","psychophysics","493","1820612","0.0-493.0","5facc4201f33582f15dcf9bf","6213cda7f5052ba7b6e88c29","7","","","","","1","3"
"null","","","null","","","","html-keyboard-response","494","1821115","0.0-494.0","5facc4201f33582f15dcf9bf","6213cda7f5052ba7b6e88c29","","","","","<p style=""color:darkgreen;font-size:24px;"">Correct :)</p>","",""
"4412","key","n","n","16.68298490566008","500","250","psychophysics","495","1825532","0.0-495.0","5facc4201f33582f15dcf9bf","6213cda7f5052ba7b6e88c29","7","","","","","1","6"
"null","","","null","","","","html-keyboard-response","496","1826034","0.0-496.0","5facc4201f33582f15dcf9bf","6213cda7f5052ba7b6e88c29","","","","","<p style=""color:darkgreen;font-size:24px;"">Correct :)</p>","",""
