"rt","response_type","key_press","response","avg_frame_time","center_x","center_y","trial_type","trial_index","time_elapsed","internal_node_id","pid","sid","phase","guide","targ","resp","stimulus","is5","stim"
"3386","key"," "," ","16.663669950738917","500","250","psychophysics","0","3396","0.0-0.0","614f56ca93028ed09c869a69","6213cbf0cda8d30017064c07","","","","","","",""
"3468","key"," "," ","16.664101449275364","500","250","psychophysics","1","6868","0.0-1.0","614f56ca93028ed09c869a69","6213cbf0cda8d30017064c07","","","","","","",""
"2465","key"," "," ","16.665319727891156","500","250","psychophysics","2","9335","0.0-2.0","614f56ca93028ed09c869a69","6213cbf0cda8d30017064c07","","","","","","",""
"1304","key"," "," ","16.662269230769223","500","250","psychophysics","3","10642","0.0-3.0","614f56ca93028ed09c869a69","6213cbf0cda8d30017064c07","","","","","","",""
"3224","key"," "," ","16.663848958333336","500","250","psychophysics","4","13868","0.0-4.0","614f56ca93028ed09c869a69","6213cbf0cda8d30017064c07","","","","","","",""
"7043","key"," "," ","16.664945497630328","500","250","psychophysics","5","20914","0.0-5.0","614f56ca93028ed09c869a69","6213cbf0cda8d30017064c07","","","","","","",""
"4924","key"," "," ","16.664769491525423","500","250","psychophysics","6","25840","0.0-6.0","614f56ca93028ed09c869a69","6213cbf0cda8d30017064c07","","","","","","",""
"3484","key"," "," ","16.662221153846147","500","250","psychophysics","7","29326","0.0-7.0","614f56ca93028ed09c869a69","6213cbf0cda8d30017064c07","","","","","","",""
"8712","key"," "," ","16.663181992337165","500","250","psychophysics","8","38041","0.0-8.0","614f56ca93028ed09c869a69","6213cbf0cda8d30017064c07","0","0","32","32","","",""
"3144","key"," "," ","16.66431382978721","500","250","psychophysics","9","41188","0.0-9.0","614f56ca93028ed09c869a69","6213cbf0cda8d30017064c07","","","","","","",""
"3449","key"," "," ","16.664533980582526","500","250","psychophysics","10","44641","0.0-10.0","614f56ca93028ed09c869a69","6213cbf0cda8d30017064c07","","","","","","",""
"9561","key"," "," ","16.663729493891804","500","250","psychophysics","11","54204","0.0-11.0","614f56ca93028ed09c869a69","6213cbf0cda8d30017064c07","","","","","","",""
"6303","key"," "," ","16.664368700265243","500","250","psychophysics","12","60510","0.0-12.0","614f56ca93028ed09c869a69","6213cbf0cda8d30017064c07","","","","","","",""
"2963","key"," "," ","16.664474576271193","500","250","psychophysics","13","63476","0.0-13.0","614f56ca93028ed09c869a69","6213cbf0cda8d30017064c07","","","","","","",""
"4625","key"," "," ","16.664274368231048","500","250","psychophysics","14","68104","0.0-14.0","614f56ca93028ed09c869a69","6213cbf0cda8d30017064c07","","","","","","",""
"4025","key"," "," ","16.662784232365144","500","250","psychophysics","15","72132","0.0-15.0","614f56ca93028ed09c869a69","6213cbf0cda8d30017064c07","","","","","","",""
"3847","key"," "," ","16.663126086956524","500","250","psychophysics","16","75981","0.0-16.0","614f56ca93028ed09c869a69","6213cbf0cda8d30017064c07","","","","","","",""
"13861","key"," "," ","16.66372322503009","500","250","psychophysics","17","89845","0.0-17.0","614f56ca93028ed09c869a69","6213cbf0cda8d30017064c07","1","0","28","34","","",""
"14975","key"," "," ","16.66398885172798","500","250","psychophysics","18","104823","0.0-18.0","614f56ca93028ed09c869a69","6213cbf0cda8d30017064c07","1","5","45","44","","",""
"16619","key"," "," ","16.66396088264794","500","250","psychophysics","19","121447","0.0-19.0","614f56ca93028ed09c869a69","6213cbf0cda8d30017064c07","1","0","50","67","","",""
"6563","key"," "," ","16.66330534351146","500","250","psychophysics","20","128012","0.0-20.0","614f56ca93028ed09c869a69","6213cbf0cda8d30017064c07","1","5","24","26","","",""
"9689","key"," "," ","16.663555938037863","500","250","psychophysics","21","137704","0.0-21.0","614f56ca93028ed09c869a69","6213cbf0cda8d30017064c07","1","0","20","28","","",""
"11280","key"," "," ","16.663995562130182","500","250","psychophysics","22","148987","0.0-22.0","614f56ca93028ed09c869a69","6213cbf0cda8d30017064c07","1","5","26","28","","",""
"8800","key"," "," ","16.664149905123363","500","250","psychophysics","23","157789","0.0-23.0","614f56ca93028ed09c869a69","6213cbf0cda8d30017064c07","1","0","35","46","","",""
"7311","key"," "," ","16.66607077625571","500","250","psychophysics","24","165102","0.0-24.0","614f56ca93028ed09c869a69","6213cbf0cda8d30017064c07","1","5","39","39","","",""
"8789","key"," "," ","16.66473003802279","500","250","psychophysics","25","173894","0.0-25.0","614f56ca93028ed09c869a69","6213cbf0cda8d30017064c07","1","0","44","59","","",""
"7414","key"," "," ","16.664263513513557","500","250","psychophysics","26","181311","0.0-26.0","614f56ca93028ed09c869a69","6213cbf0cda8d30017064c07","1","5","29","31","","",""
"6706","key"," "," ","16.66493283582093","500","250","psychophysics","27","188021","0.0-27.0","614f56ca93028ed09c869a69","6213cbf0cda8d30017064c07","1","0","27","33","","",""
"8662","key"," "," ","16.664452793834286","500","250","psychophysics","28","196684","0.0-28.0","614f56ca93028ed09c869a69","6213cbf0cda8d30017064c07","1","5","39","44","","",""
"8868","key"," "," ","16.66436346516008","500","250","psychophysics","29","205555","0.0-29.0","614f56ca93028ed09c869a69","6213cbf0cda8d30017064c07","1","0","39","52","","",""
"9597","key"," "," ","16.664198260869547","500","250","psychophysics","30","215154","0.0-30.0","614f56ca93028ed09c869a69","6213cbf0cda8d30017064c07","1","5","59","63","","",""
"8152","key"," "," ","16.66488548057257","500","250","psychophysics","31","223308","0.0-31.0","614f56ca93028ed09c869a69","6213cbf0cda8d30017064c07","1","0","56","61","","",""
"6313","key"," "," ","16.66395238095235","500","250","psychophysics","32","229623","0.0-32.0","614f56ca93028ed09c869a69","6213cbf0cda8d30017064c07","1","5","51","53","","",""
"9511","key"," "," ","16.66329999999996","500","250","psychophysics","33","239137","0.0-33.0","614f56ca93028ed09c869a69","6213cbf0cda8d30017064c07","1","0","48","55","","",""
"7574","key"," "," ","16.66378145695364","500","250","psychophysics","34","246714","0.0-34.0","614f56ca93028ed09c869a69","6213cbf0cda8d30017064c07","1","5","42","45","","",""
"6383","key"," "," ","16.663513089005235","500","250","psychophysics","35","253099","0.0-35.0","614f56ca93028ed09c869a69","6213cbf0cda8d30017064c07","1","0","21","27","","",""
"6685","key"," "," ","16.66390773067335","500","250","psychophysics","36","259788","0.0-36.0","614f56ca93028ed09c869a69","6213cbf0cda8d30017064c07","1","5","36","39","","",""
"3499","key"," "," ","16.661952153110178","500","250","psychophysics","37","263290","0.0-37.0","614f56ca93028ed09c869a69","6213cbf0cda8d30017064c07","","","","","","",""
"3122","key"," "," ","16.66606989247325","500","250","psychophysics","38","266414","0.0-38.0","614f56ca93028ed09c869a69","6213cbf0cda8d30017064c07","","","","","","",""
"1744","key"," "," ","16.667913461538355","500","250","psychophysics","39","268163","0.0-39.0","614f56ca93028ed09c869a69","6213cbf0cda8d30017064c07","","","","","","",""
"8910","key"," "," ","16.663904494382066","500","250","psychophysics","40","277078","0.0-40.0","614f56ca93028ed09c869a69","6213cbf0cda8d30017064c07","2","0","32","42","","",""
"7031","key"," "," ","16.664523696682473","500","250","psychophysics","41","284115","0.0-41.0","614f56ca93028ed09c869a69","6213cbf0cda8d30017064c07","","","","","","",""
"7945","key"," "," ","16.664060924369736","500","250","psychophysics","42","292062","0.0-42.0","614f56ca93028ed09c869a69","6213cbf0cda8d30017064c07","2","0","33","38","","",""
"5555","key"," "," ","16.662939759036203","500","250","psychophysics","43","297620","0.0-43.0","614f56ca93028ed09c869a69","6213cbf0cda8d30017064c07","","","","","","",""
"12450","key"," "," ","16.664139410187634","500","250","psychophysics","44","310071","0.0-44.0","614f56ca93028ed09c869a69","6213cbf0cda8d30017064c07","2","0","35","42","","",""
"4070","key"," "," ","16.66562704918033","500","250","psychophysics","45","314144","0.0-45.0","614f56ca93028ed09c869a69","6213cbf0cda8d30017064c07","","","","","","",""
"15700","key"," "," ","16.664374070138127","500","250","psychophysics","46","329847","0.0-46.0","614f56ca93028ed09c869a69","6213cbf0cda8d30017064c07","2","0","43","51","","",""
"5055","key"," "," ","16.663258278145708","500","250","psychophysics","47","334903","0.0-47.0","614f56ca93028ed09c869a69","6213cbf0cda8d30017064c07","","","","","","",""
"8924","key"," "," ","16.664061682242966","500","250","psychophysics","48","343832","0.0-48.0","614f56ca93028ed09c869a69","6213cbf0cda8d30017064c07","2","0","35","39","","",""
"3483","key"," "," ","16.66413942307694","500","250","psychophysics","49","347317","0.0-49.0","614f56ca93028ed09c869a69","6213cbf0cda8d30017064c07","","","","","","",""
"9329","key"," "," ","16.663937388193208","500","250","psychophysics","50","356651","0.0-50.0","614f56ca93028ed09c869a69","6213cbf0cda8d30017064c07","2","0","28","32","","",""
"2642","key"," "," ","16.664500000000242","500","250","psychophysics","51","359296","0.0-51.0","614f56ca93028ed09c869a69","6213cbf0cda8d30017064c07","","","","","","",""
"18049","key"," "," ","16.66382255083179","500","250","psychophysics","52","377347","0.0-52.0","614f56ca93028ed09c869a69","6213cbf0cda8d30017064c07","2","0","42","48","","",""
"2533","key"," "," ","16.664388157894503","500","250","psychophysics","53","379885","0.0-53.0","614f56ca93028ed09c869a69","6213cbf0cda8d30017064c07","","","","","","",""
"10337","key"," "," ","16.664153473344065","500","250","psychophysics","54","390224","0.0-54.0","614f56ca93028ed09c869a69","6213cbf0cda8d30017064c07","2","0","23","27","","",""
"2164","key"," "," ","16.664317829457254","500","250","psychophysics","55","392390","0.0-55.0","614f56ca93028ed09c869a69","6213cbf0cda8d30017064c07","","","","","","",""
"9537","key"," "," ","16.66417482517482","500","250","psychophysics","56","401930","0.0-56.0","614f56ca93028ed09c869a69","6213cbf0cda8d30017064c07","2","0","43","57","","",""
"3802","key"," "," ","16.664506607929486","500","250","psychophysics","57","405734","0.0-57.0","614f56ca93028ed09c869a69","6213cbf0cda8d30017064c07","","","","","","",""
"5047","key"," "," ","16.663811258278212","500","250","psychophysics","58","410783","0.0-58.0","614f56ca93028ed09c869a69","6213cbf0cda8d30017064c07","2","0","33","37","","",""
"2100","key"," "," ","16.662575999999884","500","250","psychophysics","59","412885","0.0-59.0","614f56ca93028ed09c869a69","6213cbf0cda8d30017064c07","","","","","","",""
"10165","key"," "," ","16.664057471264403","500","250","psychophysics","60","423052","0.0-60.0","614f56ca93028ed09c869a69","6213cbf0cda8d30017064c07","2","0","46","62","","",""
"3976","key"," "," ","16.66536974789919","500","250","psychophysics","61","427030","0.0-61.0","614f56ca93028ed09c869a69","6213cbf0cda8d30017064c07","","","","","","",""
"8682","key"," "," ","16.663542307692225","500","250","psychophysics","62","435715","0.0-62.0","614f56ca93028ed09c869a69","6213cbf0cda8d30017064c07","2","0","24","27","","",""
"1767","key"," "," ","16.662057142857172","500","250","psychophysics","63","437483","0.0-63.0","614f56ca93028ed09c869a69","6213cbf0cda8d30017064c07","","","","","","",""
"9045","key"," "," ","16.663110701106934","500","250","psychophysics","64","446531","0.0-64.0","614f56ca93028ed09c869a69","6213cbf0cda8d30017064c07","2","0","43","49","","",""
"2206","key"," "," ","16.66496969696979","500","250","psychophysics","65","448739","0.0-65.0","614f56ca93028ed09c869a69","6213cbf0cda8d30017064c07","","","","","","",""
"7038","key"," "," ","16.664553444180527","500","250","psychophysics","66","455779","0.0-66.0","614f56ca93028ed09c869a69","6213cbf0cda8d30017064c07","2","0","34","42","","",""
"5027","key"," "," ","16.663229235880344","500","250","psychophysics","67","460808","0.0-67.0","614f56ca93028ed09c869a69","6213cbf0cda8d30017064c07","","","","","","",""
"8441","key"," "," ","16.663907114624458","500","250","psychophysics","68","469252","0.0-68.0","614f56ca93028ed09c869a69","6213cbf0cda8d30017064c07","2","0","51","62","","",""
"3637","key"," "," ","16.661870967741887","500","250","psychophysics","69","472890","0.0-69.0","614f56ca93028ed09c869a69","6213cbf0cda8d30017064c07","","","","","","",""
"2553","key"," "," ","16.664809210526553","500","250","psychophysics","70","475445","0.0-70.0","614f56ca93028ed09c869a69","6213cbf0cda8d30017064c07","","","","","","",""
"2164","key"," "," ","16.66686046511646","500","250","psychophysics","71","477611","0.0-71.0","614f56ca93028ed09c869a69","6213cbf0cda8d30017064c07","","","","","","",""
"13811","key"," "," ","16.664028985507308","500","250","psychophysics","72","491424","0.0-72.0","614f56ca93028ed09c869a69","6213cbf0cda8d30017064c07","3","5","51","55","","",""
"8216","key"," "," ","16.664290650406514","500","250","psychophysics","73","499643","0.0-73.0","614f56ca93028ed09c869a69","6213cbf0cda8d30017064c07","3","0","29","35","","",""
"8011","key"," "," ","16.663277083333377","500","250","psychophysics","74","507658","0.0-74.0","614f56ca93028ed09c869a69","6213cbf0cda8d30017064c07","3","5","26","28","","",""
"10656","key"," "," ","16.663810641627524","500","250","psychophysics","75","518318","0.0-75.0","614f56ca93028ed09c869a69","6213cbf0cda8d30017064c07","3","0","51","58","","",""
"14617","key"," "," ","16.66407876712323","500","250","psychophysics","76","532938","0.0-76.0","614f56ca93028ed09c869a69","6213cbf0cda8d30017064c07","3","5","47","50","","",""
"9698","key"," "," ","16.66411855670102","500","250","psychophysics","77","542640","0.0-77.0","614f56ca93028ed09c869a69","6213cbf0cda8d30017064c07","3","0","59","71","","",""
"6113","key"," "," ","16.664863387978052","500","250","psychophysics","78","548755","0.0-78.0","614f56ca93028ed09c869a69","6213cbf0cda8d30017064c07","3","5","23","24","","",""
"9621","key"," "," ","16.66398437500013","500","250","psychophysics","79","558379","0.0-79.0","614f56ca93028ed09c869a69","6213cbf0cda8d30017064c07","3","0","41","47","","",""
"6156","key"," "," ","16.663420054200294","500","250","psychophysics","80","564537","0.0-80.0","614f56ca93028ed09c869a69","6213cbf0cda8d30017064c07","3","5","26","26","","",""
"7620","key"," "," ","16.66481140350873","500","250","psychophysics","81","572160","0.0-81.0","614f56ca93028ed09c869a69","6213cbf0cda8d30017064c07","3","0","22","25","","",""
"12145","key"," "," ","16.664181318681287","500","250","psychophysics","82","584307","0.0-82.0","614f56ca93028ed09c869a69","6213cbf0cda8d30017064c07","3","5","49","50","","",""
"9923","key"," "," ","16.66410588235301","500","250","psychophysics","83","594232","0.0-83.0","614f56ca93028ed09c869a69","6213cbf0cda8d30017064c07","3","0","28","30","","",""
"6333","key"," "," ","16.661498680738745","500","250","psychophysics","84","600568","0.0-84.0","614f56ca93028ed09c869a69","6213cbf0cda8d30017064c07","3","5","38","44","","",""
"11744","key"," "," ","16.664551136363695","500","250","psychophysics","85","612314","0.0-85.0","614f56ca93028ed09c869a69","6213cbf0cda8d30017064c07","3","0","35","43","","",""
"8665","key"," "," ","16.66329865125237","500","250","psychophysics","86","620982","0.0-86.0","614f56ca93028ed09c869a69","6213cbf0cda8d30017064c07","3","5","32","35","","",""
"6541","key"," "," ","16.662482142857066","500","250","psychophysics","87","627525","0.0-87.0","614f56ca93028ed09c869a69","6213cbf0cda8d30017064c07","3","0","22","28","","",""
"12346","key"," "," ","16.664006756756745","500","250","psychophysics","88","639874","0.0-88.0","614f56ca93028ed09c869a69","6213cbf0cda8d30017064c07","3","5","43","45","","",""
"9724","key"," "," ","16.66338659793817","500","250","psychophysics","89","649600","0.0-89.0","614f56ca93028ed09c869a69","6213cbf0cda8d30017064c07","3","0","23","28","","",""
"6033","key"," "," ","16.664163434903145","500","250","psychophysics","90","655635","0.0-90.0","614f56ca93028ed09c869a69","6213cbf0cda8d30017064c07","3","5","23","23","","",""
"16545","key"," "," ","16.66402416918422","500","250","psychophysics","91","672184","0.0-91.0","614f56ca93028ed09c869a69","6213cbf0cda8d30017064c07","3","0","46","54","","",""
"1397","key"," "," ","16.66245121951215","500","250","psychophysics","92","673583","0.0-92.0","614f56ca93028ed09c869a69","6213cbf0cda8d30017064c07","","","","","","",""
"44698","","","v","","","","html-keyboard-response","93","718282","0.0-93.0","614f56ca93028ed09c869a69","6213cbf0cda8d30017064c07","","","","","<p> In this part of the experiment, we are going present digits 1, 2, 3, 4, 6, 7, 8, and 9.  Notice that 5 is missing.  Your job is to say whether the presented digit is less than or greater than 5.  For example, 3 is less than 5 and 7 is greater than 5.  If the digit is less than 5, press the v key; if it is greater than 5, press the n key. We are going to do 200 of these in total, but only 50 righ now. They go real fast.</p>  <br><br>  Ready? (press v or n)","",""
"3657","key","v","v","16.6624545454545","500","250","psychophysics","94","721947","0.0-94.0","614f56ca93028ed09c869a69","6213cbf0cda8d30017064c07","4","","","","","1","3"
"null","","","null","","","","html-keyboard-response","95","722453","0.0-95.0","614f56ca93028ed09c869a69","6213cbf0cda8d30017064c07","","","","","<p style=""color:darkgreen;font-size:24px;"">Correct :)</p>","",""
"2653","key","v","v","16.661368749999383","500","250","psychophysics","96","725110","0.0-96.0","614f56ca93028ed09c869a69","6213cbf0cda8d30017064c07","4","","","","","1","3"
"null","","","null","","","","html-keyboard-response","97","725611","0.0-97.0","614f56ca93028ed09c869a69","6213cbf0cda8d30017064c07","","","","","<p style=""color:darkgreen;font-size:24px;"">Correct :)</p>","",""
"2540","key","v","v","16.663855263157625","500","250","psychophysics","98","728155","0.0-98.0","614f56ca93028ed09c869a69","6213cbf0cda8d30017064c07","4","","","","","1","3"
"null","","","null","","","","html-keyboard-response","99","728656","0.0-99.0","614f56ca93028ed09c869a69","6213cbf0cda8d30017064c07","","","","","<p style=""color:darkgreen;font-size:24px;"">Correct :)</p>","",""
"2588","key","v","v","16.770051612903274","500","250","psychophysics","100","731248","0.0-100.0","614f56ca93028ed09c869a69","6213cbf0cda8d30017064c07","4","","","","","1","3"
"null","","","null","","","","html-keyboard-response","101","731749","0.0-101.0","614f56ca93028ed09c869a69","6213cbf0cda8d30017064c07","","","","","<p style=""color:darkgreen;font-size:24px;"">Correct :)</p>","",""
"2560","key","n","n","16.66300649350651","500","250","psychophysics","102","734313","0.0-102.0","614f56ca93028ed09c869a69","6213cbf0cda8d30017064c07","4","","","","","1","9"
"null","","","null","","","","html-keyboard-response","103","734814","0.0-103.0","614f56ca93028ed09c869a69","6213cbf0cda8d30017064c07","","","","","<p style=""color:darkgreen;font-size:24px;"">Correct :)</p>","",""
"2517","key","v","v","16.661019867549754","500","250","psychophysics","104","737335","0.0-104.0","614f56ca93028ed09c869a69","6213cbf0cda8d30017064c07","4","","","","","1","3"
"null","","","null","","","","html-keyboard-response","105","737836","0.0-105.0","614f56ca93028ed09c869a69","6213cbf0cda8d30017064c07","","","","","<p style=""color:darkgreen;font-size:24px;"">Correct :)</p>","",""
"2524","key","n","n","16.66359868421109","500","250","psychophysics","106","740363","0.0-106.0","614f56ca93028ed09c869a69","6213cbf0cda8d30017064c07","4","","","","","1","9"
"null","","","null","","","","html-keyboard-response","107","740864","0.0-107.0","614f56ca93028ed09c869a69","6213cbf0cda8d30017064c07","","","","","<p style=""color:darkgreen;font-size:24px;"">Correct :)</p>","",""
"2634","key","n","n","16.662310126582398","500","250","psychophysics","108","743501","0.0-108.0","614f56ca93028ed09c869a69","6213cbf0cda8d30017064c07","4","","","","","1","8"
"null","","","null","","","","html-keyboard-response","109","744002","0.0-109.0","614f56ca93028ed09c869a69","6213cbf0cda8d30017064c07","","","","","<p style=""color:darkgreen;font-size:24px;"">Correct :)</p>","",""
"2600","key","v","v","16.661987179487298","500","250","psychophysics","110","746605","0.0-110.0","614f56ca93028ed09c869a69","6213cbf0cda8d30017064c07","4","","","","","1","3"
"null","","","null","","","","html-keyboard-response","111","747107","0.0-111.0","614f56ca93028ed09c869a69","6213cbf0cda8d30017064c07","","","","","<p style=""color:darkgreen;font-size:24px;"">Correct :)</p>","",""
"2451","key","n","n","16.662428571429217","500","250","psychophysics","112","749561","0.0-112.0","614f56ca93028ed09c869a69","6213cbf0cda8d30017064c07","4","","","","","1","2"
"null","","","null","","","","html-keyboard-response","113","750063","0.0-113.0","614f56ca93028ed09c869a69","6213cbf0cda8d30017064c07","","","","","<p style=""color:red;font-size:24px;"">Error :(</p>","",""
"2775","key","v","v","16.66322754490995","500","250","psychophysics","114","752841","0.0-114.0","614f56ca93028ed09c869a69","6213cbf0cda8d30017064c07","4","","","","","1","4"
"null","","","null","","","","html-keyboard-response","115","753343","0.0-115.0","614f56ca93028ed09c869a69","6213cbf0cda8d30017064c07","","","","","<p style=""color:darkgreen;font-size:24px;"">Correct :)</p>","",""
"2680","key","n","n","16.661018633540365","500","250","psychophysics","116","756026","0.0-116.0","614f56ca93028ed09c869a69","6213cbf0cda8d30017064c07","4","","","","","1","7"
"null","","","null","","","","html-keyboard-response","117","756528","0.0-117.0","614f56ca93028ed09c869a69","6213cbf0cda8d30017064c07","","","","","<p style=""color:darkgreen;font-size:24px;"">Correct :)</p>","",""
"2615","key","n","n","16.66429936305759","500","250","psychophysics","118","759147","0.0-118.0","614f56ca93028ed09c869a69","6213cbf0cda8d30017064c07","4","","","","","1","6"
"null","","","null","","","","html-keyboard-response","119","759648","0.0-119.0","614f56ca93028ed09c869a69","6213cbf0cda8d30017064c07","","","","","<p style=""color:darkgreen;font-size:24px;"">Correct :)</p>","",""
"2481","key","n","n","16.662778523489646","500","250","psychophysics","120","762132","0.0-120.0","614f56ca93028ed09c869a69","6213cbf0cda8d30017064c07","4","","","","","1","7"
"null","","","null","","","","html-keyboard-response","121","762634","0.0-121.0","614f56ca93028ed09c869a69","6213cbf0cda8d30017064c07","","","","","<p style=""color:darkgreen;font-size:24px;"">Correct :)</p>","",""
"2507","key","v","v","16.774633333333767","500","250","psychophysics","122","765146","0.0-122.0","614f56ca93028ed09c869a69","6213cbf0cda8d30017064c07","4","","","","","1","4"
"null","","","null","","","","html-keyboard-response","123","765647","0.0-123.0","614f56ca93028ed09c869a69","6213cbf0cda8d30017064c07","","","","","<p style=""color:darkgreen;font-size:24px;"">Correct :)</p>","",""
"2719","key","v","v","16.66360365853662","500","250","psychophysics","124","768369","0.0-124.0","614f56ca93028ed09c869a69","6213cbf0cda8d30017064c07","4","","","","","1","1"
"null","","","null","","","","html-keyboard-response","125","768871","0.0-125.0","614f56ca93028ed09c869a69","6213cbf0cda8d30017064c07","","","","","<p style=""color:darkgreen;font-size:24px;"">Correct :)</p>","",""
"2573","key","n","n","16.66390909090889","500","250","psychophysics","126","771447","0.0-126.0","614f56ca93028ed09c869a69","6213cbf0cda8d30017064c07","4","","","","","1","6"
"null","","","null","","","","html-keyboard-response","127","771948","0.0-127.0","614f56ca93028ed09c869a69","6213cbf0cda8d30017064c07","","","","","<p style=""color:darkgreen;font-size:24px;"">Correct :)</p>","",""
"2755","key","v","v","16.66598192771058","500","250","psychophysics","128","774707","0.0-128.0","614f56ca93028ed09c869a69","6213cbf0cda8d30017064c07","4","","","","","1","4"
"null","","","null","","","","html-keyboard-response","129","775209","0.0-129.0","614f56ca93028ed09c869a69","6213cbf0cda8d30017064c07","","","","","<p style=""color:darkgreen;font-size:24px;"">Correct :)</p>","",""
"2506","key","n","n","16.66054304635741","500","250","psychophysics","130","777718","0.0-130.0","614f56ca93028ed09c869a69","6213cbf0cda8d30017064c07","4","","","","","1","6"
"null","","","null","","","","html-keyboard-response","131","778219","0.0-131.0","614f56ca93028ed09c869a69","6213cbf0cda8d30017064c07","","","","","<p style=""color:darkgreen;font-size:24px;"">Correct :)</p>","",""
"2604","key","v","v","16.664371794871748","500","250","psychophysics","132","780826","0.0-132.0","614f56ca93028ed09c869a69","6213cbf0cda8d30017064c07","4","","","","","1","4"
"null","","","null","","","","html-keyboard-response","133","781328","0.0-133.0","614f56ca93028ed09c869a69","6213cbf0cda8d30017064c07","","","","","<p style=""color:darkgreen;font-size:24px;"">Correct :)</p>","",""
"2542","key","v","v","16.664810457516438","500","250","psychophysics","134","783873","0.0-134.0","614f56ca93028ed09c869a69","6213cbf0cda8d30017064c07","4","","","","","1","1"
"null","","","null","","","","html-keyboard-response","135","784374","0.0-135.0","614f56ca93028ed09c869a69","6213cbf0cda8d30017064c07","","","","","<p style=""color:darkgreen;font-size:24px;"">Correct :)</p>","",""
"2522","key","n","n","16.66183552631609","500","250","psychophysics","136","786899","0.0-136.0","614f56ca93028ed09c869a69","6213cbf0cda8d30017064c07","4","","","","","1","7"
"null","","","null","","","","html-keyboard-response","137","787401","0.0-137.0","614f56ca93028ed09c869a69","6213cbf0cda8d30017064c07","","","","","<p style=""color:darkgreen;font-size:24px;"">Correct :)</p>","",""
"2751","key","v","v","16.664903030303222","500","250","psychophysics","138","790156","0.0-138.0","614f56ca93028ed09c869a69","6213cbf0cda8d30017064c07","4","","","","","1","1"
"null","","","null","","","","html-keyboard-response","139","790656","0.0-139.0","614f56ca93028ed09c869a69","6213cbf0cda8d30017064c07","","","","","<p style=""color:darkgreen;font-size:24px;"">Correct :)</p>","",""
"2504","key","n","n","16.661159999999995","500","250","psychophysics","140","793163","0.0-140.0","614f56ca93028ed09c869a69","6213cbf0cda8d30017064c07","4","","","","","1","9"
"null","","","null","","","","html-keyboard-response","141","793664","0.0-141.0","614f56ca93028ed09c869a69","6213cbf0cda8d30017064c07","","","","","<p style=""color:darkgreen;font-size:24px;"">Correct :)</p>","",""
"2522","key","v","v","16.665609271523067","500","250","psychophysics","142","796189","0.0-142.0","614f56ca93028ed09c869a69","6213cbf0cda8d30017064c07","4","","","","","1","1"
"null","","","null","","","","html-keyboard-response","143","796690","0.0-143.0","614f56ca93028ed09c869a69","6213cbf0cda8d30017064c07","","","","","<p style=""color:darkgreen;font-size:24px;"">Correct :)</p>","",""
"2531","key","v","v","16.665618421052624","500","250","psychophysics","144","799224","0.0-144.0","614f56ca93028ed09c869a69","6213cbf0cda8d30017064c07","4","","","","","1","1"
"null","","","null","","","","html-keyboard-response","145","799726","0.0-145.0","614f56ca93028ed09c869a69","6213cbf0cda8d30017064c07","","","","","<p style=""color:darkgreen;font-size:24px;"">Correct :)</p>","",""
"2520","key","n","n","16.6660000000005","500","250","psychophysics","146","802250","0.0-146.0","614f56ca93028ed09c869a69","6213cbf0cda8d30017064c07","4","","","","","1","9"
"null","","","null","","","","html-keyboard-response","147","802751","0.0-147.0","614f56ca93028ed09c869a69","6213cbf0cda8d30017064c07","","","","","<p style=""color:darkgreen;font-size:24px;"">Correct :)</p>","",""
"2450","key","n","n","16.661326530612023","500","250","psychophysics","148","805205","0.0-148.0","614f56ca93028ed09c869a69","6213cbf0cda8d30017064c07","4","","","","","1","7"
"null","","","null","","","","html-keyboard-response","149","805706","0.0-149.0","614f56ca93028ed09c869a69","6213cbf0cda8d30017064c07","","","","","<p style=""color:darkgreen;font-size:24px;"">Correct :)</p>","",""
"2474","key","n","n","16.66195302013458","500","250","psychophysics","150","808184","0.0-150.0","614f56ca93028ed09c869a69","6213cbf0cda8d30017064c07","4","","","","","1","7"
"null","","","null","","","","html-keyboard-response","151","808695","0.0-151.0","614f56ca93028ed09c869a69","6213cbf0cda8d30017064c07","","","","","<p style=""color:darkgreen;font-size:24px;"">Correct :)</p>","",""
"2520","key","n","n","16.66284768211899","500","250","psychophysics","152","811220","0.0-152.0","614f56ca93028ed09c869a69","6213cbf0cda8d30017064c07","4","","","","","1","8"
"null","","","null","","","","html-keyboard-response","153","811721","0.0-153.0","614f56ca93028ed09c869a69","6213cbf0cda8d30017064c07","","","","","<p style=""color:darkgreen;font-size:24px;"">Correct :)</p>","",""
"2453","key","n","n","16.664783783783236","500","250","psychophysics","154","814178","0.0-154.0","614f56ca93028ed09c869a69","6213cbf0cda8d30017064c07","4","","","","","1","7"
"null","","","null","","","","html-keyboard-response","155","814679","0.0-155.0","614f56ca93028ed09c869a69","6213cbf0cda8d30017064c07","","","","","<p style=""color:darkgreen;font-size:24px;"">Correct :)</p>","",""
"2614","key","n","n","16.66315286624198","500","250","psychophysics","156","817296","0.0-156.0","614f56ca93028ed09c869a69","6213cbf0cda8d30017064c07","4","","","","","1","6"
"null","","","null","","","","html-keyboard-response","157","817803","0.0-157.0","614f56ca93028ed09c869a69","6213cbf0cda8d30017064c07","","","","","<p style=""color:darkgreen;font-size:24px;"">Correct :)</p>","",""
"2529","key","n","n","16.661703947368597","500","250","psychophysics","158","820334","0.0-158.0","614f56ca93028ed09c869a69","6213cbf0cda8d30017064c07","4","","","","","1","6"
"null","","","null","","","","html-keyboard-response","159","820835","0.0-159.0","614f56ca93028ed09c869a69","6213cbf0cda8d30017064c07","","","","","<p style=""color:darkgreen;font-size:24px;"">Correct :)</p>","",""
"2513","key","n","n","16.6631456953643","500","250","psychophysics","160","823351","0.0-160.0","614f56ca93028ed09c869a69","6213cbf0cda8d30017064c07","4","","","","","1","9"
"null","","","null","","","","html-keyboard-response","161","823854","0.0-161.0","614f56ca93028ed09c869a69","6213cbf0cda8d30017064c07","","","","","<p style=""color:darkgreen;font-size:24px;"">Correct :)</p>","",""
"2561","key","v","v","16.66146103896098","500","250","psychophysics","162","826417","0.0-162.0","614f56ca93028ed09c869a69","6213cbf0cda8d30017064c07","4","","","","","1","1"
"null","","","null","","","","html-keyboard-response","163","826918","0.0-163.0","614f56ca93028ed09c869a69","6213cbf0cda8d30017064c07","","","","","<p style=""color:darkgreen;font-size:24px;"">Correct :)</p>","",""
"2522","key","n","n","16.664230263157823","500","250","psychophysics","164","829444","0.0-164.0","614f56ca93028ed09c869a69","6213cbf0cda8d30017064c07","4","","","","","1","6"
"null","","","null","","","","html-keyboard-response","165","829945","0.0-165.0","614f56ca93028ed09c869a69","6213cbf0cda8d30017064c07","","","","","<p style=""color:darkgreen;font-size:24px;"">Correct :)</p>","",""
"2544","key","v","v","16.66311111111115","500","250","psychophysics","166","832492","0.0-166.0","614f56ca93028ed09c869a69","6213cbf0cda8d30017064c07","4","","","","","1","1"
"null","","","null","","","","html-keyboard-response","167","832993","0.0-167.0","614f56ca93028ed09c869a69","6213cbf0cda8d30017064c07","","","","","<p style=""color:darkgreen;font-size:24px;"">Correct :)</p>","",""
"2527","key","v","v","16.662364238410547","500","250","psychophysics","168","835523","0.0-168.0","614f56ca93028ed09c869a69","6213cbf0cda8d30017064c07","4","","","","","1","2"
"null","","","null","","","","html-keyboard-response","169","836025","0.0-169.0","614f56ca93028ed09c869a69","6213cbf0cda8d30017064c07","","","","","<p style=""color:darkgreen;font-size:24px;"">Correct :)</p>","",""
"2519","key","n","n","16.66229139072805","500","250","psychophysics","170","838547","0.0-170.0","614f56ca93028ed09c869a69","6213cbf0cda8d30017064c07","4","","","","","1","8"
"null","","","null","","","","html-keyboard-response","171","839056","0.0-171.0","614f56ca93028ed09c869a69","6213cbf0cda8d30017064c07","","","","","<p style=""color:darkgreen;font-size:24px;"">Correct :)</p>","",""
"2557","key","n","n","16.661660130718552","500","250","psychophysics","172","841620","0.0-172.0","614f56ca93028ed09c869a69","6213cbf0cda8d30017064c07","4","","","","","1","8"
"null","","","null","","","","html-keyboard-response","173","842122","0.0-173.0","614f56ca93028ed09c869a69","6213cbf0cda8d30017064c07","","","","","<p style=""color:darkgreen;font-size:24px;"">Correct :)</p>","",""
"2655","key","v","v","16.662257861635215","500","250","psychophysics","174","844781","0.0-174.0","614f56ca93028ed09c869a69","6213cbf0cda8d30017064c07","4","","","","","1","4"
"null","","","null","","","","html-keyboard-response","175","845283","0.0-175.0","614f56ca93028ed09c869a69","6213cbf0cda8d30017064c07","","","","","<p style=""color:darkgreen;font-size:24px;"">Correct :)</p>","",""
"2532","key","n","n","16.666164473684102","500","250","psychophysics","176","847819","0.0-176.0","614f56ca93028ed09c869a69","6213cbf0cda8d30017064c07","4","","","","","1","9"
"null","","","null","","","","html-keyboard-response","177","848320","0.0-177.0","614f56ca93028ed09c869a69","6213cbf0cda8d30017064c07","","","","","<p style=""color:darkgreen;font-size:24px;"">Correct :)</p>","",""
"2615","key","v","v","16.666217948718277","500","250","psychophysics","178","850938","0.0-178.0","614f56ca93028ed09c869a69","6213cbf0cda8d30017064c07","4","","","","","1","2"
"null","","","null","","","","html-keyboard-response","179","851441","0.0-179.0","614f56ca93028ed09c869a69","6213cbf0cda8d30017064c07","","","","","<p style=""color:darkgreen;font-size:24px;"">Correct :)</p>","",""
"2637","key","v","v","16.66424050632882","500","250","psychophysics","180","854082","0.0-180.0","614f56ca93028ed09c869a69","6213cbf0cda8d30017064c07","4","","","","","1","3"
"null","","","null","","","","html-keyboard-response","181","854584","0.0-181.0","614f56ca93028ed09c869a69","6213cbf0cda8d30017064c07","","","","","<p style=""color:darkgreen;font-size:24px;"">Correct :)</p>","",""
"2519","key","n","n","16.66435526315763","500","250","psychophysics","182","857107","0.0-182.0","614f56ca93028ed09c869a69","6213cbf0cda8d30017064c07","4","","","","","1","9"
"null","","","null","","","","html-keyboard-response","183","857609","0.0-183.0","614f56ca93028ed09c869a69","6213cbf0cda8d30017064c07","","","","","<p style=""color:darkgreen;font-size:24px;"">Correct :)</p>","",""
"2525","key","n","n","16.66294736842055","500","250","psychophysics","184","860137","0.0-184.0","614f56ca93028ed09c869a69","6213cbf0cda8d30017064c07","4","","","","","1","9"
"null","","","null","","","","html-keyboard-response","185","860639","0.0-185.0","614f56ca93028ed09c869a69","6213cbf0cda8d30017064c07","","","","","<p style=""color:darkgreen;font-size:24px;"">Correct :)</p>","",""
"2486","key","n","n","16.660939597315313","500","250","psychophysics","186","863127","0.0-186.0","614f56ca93028ed09c869a69","6213cbf0cda8d30017064c07","4","","","","","1","8"
"null","","","null","","","","html-keyboard-response","187","863628","0.0-187.0","614f56ca93028ed09c869a69","6213cbf0cda8d30017064c07","","","","","<p style=""color:darkgreen;font-size:24px;"">Correct :)</p>","",""
"2639","key","v","v","16.665805031446617","500","250","psychophysics","188","866270","0.0-188.0","614f56ca93028ed09c869a69","6213cbf0cda8d30017064c07","4","","","","","1","4"
"null","","","null","","","","html-keyboard-response","189","866773","0.0-189.0","614f56ca93028ed09c869a69","6213cbf0cda8d30017064c07","","","","","<p style=""color:darkgreen;font-size:24px;"">Correct :)</p>","",""
"2550","key","v","v","16.664601307189596","500","250","psychophysics","190","869326","0.0-190.0","614f56ca93028ed09c869a69","6213cbf0cda8d30017064c07","4","","","","","1","4"
"null","","","null","","","","html-keyboard-response","191","869826","0.0-191.0","614f56ca93028ed09c869a69","6213cbf0cda8d30017064c07","","","","","<p style=""color:darkgreen;font-size:24px;"">Correct :)</p>","",""
"2542","key","v","v","16.663679738561743","500","250","psychophysics","192","872372","0.0-192.0","614f56ca93028ed09c869a69","6213cbf0cda8d30017064c07","4","","","","","1","4"
"null","","","null","","","","html-keyboard-response","193","872873","0.0-193.0","614f56ca93028ed09c869a69","6213cbf0cda8d30017064c07","","","","","<p style=""color:darkgreen;font-size:24px;"">Correct :)</p>","",""
"23474","","","n","","","","html-keyboard-response","194","896348","0.0-194.0","614f56ca93028ed09c869a69","6213cbf0cda8d30017064c07","","","","","<p> Ok, now we are going present the same digits as before.  Your job is to say whether the digit is even or odd  If the digit is odd, press to v key; if it is even, press the n key. We are going to do 50 of these.  </p>  <br><br>  Ready? (press v or n)","",""
"3446","key","n","n","16.66487439613506","500","250","psychophysics","195","899798","0.0-195.0","614f56ca93028ed09c869a69","6213cbf0cda8d30017064c07","5","","","","","0","2"
"null","","","null","","","","html-keyboard-response","196","900301","0.0-196.0","614f56ca93028ed09c869a69","6213cbf0cda8d30017064c07","","","","","<p style=""color:darkgreen;font-size:24px;"">Correct :)</p>","",""
"2575","key","v","v","16.6638506493507","500","250","psychophysics","197","902879","0.0-197.0","614f56ca93028ed09c869a69","6213cbf0cda8d30017064c07","5","","","","","0","7"
"null","","","null","","","","html-keyboard-response","198","903381","0.0-198.0","614f56ca93028ed09c869a69","6213cbf0cda8d30017064c07","","","","","<p style=""color:darkgreen;font-size:24px;"">Correct :)</p>","",""
"2991","key","v","v","16.66172067039092","500","250","psychophysics","199","906375","0.0-199.0","614f56ca93028ed09c869a69","6213cbf0cda8d30017064c07","5","","","","","0","1"
"null","","","null","","","","html-keyboard-response","200","906876","0.0-200.0","614f56ca93028ed09c869a69","6213cbf0cda8d30017064c07","","","","","<p style=""color:darkgreen;font-size:24px;"">Correct :)</p>","",""
"2580","key","v","v","16.66608387096785","500","250","psychophysics","201","909461","0.0-201.0","614f56ca93028ed09c869a69","6213cbf0cda8d30017064c07","5","","","","","0","9"
"null","","","null","","","","html-keyboard-response","202","909962","0.0-202.0","614f56ca93028ed09c869a69","6213cbf0cda8d30017064c07","","","","","<p style=""color:darkgreen;font-size:24px;"">Correct :)</p>","",""
"2539","key","n","n","16.661434210525936","500","250","psychophysics","203","912504","0.0-203.0","614f56ca93028ed09c869a69","6213cbf0cda8d30017064c07","5","","","","","0","8"
"null","","","null","","","","html-keyboard-response","204","913010","0.0-204.0","614f56ca93028ed09c869a69","6213cbf0cda8d30017064c07","","","","","<p style=""color:darkgreen;font-size:24px;"">Correct :)</p>","",""
"2632","key","n","n","16.663537974683038","500","250","psychophysics","205","915646","0.0-205.0","614f56ca93028ed09c869a69","6213cbf0cda8d30017064c07","5","","","","","0","2"
"null","","","null","","","","html-keyboard-response","206","916147","0.0-206.0","614f56ca93028ed09c869a69","6213cbf0cda8d30017064c07","","","","","<p style=""color:darkgreen;font-size:24px;"">Correct :)</p>","",""
"2569","key","n","n","16.66354545454537","500","250","psychophysics","207","918719","0.0-207.0","614f56ca93028ed09c869a69","6213cbf0cda8d30017064c07","5","","","","","0","8"
"null","","","null","","","","html-keyboard-response","208","919221","0.0-208.0","614f56ca93028ed09c869a69","6213cbf0cda8d30017064c07","","","","","<p style=""color:darkgreen;font-size:24px;"">Correct :)</p>","",""
"2688","key","v","v","16.66242592592643","500","250","psychophysics","209","921912","0.0-209.0","614f56ca93028ed09c869a69","6213cbf0cda8d30017064c07","5","","","","","0","7"
"null","","","null","","","","html-keyboard-response","210","922414","0.0-210.0","614f56ca93028ed09c869a69","6213cbf0cda8d30017064c07","","","","","<p style=""color:darkgreen;font-size:24px;"">Correct :)</p>","",""
"2617","key","n","n","16.66377070063657","500","250","psychophysics","211","925034","0.0-211.0","614f56ca93028ed09c869a69","6213cbf0cda8d30017064c07","5","","","","","0","2"
"null","","","null","","","","html-keyboard-response","212","925535","0.0-212.0","614f56ca93028ed09c869a69","6213cbf0cda8d30017064c07","","","","","<p style=""color:darkgreen;font-size:24px;"">Correct :)</p>","",""
"2703","key","n","n","16.663191358024903","500","250","psychophysics","213","928241","0.0-213.0","614f56ca93028ed09c869a69","6213cbf0cda8d30017064c07","5","","","","","0","2"
"null","","","null","","","","html-keyboard-response","214","928743","0.0-214.0","614f56ca93028ed09c869a69","6213cbf0cda8d30017064c07","","","","","<p style=""color:darkgreen;font-size:24px;"">Correct :)</p>","",""
"2587","key","n","n","16.663109677419396","500","250","psychophysics","215","931332","0.0-215.0","614f56ca93028ed09c869a69","6213cbf0cda8d30017064c07","5","","","","","0","8"
"null","","","null","","","","html-keyboard-response","216","931834","0.0-216.0","614f56ca93028ed09c869a69","6213cbf0cda8d30017064c07","","","","","<p style=""color:darkgreen;font-size:24px;"">Correct :)</p>","",""
"2556","key","n","n","16.662571428571194","500","250","psychophysics","217","934392","0.0-217.0","614f56ca93028ed09c869a69","6213cbf0cda8d30017064c07","5","","","","","0","2"
"null","","","null","","","","html-keyboard-response","218","934893","0.0-218.0","614f56ca93028ed09c869a69","6213cbf0cda8d30017064c07","","","","","<p style=""color:darkgreen;font-size:24px;"">Correct :)</p>","",""
"2622","key","v","v","16.661955414012898","500","250","psychophysics","219","937518","0.0-219.0","614f56ca93028ed09c869a69","6213cbf0cda8d30017064c07","5","","","","","0","9"
"null","","","null","","","","html-keyboard-response","220","938019","0.0-220.0","614f56ca93028ed09c869a69","6213cbf0cda8d30017064c07","","","","","<p style=""color:darkgreen;font-size:24px;"">Correct :)</p>","",""
"2631","key","v","v","16.662183544303797","500","250","psychophysics","221","940653","0.0-221.0","614f56ca93028ed09c869a69","6213cbf0cda8d30017064c07","5","","","","","0","1"
"null","","","null","","","","html-keyboard-response","222","941155","0.0-222.0","614f56ca93028ed09c869a69","6213cbf0cda8d30017064c07","","","","","<p style=""color:darkgreen;font-size:24px;"">Correct :)</p>","",""
"2583","key","n","n","16.769619354838504","500","250","psychophysics","223","943741","0.0-223.0","614f56ca93028ed09c869a69","6213cbf0cda8d30017064c07","5","","","","","0","6"
"null","","","null","","","","html-keyboard-response","224","944242","0.0-224.0","614f56ca93028ed09c869a69","6213cbf0cda8d30017064c07","","","","","<p style=""color:darkgreen;font-size:24px;"">Correct :)</p>","",""
"2594","key","v","v","16.66366025641074","500","250","psychophysics","225","946840","0.0-225.0","614f56ca93028ed09c869a69","6213cbf0cda8d30017064c07","5","","","","","0","3"
"null","","","null","","","","html-keyboard-response","226","947342","0.0-226.0","614f56ca93028ed09c869a69","6213cbf0cda8d30017064c07","","","","","<p style=""color:darkgreen;font-size:24px;"">Correct :)</p>","",""
"2653","key","n","n","16.662144654087793","500","250","psychophysics","227","949998","0.0-227.0","614f56ca93028ed09c869a69","6213cbf0cda8d30017064c07","5","","","","","0","8"
"null","","","null","","","","html-keyboard-response","228","950500","0.0-228.0","614f56ca93028ed09c869a69","6213cbf0cda8d30017064c07","","","","","<p style=""color:darkgreen;font-size:24px;"">Correct :)</p>","",""
"2922","key","v","v","16.663267045454464","500","250","psychophysics","229","953425","0.0-229.0","614f56ca93028ed09c869a69","6213cbf0cda8d30017064c07","5","","","","","0","1"
"null","","","null","","","","html-keyboard-response","230","953926","0.0-230.0","614f56ca93028ed09c869a69","6213cbf0cda8d30017064c07","","","","","<p style=""color:darkgreen;font-size:24px;"">Correct :)</p>","",""
"2626","key","v","v","16.667056962025434","500","250","psychophysics","231","956556","0.0-231.0","614f56ca93028ed09c869a69","6213cbf0cda8d30017064c07","5","","","","","0","3"
"null","","","null","","","","html-keyboard-response","232","957057","0.0-232.0","614f56ca93028ed09c869a69","6213cbf0cda8d30017064c07","","","","","<p style=""color:darkgreen;font-size:24px;"">Correct :)</p>","",""
"2574","key","n","n","16.66444805194775","500","250","psychophysics","233","959635","0.0-233.0","614f56ca93028ed09c869a69","6213cbf0cda8d30017064c07","5","","","","","0","4"
"null","","","null","","","","html-keyboard-response","234","960136","0.0-234.0","614f56ca93028ed09c869a69","6213cbf0cda8d30017064c07","","","","","<p style=""color:darkgreen;font-size:24px;"">Correct :)</p>","",""
"2537","key","n","n","16.664238410596337","500","250","psychophysics","235","962676","0.0-235.0","614f56ca93028ed09c869a69","6213cbf0cda8d30017064c07","5","","","","","0","2"
"null","","","null","","","","html-keyboard-response","236","963177","0.0-236.0","614f56ca93028ed09c869a69","6213cbf0cda8d30017064c07","","","","","<p style=""color:darkgreen;font-size:24px;"">Correct :)</p>","",""
"2503","key","n","n","16.663633333333614","500","250","psychophysics","237","965682","0.0-237.0","614f56ca93028ed09c869a69","6213cbf0cda8d30017064c07","5","","","","","0","2"
"null","","","null","","","","html-keyboard-response","238","966184","0.0-238.0","614f56ca93028ed09c869a69","6213cbf0cda8d30017064c07","","","","","<p style=""color:darkgreen;font-size:24px;"">Correct :)</p>","",""
"2506","key","n","n","16.772780000000104","500","250","psychophysics","239","968694","0.0-239.0","614f56ca93028ed09c869a69","6213cbf0cda8d30017064c07","5","","","","","0","4"
"null","","","null","","","","html-keyboard-response","240","969195","0.0-240.0","614f56ca93028ed09c869a69","6213cbf0cda8d30017064c07","","","","","<p style=""color:darkgreen;font-size:24px;"">Correct :)</p>","",""
"2581","key","v","v","16.666154838710153","500","250","psychophysics","241","971779","0.0-241.0","614f56ca93028ed09c869a69","6213cbf0cda8d30017064c07","5","","","","","0","7"
"null","","","null","","","","html-keyboard-response","242","972280","0.0-242.0","614f56ca93028ed09c869a69","6213cbf0cda8d30017064c07","","","","","<p style=""color:darkgreen;font-size:24px;"">Correct :)</p>","",""
"2537","key","n","n","16.662104575162804","500","250","psychophysics","243","974820","0.0-243.0","614f56ca93028ed09c869a69","6213cbf0cda8d30017064c07","5","","","","","0","2"
"null","","","null","","","","html-keyboard-response","244","975322","0.0-244.0","614f56ca93028ed09c869a69","6213cbf0cda8d30017064c07","","","","","<p style=""color:darkgreen;font-size:24px;"">Correct :)</p>","",""
"2523","key","n","n","16.663483443709293","500","250","psychophysics","245","977847","0.0-245.0","614f56ca93028ed09c869a69","6213cbf0cda8d30017064c07","5","","","","","0","8"
"null","","","null","","","","html-keyboard-response","246","978349","0.0-246.0","614f56ca93028ed09c869a69","6213cbf0cda8d30017064c07","","","","","<p style=""color:darkgreen;font-size:24px;"">Correct :)</p>","",""
"2522","key","n","n","16.772814569536855","500","250","psychophysics","247","980874","0.0-247.0","614f56ca93028ed09c869a69","6213cbf0cda8d30017064c07","5","","","","","0","6"
"null","","","null","","","","html-keyboard-response","248","981375","0.0-248.0","614f56ca93028ed09c869a69","6213cbf0cda8d30017064c07","","","","","<p style=""color:darkgreen;font-size:24px;"">Correct :)</p>","",""
"2705","key","v","v","16.663086419753345","500","250","psychophysics","249","984083","0.0-249.0","614f56ca93028ed09c869a69","6213cbf0cda8d30017064c07","5","","","","","0","1"
"null","","","null","","","","html-keyboard-response","250","984585","0.0-250.0","614f56ca93028ed09c869a69","6213cbf0cda8d30017064c07","","","","","<p style=""color:darkgreen;font-size:24px;"">Correct :)</p>","",""
"2704","key","v","v","16.66260493827199","500","250","psychophysics","251","987293","0.0-251.0","614f56ca93028ed09c869a69","6213cbf0cda8d30017064c07","5","","","","","0","2"
"null","","","null","","","","html-keyboard-response","252","987794","0.0-252.0","614f56ca93028ed09c869a69","6213cbf0cda8d30017064c07","","","","","<p style=""color:red;font-size:24px;"">Error :(</p>","",""
"2641","key","v","v","16.661874213836555","500","250","psychophysics","253","990438","0.0-253.0","614f56ca93028ed09c869a69","6213cbf0cda8d30017064c07","5","","","","","0","7"
"null","","","null","","","","html-keyboard-response","254","990939","0.0-254.0","614f56ca93028ed09c869a69","6213cbf0cda8d30017064c07","","","","","<p style=""color:darkgreen;font-size:24px;"">Correct :)</p>","",""
"2724","key","v","v","16.66431707317058","500","250","psychophysics","255","993666","0.0-255.0","614f56ca93028ed09c869a69","6213cbf0cda8d30017064c07","5","","","","","0","3"
"null","","","null","","","","html-keyboard-response","256","994168","0.0-256.0","614f56ca93028ed09c869a69","6213cbf0cda8d30017064c07","","","","","<p style=""color:darkgreen;font-size:24px;"">Correct :)</p>","",""
"2510","key","n","n","16.66099999999938","500","250","psychophysics","257","996681","0.0-257.0","614f56ca93028ed09c869a69","6213cbf0cda8d30017064c07","5","","","","","0","6"
"null","","","null","","","","html-keyboard-response","258","997182","0.0-258.0","614f56ca93028ed09c869a69","6213cbf0cda8d30017064c07","","","","","<p style=""color:darkgreen;font-size:24px;"">Correct :)</p>","",""
"2629","key","v","v","16.663424050632887","500","250","psychophysics","259","999815","0.0-259.0","614f56ca93028ed09c869a69","6213cbf0cda8d30017064c07","5","","","","","0","7"
"null","","","null","","","","html-keyboard-response","260","1000316","0.0-260.0","614f56ca93028ed09c869a69","6213cbf0cda8d30017064c07","","","","","<p style=""color:darkgreen;font-size:24px;"">Correct :)</p>","",""
"2595","key","n","n","16.663397435897377","500","250","psychophysics","261","1002914","0.0-261.0","614f56ca93028ed09c869a69","6213cbf0cda8d30017064c07","5","","","","","0","2"
"null","","","null","","","","html-keyboard-response","262","1003416","0.0-262.0","614f56ca93028ed09c869a69","6213cbf0cda8d30017064c07","","","","","<p style=""color:darkgreen;font-size:24px;"">Correct :)</p>","",""
"2463","key","n","n","16.6637905405408","500","250","psychophysics","263","1005882","0.0-263.0","614f56ca93028ed09c869a69","6213cbf0cda8d30017064c07","5","","","","","0","2"
"null","","","null","","","","html-keyboard-response","264","1006384","0.0-264.0","614f56ca93028ed09c869a69","6213cbf0cda8d30017064c07","","","","","<p style=""color:darkgreen;font-size:24px;"">Correct :)</p>","",""
"2519","key","n","n","16.66490728476791","500","250","psychophysics","265","1008907","0.0-265.0","614f56ca93028ed09c869a69","6213cbf0cda8d30017064c07","5","","","","","0","2"
"null","","","null","","","","html-keyboard-response","266","1009420","0.0-266.0","614f56ca93028ed09c869a69","6213cbf0cda8d30017064c07","","","","","<p style=""color:darkgreen;font-size:24px;"">Correct :)</p>","",""
"2687","key","v","v","16.663552795031386","500","250","psychophysics","267","1012110","0.0-267.0","614f56ca93028ed09c869a69","6213cbf0cda8d30017064c07","5","","","","","0","9"
"null","","","null","","","","html-keyboard-response","268","1012612","0.0-268.0","614f56ca93028ed09c869a69","6213cbf0cda8d30017064c07","","","","","<p style=""color:darkgreen;font-size:24px;"">Correct :)</p>","",""
"2833","key","v","v","16.663000000000466","500","250","psychophysics","269","1015449","0.0-269.0","614f56ca93028ed09c869a69","6213cbf0cda8d30017064c07","5","","","","","0","1"
"null","","","null","","","","html-keyboard-response","270","1015950","0.0-270.0","614f56ca93028ed09c869a69","6213cbf0cda8d30017064c07","","","","","<p style=""color:darkgreen;font-size:24px;"">Correct :)</p>","",""
"2575","key","v","v","16.663967741935725","500","250","psychophysics","271","1018528","0.0-271.0","614f56ca93028ed09c869a69","6213cbf0cda8d30017064c07","5","","","","","0","3"
"null","","","null","","","","html-keyboard-response","272","1019030","0.0-272.0","614f56ca93028ed09c869a69","6213cbf0cda8d30017064c07","","","","","<p style=""color:darkgreen;font-size:24px;"">Correct :)</p>","",""
"2595","key","n","n","16.66223717948723","500","250","psychophysics","273","1021628","0.0-273.0","614f56ca93028ed09c869a69","6213cbf0cda8d30017064c07","5","","","","","0","8"
"null","","","null","","","","html-keyboard-response","274","1022130","0.0-274.0","614f56ca93028ed09c869a69","6213cbf0cda8d30017064c07","","","","","<p style=""color:darkgreen;font-size:24px;"">Correct :)</p>","",""
"2601","key","n","n","16.665096153846182","500","250","psychophysics","275","1024734","0.0-275.0","614f56ca93028ed09c869a69","6213cbf0cda8d30017064c07","5","","","","","0","2"
"null","","","null","","","","html-keyboard-response","276","1025235","0.0-276.0","614f56ca93028ed09c869a69","6213cbf0cda8d30017064c07","","","","","<p style=""color:darkgreen;font-size:24px;"">Correct :)</p>","",""
"2451","key","n","n","16.661503401360804","500","250","psychophysics","277","1027689","0.0-277.0","614f56ca93028ed09c869a69","6213cbf0cda8d30017064c07","5","","","","","0","8"
"null","","","null","","","","html-keyboard-response","278","1028191","0.0-278.0","614f56ca93028ed09c869a69","6213cbf0cda8d30017064c07","","","","","<p style=""color:darkgreen;font-size:24px;"">Correct :)</p>","",""
"2559","key","n","n","16.88172368421051","500","250","psychophysics","279","1030753","0.0-279.0","614f56ca93028ed09c869a69","6213cbf0cda8d30017064c07","5","","","","","0","6"
"null","","","null","","","","html-keyboard-response","280","1031255","0.0-280.0","614f56ca93028ed09c869a69","6213cbf0cda8d30017064c07","","","","","<p style=""color:darkgreen;font-size:24px;"">Correct :)</p>","",""
"2552","key","v","v","16.665616883116915","500","250","psychophysics","281","1033810","0.0-281.0","614f56ca93028ed09c869a69","6213cbf0cda8d30017064c07","5","","","","","0","3"
"null","","","null","","","","html-keyboard-response","282","1034312","0.0-282.0","614f56ca93028ed09c869a69","6213cbf0cda8d30017064c07","","","","","<p style=""color:darkgreen;font-size:24px;"">Correct :)</p>","",""
"2538","key","n","n","16.663881578946818","500","250","psychophysics","283","1036853","0.0-283.0","614f56ca93028ed09c869a69","6213cbf0cda8d30017064c07","5","","","","","0","6"
"null","","","null","","","","html-keyboard-response","284","1037369","0.0-284.0","614f56ca93028ed09c869a69","6213cbf0cda8d30017064c07","","","","","<p style=""color:darkgreen;font-size:24px;"">Correct :)</p>","",""
"2696","key","v","v","16.66369135802422","500","250","psychophysics","285","1040068","0.0-285.0","614f56ca93028ed09c869a69","6213cbf0cda8d30017064c07","5","","","","","0","7"
"null","","","null","","","","html-keyboard-response","286","1040569","0.0-286.0","614f56ca93028ed09c869a69","6213cbf0cda8d30017064c07","","","","","<p style=""color:darkgreen;font-size:24px;"">Correct :)</p>","",""
"2633","key","n","n","16.665202531645285","500","250","psychophysics","287","1043205","0.0-287.0","614f56ca93028ed09c869a69","6213cbf0cda8d30017064c07","5","","","","","0","2"
"null","","","null","","","","html-keyboard-response","288","1043706","0.0-288.0","614f56ca93028ed09c869a69","6213cbf0cda8d30017064c07","","","","","<p style=""color:darkgreen;font-size:24px;"">Correct :)</p>","",""
"2609","key","n","n","16.66258974358938","500","250","psychophysics","289","1046318","0.0-289.0","614f56ca93028ed09c869a69","6213cbf0cda8d30017064c07","5","","","","","0","2"
"null","","","null","","","","html-keyboard-response","290","1046829","0.0-290.0","614f56ca93028ed09c869a69","6213cbf0cda8d30017064c07","","","","","<p style=""color:darkgreen;font-size:24px;"">Correct :)</p>","",""
"2603","key","v","v","16.66242307692375","500","250","psychophysics","291","1049436","0.0-291.0","614f56ca93028ed09c869a69","6213cbf0cda8d30017064c07","5","","","","","0","9"
"null","","","null","","","","html-keyboard-response","292","1049937","0.0-292.0","614f56ca93028ed09c869a69","6213cbf0cda8d30017064c07","","","","","<p style=""color:darkgreen;font-size:24px;"">Correct :)</p>","",""
"2727","key","n","n","16.763987730061523","500","250","psychophysics","293","1052667","0.0-293.0","614f56ca93028ed09c869a69","6213cbf0cda8d30017064c07","5","","","","","0","4"
"null","","","null","","","","html-keyboard-response","294","1053169","0.0-294.0","614f56ca93028ed09c869a69","6213cbf0cda8d30017064c07","","","","","<p style=""color:darkgreen;font-size:24px;"">Correct :)</p>","",""
"11681","","","n","","","","html-keyboard-response","295","1064851","0.0-295.0","614f56ca93028ed09c869a69","6213cbf0cda8d30017064c07","","","","","<p> Here, the tasks are going to switch.  For some trials, your job is to decide if the digit is less than or greater than 5.  For others, it is to decide if the digit is even or odd.  You will be told which type of trial the current one is.  But, pay attention, the type of trial changes too.  We are going to do 50 of these.  </p>  <br><br>  Ready? (press v or n)","",""
"10","key","v","v","NaN","500","250","psychophysics","296","1064864","0.0-296.0","614f56ca93028ed09c869a69","6213cbf0cda8d30017064c07","6","","","","","1","8"
"null","","","null","","","","html-keyboard-response","297","1065365","0.0-297.0","614f56ca93028ed09c869a69","6213cbf0cda8d30017064c07","","","","","<p style=""color:red;font-size:24px;"">Error :(</p>","",""
"2788","key","n","n","16.66604166666678","500","250","psychophysics","298","1068155","0.0-298.0","614f56ca93028ed09c869a69","6213cbf0cda8d30017064c07","6","","","","","0","8"
"null","","","null","","","","html-keyboard-response","299","1068657","0.0-299.0","614f56ca93028ed09c869a69","6213cbf0cda8d30017064c07","","","","","<p style=""color:darkgreen;font-size:24px;"">Correct :)</p>","",""
"3360","key","n","n","16.663178217820917","500","250","psychophysics","300","1072020","0.0-300.0","614f56ca93028ed09c869a69","6213cbf0cda8d30017064c07","6","","","","","1","6"
"null","","","null","","","","html-keyboard-response","301","1072522","0.0-301.0","614f56ca93028ed09c869a69","6213cbf0cda8d30017064c07","","","","","<p style=""color:darkgreen;font-size:24px;"">Correct :)</p>","",""
"2775","key","n","n","16.66132335329406","500","250","psychophysics","302","1075304","0.0-302.0","614f56ca93028ed09c869a69","6213cbf0cda8d30017064c07","6","","","","","0","4"
"null","","","null","","","","html-keyboard-response","303","1075805","0.0-303.0","614f56ca93028ed09c869a69","6213cbf0cda8d30017064c07","","","","","<p style=""color:darkgreen;font-size:24px;"">Correct :)</p>","",""
"2543","key","n","n","16.663287581699397","500","250","psychophysics","304","1078352","0.0-304.0","614f56ca93028ed09c869a69","6213cbf0cda8d30017064c07","6","","","","","0","2"
"null","","","null","","","","html-keyboard-response","305","1078854","0.0-305.0","614f56ca93028ed09c869a69","6213cbf0cda8d30017064c07","","","","","<p style=""color:darkgreen;font-size:24px;"">Correct :)</p>","",""
"2797","key","n","n","16.66248809523781","500","250","psychophysics","306","1081654","0.0-306.0","614f56ca93028ed09c869a69","6213cbf0cda8d30017064c07","6","","","","","1","6"
"null","","","null","","","","html-keyboard-response","307","1082168","0.0-307.0","614f56ca93028ed09c869a69","6213cbf0cda8d30017064c07","","","","","<p style=""color:darkgreen;font-size:24px;"">Correct :)</p>","",""
"2691","key","v","v","16.66582608695709","500","250","psychophysics","308","1084862","0.0-308.0","614f56ca93028ed09c869a69","6213cbf0cda8d30017064c07","6","","","","","0","1"
"null","","","null","","","","html-keyboard-response","309","1085365","0.0-309.0","614f56ca93028ed09c869a69","6213cbf0cda8d30017064c07","","","","","<p style=""color:darkgreen;font-size:24px;"">Correct :)</p>","",""
"2687","key","n","n","16.769372670808576","500","250","psychophysics","310","1088055","0.0-310.0","614f56ca93028ed09c869a69","6213cbf0cda8d30017064c07","6","","","","","1","6"
"null","","","null","","","","html-keyboard-response","311","1088556","0.0-311.0","614f56ca93028ed09c869a69","6213cbf0cda8d30017064c07","","","","","<p style=""color:darkgreen;font-size:24px;"">Correct :)</p>","",""
"2763","key","v","v","16.663837349398555","500","250","psychophysics","312","1091322","0.0-312.0","614f56ca93028ed09c869a69","6213cbf0cda8d30017064c07","6","","","","","0","4"
"null","","","null","","","","html-keyboard-response","313","1091827","0.0-313.0","614f56ca93028ed09c869a69","6213cbf0cda8d30017064c07","","","","","<p style=""color:red;font-size:24px;"">Error :(</p>","",""
"3209","key","n","n","16.665020725388235","500","250","psychophysics","314","1095039","0.0-314.0","614f56ca93028ed09c869a69","6213cbf0cda8d30017064c07","6","","","","","0","8"
"null","","","null","","","","html-keyboard-response","315","1095541","0.0-315.0","614f56ca93028ed09c869a69","6213cbf0cda8d30017064c07","","","","","<p style=""color:darkgreen;font-size:24px;"">Correct :)</p>","",""
"2810","key","v","v","16.662538461537327","500","250","psychophysics","316","1098354","0.0-316.0","614f56ca93028ed09c869a69","6213cbf0cda8d30017064c07","6","","","","","1","4"
"null","","","null","","","","html-keyboard-response","317","1098855","0.0-317.0","614f56ca93028ed09c869a69","6213cbf0cda8d30017064c07","","","","","<p style=""color:darkgreen;font-size:24px;"">Correct :)</p>","",""
"2873","key","v","v","16.662971098265324","500","250","psychophysics","318","1101733","0.0-318.0","614f56ca93028ed09c869a69","6213cbf0cda8d30017064c07","6","","","","","1","1"
"null","","","null","","","","html-keyboard-response","319","1102234","0.0-319.0","614f56ca93028ed09c869a69","6213cbf0cda8d30017064c07","","","","","<p style=""color:darkgreen;font-size:24px;"">Correct :)</p>","",""
"3214","key","n","n","16.661818652850492","500","250","psychophysics","320","1105451","0.0-320.0","614f56ca93028ed09c869a69","6213cbf0cda8d30017064c07","6","","","","","1","8"
"null","","","null","","","","html-keyboard-response","321","1105952","0.0-321.0","614f56ca93028ed09c869a69","6213cbf0cda8d30017064c07","","","","","<p style=""color:darkgreen;font-size:24px;"">Correct :)</p>","",""
"2579","key","v","v","16.66382580645112","500","250","psychophysics","322","1108534","0.0-322.0","614f56ca93028ed09c869a69","6213cbf0cda8d30017064c07","6","","","","","0","1"
"null","","","null","","","","html-keyboard-response","323","1109034","0.0-323.0","614f56ca93028ed09c869a69","6213cbf0cda8d30017064c07","","","","","<p style=""color:darkgreen;font-size:24px;"">Correct :)</p>","",""
"2989","key","v","v","16.66166480446973","500","250","psychophysics","324","1112027","0.0-324.0","614f56ca93028ed09c869a69","6213cbf0cda8d30017064c07","6","","","","","1","4"
"null","","","null","","","","html-keyboard-response","325","1112528","0.0-325.0","614f56ca93028ed09c869a69","6213cbf0cda8d30017064c07","","","","","<p style=""color:darkgreen;font-size:24px;"">Correct :)</p>","",""
"2548","key","v","v","16.662379084967586","500","250","psychophysics","326","1115080","0.0-326.0","614f56ca93028ed09c869a69","6213cbf0cda8d30017064c07","6","","","","","1","4"
"null","","","null","","","","html-keyboard-response","327","1115581","0.0-327.0","614f56ca93028ed09c869a69","6213cbf0cda8d30017064c07","","","","","<p style=""color:darkgreen;font-size:24px;"">Correct :)</p>","",""
"2629","key","n","n","16.662221518986197","500","250","psychophysics","328","1118214","0.0-328.0","614f56ca93028ed09c869a69","6213cbf0cda8d30017064c07","6","","","","","0","4"
"null","","","null","","","","html-keyboard-response","329","1118715","0.0-329.0","614f56ca93028ed09c869a69","6213cbf0cda8d30017064c07","","","","","<p style=""color:darkgreen;font-size:24px;"">Correct :)</p>","",""
"3081","key","n","n","16.66197837837846","500","250","psychophysics","330","1121799","0.0-330.0","614f56ca93028ed09c869a69","6213cbf0cda8d30017064c07","6","","","","","1","7"
"null","","","null","","","","html-keyboard-response","331","1122300","0.0-331.0","614f56ca93028ed09c869a69","6213cbf0cda8d30017064c07","","","","","<p style=""color:darkgreen;font-size:24px;"">Correct :)</p>","",""
"2767","key","v","v","16.66334337349392","500","250","psychophysics","332","1125070","0.0-332.0","614f56ca93028ed09c869a69","6213cbf0cda8d30017064c07","6","","","","","0","3"
"null","","","null","","","","html-keyboard-response","333","1125571","0.0-333.0","614f56ca93028ed09c869a69","6213cbf0cda8d30017064c07","","","","","<p style=""color:darkgreen;font-size:24px;"">Correct :)</p>","",""
"2643","key","v","v","16.664226415094117","500","250","psychophysics","334","1128218","0.0-334.0","614f56ca93028ed09c869a69","6213cbf0cda8d30017064c07","6","","","","","0","1"
"null","","","null","","","","html-keyboard-response","335","1128720","0.0-335.0","614f56ca93028ed09c869a69","6213cbf0cda8d30017064c07","","","","","<p style=""color:darkgreen;font-size:24px;"">Correct :)</p>","",""
"2693","key","v","v","16.661333333332966","500","250","psychophysics","336","1131416","0.0-336.0","614f56ca93028ed09c869a69","6213cbf0cda8d30017064c07","6","","","","","1","4"
"null","","","null","","","","html-keyboard-response","337","1131917","0.0-337.0","614f56ca93028ed09c869a69","6213cbf0cda8d30017064c07","","","","","<p style=""color:darkgreen;font-size:24px;"">Correct :)</p>","",""
"2705","key","v","v","16.6635153374229","500","250","psychophysics","338","1134626","0.0-338.0","614f56ca93028ed09c869a69","6213cbf0cda8d30017064c07","6","","","","","0","3"
"null","","","null","","","","html-keyboard-response","339","1135128","0.0-339.0","614f56ca93028ed09c869a69","6213cbf0cda8d30017064c07","","","","","<p style=""color:darkgreen;font-size:24px;"">Correct :)</p>","",""
"2529","key","v","v","16.663723684210133","500","250","psychophysics","340","1137660","0.0-340.0","614f56ca93028ed09c869a69","6213cbf0cda8d30017064c07","6","","","","","0","3"
"null","","","null","","","","html-keyboard-response","341","1138161","0.0-341.0","614f56ca93028ed09c869a69","6213cbf0cda8d30017064c07","","","","","<p style=""color:darkgreen;font-size:24px;"">Correct :)</p>","",""
"2750","key","n","n","16.666218181818046","500","250","psychophysics","342","1140914","0.0-342.0","614f56ca93028ed09c869a69","6213cbf0cda8d30017064c07","6","","","","","0","4"
"null","","","null","","","","html-keyboard-response","343","1141422","0.0-343.0","614f56ca93028ed09c869a69","6213cbf0cda8d30017064c07","","","","","<p style=""color:darkgreen;font-size:24px;"">Correct :)</p>","",""
"2604","key","n","n","16.661248407642518","500","250","psychophysics","344","1144030","0.0-344.0","614f56ca93028ed09c869a69","6213cbf0cda8d30017064c07","6","","","","","1","9"
"null","","","null","","","","html-keyboard-response","345","1144532","0.0-345.0","614f56ca93028ed09c869a69","6213cbf0cda8d30017064c07","","","","","<p style=""color:darkgreen;font-size:24px;"">Correct :)</p>","",""
"2481","key","v","v","16.663718120804393","500","250","psychophysics","346","1147017","0.0-346.0","614f56ca93028ed09c869a69","6213cbf0cda8d30017064c07","6","","","","","1","1"
"null","","","null","","","","html-keyboard-response","347","1147518","0.0-347.0","614f56ca93028ed09c869a69","6213cbf0cda8d30017064c07","","","","","<p style=""color:darkgreen;font-size:24px;"">Correct :)</p>","",""
"2725","key","n","n","16.66291463414701","500","250","psychophysics","348","1150245","0.0-348.0","614f56ca93028ed09c869a69","6213cbf0cda8d30017064c07","6","","","","","0","8"
"null","","","null","","","","html-keyboard-response","349","1150752","0.0-349.0","614f56ca93028ed09c869a69","6213cbf0cda8d30017064c07","","","","","<p style=""color:darkgreen;font-size:24px;"">Correct :)</p>","",""
"2569","key","n","n","16.662645161290083","500","250","psychophysics","350","1153324","0.0-350.0","614f56ca93028ed09c869a69","6213cbf0cda8d30017064c07","6","","","","","1","7"
"null","","","null","","","","html-keyboard-response","351","1153825","0.0-351.0","614f56ca93028ed09c869a69","6213cbf0cda8d30017064c07","","","","","<p style=""color:darkgreen;font-size:24px;"">Correct :)</p>","",""
"2681","key","v","v","16.66138509316775","500","250","psychophysics","352","1156509","0.0-352.0","614f56ca93028ed09c869a69","6213cbf0cda8d30017064c07","6","","","","","0","3"
"null","","","null","","","","html-keyboard-response","353","1157020","0.0-353.0","614f56ca93028ed09c869a69","6213cbf0cda8d30017064c07","","","","","<p style=""color:darkgreen;font-size:24px;"">Correct :)</p>","",""
"3003","key","n","n","16.757911111111753","500","250","psychophysics","354","1160027","0.0-354.0","614f56ca93028ed09c869a69","6213cbf0cda8d30017064c07","6","","","","","0","4"
"null","","","null","","","","html-keyboard-response","355","1160528","0.0-355.0","614f56ca93028ed09c869a69","6213cbf0cda8d30017064c07","","","","","<p style=""color:darkgreen;font-size:24px;"">Correct :)</p>","",""
"2587","key","v","v","16.663896774194175","500","250","psychophysics","356","1163118","0.0-356.0","614f56ca93028ed09c869a69","6213cbf0cda8d30017064c07","6","","","","","1","1"
"null","","","null","","","","html-keyboard-response","357","1163619","0.0-357.0","614f56ca93028ed09c869a69","6213cbf0cda8d30017064c07","","","","","<p style=""color:darkgreen;font-size:24px;"">Correct :)</p>","",""
"2711","key","v","v","16.766376543209464","500","250","psychophysics","358","1166334","0.0-358.0","614f56ca93028ed09c869a69","6213cbf0cda8d30017064c07","6","","","","","1","4"
"null","","","null","","","","html-keyboard-response","359","1166836","0.0-359.0","614f56ca93028ed09c869a69","6213cbf0cda8d30017064c07","","","","","<p style=""color:darkgreen;font-size:24px;"">Correct :)</p>","",""
"2837","key","v","v","16.663470588235512","500","250","psychophysics","360","1169677","0.0-360.0","614f56ca93028ed09c869a69","6213cbf0cda8d30017064c07","6","","","","","0","1"
"null","","","null","","","","html-keyboard-response","361","1170178","0.0-361.0","614f56ca93028ed09c869a69","6213cbf0cda8d30017064c07","","","","","<p style=""color:darkgreen;font-size:24px;"">Correct :)</p>","",""
"2651","key","v","v","16.660830188680254","500","250","psychophysics","362","1172832","0.0-362.0","614f56ca93028ed09c869a69","6213cbf0cda8d30017064c07","6","","","","","1","2"
"null","","","null","","","","html-keyboard-response","363","1173335","0.0-363.0","614f56ca93028ed09c869a69","6213cbf0cda8d30017064c07","","","","","<p style=""color:darkgreen;font-size:24px;"">Correct :)</p>","",""
"2616","key","n","n","16.663662420381097","500","250","psychophysics","364","1175954","0.0-364.0","614f56ca93028ed09c869a69","6213cbf0cda8d30017064c07","6","","","","","0","6"
"null","","","null","","","","html-keyboard-response","365","1176456","0.0-365.0","614f56ca93028ed09c869a69","6213cbf0cda8d30017064c07","","","","","<p style=""color:darkgreen;font-size:24px;"">Correct :)</p>","",""
"3333","key","v","v","16.664009999999543","500","250","psychophysics","366","1179792","0.0-366.0","614f56ca93028ed09c869a69","6213cbf0cda8d30017064c07","6","","","","","0","7"
"null","","","null","","","","html-keyboard-response","367","1180307","0.0-367.0","614f56ca93028ed09c869a69","6213cbf0cda8d30017064c07","","","","","<p style=""color:darkgreen;font-size:24px;"">Correct :)</p>","",""
"2479","key","n","n","16.663362416107482","500","250","psychophysics","368","1182788","0.0-368.0","614f56ca93028ed09c869a69","6213cbf0cda8d30017064c07","6","","","","","0","8"
"null","","","null","","","","html-keyboard-response","369","1183294","0.0-369.0","614f56ca93028ed09c869a69","6213cbf0cda8d30017064c07","","","","","<p style=""color:darkgreen;font-size:24px;"">Correct :)</p>","",""
"2540","key","n","n","16.6629346405229","500","250","psychophysics","370","1185837","0.0-370.0","614f56ca93028ed09c869a69","6213cbf0cda8d30017064c07","6","","","","","0","6"
"null","","","null","","","","html-keyboard-response","371","1186339","0.0-371.0","614f56ca93028ed09c869a69","6213cbf0cda8d30017064c07","","","","","<p style=""color:darkgreen;font-size:24px;"">Correct :)</p>","",""
"2651","key","n","n","16.663484276729232","500","250","psychophysics","372","1188993","0.0-372.0","614f56ca93028ed09c869a69","6213cbf0cda8d30017064c07","6","","","","","1","9"
"null","","","null","","","","html-keyboard-response","373","1189498","0.0-373.0","614f56ca93028ed09c869a69","6213cbf0cda8d30017064c07","","","","","<p style=""color:darkgreen;font-size:24px;"">Correct :)</p>","",""
"2591","key","n","n","16.77223225806449","500","250","psychophysics","374","1192092","0.0-374.0","614f56ca93028ed09c869a69","6213cbf0cda8d30017064c07","6","","","","","1","8"
"null","","","null","","","","html-keyboard-response","375","1192594","0.0-375.0","614f56ca93028ed09c869a69","6213cbf0cda8d30017064c07","","","","","<p style=""color:darkgreen;font-size:24px;"">Correct :)</p>","",""
"2739","key","v","v","16.662236363635483","500","250","psychophysics","376","1195336","0.0-376.0","614f56ca93028ed09c869a69","6213cbf0cda8d30017064c07","6","","","","","0","7"
"null","","","null","","","","html-keyboard-response","377","1195837","0.0-377.0","614f56ca93028ed09c869a69","6213cbf0cda8d30017064c07","","","","","<p style=""color:darkgreen;font-size:24px;"">Correct :)</p>","",""
"3024","key","n","n","16.661834254144377","500","250","psychophysics","378","1198864","0.0-378.0","614f56ca93028ed09c869a69","6213cbf0cda8d30017064c07","6","","","","","0","8"
"null","","","null","","","","html-keyboard-response","379","1199366","0.0-379.0","614f56ca93028ed09c869a69","6213cbf0cda8d30017064c07","","","","","<p style=""color:darkgreen;font-size:24px;"">Correct :)</p>","",""
"2572","key","n","n","16.661844155843394","500","250","psychophysics","380","1201941","0.0-380.0","614f56ca93028ed09c869a69","6213cbf0cda8d30017064c07","6","","","","","1","9"
"null","","","null","","","","html-keyboard-response","381","1202443","0.0-381.0","614f56ca93028ed09c869a69","6213cbf0cda8d30017064c07","","","","","<p style=""color:darkgreen;font-size:24px;"">Correct :)</p>","",""
"2706","key","n","n","16.661754601227944","500","250","psychophysics","382","1205152","0.0-382.0","614f56ca93028ed09c869a69","6213cbf0cda8d30017064c07","6","","","","","0","6"
"null","","","null","","","","html-keyboard-response","383","1205653","0.0-383.0","614f56ca93028ed09c869a69","6213cbf0cda8d30017064c07","","","","","<p style=""color:darkgreen;font-size:24px;"">Correct :)</p>","",""
"2559","key","n","n","16.663629870130016","500","250","psychophysics","384","1208215","0.0-384.0","614f56ca93028ed09c869a69","6213cbf0cda8d30017064c07","6","","","","","0","6"
"null","","","null","","","","html-keyboard-response","385","1208717","0.0-385.0","614f56ca93028ed09c869a69","6213cbf0cda8d30017064c07","","","","","<p style=""color:darkgreen;font-size:24px;"">Correct :)</p>","",""
"2490","key","n","n","16.664369127516252","500","250","psychophysics","386","1211210","0.0-386.0","614f56ca93028ed09c869a69","6213cbf0cda8d30017064c07","6","","","","","1","9"
"null","","","null","","","","html-keyboard-response","387","1211711","0.0-387.0","614f56ca93028ed09c869a69","6213cbf0cda8d30017064c07","","","","","<p style=""color:darkgreen;font-size:24px;"">Correct :)</p>","",""
"2701","key","v","v","16.766030864197944","500","250","psychophysics","388","1214414","0.0-388.0","614f56ca93028ed09c869a69","6213cbf0cda8d30017064c07","6","","","","","0","1"
"null","","","null","","","","html-keyboard-response","389","1214916","0.0-389.0","614f56ca93028ed09c869a69","6213cbf0cda8d30017064c07","","","","","<p style=""color:darkgreen;font-size:24px;"">Correct :)</p>","",""
"2554","key","v","v","16.665287581698518","500","250","psychophysics","390","1217473","0.0-390.0","614f56ca93028ed09c869a69","6213cbf0cda8d30017064c07","6","","","","","1","4"
"null","","","null","","","","html-keyboard-response","391","1217974","0.0-391.0","614f56ca93028ed09c869a69","6213cbf0cda8d30017064c07","","","","","<p style=""color:darkgreen;font-size:24px;"">Correct :)</p>","",""
"2578","key","v","v","16.661683870967657","500","250","psychophysics","392","1220555","0.0-392.0","614f56ca93028ed09c869a69","6213cbf0cda8d30017064c07","6","","","","","0","9"
"null","","","null","","","","html-keyboard-response","393","1221056","0.0-393.0","614f56ca93028ed09c869a69","6213cbf0cda8d30017064c07","","","","","<p style=""color:darkgreen;font-size:24px;"">Correct :)</p>","",""
"3604","key","v","v","16.663405529954062","500","250","psychophysics","394","1224663","0.0-394.0","614f56ca93028ed09c869a69","6213cbf0cda8d30017064c07","6","","","","","0","9"
"null","","","null","","","","html-keyboard-response","395","1225165","0.0-395.0","614f56ca93028ed09c869a69","6213cbf0cda8d30017064c07","","","","","<p style=""color:darkgreen;font-size:24px;"">Correct :)</p>","",""
"12493","","","n","","","","html-keyboard-response","396","1237659","0.0-396.0","614f56ca93028ed09c869a69","6213cbf0cda8d30017064c07","","","","","<p> Last set of trials.  Here, the tasks are going to switch once again.  We are going to do 50 of these.  And then you are done with the experiment.  </p>  <br><br>  Ready? (press v or n)","",""
"2708","key","v","v","16.662339506172117","500","250","psychophysics","397","1240370","0.0-397.0","614f56ca93028ed09c869a69","6213cbf0cda8d30017064c07","7","","","","","1","4"
"null","","","null","","","","html-keyboard-response","398","1240871","0.0-398.0","614f56ca93028ed09c869a69","6213cbf0cda8d30017064c07","","","","","<p style=""color:darkgreen;font-size:24px;"">Correct :)</p>","",""
"2493","key","n","n","16.66620000000112","500","250","psychophysics","399","1243368","0.0-399.0","614f56ca93028ed09c869a69","6213cbf0cda8d30017064c07","7","","","","","0","4"
"null","","","null","","","","html-keyboard-response","400","1243870","0.0-400.0","614f56ca93028ed09c869a69","6213cbf0cda8d30017064c07","","","","","<p style=""color:darkgreen;font-size:24px;"">Correct :)</p>","",""
"2590","key","n","n","16.663583333333893","500","250","psychophysics","401","1246463","0.0-401.0","614f56ca93028ed09c869a69","6213cbf0cda8d30017064c07","7","","","","","1","7"
"null","","","null","","","","html-keyboard-response","402","1246967","0.0-402.0","614f56ca93028ed09c869a69","6213cbf0cda8d30017064c07","","","","","<p style=""color:darkgreen;font-size:24px;"">Correct :)</p>","",""
"3320","key","n","n","16.664485000000568","500","250","psychophysics","403","1250291","0.0-403.0","614f56ca93028ed09c869a69","6213cbf0cda8d30017064c07","7","","","","","1","6"
"null","","","null","","","","html-keyboard-response","404","1250806","0.0-404.0","614f56ca93028ed09c869a69","6213cbf0cda8d30017064c07","","","","","<p style=""color:darkgreen;font-size:24px;"">Correct :)</p>","",""
"3015","key","n","n","16.664077348065515","500","250","psychophysics","405","1253823","0.0-405.0","614f56ca93028ed09c869a69","6213cbf0cda8d30017064c07","7","","","","","0","2"
"null","","","null","","","","html-keyboard-response","406","1254325","0.0-406.0","614f56ca93028ed09c869a69","6213cbf0cda8d30017064c07","","","","","<p style=""color:darkgreen;font-size:24px;"">Correct :)</p>","",""
"2542","key","n","n","16.663467105262068","500","250","psychophysics","407","1256871","0.0-407.0","614f56ca93028ed09c869a69","6213cbf0cda8d30017064c07","7","","","","","1","7"
"null","","","null","","","","html-keyboard-response","408","1257372","0.0-408.0","614f56ca93028ed09c869a69","6213cbf0cda8d30017064c07","","","","","<p style=""color:darkgreen;font-size:24px;"">Correct :)</p>","",""
"2430","key","v","v","16.663856164384825","500","250","psychophysics","409","1259806","0.0-409.0","614f56ca93028ed09c869a69","6213cbf0cda8d30017064c07","7","","","","","1","1"
"null","","","null","","","","html-keyboard-response","410","1260308","0.0-410.0","614f56ca93028ed09c869a69","6213cbf0cda8d30017064c07","","","","","<p style=""color:darkgreen;font-size:24px;"">Correct :)</p>","",""
"2939","key","n","n","16.664102272727177","500","250","psychophysics","411","1263251","0.0-411.0","614f56ca93028ed09c869a69","6213cbf0cda8d30017064c07","7","","","","","0","2"
"null","","","null","","","","html-keyboard-response","412","1263752","0.0-412.0","614f56ca93028ed09c869a69","6213cbf0cda8d30017064c07","","","","","<p style=""color:darkgreen;font-size:24px;"">Correct :)</p>","",""
"3001","key","n","n","16.75603888888921","500","250","psychophysics","413","1266756","0.0-413.0","614f56ca93028ed09c869a69","6213cbf0cda8d30017064c07","7","","","","","1","7"
"null","","","null","","","","html-keyboard-response","414","1267257","0.0-414.0","614f56ca93028ed09c869a69","6213cbf0cda8d30017064c07","","","","","<p style=""color:darkgreen;font-size:24px;"">Correct :)</p>","",""
"2708","key","n","n","16.664037037035737","500","250","psychophysics","415","1269969","0.0-415.0","614f56ca93028ed09c869a69","6213cbf0cda8d30017064c07","7","","","","","0","4"
"null","","","null","","","","html-keyboard-response","416","1270471","0.0-416.0","614f56ca93028ed09c869a69","6213cbf0cda8d30017064c07","","","","","<p style=""color:darkgreen;font-size:24px;"">Correct :)</p>","",""
"2604","key","n","n","16.66254487179536","500","250","psychophysics","417","1273078","0.0-417.0","614f56ca93028ed09c869a69","6213cbf0cda8d30017064c07","7","","","","","0","4"
"null","","","null","","","","html-keyboard-response","418","1273581","0.0-418.0","614f56ca93028ed09c869a69","6213cbf0cda8d30017064c07","","","","","<p style=""color:darkgreen;font-size:24px;"">Correct :)</p>","",""
"2585","key","n","n","16.663787096773365","500","250","psychophysics","419","1276169","0.0-419.0","614f56ca93028ed09c869a69","6213cbf0cda8d30017064c07","7","","","","","0","4"
"null","","","null","","","","html-keyboard-response","420","1276671","0.0-420.0","614f56ca93028ed09c869a69","6213cbf0cda8d30017064c07","","","","","<p style=""color:darkgreen;font-size:24px;"">Correct :)</p>","",""
"2534","key","n","n","16.661230263157783","500","250","psychophysics","421","1279207","0.0-421.0","614f56ca93028ed09c869a69","6213cbf0cda8d30017064c07","7","","","","","0","6"
"null","","","null","","","","html-keyboard-response","422","1279709","0.0-422.0","614f56ca93028ed09c869a69","6213cbf0cda8d30017064c07","","","","","<p style=""color:darkgreen;font-size:24px;"">Correct :)</p>","",""
"2574","key","n","n","16.66490322580531","500","250","psychophysics","423","1282286","0.0-423.0","614f56ca93028ed09c869a69","6213cbf0cda8d30017064c07","7","","","","","0","4"
"null","","","null","","","","html-keyboard-response","424","1282787","0.0-424.0","614f56ca93028ed09c869a69","6213cbf0cda8d30017064c07","","","","","<p style=""color:darkgreen;font-size:24px;"">Correct :)</p>","",""
"2537","key","n","n","16.666361842105335","500","250","psychophysics","425","1285328","0.0-425.0","614f56ca93028ed09c869a69","6213cbf0cda8d30017064c07","7","","","","","0","2"
"null","","","null","","","","html-keyboard-response","426","1285829","0.0-426.0","614f56ca93028ed09c869a69","6213cbf0cda8d30017064c07","","","","","<p style=""color:darkgreen;font-size:24px;"">Correct :)</p>","",""
"2888","key","n","n","16.661419540230217","500","250","psychophysics","427","1288719","0.0-427.0","614f56ca93028ed09c869a69","6213cbf0cda8d30017064c07","7","","","","","0","4"
"null","","","null","","","","html-keyboard-response","428","1289222","0.0-428.0","614f56ca93028ed09c869a69","6213cbf0cda8d30017064c07","","","","","<p style=""color:darkgreen;font-size:24px;"">Correct :)</p>","",""
"2675","key","v","v","16.663962499999617","500","250","psychophysics","429","1291900","0.0-429.0","614f56ca93028ed09c869a69","6213cbf0cda8d30017064c07","7","","","","","1","3"
"null","","","null","","","","html-keyboard-response","430","1292401","0.0-430.0","614f56ca93028ed09c869a69","6213cbf0cda8d30017064c07","","","","","<p style=""color:darkgreen;font-size:24px;"">Correct :)</p>","",""
"2577","key","v","v","16.66581818181719","500","250","psychophysics","431","1294982","0.0-431.0","614f56ca93028ed09c869a69","6213cbf0cda8d30017064c07","7","","","","","1","1"
"null","","","null","","","","html-keyboard-response","432","1295483","0.0-432.0","614f56ca93028ed09c869a69","6213cbf0cda8d30017064c07","","","","","<p style=""color:darkgreen;font-size:24px;"">Correct :)</p>","",""
"2867","key","n","n","16.66431395348898","500","250","psychophysics","433","1298353","0.0-433.0","614f56ca93028ed09c869a69","6213cbf0cda8d30017064c07","7","","","","","1","7"
"null","","","null","","","","html-keyboard-response","434","1298855","0.0-434.0","614f56ca93028ed09c869a69","6213cbf0cda8d30017064c07","","","","","<p style=""color:darkgreen;font-size:24px;"">Correct :)</p>","",""
"2835","key","v","v","16.663470588234144","500","250","psychophysics","435","1301693","0.0-435.0","614f56ca93028ed09c869a69","6213cbf0cda8d30017064c07","7","","","","","1","3"
"null","","","null","","","","html-keyboard-response","436","1302194","0.0-436.0","614f56ca93028ed09c869a69","6213cbf0cda8d30017064c07","","","","","<p style=""color:darkgreen;font-size:24px;"">Correct :)</p>","",""
"2825","key","n","n","16.66352941176361","500","250","psychophysics","437","1305023","0.0-437.0","614f56ca93028ed09c869a69","6213cbf0cda8d30017064c07","7","","","","","0","2"
"null","","","null","","","","html-keyboard-response","438","1305524","0.0-438.0","614f56ca93028ed09c869a69","6213cbf0cda8d30017064c07","","","","","<p style=""color:darkgreen;font-size:24px;"">Correct :)</p>","",""
"2686","key","n","n","16.664260869565194","500","250","psychophysics","439","1308213","0.0-439.0","614f56ca93028ed09c869a69","6213cbf0cda8d30017064c07","7","","","","","0","2"
"null","","","null","","","","html-keyboard-response","440","1308716","0.0-440.0","614f56ca93028ed09c869a69","6213cbf0cda8d30017064c07","","","","","<p style=""color:darkgreen;font-size:24px;"">Correct :)</p>","",""
"2975","key","n","n","16.66139325842633","500","250","psychophysics","441","1311694","0.0-441.0","614f56ca93028ed09c869a69","6213cbf0cda8d30017064c07","7","","","","","1","7"
"null","","","null","","","","html-keyboard-response","442","1312196","0.0-442.0","614f56ca93028ed09c869a69","6213cbf0cda8d30017064c07","","","","","<p style=""color:darkgreen;font-size:24px;"">Correct :)</p>","",""
"2910","key","v","v","16.757413793103662","500","250","psychophysics","443","1315109","0.0-443.0","614f56ca93028ed09c869a69","6213cbf0cda8d30017064c07","7","","","","","0","1"
"null","","","null","","","","html-keyboard-response","444","1315609","0.0-444.0","614f56ca93028ed09c869a69","6213cbf0cda8d30017064c07","","","","","<p style=""color:darkgreen;font-size:24px;"">Correct :)</p>","",""
"2582","key","v","v","16.6628322580649","500","250","psychophysics","445","1318194","0.0-445.0","614f56ca93028ed09c869a69","6213cbf0cda8d30017064c07","7","","","","","0","3"
"null","","","null","","","","html-keyboard-response","446","1318705","0.0-446.0","614f56ca93028ed09c869a69","6213cbf0cda8d30017064c07","","","","","<p style=""color:darkgreen;font-size:24px;"">Correct :)</p>","",""
"2652","key","v","v","16.666452830188774","500","250","psychophysics","447","1321360","0.0-447.0","614f56ca93028ed09c869a69","6213cbf0cda8d30017064c07","7","","","","","0","7"
"null","","","null","","","","html-keyboard-response","448","1321861","0.0-448.0","614f56ca93028ed09c869a69","6213cbf0cda8d30017064c07","","","","","<p style=""color:darkgreen;font-size:24px;"">Correct :)</p>","",""
"2629","key","n","n","16.663662420381097","500","250","psychophysics","449","1324495","0.0-449.0","614f56ca93028ed09c869a69","6213cbf0cda8d30017064c07","7","","","","","0","2"
"null","","","null","","","","html-keyboard-response","450","1324997","0.0-450.0","614f56ca93028ed09c869a69","6213cbf0cda8d30017064c07","","","","","<p style=""color:darkgreen;font-size:24px;"">Correct :)</p>","",""
"2503","key","v","v","16.662146666667734","500","250","psychophysics","451","1327504","0.0-451.0","614f56ca93028ed09c869a69","6213cbf0cda8d30017064c07","7","","","","","1","4"
"null","","","null","","","","html-keyboard-response","452","1328006","0.0-452.0","614f56ca93028ed09c869a69","6213cbf0cda8d30017064c07","","","","","<p style=""color:darkgreen;font-size:24px;"">Correct :)</p>","",""
"2737","key","n","n","16.66327272727239","500","250","psychophysics","453","1330746","0.0-453.0","614f56ca93028ed09c869a69","6213cbf0cda8d30017064c07","7","","","","","0","2"
"null","","","null","","","","html-keyboard-response","454","1331247","0.0-454.0","614f56ca93028ed09c869a69","6213cbf0cda8d30017064c07","","","","","<p style=""color:darkgreen;font-size:24px;"">Correct :)</p>","",""
"2627","key","v","v","16.663664556961635","500","250","psychophysics","455","1333877","0.0-455.0","614f56ca93028ed09c869a69","6213cbf0cda8d30017064c07","7","","","","","1","1"
"null","","","null","","","","html-keyboard-response","456","1334378","0.0-456.0","614f56ca93028ed09c869a69","6213cbf0cda8d30017064c07","","","","","<p style=""color:darkgreen;font-size:24px;"">Correct :)</p>","",""
"3396","key","v","v","16.661475490195468","500","250","psychophysics","457","1337777","0.0-457.0","614f56ca93028ed09c869a69","6213cbf0cda8d30017064c07","7","","","","","0","7"
"null","","","null","","","","html-keyboard-response","458","1338280","0.0-458.0","614f56ca93028ed09c869a69","6213cbf0cda8d30017064c07","","","","","<p style=""color:darkgreen;font-size:24px;"">Correct :)</p>","",""
"2540","key","n","n","16.663868421052985","500","250","psychophysics","459","1340822","0.0-459.0","614f56ca93028ed09c869a69","6213cbf0cda8d30017064c07","7","","","","","0","6"
"null","","","null","","","","html-keyboard-response","460","1341324","0.0-460.0","614f56ca93028ed09c869a69","6213cbf0cda8d30017064c07","","","","","<p style=""color:darkgreen;font-size:24px;"">Correct :)</p>","",""
"2504","key","v","v","16.662375838927076","500","250","psychophysics","461","1343831","0.0-461.0","614f56ca93028ed09c869a69","6213cbf0cda8d30017064c07","7","","","","","1","2"
"null","","","null","","","","html-keyboard-response","462","1344332","0.0-462.0","614f56ca93028ed09c869a69","6213cbf0cda8d30017064c07","","","","","<p style=""color:darkgreen;font-size:24px;"">Correct :)</p>","",""
"2524","key","v","v","16.661677631580172","500","250","psychophysics","463","1346859","0.0-463.0","614f56ca93028ed09c869a69","6213cbf0cda8d30017064c07","7","","","","","1","1"
"null","","","null","","","","html-keyboard-response","464","1347362","0.0-464.0","614f56ca93028ed09c869a69","6213cbf0cda8d30017064c07","","","","","<p style=""color:darkgreen;font-size:24px;"">Correct :)</p>","",""
"3527","key","n","n","16.66343396226436","500","250","psychophysics","465","1350892","0.0-465.0","614f56ca93028ed09c869a69","6213cbf0cda8d30017064c07","7","","","","","0","2"
"null","","","null","","","","html-keyboard-response","466","1351393","0.0-466.0","614f56ca93028ed09c869a69","6213cbf0cda8d30017064c07","","","","","<p style=""color:darkgreen;font-size:24px;"">Correct :)</p>","",""
"2546","key","n","n","16.664699346405374","500","250","psychophysics","467","1353942","0.0-467.0","614f56ca93028ed09c869a69","6213cbf0cda8d30017064c07","7","","","","","0","2"
"null","","","null","","","","html-keyboard-response","468","1354443","0.0-468.0","614f56ca93028ed09c869a69","6213cbf0cda8d30017064c07","","","","","<p style=""color:darkgreen;font-size:24px;"">Correct :)</p>","",""
"3417","key","v","v","16.66384390243897","500","250","psychophysics","469","1357869","0.0-469.0","614f56ca93028ed09c869a69","6213cbf0cda8d30017064c07","7","","","","","0","7"
"null","","","null","","","","html-keyboard-response","470","1358372","0.0-470.0","614f56ca93028ed09c869a69","6213cbf0cda8d30017064c07","","","","","<p style=""color:darkgreen;font-size:24px;"">Correct :)</p>","",""
"2450","key","v","v","16.66600000000001","500","250","psychophysics","471","1360825","0.0-471.0","614f56ca93028ed09c869a69","6213cbf0cda8d30017064c07","7","","","","","1","2"
"null","","","null","","","","html-keyboard-response","472","1361327","0.0-472.0","614f56ca93028ed09c869a69","6213cbf0cda8d30017064c07","","","","","<p style=""color:darkgreen;font-size:24px;"">Correct :)</p>","",""
"3572","key","v","v","16.661757009346516","500","250","psychophysics","473","1364902","0.0-473.0","614f56ca93028ed09c869a69","6213cbf0cda8d30017064c07","7","","","","","0","7"
"null","","","null","","","","html-keyboard-response","474","1365403","0.0-474.0","614f56ca93028ed09c869a69","6213cbf0cda8d30017064c07","","","","","<p style=""color:darkgreen;font-size:24px;"">Correct :)</p>","",""
"2613","key","v","v","16.662852564102742","500","250","psychophysics","475","1368019","0.0-475.0","614f56ca93028ed09c869a69","6213cbf0cda8d30017064c07","7","","","","","0","3"
"null","","","null","","","","html-keyboard-response","476","1368520","0.0-476.0","614f56ca93028ed09c869a69","6213cbf0cda8d30017064c07","","","","","<p style=""color:darkgreen;font-size:24px;"">Correct :)</p>","",""
"2573","key","n","n","16.66644155844145","500","250","psychophysics","477","1371096","0.0-477.0","614f56ca93028ed09c869a69","6213cbf0cda8d30017064c07","7","","","","","1","6"
"null","","","null","","","","html-keyboard-response","478","1371597","0.0-478.0","614f56ca93028ed09c869a69","6213cbf0cda8d30017064c07","","","","","<p style=""color:darkgreen;font-size:24px;"">Correct :)</p>","",""
"3283","key","n","n","16.66388324873172","500","250","psychophysics","479","1374884","0.0-479.0","614f56ca93028ed09c869a69","6213cbf0cda8d30017064c07","7","","","","","0","6"
"null","","","null","","","","html-keyboard-response","480","1375385","0.0-480.0","614f56ca93028ed09c869a69","6213cbf0cda8d30017064c07","","","","","<p style=""color:darkgreen;font-size:24px;"">Correct :)</p>","",""
"2791","key","v","v","16.66307185628747","500","250","psychophysics","481","1378179","0.0-481.0","614f56ca93028ed09c869a69","6213cbf0cda8d30017064c07","7","","","","","0","1"
"null","","","null","","","","html-keyboard-response","482","1378681","0.0-482.0","614f56ca93028ed09c869a69","6213cbf0cda8d30017064c07","","","","","<p style=""color:darkgreen;font-size:24px;"">Correct :)</p>","",""
"2597","key","v","v","16.663634615384627","500","250","psychophysics","483","1381281","0.0-483.0","614f56ca93028ed09c869a69","6213cbf0cda8d30017064c07","7","","","","","1","2"
"null","","","null","","","","html-keyboard-response","484","1381782","0.0-484.0","614f56ca93028ed09c869a69","6213cbf0cda8d30017064c07","","","","","<p style=""color:darkgreen;font-size:24px;"">Correct :)</p>","",""
"3338","key","v","v","16.665089552238612","500","250","psychophysics","485","1385124","0.0-485.0","614f56ca93028ed09c869a69","6213cbf0cda8d30017064c07","7","","","","","0","1"
"null","","","null","","","","html-keyboard-response","486","1385626","0.0-486.0","614f56ca93028ed09c869a69","6213cbf0cda8d30017064c07","","","","","<p style=""color:darkgreen;font-size:24px;"">Correct :)</p>","",""
"2557","key","v","v","16.663590909090715","500","250","psychophysics","487","1388185","0.0-487.0","614f56ca93028ed09c869a69","6213cbf0cda8d30017064c07","7","","","","","1","3"
"null","","","null","","","","html-keyboard-response","488","1388687","0.0-488.0","614f56ca93028ed09c869a69","6213cbf0cda8d30017064c07","","","","","<p style=""color:darkgreen;font-size:24px;"">Correct :)</p>","",""
"3311","key","n","n","16.66385929648245","500","250","psychophysics","489","1392002","0.0-489.0","614f56ca93028ed09c869a69","6213cbf0cda8d30017064c07","7","","","","","0","6"
"null","","","null","","","","html-keyboard-response","490","1392504","0.0-490.0","614f56ca93028ed09c869a69","6213cbf0cda8d30017064c07","","","","","<p style=""color:darkgreen;font-size:24px;"">Correct :)</p>","",""
"2611","key","v","v","16.662745222929793","500","250","psychophysics","491","1395119","0.0-491.0","614f56ca93028ed09c869a69","6213cbf0cda8d30017064c07","7","","","","","0","3"
"null","","","null","","","","html-keyboard-response","492","1395620","0.0-492.0","614f56ca93028ed09c869a69","6213cbf0cda8d30017064c07","","","","","<p style=""color:darkgreen;font-size:24px;"">Correct :)</p>","",""
"2549","key","n","n","16.6639281045752","500","250","psychophysics","493","1398173","0.0-493.0","614f56ca93028ed09c869a69","6213cbf0cda8d30017064c07","7","","","","","1","7"
"null","","","null","","","","html-keyboard-response","494","1398675","0.0-494.0","614f56ca93028ed09c869a69","6213cbf0cda8d30017064c07","","","","","<p style=""color:darkgreen;font-size:24px;"">Correct :)</p>","",""
"3206","key","n","n","16.66405181347156","500","250","psychophysics","495","1401884","0.0-495.0","614f56ca93028ed09c869a69","6213cbf0cda8d30017064c07","7","","","","","0","6"
"null","","","null","","","","html-keyboard-response","496","1402385","0.0-496.0","614f56ca93028ed09c869a69","6213cbf0cda8d30017064c07","","","","","<p style=""color:darkgreen;font-size:24px;"">Correct :)</p>","",""
