"rt","response_type","key_press","response","avg_frame_time","center_x","center_y","trial_type","trial_index","time_elapsed","internal_node_id","pid","sid","phase","guide","targ","resp","stimulus","is5","stim"
"4895","key"," "," ","16.83823630136986","499.9999891627921","249.99999458139604","psychophysics","0","4937","0.0-0.0","5f40442792000717762de583","620a6bb9e53021751c2c3cdf","","","","","","",""
"2917","key"," "," ","16.666999999999998","499.9999891627921","249.99999458139604","psychophysics","1","7861","0.0-1.0","5f40442792000717762de583","620a6bb9e53021751c2c3cdf","","","","","","",""
"9301","key"," "," ","16.667937163375225","499.9999891627921","249.99999458139604","psychophysics","2","17166","0.0-2.0","5f40442792000717762de583","620a6bb9e53021751c2c3cdf","","","","","","",""
"5878","key"," "," ","16.668255681818177","499.9999891627921","249.99999458139604","psychophysics","3","23046","0.0-3.0","5f40442792000717762de583","620a6bb9e53021751c2c3cdf","","","","","","",""
"5611","key"," "," ","16.66699999999999","499.9999891627921","249.99999458139604","psychophysics","4","28661","0.0-4.0","5f40442792000717762de583","620a6bb9e53021751c2c3cdf","","","","","","",""
"6497","key"," "," ","16.66838817480719","499.9999891627921","249.99999458139604","psychophysics","5","35162","0.0-5.0","5f40442792000717762de583","620a6bb9e53021751c2c3cdf","","","","","","",""
"4322","key"," "," ","16.66890310077521","499.9999891627921","249.99999458139604","psychophysics","6","39488","0.0-6.0","5f40442792000717762de583","620a6bb9e53021751c2c3cdf","","","","","","",""
"4609","key"," "," ","16.667000000000016","499.9999891627921","249.99999458139604","psychophysics","7","44101","0.0-7.0","5f40442792000717762de583","620a6bb9e53021751c2c3cdf","","","","","","",""
"15016","key"," "," ","16.667565555555555","499.9999891627921","249.99999458139604","psychophysics","8","59121","0.0-8.0","5f40442792000717762de583","620a6bb9e53021751c2c3cdf","0","0","21","19","","",""
"12710","key"," "," ","16.668271653543314","499.9999891627921","249.99999458139604","psychophysics","9","71836","0.0-9.0","5f40442792000717762de583","620a6bb9e53021751c2c3cdf","","","","","","",""
"7466","key"," "," ","16.666999999999977","499.9999891627921","249.99999458139604","psychophysics","10","79310","0.0-10.0","5f40442792000717762de583","620a6bb9e53021751c2c3cdf","","","","","","",""
"19131","key"," "," ","16.682394943330436","499.9999891627921","249.99999458139604","psychophysics","11","98448","0.0-11.0","5f40442792000717762de583","620a6bb9e53021751c2c3cdf","","","","","","",""
"6036","key"," "," ","16.668409972299134","499.9999891627921","249.99999458139604","psychophysics","12","104489","0.0-12.0","5f40442792000717762de583","620a6bb9e53021751c2c3cdf","","","","","","",""
"5693","key"," "," ","16.668375366568906","499.9999891627921","249.99999458139604","psychophysics","13","110186","0.0-13.0","5f40442792000717762de583","620a6bb9e53021751c2c3cdf","","","","","","",""
"6121","key"," "," ","16.667000000000012","499.9999891627921","249.99999458139604","psychophysics","14","116322","0.0-14.0","5f40442792000717762de583","620a6bb9e53021751c2c3cdf","","","","","","",""
"5705","key"," "," ","16.71712316715544","499.9999891627921","249.99999458139604","psychophysics","15","122032","0.0-15.0","5f40442792000717762de583","620a6bb9e53021751c2c3cdf","","","","","","",""
"9596","key"," "," ","16.667991289198575","499.9999891627921","249.99999458139604","psychophysics","16","131632","0.0-16.0","5f40442792000717762de583","620a6bb9e53021751c2c3cdf","","","","","","",""
"16927","key"," "," ","16.66738090551182","499.9999891627921","249.99999458139604","psychophysics","17","148566","0.0-17.0","5f40442792000717762de583","620a6bb9e53021751c2c3cdf","1","0","26","29","","",""
"23148","key"," "," ","16.68015501081471","499.9999891627921","249.99999458139604","psychophysics","18","171718","0.0-18.0","5f40442792000717762de583","620a6bb9e53021751c2c3cdf","1","5","43","48","","",""
"24399","key"," "," ","16.66766370471633","499.9999891627921","249.99999458139604","psychophysics","19","196120","0.0-19.0","5f40442792000717762de583","620a6bb9e53021751c2c3cdf","1","0","45","71","","",""
"23775","key"," "," ","16.679752106741574","499.9999891627921","249.99999458139604","psychophysics","20","219898","0.0-20.0","5f40442792000717762de583","620a6bb9e53021751c2c3cdf","1","5","41","45","","",""
"29857","key"," "," ","16.667544388609706","499.9999891627921","249.99999458139604","psychophysics","21","249761","0.0-21.0","5f40442792000717762de583","620a6bb9e53021751c2c3cdf","1","0","57","89","","",""
"21745","key"," "," ","16.66805368098159","499.9999891627921","249.99999458139604","psychophysics","22","271508","0.0-22.0","5f40442792000717762de583","620a6bb9e53021751c2c3cdf","1","5","31","38","","",""
"29439","key"," "," ","16.667895750708222","499.9999891627921","249.99999458139604","psychophysics","23","300950","0.0-23.0","5f40442792000717762de583","620a6bb9e53021751c2c3cdf","1","0","56","97","","",""
"11115","key"," "," ","16.667752623688163","499.9999891627921","249.99999458139604","psychophysics","24","312073","0.0-24.0","5f40442792000717762de583","620a6bb9e53021751c2c3cdf","1","5","25","31","","",""
"31831","key"," "," ","16.667770036668404","499.9999891627921","249.99999458139604","psychophysics","25","343906","0.0-25.0","5f40442792000717762de583","620a6bb9e53021751c2c3cdf","1","0","51","69","","",""
"19048","key"," "," ","16.682443470639793","499.9999891627921","249.99999458139604","psychophysics","26","362958","0.0-26.0","5f40442792000717762de583","620a6bb9e53021751c2c3cdf","1","5","35","40","","",""
"7936","key"," "," ","16.66808631578938","499.9999891627921","249.99999458139604","psychophysics","27","370898","0.0-27.0","5f40442792000717762de583","620a6bb9e53021751c2c3cdf","1","0","26","36","","",""
"18994","key"," "," ","16.66742317822652","499.9999891627921","249.99999458139604","psychophysics","28","389895","0.0-28.0","5f40442792000717762de583","620a6bb9e53021751c2c3cdf","1","5","49","57","","",""
"25295","key"," "," ","16.667981542518113","499.9999891627921","249.99999458139604","psychophysics","29","415193","0.0-29.0","5f40442792000717762de583","620a6bb9e53021751c2c3cdf","1","0","59","92","","",""
"20448","key"," "," ","16.66771288743881","499.9999891627921","249.99999458139604","psychophysics","30","435645","0.0-30.0","5f40442792000717762de583","620a6bb9e53021751c2c3cdf","1","5","60","63","","",""
"25846","key"," "," ","16.67877856681731","499.9999891627921","249.99999458139604","psychophysics","31","461494","0.0-31.0","5f40442792000717762de583","620a6bb9e53021751c2c3cdf","1","0","59","92","","",""
"21331","key"," "," ","16.667711493354204","499.9999891627921","249.99999458139604","psychophysics","32","482830","0.0-32.0","5f40442792000717762de583","620a6bb9e53021751c2c3cdf","1","5","60","69","","",""
"5332","key"," "," ","16.66699999999996","499.9999891627921","249.99999458139604","psychophysics","33","488166","0.0-33.0","5f40442792000717762de583","620a6bb9e53021751c2c3cdf","1","0","26","31","","",""
"12534","key"," "," ","16.68996933333335","499.9999891627921","249.99999458139604","psychophysics","34","500704","0.0-34.0","5f40442792000717762de583","620a6bb9e53021751c2c3cdf","1","5","48","53","","",""
"34529","key"," "," ","16.773229834791074","499.9999891627921","249.99999458139604","psychophysics","35","535237","0.0-35.0","5f40442792000717762de583","620a6bb9e53021751c2c3cdf","1","0","56","103","","",""
"8633","key"," "," ","16.700308139534766","499.9999891627921","249.99999458139604","psychophysics","36","543875","0.0-36.0","5f40442792000717762de583","620a6bb9e53021751c2c3cdf","1","5","22","28","","",""
"5817","key"," "," ","16.667000000000154","499.9999891627921","249.99999458139604","psychophysics","37","549699","0.0-37.0","5f40442792000717762de583","620a6bb9e53021751c2c3cdf","","","","","","",""
"6546","key"," "," ","16.668173469387753","499.9999891627921","249.99999458139604","psychophysics","38","556248","0.0-38.0","5f40442792000717762de583","620a6bb9e53021751c2c3cdf","","","","","","",""
"4222","key"," "," ","16.667000000000126","499.9999891627921","249.99999458139604","psychophysics","39","560475","0.0-39.0","5f40442792000717762de583","620a6bb9e53021751c2c3cdf","","","","","","",""
"7956","key"," "," ","16.667958071278907","499.9999891627921","249.99999458139604","psychophysics","40","568437","0.0-40.0","5f40442792000717762de583","620a6bb9e53021751c2c3cdf","2","0","24","29","","",""
"3991","key"," "," ","16.669213389121502","499.9999891627921","249.99999458139604","psychophysics","41","572433","0.0-41.0","5f40442792000717762de583","620a6bb9e53021751c2c3cdf","","","","","","",""
"10154","key"," "," ","16.66779934210526","499.9999891627921","249.99999458139604","psychophysics","42","582591","0.0-42.0","5f40442792000717762de583","620a6bb9e53021751c2c3cdf","2","0","42","48","","",""
"3167","key"," "," ","16.666999999999902","499.9999891627921","249.99999458139604","psychophysics","43","585766","0.0-43.0","5f40442792000717762de583","620a6bb9e53021751c2c3cdf","","","","","","",""
"4644","key"," "," ","16.66699999999992","499.9999891627921","249.99999458139604","psychophysics","44","590413","0.0-44.0","5f40442792000717762de583","620a6bb9e53021751c2c3cdf","2","0","21","22","","",""
"2498","key"," "," ","16.670449664429512","499.9999891627921","249.99999458139604","psychophysics","45","592916","0.0-45.0","5f40442792000717762de583","620a6bb9e53021751c2c3cdf","","","","","","",""
"7250","key"," "," ","16.744162037037043","499.9999891627921","249.99999458139604","psychophysics","46","600170","0.0-46.0","5f40442792000717762de583","620a6bb9e53021751c2c3cdf","2","0","36","38","","",""
"1744","key"," "," ","16.671855769229857","499.9999891627921","249.99999458139604","psychophysics","47","601917","0.0-47.0","5f40442792000717762de583","620a6bb9e53021751c2c3cdf","","","","","","",""
"5520","key"," "," ","16.66699999999996","499.9999891627921","249.99999458139604","psychophysics","48","607441","0.0-48.0","5f40442792000717762de583","620a6bb9e53021751c2c3cdf","2","0","21","25","","",""
"1690","key"," "," ","16.667000000000847","499.9999891627921","249.99999458139604","psychophysics","49","609134","0.0-49.0","5f40442792000717762de583","620a6bb9e53021751c2c3cdf","","","","","","",""
"8521","key"," "," ","16.667898039215736","499.9999891627921","249.99999458139604","psychophysics","50","617659","0.0-50.0","5f40442792000717762de583","620a6bb9e53021751c2c3cdf","2","0","38","42","","",""
"2416","key"," "," ","16.666999999999664","499.9999891627921","249.99999458139604","psychophysics","51","620080","0.0-51.0","5f40442792000717762de583","620a6bb9e53021751c2c3cdf","","","","","","",""
"6065","key"," "," ","16.668315934065912","499.9999891627921","249.99999458139604","psychophysics","52","626150","0.0-52.0","5f40442792000717762de583","620a6bb9e53021751c2c3cdf","2","0","21","28","","",""
"1215","key"," "," ","16.666999999999664","499.9999891627921","249.99999458139604","psychophysics","53","627369","0.0-53.0","5f40442792000717762de583","620a6bb9e53021751c2c3cdf","","","","","","",""
"10024","key"," "," ","16.695701168614512","499.9999891627921","249.99999458139604","psychophysics","54","637395","0.0-54.0","5f40442792000717762de583","620a6bb9e53021751c2c3cdf","2","0","44","54","","",""
"1473","key"," "," ","16.66699999999996","499.9999891627921","249.99999458139604","psychophysics","55","638873","0.0-55.0","5f40442792000717762de583","620a6bb9e53021751c2c3cdf","","","","","","",""
"13493","key"," "," ","16.668095179233696","499.9999891627921","249.99999458139604","psychophysics","56","652370","0.0-56.0","5f40442792000717762de583","620a6bb9e53021751c2c3cdf","2","0","45","54","","",""
"1806","key"," "," ","16.66699999999951","499.9999891627921","249.99999458139604","psychophysics","57","654180","0.0-57.0","5f40442792000717762de583","620a6bb9e53021751c2c3cdf","","","","","","",""
"8425","key"," "," ","16.7012599206348","499.9999891627921","249.99999458139604","psychophysics","58","662612","0.0-58.0","5f40442792000717762de583","620a6bb9e53021751c2c3cdf","2","0","44","42","","",""
"1301","key"," "," ","16.667000000000908","499.9999891627921","249.99999458139604","psychophysics","59","663918","0.0-59.0","5f40442792000717762de583","620a6bb9e53021751c2c3cdf","","","","","","",""
"8220","key"," "," ","16.668020325203187","499.9999891627921","249.99999458139604","psychophysics","60","672142","0.0-60.0","5f40442792000717762de583","620a6bb9e53021751c2c3cdf","2","0","34","38","","",""
"1592","key"," "," ","16.666999999999902","499.9999891627921","249.99999458139604","psychophysics","61","673738","0.0-61.0","5f40442792000717762de583","620a6bb9e53021751c2c3cdf","","","","","","",""
"8448","key"," "," ","16.667907114624526","499.9999891627921","249.99999458139604","psychophysics","62","682188","0.0-62.0","5f40442792000717762de583","620a6bb9e53021751c2c3cdf","2","0","34","33","","",""
"1091","key"," "," ","16.66700000000128","499.9999891627921","249.99999458139604","psychophysics","63","683282","0.0-63.0","5f40442792000717762de583","620a6bb9e53021751c2c3cdf","","","","","","",""
"11074","key"," "," ","16.667769578313216","499.9999891627921","249.99999458139604","psychophysics","64","694363","0.0-64.0","5f40442792000717762de583","620a6bb9e53021751c2c3cdf","2","0","34","43","","",""
"1544","key"," "," ","16.666999999999383","499.9999891627921","249.99999458139604","psychophysics","65","695914","0.0-65.0","5f40442792000717762de583","620a6bb9e53021751c2c3cdf","","","","","","",""
"8786","key"," "," ","16.66791650853884","499.9999891627921","249.99999458139604","psychophysics","66","704707","0.0-66.0","5f40442792000717762de583","620a6bb9e53021751c2c3cdf","2","0","34","40","","",""
"946","key"," "," ","16.66700000000128","499.9999891627921","249.99999458139604","psychophysics","67","705656","0.0-67.0","5f40442792000717762de583","620a6bb9e53021751c2c3cdf","","","","","","",""
"6343","key"," "," ","16.66829473684223","499.9999891627921","249.99999458139604","psychophysics","68","712003","0.0-68.0","5f40442792000717762de583","620a6bb9e53021751c2c3cdf","2","0","24","30","","",""
"932","key"," "," ","16.6669999999989","499.9999891627921","249.99999458139604","psychophysics","69","712940","0.0-69.0","5f40442792000717762de583","620a6bb9e53021751c2c3cdf","","","","","","",""
"4699","key"," "," ","16.66700000000009","499.9999891627921","249.99999458139604","psychophysics","70","717642","0.0-70.0","5f40442792000717762de583","620a6bb9e53021751c2c3cdf","","","","","","",""
"3272","key"," "," ","16.752912371133732","499.9999891627921","249.99999458139604","psychophysics","71","720917","0.0-71.0","5f40442792000717762de583","620a6bb9e53021751c2c3cdf","","","","","","",""
"12313","key"," "," ","16.66831258457379","499.9999891627921","249.99999458139604","psychophysics","72","733236","0.0-72.0","5f40442792000717762de583","620a6bb9e53021751c2c3cdf","3","5","43","45","","",""
"7152","key"," "," ","16.667000000000055","499.9999891627921","249.99999458139604","psychophysics","73","740390","0.0-73.0","5f40442792000717762de583","620a6bb9e53021751c2c3cdf","3","0","24","27","","",""
"14298","key"," "," ","16.668052508751536","499.9999891627921","249.99999458139604","psychophysics","74","754691","0.0-74.0","5f40442792000717762de583","620a6bb9e53021751c2c3cdf","3","5","57","61","","",""
"18987","key"," "," ","16.667900702987694","499.9999891627921","249.99999458139604","psychophysics","75","773682","0.0-75.0","5f40442792000717762de583","620a6bb9e53021751c2c3cdf","3","0","55","79","","",""
"14721","key"," "," ","16.70546538024973","499.9999891627921","249.99999458139604","psychophysics","76","788408","0.0-76.0","5f40442792000717762de583","620a6bb9e53021751c2c3cdf","3","5","36","38","","",""
"24734","key"," "," ","16.66799932523623","499.9999891627921","249.99999458139604","psychophysics","77","813144","0.0-77.0","5f40442792000717762de583","620a6bb9e53021751c2c3cdf","3","0","51","59","","",""
"16519","key"," "," ","16.66738508064525","499.9999891627921","249.99999458139604","psychophysics","78","829675","0.0-78.0","5f40442792000717762de583","620a6bb9e53021751c2c3cdf","3","5","48","50","","",""
"18711","key"," "," ","16.68283764495976","499.9999891627921","249.99999458139604","psychophysics","79","848392","0.0-79.0","5f40442792000717762de583","620a6bb9e53021751c2c3cdf","3","0","40","55","","",""
"28076","key"," "," ","16.66787165775404","499.9999891627921","249.99999458139604","psychophysics","80","876472","0.0-80.0","5f40442792000717762de583","620a6bb9e53021751c2c3cdf","3","5","55","55","","",""
"10024","key"," "," ","16.6677770382696","499.9999891627921","249.99999458139604","psychophysics","81","886502","0.0-81.0","5f40442792000717762de583","620a6bb9e53021751c2c3cdf","3","0","27","34","","",""
"4962","key"," "," ","16.667000000000154","499.9999891627921","249.99999458139604","psychophysics","82","891470","0.0-82.0","5f40442792000717762de583","620a6bb9e53021751c2c3cdf","3","5","27","27","","",""
"11353","key"," "," ","16.69300441176473","499.9999891627921","249.99999458139604","psychophysics","83","902829","0.0-83.0","5f40442792000717762de583","620a6bb9e53021751c2c3cdf","3","0","42","44","","",""
"10863","key"," "," ","16.693239999999864","499.9999891627921","249.99999458139604","psychophysics","84","913695","0.0-84.0","5f40442792000717762de583","620a6bb9e53021751c2c3cdf","3","5","46","46","","",""
"8745","key"," "," ","16.667937022900894","499.9999891627921","249.99999458139604","psychophysics","85","922444","0.0-85.0","5f40442792000717762de583","620a6bb9e53021751c2c3cdf","3","0","24","30","","",""
"7399","key"," "," ","16.667000000000066","499.9999891627921","249.99999458139604","psychophysics","86","929848","0.0-86.0","5f40442792000717762de583","620a6bb9e53021751c2c3cdf","3","5","23","27","","",""
"16411","key"," "," ","16.66809349593494","499.9999891627921","249.99999458139604","psychophysics","87","946262","0.0-87.0","5f40442792000717762de583","620a6bb9e53021751c2c3cdf","3","0","41","55","","",""
"9297","key"," "," ","16.667904847396848","499.9999891627921","249.99999458139604","psychophysics","88","955563","0.0-88.0","5f40442792000717762de583","620a6bb9e53021751c2c3cdf","3","5","32","33","","",""
"25369","key"," "," ","16.678596052631512","499.9999891627921","249.99999458139604","psychophysics","89","980935","0.0-89.0","5f40442792000717762de583","620a6bb9e53021751c2c3cdf","3","0","60","80","","",""
"13735","key"," "," ","16.66823207776437","499.9999891627921","249.99999458139604","psychophysics","90","994674","0.0-90.0","5f40442792000717762de583","620a6bb9e53021751c2c3cdf","3","5","55","53","","",""
"5896","key"," "," ","16.666999999999717","499.9999891627921","249.99999458139604","psychophysics","91","1000577","0.0-91.0","5f40442792000717762de583","620a6bb9e53021751c2c3cdf","3","0","21","23","","",""
"26743","key"," "," ","16.667908296943235","499.9999891627921","249.99999458139604","psychophysics","92","1027323","0.0-92.0","5f40442792000717762de583","620a6bb9e53021751c2c3cdf","","","","","","",""
"90790","","","v","","","","html-keyboard-response","93","1118137","0.0-93.0","5f40442792000717762de583","620a6bb9e53021751c2c3cdf","","","","","<p> In this part of the experiment, we are going present digits 1, 2, 3, 4, 6, 7, 8, and 9.  Notice that 5 is missing.  Your job is to say whether the presented digit is less than or greater than 5.  For example, 3 is less than 5 and 7 is greater than 5.  If the digit is less than 5, press the v key; if it is greater than 5, press the n key. We are going to do 200 of these in total, but only 50 righ now. They go real fast.</p>  <br><br>  Ready? (press v or n)","",""
"2434","key","n","n","16.69921232876687","499.9999891627921","249.99999458139604","psychophysics","94","1120580","0.0-94.0","5f40442792000717762de583","620a6bb9e53021751c2c3cdf","4","","","","","1","9"
"null","","","null","","","","html-keyboard-response","95","1121083","0.0-95.0","5f40442792000717762de583","620a6bb9e53021751c2c3cdf","","","","","<p style=""color:darkgreen;font-size:24px;"">Correct :)</p>","",""
"2392","key","n","n","16.666999999999664","499.9999891627921","249.99999458139604","psychophysics","96","1123482","0.0-96.0","5f40442792000717762de583","620a6bb9e53021751c2c3cdf","4","","","","","1","9"
"null","","","null","","","","html-keyboard-response","97","1123987","0.0-97.0","5f40442792000717762de583","620a6bb9e53021751c2c3cdf","","","","","<p style=""color:darkgreen;font-size:24px;"">Correct :)</p>","",""
"2371","key","n","n","16.667000000000364","499.9999891627921","249.99999458139604","psychophysics","98","1126364","0.0-98.0","5f40442792000717762de583","620a6bb9e53021751c2c3cdf","4","","","","","1","6"
"null","","","null","","","","html-keyboard-response","99","1126868","0.0-99.0","5f40442792000717762de583","620a6bb9e53021751c2c3cdf","","","","","<p style=""color:darkgreen;font-size:24px;"">Correct :)</p>","",""
"2926","key","n","n","16.669613636363383","499.9999891627921","249.99999458139604","psychophysics","100","1129799","0.0-100.0","5f40442792000717762de583","620a6bb9e53021751c2c3cdf","4","","","","","1","7"
"null","","","null","","","","html-keyboard-response","101","1130302","0.0-101.0","5f40442792000717762de583","620a6bb9e53021751c2c3cdf","","","","","<p style=""color:darkgreen;font-size:24px;"">Correct :)</p>","",""
"2402","key","v","v","16.666999999999664","499.9999891627921","249.99999458139604","psychophysics","102","1132709","0.0-102.0","5f40442792000717762de583","620a6bb9e53021751c2c3cdf","4","","","","","1","2"
"null","","","null","","","","html-keyboard-response","103","1133215","0.0-103.0","5f40442792000717762de583","620a6bb9e53021751c2c3cdf","","","","","<p style=""color:darkgreen;font-size:24px;"">Correct :)</p>","",""
"2390","key","n","n","16.667000000000364","499.9999891627921","249.99999458139604","psychophysics","104","1135610","0.0-104.0","5f40442792000717762de583","620a6bb9e53021751c2c3cdf","4","","","","","1","8"
"null","","","null","","","","html-keyboard-response","105","1136113","0.0-105.0","5f40442792000717762de583","620a6bb9e53021751c2c3cdf","","","","","<p style=""color:darkgreen;font-size:24px;"">Correct :)</p>","",""
"2441","key","v","v","16.67009589040958","499.9999891627921","249.99999458139604","psychophysics","106","1138560","0.0-106.0","5f40442792000717762de583","620a6bb9e53021751c2c3cdf","4","","","","","1","3"
"null","","","null","","","","html-keyboard-response","107","1139062","0.0-107.0","5f40442792000717762de583","620a6bb9e53021751c2c3cdf","","","","","<p style=""color:darkgreen;font-size:24px;"">Correct :)</p>","",""
"2394","key","n","n","16.667000000000364","499.9999891627921","249.99999458139604","psychophysics","108","1141459","0.0-108.0","5f40442792000717762de583","620a6bb9e53021751c2c3cdf","4","","","","","1","8"
"null","","","null","","","","html-keyboard-response","109","1141965","0.0-109.0","5f40442792000717762de583","620a6bb9e53021751c2c3cdf","","","","","<p style=""color:darkgreen;font-size:24px;"">Correct :)</p>","",""
"2650","key","v","v","16.667000000000456","499.9999891627921","249.99999458139604","psychophysics","110","1144619","0.0-110.0","5f40442792000717762de583","620a6bb9e53021751c2c3cdf","4","","","","","1","6"
"null","","","null","","","","html-keyboard-response","111","1145122","0.0-111.0","5f40442792000717762de583","620a6bb9e53021751c2c3cdf","","","","","<p style=""color:red;font-size:24px;"">Error :(</p>","",""
"2435","key","n","n","16.666999999999884","499.9999891627921","249.99999458139604","psychophysics","112","1147563","0.0-112.0","5f40442792000717762de583","620a6bb9e53021751c2c3cdf","4","","","","","1","9"
"null","","","null","","","","html-keyboard-response","113","1148066","0.0-113.0","5f40442792000717762de583","620a6bb9e53021751c2c3cdf","","","","","<p style=""color:darkgreen;font-size:24px;"">Correct :)</p>","",""
"2487","key","v","v","16.670315436242248","499.9999891627921","249.99999458139604","psychophysics","114","1150559","0.0-114.0","5f40442792000717762de583","620a6bb9e53021751c2c3cdf","4","","","","","1","2"
"null","","","null","","","","html-keyboard-response","115","1151062","0.0-115.0","5f40442792000717762de583","620a6bb9e53021751c2c3cdf","","","","","<p style=""color:darkgreen;font-size:24px;"">Correct :)</p>","",""
"2452","key","n","n","16.666999999999884","499.9999891627921","249.99999458139604","psychophysics","116","1153517","0.0-116.0","5f40442792000717762de583","620a6bb9e53021751c2c3cdf","4","","","","","1","9"
"null","","","null","","","","html-keyboard-response","117","1154019","0.0-117.0","5f40442792000717762de583","620a6bb9e53021751c2c3cdf","","","","","<p style=""color:darkgreen;font-size:24px;"">Correct :)</p>","",""
"2451","key","v","v","16.666999999999202","499.9999891627921","249.99999458139604","psychophysics","118","1156475","0.0-118.0","5f40442792000717762de583","620a6bb9e53021751c2c3cdf","4","","","","","1","3"
"null","","","null","","","","html-keyboard-response","119","1156978","0.0-119.0","5f40442792000717762de583","620a6bb9e53021751c2c3cdf","","","","","<p style=""color:darkgreen;font-size:24px;"">Correct :)</p>","",""
"2513","key","v","v","16.670662251655752","499.9999891627921","249.99999458139604","psychophysics","120","1159496","0.0-120.0","5f40442792000717762de583","620a6bb9e53021751c2c3cdf","4","","","","","1","2"
"null","","","null","","","","html-keyboard-response","121","1159998","0.0-121.0","5f40442792000717762de583","620a6bb9e53021751c2c3cdf","","","","","<p style=""color:darkgreen;font-size:24px;"">Correct :)</p>","",""
"2562","key","v","v","16.666999999999852","499.9999891627921","249.99999458139604","psychophysics","122","1162566","0.0-122.0","5f40442792000717762de583","620a6bb9e53021751c2c3cdf","4","","","","","1","4"
"null","","","null","","","","html-keyboard-response","123","1163068","0.0-123.0","5f40442792000717762de583","620a6bb9e53021751c2c3cdf","","","","","<p style=""color:darkgreen;font-size:24px;"">Correct :)</p>","",""
"2439","key","n","n","16.666999999999884","499.9999891627921","249.99999458139604","psychophysics","124","1165512","0.0-124.0","5f40442792000717762de583","620a6bb9e53021751c2c3cdf","4","","","","","1","8"
"null","","","null","","","","html-keyboard-response","125","1166016","0.0-125.0","5f40442792000717762de583","620a6bb9e53021751c2c3cdf","","","","","<p style=""color:darkgreen;font-size:24px;"">Correct :)</p>","",""
"2440","key","v","v","16.670479452055687","499.9999891627921","249.99999458139604","psychophysics","126","1168463","0.0-126.0","5f40442792000717762de583","620a6bb9e53021751c2c3cdf","4","","","","","1","4"
"null","","","null","","","","html-keyboard-response","127","1168965","0.0-127.0","5f40442792000717762de583","620a6bb9e53021751c2c3cdf","","","","","<p style=""color:darkgreen;font-size:24px;"">Correct :)</p>","",""
"2514","key","n","n","16.66700000000031","499.9999891627921","249.99999458139604","psychophysics","128","1171484","0.0-128.0","5f40442792000717762de583","620a6bb9e53021751c2c3cdf","4","","","","","1","9"
"null","","","null","","","","html-keyboard-response","129","1171989","0.0-129.0","5f40442792000717762de583","620a6bb9e53021751c2c3cdf","","","","","<p style=""color:darkgreen;font-size:24px;"">Correct :)</p>","",""
"2477","key","n","n","16.66700000000099","499.9999891627921","249.99999458139604","psychophysics","130","1174471","0.0-130.0","5f40442792000717762de583","620a6bb9e53021751c2c3cdf","4","","","","","1","8"
"null","","","null","","","","html-keyboard-response","131","1174975","0.0-131.0","5f40442792000717762de583","620a6bb9e53021751c2c3cdf","","","","","<p style=""color:darkgreen;font-size:24px;"">Correct :)</p>","",""
"2470","key","n","n","16.666999999999426","499.9999891627921","249.99999458139604","psychophysics","132","1177461","0.0-132.0","5f40442792000717762de583","620a6bb9e53021751c2c3cdf","4","","","","","1","6"
"null","","","null","","","","html-keyboard-response","133","1177965","0.0-133.0","5f40442792000717762de583","620a6bb9e53021751c2c3cdf","","","","","<p style=""color:darkgreen;font-size:24px;"">Correct :)</p>","",""
"2453","key","v","v","16.67020945946019","499.9999891627921","249.99999458139604","psychophysics","134","1180424","0.0-134.0","5f40442792000717762de583","620a6bb9e53021751c2c3cdf","4","","","","","1","4"
"null","","","null","","","","html-keyboard-response","135","1180929","0.0-135.0","5f40442792000717762de583","620a6bb9e53021751c2c3cdf","","","","","<p style=""color:darkgreen;font-size:24px;"">Correct :)</p>","",""
"2481","key","n","n","16.66700000000099","499.9999891627921","249.99999458139604","psychophysics","136","1183416","0.0-136.0","5f40442792000717762de583","620a6bb9e53021751c2c3cdf","4","","","","","1","9"
"null","","","null","","","","html-keyboard-response","137","1183919","0.0-137.0","5f40442792000717762de583","620a6bb9e53021751c2c3cdf","","","","","<p style=""color:darkgreen;font-size:24px;"">Correct :)</p>","",""
"2554","key","n","n","16.776651315789326","499.9999891627921","249.99999458139604","psychophysics","138","1186478","0.0-138.0","5f40442792000717762de583","620a6bb9e53021751c2c3cdf","4","","","","","1","7"
"null","","","null","","","","html-keyboard-response","139","1186982","0.0-139.0","5f40442792000717762de583","620a6bb9e53021751c2c3cdf","","","","","<p style=""color:darkgreen;font-size:24px;"">Correct :)</p>","",""
"2496","key","n","n","16.669630872482596","499.9999891627921","249.99999458139604","psychophysics","140","1189483","0.0-140.0","5f40442792000717762de583","620a6bb9e53021751c2c3cdf","4","","","","","1","8"
"null","","","null","","","","html-keyboard-response","141","1189985","0.0-141.0","5f40442792000717762de583","620a6bb9e53021751c2c3cdf","","","","","<p style=""color:darkgreen;font-size:24px;"">Correct :)</p>","",""
"2587","key","v","v","16.66699999999856","499.9999891627921","249.99999458139604","psychophysics","142","1192575","0.0-142.0","5f40442792000717762de583","620a6bb9e53021751c2c3cdf","4","","","","","1","3"
"null","","","null","","","","html-keyboard-response","143","1193079","0.0-143.0","5f40442792000717762de583","620a6bb9e53021751c2c3cdf","","","","","<p style=""color:darkgreen;font-size:24px;"">Correct :)</p>","",""
"2461","key","n","n","16.6670000000001","499.9999891627921","249.99999458139604","psychophysics","144","1195545","0.0-144.0","5f40442792000717762de583","620a6bb9e53021751c2c3cdf","4","","","","","1","9"
"null","","","null","","","","html-keyboard-response","145","1196047","0.0-145.0","5f40442792000717762de583","620a6bb9e53021751c2c3cdf","","","","","<p style=""color:darkgreen;font-size:24px;"">Correct :)</p>","",""
"2520","key","v","v","16.67093377483435","499.9999891627921","249.99999458139604","psychophysics","146","1198572","0.0-146.0","5f40442792000717762de583","620a6bb9e53021751c2c3cdf","4","","","","","1","2"
"null","","","null","","","","html-keyboard-response","147","1199076","0.0-147.0","5f40442792000717762de583","620a6bb9e53021751c2c3cdf","","","","","<p style=""color:darkgreen;font-size:24px;"">Correct :)</p>","",""
"2937","key","v","v","16.66699999999996","499.9999891627921","249.99999458139604","psychophysics","148","1202016","0.0-148.0","5f40442792000717762de583","620a6bb9e53021751c2c3cdf","4","","","","","1","4"
"null","","","null","","","","html-keyboard-response","149","1202517","0.0-149.0","5f40442792000717762de583","620a6bb9e53021751c2c3cdf","","","","","<p style=""color:darkgreen;font-size:24px;"">Correct :)</p>","",""
"2558","key","n","n","16.666999999999852","499.9999891627921","249.99999458139604","psychophysics","150","1205080","0.0-150.0","5f40442792000717762de583","620a6bb9e53021751c2c3cdf","4","","","","","1","7"
"null","","","null","","","","html-keyboard-response","151","1205583","0.0-151.0","5f40442792000717762de583","620a6bb9e53021751c2c3cdf","","","","","<p style=""color:darkgreen;font-size:24px;"">Correct :)</p>","",""
"2663","key","n","n","16.666999999999824","499.9999891627921","249.99999458139604","psychophysics","152","1208251","0.0-152.0","5f40442792000717762de583","620a6bb9e53021751c2c3cdf","4","","","","","1","7"
"null","","","null","","","","html-keyboard-response","153","1208754","0.0-153.0","5f40442792000717762de583","620a6bb9e53021751c2c3cdf","","","","","<p style=""color:darkgreen;font-size:24px;"">Correct :)</p>","",""
"2634","key","v","v","16.670227848100946","499.9999891627921","249.99999458139604","psychophysics","154","1211393","0.0-154.0","5f40442792000717762de583","620a6bb9e53021751c2c3cdf","4","","","","","1","1"
"null","","","null","","","","html-keyboard-response","155","1211895","0.0-155.0","5f40442792000717762de583","620a6bb9e53021751c2c3cdf","","","","","<p style=""color:darkgreen;font-size:24px;"">Correct :)</p>","",""
"2475","key","n","n","16.666999999999426","499.9999891627921","249.99999458139604","psychophysics","156","1214375","0.0-156.0","5f40442792000717762de583","620a6bb9e53021751c2c3cdf","4","","","","","1","9"
"null","","","null","","","","html-keyboard-response","157","1214877","0.0-157.0","5f40442792000717762de583","620a6bb9e53021751c2c3cdf","","","","","<p style=""color:darkgreen;font-size:24px;"">Correct :)</p>","",""
"2654","key","n","n","16.667000000000456","499.9999891627921","249.99999458139604","psychophysics","158","1217534","0.0-158.0","5f40442792000717762de583","620a6bb9e53021751c2c3cdf","4","","","","","1","8"
"null","","","null","","","","html-keyboard-response","159","1218035","0.0-159.0","5f40442792000717762de583","620a6bb9e53021751c2c3cdf","","","","","<p style=""color:darkgreen;font-size:24px;"">Correct :)</p>","",""
"2403","key","n","n","16.67028472222349","499.9999891627921","249.99999458139604","psychophysics","160","1220443","0.0-160.0","5f40442792000717762de583","620a6bb9e53021751c2c3cdf","4","","","","","1","9"
"null","","","null","","","","html-keyboard-response","161","1220946","0.0-161.0","5f40442792000717762de583","620a6bb9e53021751c2c3cdf","","","","","<p style=""color:darkgreen;font-size:24px;"">Correct :)</p>","",""
"2476","key","v","v","16.666999999999426","499.9999891627921","249.99999458139604","psychophysics","162","1223426","0.0-162.0","5f40442792000717762de583","620a6bb9e53021751c2c3cdf","4","","","","","1","3"
"null","","","null","","","","html-keyboard-response","163","1223928","0.0-163.0","5f40442792000717762de583","620a6bb9e53021751c2c3cdf","","","","","<p style=""color:darkgreen;font-size:24px;"">Correct :)</p>","",""
"2482","key","n","n","16.666999999999426","499.9999891627921","249.99999458139604","psychophysics","164","1226414","0.0-164.0","5f40442792000717762de583","620a6bb9e53021751c2c3cdf","4","","","","","1","8"
"null","","","null","","","","html-keyboard-response","165","1226916","0.0-165.0","5f40442792000717762de583","620a6bb9e53021751c2c3cdf","","","","","<p style=""color:darkgreen;font-size:24px;"">Correct :)</p>","",""
"2389","key","v","v","16.67056944444549","499.9999891627921","249.99999458139604","psychophysics","166","1229309","0.0-166.0","5f40442792000717762de583","620a6bb9e53021751c2c3cdf","4","","","","","1","4"
"null","","","null","","","","html-keyboard-response","167","1229812","0.0-167.0","5f40442792000717762de583","620a6bb9e53021751c2c3cdf","","","","","<p style=""color:darkgreen;font-size:24px;"">Correct :)</p>","",""
"2561","key","v","v","16.666999999999202","499.9999891627921","249.99999458139604","psychophysics","168","1232378","0.0-168.0","5f40442792000717762de583","620a6bb9e53021751c2c3cdf","4","","","","","1","2"
"null","","","null","","","","html-keyboard-response","169","1232880","0.0-169.0","5f40442792000717762de583","620a6bb9e53021751c2c3cdf","","","","","<p style=""color:darkgreen;font-size:24px;"">Correct :)</p>","",""
"2470","key","n","n","16.6670000000001","499.9999891627921","249.99999458139604","psychophysics","170","1235354","0.0-170.0","5f40442792000717762de583","620a6bb9e53021751c2c3cdf","4","","","","","1","7"
"null","","","null","","","","html-keyboard-response","171","1235857","0.0-171.0","5f40442792000717762de583","620a6bb9e53021751c2c3cdf","","","","","<p style=""color:darkgreen;font-size:24px;"">Correct :)</p>","",""
"2672","key","v","v","16.666999999999824","499.9999891627921","249.99999458139604","psychophysics","172","1238534","0.0-172.0","5f40442792000717762de583","620a6bb9e53021751c2c3cdf","4","","","","","1","1"
"null","","","null","","","","html-keyboard-response","173","1239037","0.0-173.0","5f40442792000717762de583","620a6bb9e53021751c2c3cdf","","","","","<p style=""color:darkgreen;font-size:24px;"">Correct :)</p>","",""
"2988","key","v","v","16.66934636871424","499.9999891627921","249.99999458139604","psychophysics","174","1242027","0.0-174.0","5f40442792000717762de583","620a6bb9e53021751c2c3cdf","4","","","","","1","4"
"null","","","null","","","","html-keyboard-response","175","1242531","0.0-175.0","5f40442792000717762de583","620a6bb9e53021751c2c3cdf","","","","","<p style=""color:darkgreen;font-size:24px;"">Correct :)</p>","",""
"2766","key","v","v","16.973754601227405","499.9999891627921","249.99999458139604","psychophysics","176","1245302","0.0-176.0","5f40442792000717762de583","620a6bb9e53021751c2c3cdf","4","","","","","1","3"
"null","","","null","","","","html-keyboard-response","177","1245805","0.0-177.0","5f40442792000717762de583","620a6bb9e53021751c2c3cdf","","","","","<p style=""color:darkgreen;font-size:24px;"">Correct :)</p>","",""
"2651","key","n","n","16.77248734177114","499.9999891627921","249.99999458139604","psychophysics","178","1248460","0.0-178.0","5f40442792000717762de583","620a6bb9e53021751c2c3cdf","4","","","","","1","7"
"null","","","null","","","","html-keyboard-response","179","1248963","0.0-179.0","5f40442792000717762de583","620a6bb9e53021751c2c3cdf","","","","","<p style=""color:darkgreen;font-size:24px;"">Correct :)</p>","",""
"2667","key","v","v","16.67051250000077","499.9999891627921","249.99999458139604","psychophysics","180","1251636","0.0-180.0","5f40442792000717762de583","620a6bb9e53021751c2c3cdf","4","","","","","1","2"
"null","","","null","","","","html-keyboard-response","181","1252138","0.0-181.0","5f40442792000717762de583","620a6bb9e53021751c2c3cdf","","","","","<p style=""color:darkgreen;font-size:24px;"">Correct :)</p>","",""
"2521","key","v","v","16.666999999999643","499.9999891627921","249.99999458139604","psychophysics","182","1254664","0.0-182.0","5f40442792000717762de583","620a6bb9e53021751c2c3cdf","4","","","","","1","1"
"null","","","null","","","","html-keyboard-response","183","1255168","0.0-183.0","5f40442792000717762de583","620a6bb9e53021751c2c3cdf","","","","","<p style=""color:darkgreen;font-size:24px;"">Correct :)</p>","",""
"2615","key","n","n","16.66700000000026","499.9999891627921","249.99999458139604","psychophysics","184","1257789","0.0-184.0","5f40442792000717762de583","620a6bb9e53021751c2c3cdf","4","","","","","1","7"
"null","","","null","","","","html-keyboard-response","185","1258291","0.0-185.0","5f40442792000717762de583","620a6bb9e53021751c2c3cdf","","","","","<p style=""color:darkgreen;font-size:24px;"">Correct :)</p>","",""
"2468","key","v","v","16.670486486487004","499.9999891627921","249.99999458139604","psychophysics","186","1260762","0.0-186.0","5f40442792000717762de583","620a6bb9e53021751c2c3cdf","4","","","","","1","4"
"null","","","null","","","","html-keyboard-response","187","1261264","0.0-187.0","5f40442792000717762de583","620a6bb9e53021751c2c3cdf","","","","","<p style=""color:darkgreen;font-size:24px;"">Correct :)</p>","",""
"2469","key","v","v","16.6670000000001","499.9999891627921","249.99999458139604","psychophysics","188","1263738","0.0-188.0","5f40442792000717762de583","620a6bb9e53021751c2c3cdf","4","","","","","1","2"
"null","","","null","","","","html-keyboard-response","189","1264241","0.0-189.0","5f40442792000717762de583","620a6bb9e53021751c2c3cdf","","","","","<p style=""color:darkgreen;font-size:24px;"">Correct :)</p>","",""
"2706","key","n","n","16.667000000000023","499.9999891627921","249.99999458139604","psychophysics","190","1266952","0.0-190.0","5f40442792000717762de583","620a6bb9e53021751c2c3cdf","4","","","","","1","6"
"null","","","null","","","","html-keyboard-response","191","1267457","0.0-191.0","5f40442792000717762de583","620a6bb9e53021751c2c3cdf","","","","","<p style=""color:darkgreen;font-size:24px;"">Correct :)</p>","",""
"2615","key","n","n","16.669878980890807","499.9999891627921","249.99999458139604","psychophysics","192","1270079","0.0-192.0","5f40442792000717762de583","620a6bb9e53021751c2c3cdf","4","","","","","1","9"
"null","","","null","","","","html-keyboard-response","193","1270580","0.0-193.0","5f40442792000717762de583","620a6bb9e53021751c2c3cdf","","","","","<p style=""color:darkgreen;font-size:24px;"">Correct :)</p>","",""
"27867","","","v","","","","html-keyboard-response","194","1298448","0.0-194.0","5f40442792000717762de583","620a6bb9e53021751c2c3cdf","","","","","<p> Ok, now we are going present the same digits as before.  Your job is to say whether the digit is even or odd  If the digit is odd, press to v key; if it is even, press the n key. We are going to do 50 of these.  </p>  <br><br>  Ready? (press v or n)","",""
"2595","key","n","n","16.675666666665794","499.9999891627921","249.99999458139604","psychophysics","195","1301048","0.0-195.0","5f40442792000717762de583","620a6bb9e53021751c2c3cdf","5","","","","","0","6"
"null","","","null","","","","html-keyboard-response","196","1301550","0.0-196.0","5f40442792000717762de583","620a6bb9e53021751c2c3cdf","","","","","<p style=""color:darkgreen;font-size:24px;"">Correct :)</p>","",""
"2600","key","n","n","16.667000000000908","499.9999891627921","249.99999458139604","psychophysics","197","1304153","0.0-197.0","5f40442792000717762de583","620a6bb9e53021751c2c3cdf","5","","","","","0","2"
"null","","","null","","","","html-keyboard-response","198","1304657","0.0-198.0","5f40442792000717762de583","620a6bb9e53021751c2c3cdf","","","","","<p style=""color:darkgreen;font-size:24px;"">Correct :)</p>","",""
"2535","key","n","n","16.667000000000513","499.9999891627921","249.99999458139604","psychophysics","199","1307197","0.0-199.0","5f40442792000717762de583","620a6bb9e53021751c2c3cdf","5","","","","","0","2"
"null","","","null","","","","html-keyboard-response","200","1307699","0.0-200.0","5f40442792000717762de583","620a6bb9e53021751c2c3cdf","","","","","<p style=""color:darkgreen;font-size:24px;"">Correct :)</p>","",""
"2578","key","n","n","16.670896774192432","499.9999891627921","249.99999458139604","psychophysics","201","1310282","0.0-201.0","5f40442792000717762de583","620a6bb9e53021751c2c3cdf","5","","","","","0","8"
"null","","","null","","","","html-keyboard-response","202","1310785","0.0-202.0","5f40442792000717762de583","620a6bb9e53021751c2c3cdf","","","","","<p style=""color:darkgreen;font-size:24px;"">Correct :)</p>","",""
"2462","key","n","n","16.66700000000099","499.9999891627921","249.99999458139604","psychophysics","203","1313264","0.0-203.0","5f40442792000717762de583","620a6bb9e53021751c2c3cdf","5","","","","","0","2"
"null","","","null","","","","html-keyboard-response","204","1313769","0.0-204.0","5f40442792000717762de583","620a6bb9e53021751c2c3cdf","","","","","<p style=""color:darkgreen;font-size:24px;"">Correct :)</p>","",""
"2575","key","n","n","16.66700000000006","499.9999891627921","249.99999458139604","psychophysics","205","1316349","0.0-205.0","5f40442792000717762de583","620a6bb9e53021751c2c3cdf","5","","","","","0","4"
"null","","","null","","","","html-keyboard-response","206","1316851","0.0-206.0","5f40442792000717762de583","620a6bb9e53021751c2c3cdf","","","","","<p style=""color:darkgreen;font-size:24px;"">Correct :)</p>","",""
"2435","key","v","v","16.786937062936296","499.9999891627921","249.99999458139604","psychophysics","207","1319292","0.0-207.0","5f40442792000717762de583","620a6bb9e53021751c2c3cdf","5","","","","","0","7"
"null","","","null","","","","html-keyboard-response","208","1319794","0.0-208.0","5f40442792000717762de583","620a6bb9e53021751c2c3cdf","","","","","<p style=""color:darkgreen;font-size:24px;"">Correct :)</p>","",""
"2484","key","v","v","16.66700000000099","499.9999891627921","249.99999458139604","psychophysics","209","1322283","0.0-209.0","5f40442792000717762de583","620a6bb9e53021751c2c3cdf","5","","","","","0","7"
"null","","","null","","","","html-keyboard-response","210","1322785","0.0-210.0","5f40442792000717762de583","620a6bb9e53021751c2c3cdf","","","","","<p style=""color:darkgreen;font-size:24px;"">Correct :)</p>","",""
"2640","key","n","n","16.666999999998993","499.9999891627921","249.99999458139604","psychophysics","211","1325430","0.0-211.0","5f40442792000717762de583","620a6bb9e53021751c2c3cdf","5","","","","","0","6"
"null","","","null","","","","html-keyboard-response","212","1325934","0.0-212.0","5f40442792000717762de583","620a6bb9e53021751c2c3cdf","","","","","<p style=""color:darkgreen;font-size:24px;"">Correct :)</p>","",""
"2912","key","v","v","16.66973142857131","499.9999891627921","249.99999458139604","psychophysics","213","1328853","0.0-213.0","5f40442792000717762de583","620a6bb9e53021751c2c3cdf","5","","","","","0","7"
"null","","","null","","","","html-keyboard-response","214","1329355","0.0-214.0","5f40442792000717762de583","620a6bb9e53021751c2c3cdf","","","","","<p style=""color:darkgreen;font-size:24px;"">Correct :)</p>","",""
"2710","key","n","n","16.667000000000833","499.9999891627921","249.99999458139604","psychophysics","215","1332069","0.0-215.0","5f40442792000717762de583","620a6bb9e53021751c2c3cdf","5","","","","","0","2"
"null","","","null","","","","html-keyboard-response","216","1332571","0.0-216.0","5f40442792000717762de583","620a6bb9e53021751c2c3cdf","","","","","<p style=""color:darkgreen;font-size:24px;"">Correct :)</p>","",""
"2546","key","n","n","16.666999999999202","499.9999891627921","249.99999458139604","psychophysics","217","1335132","0.0-217.0","5f40442792000717762de583","620a6bb9e53021751c2c3cdf","5","","","","","0","8"
"null","","","null","","","","html-keyboard-response","218","1335636","0.0-218.0","5f40442792000717762de583","620a6bb9e53021751c2c3cdf","","","","","<p style=""color:darkgreen;font-size:24px;"">Correct :)</p>","",""
"2559","key","n","n","16.667000000000712","499.9999891627921","249.99999458139604","psychophysics","219","1338200","0.0-219.0","5f40442792000717762de583","620a6bb9e53021751c2c3cdf","5","","","","","0","8"
"null","","","null","","","","html-keyboard-response","220","1338701","0.0-220.0","5f40442792000717762de583","620a6bb9e53021751c2c3cdf","","","","","<p style=""color:darkgreen;font-size:24px;"">Correct :)</p>","",""
"2589","key","n","n","16.669658064516263","499.9999891627921","249.99999458139604","psychophysics","221","1341295","0.0-221.0","5f40442792000717762de583","620a6bb9e53021751c2c3cdf","5","","","","","0","2"
"null","","","null","","","","html-keyboard-response","222","1341797","0.0-222.0","5f40442792000717762de583","620a6bb9e53021751c2c3cdf","","","","","<p style=""color:darkgreen;font-size:24px;"">Correct :)</p>","",""
"2591","key","v","v","16.66700000000006","499.9999891627921","249.99999458139604","psychophysics","223","1344391","0.0-223.0","5f40442792000717762de583","620a6bb9e53021751c2c3cdf","5","","","","","0","7"
"null","","","null","","","","html-keyboard-response","224","1344895","0.0-224.0","5f40442792000717762de583","620a6bb9e53021751c2c3cdf","","","","","<p style=""color:darkgreen;font-size:24px;"">Correct :)</p>","",""
"2799","key","n","n","16.667000000000588","499.9999891627921","249.99999458139604","psychophysics","225","1347699","0.0-225.0","5f40442792000717762de583","620a6bb9e53021751c2c3cdf","5","","","","","0","2"
"null","","","null","","","","html-keyboard-response","226","1348203","0.0-226.0","5f40442792000717762de583","620a6bb9e53021751c2c3cdf","","","","","<p style=""color:darkgreen;font-size:24px;"">Correct :)</p>","",""
"2475","key","n","n","16.670919463086886","499.9999891627921","249.99999458139604","psychophysics","227","1350684","0.0-227.0","5f40442792000717762de583","620a6bb9e53021751c2c3cdf","5","","","","","0","8"
"null","","","null","","","","html-keyboard-response","228","1351187","0.0-228.0","5f40442792000717762de583","620a6bb9e53021751c2c3cdf","","","","","<p style=""color:darkgreen;font-size:24px;"">Correct :)</p>","",""
"2915","key","n","n","16.66699999999996","499.9999891627921","249.99999458139604","psychophysics","229","1354120","0.0-229.0","5f40442792000717762de583","620a6bb9e53021751c2c3cdf","5","","","","","0","6"
"null","","","null","","","","html-keyboard-response","230","1354624","0.0-230.0","5f40442792000717762de583","620a6bb9e53021751c2c3cdf","","","","","<p style=""color:darkgreen;font-size:24px;"">Correct :)</p>","",""
"2707","key","v","v","16.666999999999405","499.9999891627921","249.99999458139604","psychophysics","231","1357336","0.0-231.0","5f40442792000717762de583","620a6bb9e53021751c2c3cdf","5","","","","","0","3"
"null","","","null","","","","html-keyboard-response","232","1357840","0.0-232.0","5f40442792000717762de583","620a6bb9e53021751c2c3cdf","","","","","<p style=""color:darkgreen;font-size:24px;"">Correct :)</p>","",""
"2628","key","v","v","16.776101910828014","499.9999891627921","249.99999458139604","psychophysics","233","1360473","0.0-233.0","5f40442792000717762de583","620a6bb9e53021751c2c3cdf","5","","","","","0","7"
"null","","","null","","","","html-keyboard-response","234","1360975","0.0-234.0","5f40442792000717762de583","620a6bb9e53021751c2c3cdf","","","","","<p style=""color:darkgreen;font-size:24px;"">Correct :)</p>","",""
"2691","key","n","n","16.666999999999202","499.9999891627921","249.99999458139604","psychophysics","235","1363671","0.0-235.0","5f40442792000717762de583","620a6bb9e53021751c2c3cdf","5","","","","","0","8"
"null","","","null","","","","html-keyboard-response","236","1364174","0.0-236.0","5f40442792000717762de583","620a6bb9e53021751c2c3cdf","","","","","<p style=""color:darkgreen;font-size:24px;"">Correct :)</p>","",""
"2904","key","v","v","16.66700000000053","499.9999891627921","249.99999458139604","psychophysics","237","1367083","0.0-237.0","5f40442792000717762de583","620a6bb9e53021751c2c3cdf","5","","","","","0","9"
"null","","","null","","","","html-keyboard-response","238","1367586","0.0-238.0","5f40442792000717762de583","620a6bb9e53021751c2c3cdf","","","","","<p style=""color:darkgreen;font-size:24px;"">Correct :)</p>","",""
"2742","key","n","n","16.670096969696214","499.9999891627921","249.99999458139604","psychophysics","239","1370333","0.0-239.0","5f40442792000717762de583","620a6bb9e53021751c2c3cdf","5","","","","","0","4"
"null","","","null","","","","html-keyboard-response","240","1370836","0.0-240.0","5f40442792000717762de583","620a6bb9e53021751c2c3cdf","","","","","<p style=""color:darkgreen;font-size:24px;"">Correct :)</p>","",""
"2741","key","v","v","16.667000000001018","499.9999891627921","249.99999458139604","psychophysics","241","1373593","0.0-241.0","5f40442792000717762de583","620a6bb9e53021751c2c3cdf","5","","","","","0","1"
"null","","","null","","","","html-keyboard-response","242","1374095","0.0-242.0","5f40442792000717762de583","620a6bb9e53021751c2c3cdf","","","","","<p style=""color:darkgreen;font-size:24px;"">Correct :)</p>","",""
"2509","key","v","v","16.66700000000031","499.9999891627921","249.99999458139604","psychophysics","243","1376610","0.0-243.0","5f40442792000717762de583","620a6bb9e53021751c2c3cdf","5","","","","","0","1"
"null","","","null","","","","html-keyboard-response","244","1377112","0.0-244.0","5f40442792000717762de583","620a6bb9e53021751c2c3cdf","","","","","<p style=""color:darkgreen;font-size:24px;"">Correct :)</p>","",""
"2484","key","v","v","16.670456375839226","499.9999891627921","249.99999458139604","psychophysics","245","1379601","0.0-245.0","5f40442792000717762de583","620a6bb9e53021751c2c3cdf","5","","","","","0","3"
"null","","","null","","","","html-keyboard-response","246","1380103","0.0-246.0","5f40442792000717762de583","620a6bb9e53021751c2c3cdf","","","","","<p style=""color:darkgreen;font-size:24px;"">Correct :)</p>","",""
"2788","key","v","v","16.6669999999998","499.9999891627921","249.99999458139604","psychophysics","247","1382894","0.0-247.0","5f40442792000717762de583","620a6bb9e53021751c2c3cdf","5","","","","","0","9"
"null","","","null","","","","html-keyboard-response","248","1383398","0.0-248.0","5f40442792000717762de583","620a6bb9e53021751c2c3cdf","","","","","<p style=""color:darkgreen;font-size:24px;"">Correct :)</p>","",""
"2569","key","v","v","16.666999999999202","499.9999891627921","249.99999458139604","psychophysics","249","1385972","0.0-249.0","5f40442792000717762de583","620a6bb9e53021751c2c3cdf","5","","","","","0","3"
"null","","","null","","","","html-keyboard-response","250","1386475","0.0-250.0","5f40442792000717762de583","620a6bb9e53021751c2c3cdf","","","","","<p style=""color:darkgreen;font-size:24px;"">Correct :)</p>","",""
"2634","key","n","n","16.6699873417722","499.9999891627921","249.99999458139604","psychophysics","251","1389115","0.0-251.0","5f40442792000717762de583","620a6bb9e53021751c2c3cdf","5","","","","","0","4"
"null","","","null","","","","html-keyboard-response","252","1389617","0.0-252.0","5f40442792000717762de583","620a6bb9e53021751c2c3cdf","","","","","<p style=""color:darkgreen;font-size:24px;"">Correct :)</p>","",""
"2762","key","v","v","16.667000000000403","499.9999891627921","249.99999458139604","psychophysics","253","1392384","0.0-253.0","5f40442792000717762de583","620a6bb9e53021751c2c3cdf","5","","","","","0","1"
"null","","","null","","","","html-keyboard-response","254","1392887","0.0-254.0","5f40442792000717762de583","620a6bb9e53021751c2c3cdf","","","","","<p style=""color:darkgreen;font-size:24px;"">Correct :)</p>","",""
"2472","key","v","v","16.666999999999426","499.9999891627921","249.99999458139604","psychophysics","255","1395377","0.0-255.0","5f40442792000717762de583","620a6bb9e53021751c2c3cdf","5","","","","","0","1"
"null","","","null","","","","html-keyboard-response","256","1395879","0.0-256.0","5f40442792000717762de583","620a6bb9e53021751c2c3cdf","","","","","<p style=""color:darkgreen;font-size:24px;"">Correct :)</p>","",""
"2742","key","v","v","16.667000000000215","499.9999891627921","249.99999458139604","psychophysics","257","1398626","0.0-257.0","5f40442792000717762de583","620a6bb9e53021751c2c3cdf","5","","","","","0","3"
"null","","","null","","","","html-keyboard-response","258","1399130","0.0-258.0","5f40442792000717762de583","620a6bb9e53021751c2c3cdf","","","","","<p style=""color:darkgreen;font-size:24px;"">Correct :)</p>","",""
"2577","key","n","n","16.67035064935025","499.9999891627921","249.99999458139604","psychophysics","259","1401712","0.0-259.0","5f40442792000717762de583","620a6bb9e53021751c2c3cdf","5","","","","","0","6"
"null","","","null","","","","html-keyboard-response","260","1402214","0.0-260.0","5f40442792000717762de583","620a6bb9e53021751c2c3cdf","","","","","<p style=""color:darkgreen;font-size:24px;"">Correct :)</p>","",""
"2582","key","n","n","16.66700000000006","499.9999891627921","249.99999458139604","psychophysics","261","1404800","0.0-261.0","5f40442792000717762de583","620a6bb9e53021751c2c3cdf","5","","","","","0","4"
"null","","","null","","","","html-keyboard-response","262","1405302","0.0-262.0","5f40442792000717762de583","620a6bb9e53021751c2c3cdf","","","","","<p style=""color:darkgreen;font-size:24px;"">Correct :)</p>","",""
"2564","key","v","v","16.666999999999202","499.9999891627921","249.99999458139604","psychophysics","263","1407871","0.0-263.0","5f40442792000717762de583","620a6bb9e53021751c2c3cdf","5","","","","","0","7"
"null","","","null","","","","html-keyboard-response","264","1408372","0.0-264.0","5f40442792000717762de583","620a6bb9e53021751c2c3cdf","","","","","<p style=""color:darkgreen;font-size:24px;"">Correct :)</p>","",""
"2917","key","v","v","16.669674285714116","499.9999891627921","249.99999458139604","psychophysics","265","1411295","0.0-265.0","5f40442792000717762de583","620a6bb9e53021751c2c3cdf","5","","","","","0","9"
"null","","","null","","","","html-keyboard-response","266","1411797","0.0-266.0","5f40442792000717762de583","620a6bb9e53021751c2c3cdf","","","","","<p style=""color:darkgreen;font-size:24px;"">Correct :)</p>","",""
"2510","key","v","v","16.666999999998758","499.9999891627921","249.99999458139604","psychophysics","267","1414311","0.0-267.0","5f40442792000717762de583","620a6bb9e53021751c2c3cdf","5","","","","","0","7"
"null","","","null","","","","html-keyboard-response","268","1414815","0.0-268.0","5f40442792000717762de583","620a6bb9e53021751c2c3cdf","","","","","<p style=""color:darkgreen;font-size:24px;"">Correct :)</p>","",""
"2453","key","v","v","16.666999999999202","499.9999891627921","249.99999458139604","psychophysics","269","1417273","0.0-269.0","5f40442792000717762de583","620a6bb9e53021751c2c3cdf","5","","","","","0","7"
"null","","","null","","","","html-keyboard-response","270","1417775","0.0-270.0","5f40442792000717762de583","620a6bb9e53021751c2c3cdf","","","","","<p style=""color:darkgreen;font-size:24px;"">Correct :)</p>","",""
"2446","key","v","v","16.670523809524077","499.9999891627921","249.99999458139604","psychophysics","271","1420226","0.0-271.0","5f40442792000717762de583","620a6bb9e53021751c2c3cdf","5","","","","","0","7"
"null","","","null","","","","html-keyboard-response","272","1420730","0.0-272.0","5f40442792000717762de583","620a6bb9e53021751c2c3cdf","","","","","<p style=""color:darkgreen;font-size:24px;"">Correct :)</p>","",""
"2438","key","v","v","16.666999999999884","499.9999891627921","249.99999458139604","psychophysics","273","1423170","0.0-273.0","5f40442792000717762de583","620a6bb9e53021751c2c3cdf","5","","","","","0","7"
"null","","","null","","","","html-keyboard-response","274","1423672","0.0-274.0","5f40442792000717762de583","620a6bb9e53021751c2c3cdf","","","","","<p style=""color:darkgreen;font-size:24px;"">Correct :)</p>","",""
"2561","key","n","n","16.666999999999202","499.9999891627921","249.99999458139604","psychophysics","275","1426237","0.0-275.0","5f40442792000717762de583","620a6bb9e53021751c2c3cdf","5","","","","","0","6"
"null","","","null","","","","html-keyboard-response","276","1426742","0.0-276.0","5f40442792000717762de583","620a6bb9e53021751c2c3cdf","","","","","<p style=""color:darkgreen;font-size:24px;"">Correct :)</p>","",""
"2644","key","v","v","16.669993710692435","499.9999891627921","249.99999458139604","psychophysics","277","1429390","0.0-277.0","5f40442792000717762de583","620a6bb9e53021751c2c3cdf","5","","","","","0","1"
"null","","","null","","","","html-keyboard-response","278","1429894","0.0-278.0","5f40442792000717762de583","620a6bb9e53021751c2c3cdf","","","","","<p style=""color:darkgreen;font-size:24px;"">Correct :)</p>","",""
"2574","key","n","n","16.66700000000006","499.9999891627921","249.99999458139604","psychophysics","279","1432475","0.0-279.0","5f40442792000717762de583","620a6bb9e53021751c2c3cdf","5","","","","","0","2"
"null","","","null","","","","html-keyboard-response","280","1432978","0.0-280.0","5f40442792000717762de583","620a6bb9e53021751c2c3cdf","","","","","<p style=""color:darkgreen;font-size:24px;"">Correct :)</p>","",""
"2658","key","v","v","16.666999999999824","499.9999891627921","249.99999458139604","psychophysics","281","1435642","0.0-281.0","5f40442792000717762de583","620a6bb9e53021751c2c3cdf","5","","","","","0","2"
"null","","","null","","","","html-keyboard-response","282","1436144","0.0-282.0","5f40442792000717762de583","620a6bb9e53021751c2c3cdf","","","","","<p style=""color:red;font-size:24px;"">Error :(</p>","",""
"2766","key","n","n","16.666999999999","499.9999891627921","249.99999458139604","psychophysics","283","1438916","0.0-283.0","5f40442792000717762de583","620a6bb9e53021751c2c3cdf","5","","","","","0","4"
"null","","","null","","","","html-keyboard-response","284","1439418","0.0-284.0","5f40442792000717762de583","620a6bb9e53021751c2c3cdf","","","","","<p style=""color:darkgreen;font-size:24px;"">Correct :)</p>","",""
"2766","key","v","v","16.66999999999983","499.9999891627921","249.99999458139604","psychophysics","285","1442190","0.0-285.0","5f40442792000717762de583","620a6bb9e53021751c2c3cdf","5","","","","","0","3"
"null","","","null","","","","html-keyboard-response","286","1442691","0.0-286.0","5f40442792000717762de583","620a6bb9e53021751c2c3cdf","","","","","<p style=""color:darkgreen;font-size:24px;"">Correct :)</p>","",""
"2663","key","n","n","16.666999999999824","499.9999891627921","249.99999458139604","psychophysics","287","1445360","0.0-287.0","5f40442792000717762de583","620a6bb9e53021751c2c3cdf","5","","","","","0","8"
"null","","","null","","","","html-keyboard-response","288","1445861","0.0-288.0","5f40442792000717762de583","620a6bb9e53021751c2c3cdf","","","","","<p style=""color:darkgreen;font-size:24px;"">Correct :)</p>","",""
"2523","key","n","n","16.777377483444226","499.9999891627921","249.99999458139604","psychophysics","289","1448390","0.0-289.0","5f40442792000717762de583","620a6bb9e53021751c2c3cdf","5","","","","","0","8"
"null","","","null","","","","html-keyboard-response","290","1448895","0.0-290.0","5f40442792000717762de583","620a6bb9e53021751c2c3cdf","","","","","<p style=""color:darkgreen;font-size:24px;"">Correct :)</p>","",""
"2609","key","n","n","16.66961146496788","499.9999891627921","249.99999458139604","psychophysics","291","1451510","0.0-291.0","5f40442792000717762de583","620a6bb9e53021751c2c3cdf","5","","","","","0","4"
"null","","","null","","","","html-keyboard-response","292","1452012","0.0-292.0","5f40442792000717762de583","620a6bb9e53021751c2c3cdf","","","","","<p style=""color:darkgreen;font-size:24px;"">Correct :)</p>","",""
"2465","key","n","n","16.6670000000001","499.9999891627921","249.99999458139604","psychophysics","293","1454482","0.0-293.0","5f40442792000717762de583","620a6bb9e53021751c2c3cdf","5","","","","","0","6"
"null","","","null","","","","html-keyboard-response","294","1454985","0.0-294.0","5f40442792000717762de583","620a6bb9e53021751c2c3cdf","","","","","<p style=""color:darkgreen;font-size:24px;"">Correct :)</p>","",""
"41881","","","v","","","","html-keyboard-response","295","1496866","0.0-295.0","5f40442792000717762de583","620a6bb9e53021751c2c3cdf","","","","","<p> Here, the tasks are going to switch.  For some trials, your job is to decide if the digit is less than or greater than 5.  For others, it is to decide if the digit is even or odd.  You will be told which type of trial the current one is.  But, pay attention, the type of trial changes too.  We are going to do 50 of these.  </p>  <br><br>  Ready? (press v or n)","",""
"20","key","n","n","16.666999999899417","499.9999891627921","249.99999458139604","psychophysics","296","1496891","0.0-296.0","5f40442792000717762de583","620a6bb9e53021751c2c3cdf","6","","","","","1","2"
"null","","","null","","","","html-keyboard-response","297","1497395","0.0-297.0","5f40442792000717762de583","620a6bb9e53021751c2c3cdf","","","","","<p style=""color:red;font-size:24px;"">Error :(</p>","",""
"3827","key","v","v","16.666999999999636","499.9999891627921","249.99999458139604","psychophysics","298","1501224","0.0-298.0","5f40442792000717762de583","620a6bb9e53021751c2c3cdf","6","","","","","1","7"
"null","","","null","","","","html-keyboard-response","299","1501725","0.0-299.0","5f40442792000717762de583","620a6bb9e53021751c2c3cdf","","","","","<p style=""color:red;font-size:24px;"">Error :(</p>","",""
"2861","key","v","v","16.670023255815003","499.9999891627921","249.99999458139604","psychophysics","300","1504591","0.0-300.0","5f40442792000717762de583","620a6bb9e53021751c2c3cdf","6","","","","","1","3"
"null","","","null","","","","html-keyboard-response","301","1505093","0.0-301.0","5f40442792000717762de583","620a6bb9e53021751c2c3cdf","","","","","<p style=""color:darkgreen;font-size:24px;"">Correct :)</p>","",""
"2539","key","v","v","16.666999999998982","499.9999891627921","249.99999458139604","psychophysics","302","1507638","0.0-302.0","5f40442792000717762de583","620a6bb9e53021751c2c3cdf","6","","","","","0","1"
"null","","","null","","","","html-keyboard-response","303","1508140","0.0-303.0","5f40442792000717762de583","620a6bb9e53021751c2c3cdf","","","","","<p style=""color:darkgreen;font-size:24px;"">Correct :)</p>","",""
"2567","key","v","v","16.666999999999202","499.9999891627921","249.99999458139604","psychophysics","304","1510712","0.0-304.0","5f40442792000717762de583","620a6bb9e53021751c2c3cdf","6","","","","","0","7"
"null","","","null","","","","html-keyboard-response","305","1511216","0.0-305.0","5f40442792000717762de583","620a6bb9e53021751c2c3cdf","","","","","<p style=""color:darkgreen;font-size:24px;"">Correct :)</p>","",""
"2486","key","n","n","16.67044966442873","499.9999891627921","249.99999458139604","psychophysics","306","1513705","0.0-306.0","5f40442792000717762de583","620a6bb9e53021751c2c3cdf","6","","","","","1","9"
"null","","","null","","","","html-keyboard-response","307","1514206","0.0-307.0","5f40442792000717762de583","620a6bb9e53021751c2c3cdf","","","","","<p style=""color:darkgreen;font-size:24px;"">Correct :)</p>","",""
"2467","key","n","n","16.6670000000001","499.9999891627921","249.99999458139604","psychophysics","308","1516678","0.0-308.0","5f40442792000717762de583","620a6bb9e53021751c2c3cdf","6","","","","","0","6"
"null","","","null","","","","html-keyboard-response","309","1517180","0.0-309.0","5f40442792000717762de583","620a6bb9e53021751c2c3cdf","","","","","<p style=""color:darkgreen;font-size:24px;"">Correct :)</p>","",""
"2507","key","v","v","16.666999999999643","499.9999891627921","249.99999458139604","psychophysics","310","1519692","0.0-310.0","5f40442792000717762de583","620a6bb9e53021751c2c3cdf","6","","","","","0","7"
"null","","","null","","","","html-keyboard-response","311","1520197","0.0-311.0","5f40442792000717762de583","620a6bb9e53021751c2c3cdf","","","","","<p style=""color:darkgreen;font-size:24px;"">Correct :)</p>","",""
"2498","key","v","v","16.66700000000031","499.9999891627921","249.99999458139604","psychophysics","312","1522699","0.0-312.0","5f40442792000717762de583","620a6bb9e53021751c2c3cdf","6","","","","","0","7"
"null","","","null","","","","html-keyboard-response","313","1523204","0.0-313.0","5f40442792000717762de583","620a6bb9e53021751c2c3cdf","","","","","<p style=""color:darkgreen;font-size:24px;"">Correct :)</p>","",""
"2524","key","n","n","16.67017880794808","499.9999891627921","249.99999458139604","psychophysics","314","1525732","0.0-314.0","5f40442792000717762de583","620a6bb9e53021751c2c3cdf","6","","","","","1","8"
"null","","","null","","","","html-keyboard-response","315","1526236","0.0-315.0","5f40442792000717762de583","620a6bb9e53021751c2c3cdf","","","","","<p style=""color:darkgreen;font-size:24px;"">Correct :)</p>","",""
"2519","key","v","v","16.666999999999643","499.9999891627921","249.99999458139604","psychophysics","316","1528760","0.0-316.0","5f40442792000717762de583","620a6bb9e53021751c2c3cdf","6","","","","","0","7"
"null","","","null","","","","html-keyboard-response","317","1529264","0.0-317.0","5f40442792000717762de583","620a6bb9e53021751c2c3cdf","","","","","<p style=""color:darkgreen;font-size:24px;"">Correct :)</p>","",""
"2591","key","n","n","16.667000000000908","499.9999891627921","249.99999458139604","psychophysics","318","1531860","0.0-318.0","5f40442792000717762de583","620a6bb9e53021751c2c3cdf","6","","","","","0","4"
"null","","","null","","","","html-keyboard-response","319","1532364","0.0-319.0","5f40442792000717762de583","620a6bb9e53021751c2c3cdf","","","","","<p style=""color:darkgreen;font-size:24px;"">Correct :)</p>","",""
"2426","key","n","n","16.670034246575025","499.9999891627921","249.99999458139604","psychophysics","320","1534795","0.0-320.0","5f40442792000717762de583","620a6bb9e53021751c2c3cdf","6","","","","","0","4"
"null","","","null","","","","html-keyboard-response","321","1535297","0.0-321.0","5f40442792000717762de583","620a6bb9e53021751c2c3cdf","","","","","<p style=""color:darkgreen;font-size:24px;"">Correct :)</p>","",""
"2574","key","v","v","16.66700000000006","499.9999891627921","249.99999458139604","psychophysics","322","1537876","0.0-322.0","5f40442792000717762de583","620a6bb9e53021751c2c3cdf","6","","","","","0","9"
"null","","","null","","","","html-keyboard-response","323","1538378","0.0-323.0","5f40442792000717762de583","620a6bb9e53021751c2c3cdf","","","","","<p style=""color:darkgreen;font-size:24px;"">Correct :)</p>","",""
"2552","key","n","n","16.666999999999852","499.9999891627921","249.99999458139604","psychophysics","324","1540934","0.0-324.0","5f40442792000717762de583","620a6bb9e53021751c2c3cdf","6","","","","","0","4"
"null","","","null","","","","html-keyboard-response","325","1541441","0.0-325.0","5f40442792000717762de583","620a6bb9e53021751c2c3cdf","","","","","<p style=""color:darkgreen;font-size:24px;"">Correct :)</p>","",""
"2622","key","v","v","16.67040764331183","499.9999891627921","249.99999458139604","psychophysics","326","1544067","0.0-326.0","5f40442792000717762de583","620a6bb9e53021751c2c3cdf","6","","","","","1","4"
"null","","","null","","","","html-keyboard-response","327","1544571","0.0-327.0","5f40442792000717762de583","620a6bb9e53021751c2c3cdf","","","","","<p style=""color:darkgreen;font-size:24px;"">Correct :)</p>","",""
"2508","key","v","v","16.66700000000031","499.9999891627921","249.99999458139604","psychophysics","328","1547083","0.0-328.0","5f40442792000717762de583","620a6bb9e53021751c2c3cdf","6","","","","","1","4"
"null","","","null","","","","html-keyboard-response","329","1547584","0.0-329.0","5f40442792000717762de583","620a6bb9e53021751c2c3cdf","","","","","<p style=""color:darkgreen;font-size:24px;"">Correct :)</p>","",""
"2530","key","n","n","16.667000000000513","499.9999891627921","249.99999458139604","psychophysics","330","1550119","0.0-330.0","5f40442792000717762de583","620a6bb9e53021751c2c3cdf","6","","","","","1","6"
"null","","","null","","","","html-keyboard-response","331","1550621","0.0-331.0","5f40442792000717762de583","620a6bb9e53021751c2c3cdf","","","","","<p style=""color:darkgreen;font-size:24px;"">Correct :)</p>","",""
"2743","key","n","n","16.666999999998797","499.9999891627921","249.99999458139604","psychophysics","332","1553366","0.0-332.0","5f40442792000717762de583","620a6bb9e53021751c2c3cdf","6","","","","","0","6"
"null","","","null","","","","html-keyboard-response","333","1553871","0.0-333.0","5f40442792000717762de583","620a6bb9e53021751c2c3cdf","","","","","<p style=""color:darkgreen;font-size:24px;"">Correct :)</p>","",""
"2634","key","n","n","16.670164556961648","499.9999891627921","249.99999458139604","psychophysics","334","1556510","0.0-334.0","5f40442792000717762de583","620a6bb9e53021751c2c3cdf","6","","","","","0","6"
"null","","","null","","","","html-keyboard-response","335","1557011","0.0-335.0","5f40442792000717762de583","620a6bb9e53021751c2c3cdf","","","","","<p style=""color:darkgreen;font-size:24px;"">Correct :)</p>","",""
"2552","key","n","n","16.667000000000513","499.9999891627921","249.99999458139604","psychophysics","336","1559566","0.0-336.0","5f40442792000717762de583","620a6bb9e53021751c2c3cdf","6","","","","","0","6"
"null","","","null","","","","html-keyboard-response","337","1560070","0.0-337.0","5f40442792000717762de583","620a6bb9e53021751c2c3cdf","","","","","<p style=""color:darkgreen;font-size:24px;"">Correct :)</p>","",""
"2837","key","v","v","16.667000000000765","499.9999891627921","249.99999458139604","psychophysics","338","1562913","0.0-338.0","5f40442792000717762de583","620a6bb9e53021751c2c3cdf","6","","","","","0","2"
"null","","","null","","","","html-keyboard-response","339","1563416","0.0-339.0","5f40442792000717762de583","620a6bb9e53021751c2c3cdf","","","","","<p style=""color:red;font-size:24px;"">Error :(</p>","",""
"3096","key","v","v","16.669559139784635","499.9999891627921","249.99999458139604","psychophysics","340","1566517","0.0-340.0","5f40442792000717762de583","620a6bb9e53021751c2c3cdf","6","","","","","0","3"
"null","","","null","","","","html-keyboard-response","341","1567019","0.0-341.0","5f40442792000717762de583","620a6bb9e53021751c2c3cdf","","","","","<p style=""color:darkgreen;font-size:24px;"">Correct :)</p>","",""
"2669","key","v","v","16.667000000000648","499.9999891627921","249.99999458139604","psychophysics","342","1569694","0.0-342.0","5f40442792000717762de583","620a6bb9e53021751c2c3cdf","6","","","","","0","3"
"null","","","null","","","","html-keyboard-response","343","1570195","0.0-343.0","5f40442792000717762de583","620a6bb9e53021751c2c3cdf","","","","","<p style=""color:darkgreen;font-size:24px;"">Correct :)</p>","",""
"2585","key","v","v","16.66700000000006","499.9999891627921","249.99999458139604","psychophysics","344","1572785","0.0-344.0","5f40442792000717762de583","620a6bb9e53021751c2c3cdf","6","","","","","0","7"
"null","","","null","","","","html-keyboard-response","345","1573288","0.0-345.0","5f40442792000717762de583","620a6bb9e53021751c2c3cdf","","","","","<p style=""color:darkgreen;font-size:24px;"">Correct :)</p>","",""
"2450","key","v","v","16.67048979591781","499.9999891627921","249.99999458139604","psychophysics","346","1575743","0.0-346.0","5f40442792000717762de583","620a6bb9e53021751c2c3cdf","6","","","","","0","7"
"null","","","null","","","","html-keyboard-response","347","1576246","0.0-347.0","5f40442792000717762de583","620a6bb9e53021751c2c3cdf","","","","","<p style=""color:darkgreen;font-size:24px;"">Correct :)</p>","",""
"2798","key","n","n","16.667000000000588","499.9999891627921","249.99999458139604","psychophysics","348","1579049","0.0-348.0","5f40442792000717762de583","620a6bb9e53021751c2c3cdf","6","","","","","0","4"
"null","","","null","","","","html-keyboard-response","349","1579552","0.0-349.0","5f40442792000717762de583","620a6bb9e53021751c2c3cdf","","","","","<p style=""color:darkgreen;font-size:24px;"">Correct :)</p>","",""
"2455","key","n","n","16.6670000000001","499.9999891627921","249.99999458139604","psychophysics","350","1582012","0.0-350.0","5f40442792000717762de583","620a6bb9e53021751c2c3cdf","6","","","","","0","4"
"null","","","null","","","","html-keyboard-response","351","1582516","0.0-351.0","5f40442792000717762de583","620a6bb9e53021751c2c3cdf","","","","","<p style=""color:darkgreen;font-size:24px;"">Correct :)</p>","",""
"2492","key","n","n","16.78148322147567","499.9999891627921","249.99999458139604","psychophysics","352","1585014","0.0-352.0","5f40442792000717762de583","620a6bb9e53021751c2c3cdf","6","","","","","0","9"
"null","","","null","","","","html-keyboard-response","353","1585517","0.0-353.0","5f40442792000717762de583","620a6bb9e53021751c2c3cdf","","","","","<p style=""color:red;font-size:24px;"">Error :(</p>","",""
"3098","key","n","n","16.66700000000081","499.9999891627921","249.99999458139604","psychophysics","354","1588621","0.0-354.0","5f40442792000717762de583","620a6bb9e53021751c2c3cdf","6","","","","","1","8"
"null","","","null","","","","html-keyboard-response","355","1589124","0.0-355.0","5f40442792000717762de583","620a6bb9e53021751c2c3cdf","","","","","<p style=""color:darkgreen;font-size:24px;"">Correct :)</p>","",""
"2445","key","n","n","16.666999999999884","499.9999891627921","249.99999458139604","psychophysics","356","1591571","0.0-356.0","5f40442792000717762de583","620a6bb9e53021751c2c3cdf","6","","","","","0","8"
"null","","","null","","","","html-keyboard-response","357","1592073","0.0-357.0","5f40442792000717762de583","620a6bb9e53021751c2c3cdf","","","","","<p style=""color:darkgreen;font-size:24px;"">Correct :)</p>","",""
"2851","key","n","n","16.670432748538524","499.9999891627921","249.99999458139604","psychophysics","358","1594929","0.0-358.0","5f40442792000717762de583","620a6bb9e53021751c2c3cdf","6","","","","","1","2"
"null","","","null","","","","html-keyboard-response","359","1595431","0.0-359.0","5f40442792000717762de583","620a6bb9e53021751c2c3cdf","","","","","<p style=""color:red;font-size:24px;"">Error :(</p>","",""
"2817","key","n","n","16.666999999999987","499.9999891627921","249.99999458139604","psychophysics","360","1598253","0.0-360.0","5f40442792000717762de583","620a6bb9e53021751c2c3cdf","6","","","","","1","9"
"null","","","null","","","","html-keyboard-response","361","1598755","0.0-361.0","5f40442792000717762de583","620a6bb9e53021751c2c3cdf","","","","","<p style=""color:darkgreen;font-size:24px;"">Correct :)</p>","",""
"2611","key","n","n","16.667000000000908","499.9999891627921","249.99999458139604","psychophysics","362","1601371","0.0-362.0","5f40442792000717762de583","620a6bb9e53021751c2c3cdf","6","","","","","0","8"
"null","","","null","","","","html-keyboard-response","363","1601873","0.0-363.0","5f40442792000717762de583","620a6bb9e53021751c2c3cdf","","","","","<p style=""color:darkgreen;font-size:24px;"">Correct :)</p>","",""
"2459","key","v","v","17.136237762238295","499.9999891627921","249.99999458139604","psychophysics","364","1604338","0.0-364.0","5f40442792000717762de583","620a6bb9e53021751c2c3cdf","6","","","","","1","3"
"null","","","null","","","","html-keyboard-response","365","1604844","0.0-365.0","5f40442792000717762de583","620a6bb9e53021751c2c3cdf","","","","","<p style=""color:darkgreen;font-size:24px;"">Correct :)</p>","",""
"2458","key","v","v","16.667000000000787","499.9999891627921","249.99999458139604","psychophysics","366","1607307","0.0-366.0","5f40442792000717762de583","620a6bb9e53021751c2c3cdf","6","","","","","1","1"
"null","","","null","","","","html-keyboard-response","367","1607810","0.0-367.0","5f40442792000717762de583","620a6bb9e53021751c2c3cdf","","","","","<p style=""color:darkgreen;font-size:24px;"">Correct :)</p>","",""
"2524","key","v","v","16.666999999999643","499.9999891627921","249.99999458139604","psychophysics","368","1610339","0.0-368.0","5f40442792000717762de583","620a6bb9e53021751c2c3cdf","6","","","","","0","1"
"null","","","null","","","","html-keyboard-response","369","1610841","0.0-369.0","5f40442792000717762de583","620a6bb9e53021751c2c3cdf","","","","","<p style=""color:darkgreen;font-size:24px;"">Correct :)</p>","",""
"2518","key","n","n","16.666999999999643","499.9999891627921","249.99999458139604","psychophysics","370","1613364","0.0-370.0","5f40442792000717762de583","620a6bb9e53021751c2c3cdf","6","","","","","0","6"
"null","","","null","","","","html-keyboard-response","371","1613866","0.0-371.0","5f40442792000717762de583","620a6bb9e53021751c2c3cdf","","","","","<p style=""color:darkgreen;font-size:24px;"">Correct :)</p>","",""
"2547","key","n","n","16.67018181818247","499.9999891627921","249.99999458139604","psychophysics","372","1616429","0.0-372.0","5f40442792000717762de583","620a6bb9e53021751c2c3cdf","6","","","","","1","6"
"null","","","null","","","","html-keyboard-response","373","1616934","0.0-373.0","5f40442792000717762de583","620a6bb9e53021751c2c3cdf","","","","","<p style=""color:darkgreen;font-size:24px;"">Correct :)</p>","",""
"2858","key","n","n","16.667000000000943","499.9999891627921","249.99999458139604","psychophysics","374","1619797","0.0-374.0","5f40442792000717762de583","620a6bb9e53021751c2c3cdf","6","","","","","1","8"
"null","","","null","","","","html-keyboard-response","375","1620302","0.0-375.0","5f40442792000717762de583","620a6bb9e53021751c2c3cdf","","","","","<p style=""color:darkgreen;font-size:24px;"">Correct :)</p>","",""
"2646","key","n","n","16.666999999998993","499.9999891627921","249.99999458139604","psychophysics","376","1622954","0.0-376.0","5f40442792000717762de583","620a6bb9e53021751c2c3cdf","6","","","","","1","2"
"null","","","null","","","","html-keyboard-response","377","1623456","0.0-377.0","5f40442792000717762de583","620a6bb9e53021751c2c3cdf","","","","","<p style=""color:red;font-size:24px;"">Error :(</p>","",""
"2669","key","n","n","16.67054375000007","499.9999891627921","249.99999458139604","psychophysics","378","1626131","0.0-378.0","5f40442792000717762de583","620a6bb9e53021751c2c3cdf","6","","","","","0","6"
"null","","","null","","","","html-keyboard-response","379","1626635","0.0-379.0","5f40442792000717762de583","620a6bb9e53021751c2c3cdf","","","","","<p style=""color:darkgreen;font-size:24px;"">Correct :)</p>","",""
"2643","key","v","v","16.666999999998993","499.9999891627921","249.99999458139604","psychophysics","380","1629283","0.0-380.0","5f40442792000717762de583","620a6bb9e53021751c2c3cdf","6","","","","","0","3"
"null","","","null","","","","html-keyboard-response","381","1629787","0.0-381.0","5f40442792000717762de583","620a6bb9e53021751c2c3cdf","","","","","<p style=""color:darkgreen;font-size:24px;"">Correct :)</p>","",""
"2981","key","v","v","16.667000000000876","499.9999891627921","249.99999458139604","psychophysics","382","1632774","0.0-382.0","5f40442792000717762de583","620a6bb9e53021751c2c3cdf","6","","","","","0","9"
"null","","","null","","","","html-keyboard-response","383","1633276","0.0-383.0","5f40442792000717762de583","620a6bb9e53021751c2c3cdf","","","","","<p style=""color:darkgreen;font-size:24px;"">Correct :)</p>","",""
"2676","key","v","v","16.669943750000677","499.9999891627921","249.99999458139604","psychophysics","384","1635957","0.0-384.0","5f40442792000717762de583","620a6bb9e53021751c2c3cdf","6","","","","","0","1"
"null","","","null","","","","html-keyboard-response","385","1636461","0.0-385.0","5f40442792000717762de583","620a6bb9e53021751c2c3cdf","","","","","<p style=""color:darkgreen;font-size:24px;"">Correct :)</p>","",""
"2533","key","n","n","16.667000000000513","499.9999891627921","249.99999458139604","psychophysics","386","1639010","0.0-386.0","5f40442792000717762de583","620a6bb9e53021751c2c3cdf","6","","","","","0","8"
"null","","","null","","","","html-keyboard-response","387","1639513","0.0-387.0","5f40442792000717762de583","620a6bb9e53021751c2c3cdf","","","","","<p style=""color:darkgreen;font-size:24px;"">Correct :)</p>","",""
"2754","key","v","v","16.666999999999604","499.9999891627921","249.99999458139604","psychophysics","388","1642273","0.0-388.0","5f40442792000717762de583","620a6bb9e53021751c2c3cdf","6","","","","","1","2"
"null","","","null","","","","html-keyboard-response","389","1642776","0.0-389.0","5f40442792000717762de583","620a6bb9e53021751c2c3cdf","","","","","<p style=""color:darkgreen;font-size:24px;"">Correct :)</p>","",""
"2905","key","n","n","16.669896551723667","499.9999891627921","249.99999458139604","psychophysics","390","1645686","0.0-390.0","5f40442792000717762de583","620a6bb9e53021751c2c3cdf","6","","","","","1","6"
"null","","","null","","","","html-keyboard-response","391","1646188","0.0-391.0","5f40442792000717762de583","620a6bb9e53021751c2c3cdf","","","","","<p style=""color:darkgreen;font-size:24px;"">Correct :)</p>","",""
"2523","key","n","n","16.667000000000513","499.9999891627921","249.99999458139604","psychophysics","392","1648717","0.0-392.0","5f40442792000717762de583","620a6bb9e53021751c2c3cdf","6","","","","","1","4"
"null","","","null","","","","html-keyboard-response","393","1649222","0.0-393.0","5f40442792000717762de583","620a6bb9e53021751c2c3cdf","","","","","<p style=""color:red;font-size:24px;"">Error :(</p>","",""
"2492","key","v","v","16.66700000000031","499.9999891627921","249.99999458139604","psychophysics","394","1651716","0.0-394.0","5f40442792000717762de583","620a6bb9e53021751c2c3cdf","6","","","","","1","3"
"null","","","null","","","","html-keyboard-response","395","1652217","0.0-395.0","5f40442792000717762de583","620a6bb9e53021751c2c3cdf","","","","","<p style=""color:darkgreen;font-size:24px;"">Correct :)</p>","",""
"19156","","","v","","","","html-keyboard-response","396","1671374","0.0-396.0","5f40442792000717762de583","620a6bb9e53021751c2c3cdf","","","","","<p> Last set of trials.  Here, the tasks are going to switch once again.  We are going to do 50 of these.  And then you are done with the experiment.  </p>  <br><br>  Ready? (press v or n)","",""
"2520","key","v","v","16.675655629138912","499.9999891627921","249.99999458139604","psychophysics","397","1673899","0.0-397.0","5f40442792000717762de583","620a6bb9e53021751c2c3cdf","7","","","","","0","3"
"null","","","null","","","","html-keyboard-response","398","1674403","0.0-398.0","5f40442792000717762de583","620a6bb9e53021751c2c3cdf","","","","","<p style=""color:darkgreen;font-size:24px;"">Correct :)</p>","",""
"2397","key","v","v","16.66700000000128","499.9999891627921","249.99999458139604","psychophysics","399","1676802","0.0-399.0","5f40442792000717762de583","620a6bb9e53021751c2c3cdf","7","","","","","0","3"
"null","","","null","","","","html-keyboard-response","400","1677306","0.0-400.0","5f40442792000717762de583","620a6bb9e53021751c2c3cdf","","","","","<p style=""color:darkgreen;font-size:24px;"">Correct :)</p>","",""
"2455","key","n","n","16.6670000000001","499.9999891627921","249.99999458139604","psychophysics","401","1679766","0.0-401.0","5f40442792000717762de583","620a6bb9e53021751c2c3cdf","7","","","","","1","6"
"null","","","null","","","","html-keyboard-response","402","1680269","0.0-402.0","5f40442792000717762de583","620a6bb9e53021751c2c3cdf","","","","","<p style=""color:darkgreen;font-size:24px;"">Correct :)</p>","",""
"2377","key","v","v","16.669888111888074","499.9999891627921","249.99999458139604","psychophysics","403","1682652","0.0-403.0","5f40442792000717762de583","620a6bb9e53021751c2c3cdf","7","","","","","0","3"
"null","","","null","","","","html-keyboard-response","404","1683155","0.0-404.0","5f40442792000717762de583","620a6bb9e53021751c2c3cdf","","","","","<p style=""color:darkgreen;font-size:24px;"">Correct :)</p>","",""
"2522","key","v","v","16.667000000000513","499.9999891627921","249.99999458139604","psychophysics","405","1685684","0.0-405.0","5f40442792000717762de583","620a6bb9e53021751c2c3cdf","7","","","","","0","1"
"null","","","null","","","","html-keyboard-response","406","1686188","0.0-406.0","5f40442792000717762de583","620a6bb9e53021751c2c3cdf","","","","","<p style=""color:darkgreen;font-size:24px;"">Correct :)</p>","",""
"2496","key","n","n","16.66700000000031","499.9999891627921","249.99999458139604","psychophysics","407","1688689","0.0-407.0","5f40442792000717762de583","620a6bb9e53021751c2c3cdf","7","","","","","1","6"
"null","","","null","","","","html-keyboard-response","408","1689193","0.0-408.0","5f40442792000717762de583","620a6bb9e53021751c2c3cdf","","","","","<p style=""color:darkgreen;font-size:24px;"">Correct :)</p>","",""
"2535","key","v","v","16.67082894736852","499.9999891627921","249.99999458139604","psychophysics","409","1691734","0.0-409.0","5f40442792000717762de583","620a6bb9e53021751c2c3cdf","7","","","","","0","2"
"null","","","null","","","","html-keyboard-response","410","1692237","0.0-410.0","5f40442792000717762de583","620a6bb9e53021751c2c3cdf","","","","","<p style=""color:red;font-size:24px;"">Error :(</p>","",""
"3512","key","n","n","16.66699999999983","499.9999891627921","249.99999458139604","psychophysics","411","1695752","0.0-411.0","5f40442792000717762de583","620a6bb9e53021751c2c3cdf","7","","","","","1","7"
"null","","","null","","","","html-keyboard-response","412","1696253","0.0-412.0","5f40442792000717762de583","620a6bb9e53021751c2c3cdf","","","","","<p style=""color:darkgreen;font-size:24px;"">Correct :)</p>","",""
"2970","key","v","v","16.667000000000137","499.9999891627921","249.99999458139604","psychophysics","413","1699229","0.0-413.0","5f40442792000717762de583","620a6bb9e53021751c2c3cdf","7","","","","","1","4"
"null","","","null","","","","html-keyboard-response","414","1699732","0.0-414.0","5f40442792000717762de583","620a6bb9e53021751c2c3cdf","","","","","<p style=""color:darkgreen;font-size:24px;"">Correct :)</p>","",""
"3064","key","v","v","16.6697663043489","499.9999891627921","249.99999458139604","psychophysics","415","1702802","0.0-415.0","5f40442792000717762de583","620a6bb9e53021751c2c3cdf","7","","","","","0","7"
"null","","","null","","","","html-keyboard-response","416","1703306","0.0-416.0","5f40442792000717762de583","620a6bb9e53021751c2c3cdf","","","","","<p style=""color:darkgreen;font-size:24px;"">Correct :)</p>","",""
"3046","key","v","v","16.666999999999927","499.9999891627921","249.99999458139604","psychophysics","417","1706355","0.0-417.0","5f40442792000717762de583","620a6bb9e53021751c2c3cdf","7","","","","","1","4"
"null","","","null","","","","html-keyboard-response","418","1706859","0.0-418.0","5f40442792000717762de583","620a6bb9e53021751c2c3cdf","","","","","<p style=""color:darkgreen;font-size:24px;"">Correct :)</p>","",""
"2914","key","v","v","16.666999999999202","499.9999891627921","249.99999458139604","psychophysics","419","1709778","0.0-419.0","5f40442792000717762de583","620a6bb9e53021751c2c3cdf","7","","","","","0","4"
"null","","","null","","","","html-keyboard-response","420","1710280","0.0-420.0","5f40442792000717762de583","620a6bb9e53021751c2c3cdf","","","","","<p style=""color:red;font-size:24px;"">Error :(</p>","",""
"3033","key","v","v","16.66958791208786","499.9999891627921","249.99999458139604","psychophysics","421","1713318","0.0-421.0","5f40442792000717762de583","620a6bb9e53021751c2c3cdf","7","","","","","1","4"
"null","","","null","","","","html-keyboard-response","422","1713820","0.0-422.0","5f40442792000717762de583","620a6bb9e53021751c2c3cdf","","","","","<p style=""color:darkgreen;font-size:24px;"">Correct :)</p>","",""
"2444","key","v","v","16.666999999999202","499.9999891627921","249.99999458139604","psychophysics","423","1716268","0.0-423.0","5f40442792000717762de583","620a6bb9e53021751c2c3cdf","7","","","","","0","1"
"null","","","null","","","","html-keyboard-response","424","1716772","0.0-424.0","5f40442792000717762de583","620a6bb9e53021751c2c3cdf","","","","","<p style=""color:darkgreen;font-size:24px;"">Correct :)</p>","",""
"2515","key","v","v","16.666999999999643","499.9999891627921","249.99999458139604","psychophysics","425","1719292","0.0-425.0","5f40442792000717762de583","620a6bb9e53021751c2c3cdf","7","","","","","0","3"
"null","","","null","","","","html-keyboard-response","426","1719795","0.0-426.0","5f40442792000717762de583","620a6bb9e53021751c2c3cdf","","","","","<p style=""color:darkgreen;font-size:24px;"">Correct :)</p>","",""
"2536","key","n","n","16.670381578947662","499.9999891627921","249.99999458139604","psychophysics","427","1722337","0.0-427.0","5f40442792000717762de583","620a6bb9e53021751c2c3cdf","7","","","","","1","7"
"null","","","null","","","","html-keyboard-response","428","1722839","0.0-428.0","5f40442792000717762de583","620a6bb9e53021751c2c3cdf","","","","","<p style=""color:darkgreen;font-size:24px;"">Correct :)</p>","",""
"2585","key","v","v","16.884869281045813","499.9999891627921","249.99999458139604","psychophysics","429","1725427","0.0-429.0","5f40442792000717762de583","620a6bb9e53021751c2c3cdf","7","","","","","0","3"
"null","","","null","","","","html-keyboard-response","430","1725928","0.0-430.0","5f40442792000717762de583","620a6bb9e53021751c2c3cdf","","","","","<p style=""color:darkgreen;font-size:24px;"">Correct :)</p>","",""
"2497","key","v","v","16.666999999999426","499.9999891627921","249.99999458139604","psychophysics","431","1728428","0.0-431.0","5f40442792000717762de583","620a6bb9e53021751c2c3cdf","7","","","","","1","2"
"null","","","null","","","","html-keyboard-response","432","1728930","0.0-432.0","5f40442792000717762de583","620a6bb9e53021751c2c3cdf","","","","","<p style=""color:darkgreen;font-size:24px;"">Correct :)</p>","",""
"2552","key","v","v","16.666999999999852","499.9999891627921","249.99999458139604","psychophysics","433","1731487","0.0-433.0","5f40442792000717762de583","620a6bb9e53021751c2c3cdf","7","","","","","0","1"
"null","","","null","","","","html-keyboard-response","434","1731989","0.0-434.0","5f40442792000717762de583","620a6bb9e53021751c2c3cdf","","","","","<p style=""color:darkgreen;font-size:24px;"">Correct :)</p>","",""
"2921","key","v","v","16.669931428570834","499.9999891627921","249.99999458139604","psychophysics","435","1734915","0.0-435.0","5f40442792000717762de583","620a6bb9e53021751c2c3cdf","7","","","","","1","4"
"null","","","null","","","","html-keyboard-response","436","1735419","0.0-436.0","5f40442792000717762de583","620a6bb9e53021751c2c3cdf","","","","","<p style=""color:darkgreen;font-size:24px;"">Correct :)</p>","",""
"3429","key","n","n","16.66700000000001","499.9999891627921","249.99999458139604","psychophysics","437","1738853","0.0-437.0","5f40442792000717762de583","620a6bb9e53021751c2c3cdf","7","","","","","0","4"
"null","","","null","","","","html-keyboard-response","438","1739355","0.0-438.0","5f40442792000717762de583","620a6bb9e53021751c2c3cdf","","","","","<p style=""color:darkgreen;font-size:24px;"">Correct :)</p>","",""
"2979","key","v","v","16.669670391061693","499.9999891627921","249.99999458139604","psychophysics","439","1742339","0.0-439.0","5f40442792000717762de583","620a6bb9e53021751c2c3cdf","7","","","","","0","1"
"null","","","null","","","","html-keyboard-response","440","1742843","0.0-440.0","5f40442792000717762de583","620a6bb9e53021751c2c3cdf","","","","","<p style=""color:darkgreen;font-size:24px;"">Correct :)</p>","",""
"2728","key","v","v","16.667000000000215","499.9999891627921","249.99999458139604","psychophysics","441","1745577","0.0-441.0","5f40442792000717762de583","620a6bb9e53021751c2c3cdf","7","","","","","0","1"
"null","","","null","","","","html-keyboard-response","442","1746079","0.0-442.0","5f40442792000717762de583","620a6bb9e53021751c2c3cdf","","","","","<p style=""color:darkgreen;font-size:24px;"">Correct :)</p>","",""
"2515","key","v","v","16.66700000000031","499.9999891627921","249.99999458139604","psychophysics","443","1748597","0.0-443.0","5f40442792000717762de583","620a6bb9e53021751c2c3cdf","7","","","","","1","3"
"null","","","null","","","","html-keyboard-response","444","1749100","0.0-444.0","5f40442792000717762de583","620a6bb9e53021751c2c3cdf","","","","","<p style=""color:darkgreen;font-size:24px;"">Correct :)</p>","",""
"2482","key","v","v","16.666999999999426","499.9999891627921","249.99999458139604","psychophysics","445","1751587","0.0-445.0","5f40442792000717762de583","620a6bb9e53021751c2c3cdf","7","","","","","1","1"
"null","","","null","","","","html-keyboard-response","446","1752091","0.0-446.0","5f40442792000717762de583","620a6bb9e53021751c2c3cdf","","","","","<p style=""color:darkgreen;font-size:24px;"">Correct :)</p>","",""
"2514","key","v","v","16.670231788079963","499.9999891627921","249.99999458139604","psychophysics","447","1754609","0.0-447.0","5f40442792000717762de583","620a6bb9e53021751c2c3cdf","7","","","","","1","3"
"null","","","null","","","","html-keyboard-response","448","1755112","0.0-448.0","5f40442792000717762de583","620a6bb9e53021751c2c3cdf","","","","","<p style=""color:darkgreen;font-size:24px;"">Correct :)</p>","",""
"2660","key","v","v","16.666999999999824","499.9999891627921","249.99999458139604","psychophysics","449","1757777","0.0-449.0","5f40442792000717762de583","620a6bb9e53021751c2c3cdf","7","","","","","1","1"
"null","","","null","","","","html-keyboard-response","450","1758279","0.0-450.0","5f40442792000717762de583","620a6bb9e53021751c2c3cdf","","","","","<p style=""color:darkgreen;font-size:24px;"">Correct :)</p>","",""
"2412","key","n","n","16.66699999999897","499.9999891627921","249.99999458139604","psychophysics","451","1760696","0.0-451.0","5f40442792000717762de583","620a6bb9e53021751c2c3cdf","7","","","","","0","4"
"null","","","null","","","","html-keyboard-response","452","1761198","0.0-452.0","5f40442792000717762de583","620a6bb9e53021751c2c3cdf","","","","","<p style=""color:darkgreen;font-size:24px;"">Correct :)</p>","",""
"2943","key","n","n","16.66986363636335","499.9999891627921","249.99999458139604","psychophysics","453","1764146","0.0-453.0","5f40442792000717762de583","620a6bb9e53021751c2c3cdf","7","","","","","1","6"
"null","","","null","","","","html-keyboard-response","454","1764649","0.0-454.0","5f40442792000717762de583","620a6bb9e53021751c2c3cdf","","","","","<p style=""color:darkgreen;font-size:24px;"">Correct :)</p>","",""
"2624","key","v","v","16.66700000000026","499.9999891627921","249.99999458139604","psychophysics","455","1767276","0.0-455.0","5f40442792000717762de583","620a6bb9e53021751c2c3cdf","7","","","","","0","7"
"null","","","null","","","","html-keyboard-response","456","1767777","0.0-456.0","5f40442792000717762de583","620a6bb9e53021751c2c3cdf","","","","","<p style=""color:darkgreen;font-size:24px;"">Correct :)</p>","",""
"2523","key","v","v","16.667000000000513","499.9999891627921","249.99999458139604","psychophysics","457","1770306","0.0-457.0","5f40442792000717762de583","620a6bb9e53021751c2c3cdf","7","","","","","0","3"
"null","","","null","","","","html-keyboard-response","458","1770807","0.0-458.0","5f40442792000717762de583","620a6bb9e53021751c2c3cdf","","","","","<p style=""color:darkgreen;font-size:24px;"">Correct :)</p>","",""
"2893","key","v","v","16.669839080459244","499.9999891627921","249.99999458139604","psychophysics","459","1773704","0.0-459.0","5f40442792000717762de583","620a6bb9e53021751c2c3cdf","7","","","","","1","3"
"null","","","null","","","","html-keyboard-response","460","1774207","0.0-460.0","5f40442792000717762de583","620a6bb9e53021751c2c3cdf","","","","","<p style=""color:darkgreen;font-size:24px;"">Correct :)</p>","",""
"3375","key","n","n","16.666999999999696","499.9999891627921","249.99999458139604","psychophysics","461","1777585","0.0-461.0","5f40442792000717762de583","620a6bb9e53021751c2c3cdf","7","","","","","1","2"
"null","","","null","","","","html-keyboard-response","462","1778089","0.0-462.0","5f40442792000717762de583","620a6bb9e53021751c2c3cdf","","","","","<p style=""color:red;font-size:24px;"">Error :(</p>","",""
"2781","key","n","n","16.6669999999998","499.9999891627921","249.99999458139604","psychophysics","463","1780875","0.0-463.0","5f40442792000717762de583","620a6bb9e53021751c2c3cdf","7","","","","","1","6"
"null","","","null","","","","html-keyboard-response","464","1781379","0.0-464.0","5f40442792000717762de583","620a6bb9e53021751c2c3cdf","","","","","<p style=""color:darkgreen;font-size:24px;"">Correct :)</p>","",""
"2942","key","n","n","16.669745762711443","499.9999891627921","249.99999458139604","psychophysics","465","1784327","0.0-465.0","5f40442792000717762de583","620a6bb9e53021751c2c3cdf","7","","","","","0","6"
"null","","","null","","","","html-keyboard-response","466","1784830","0.0-466.0","5f40442792000717762de583","620a6bb9e53021751c2c3cdf","","","","","<p style=""color:darkgreen;font-size:24px;"">Correct :)</p>","",""
"2697","key","v","v","16.666999999999202","499.9999891627921","249.99999458139604","psychophysics","467","1787530","0.0-467.0","5f40442792000717762de583","620a6bb9e53021751c2c3cdf","7","","","","","0","1"
"null","","","null","","","","html-keyboard-response","468","1788034","0.0-468.0","5f40442792000717762de583","620a6bb9e53021751c2c3cdf","","","","","<p style=""color:darkgreen;font-size:24px;"">Correct :)</p>","",""
"2756","key","n","n","16.667000000001018","499.9999891627921","249.99999458139604","psychophysics","469","1790796","0.0-469.0","5f40442792000717762de583","620a6bb9e53021751c2c3cdf","7","","","","","0","4"
"null","","","null","","","","html-keyboard-response","470","1791297","0.0-470.0","5f40442792000717762de583","620a6bb9e53021751c2c3cdf","","","","","<p style=""color:darkgreen;font-size:24px;"">Correct :)</p>","",""
