"rt","response_type","key_press","response","avg_frame_time","center_x","center_y","trial_type","trial_index","time_elapsed","internal_node_id","pid","sid","phase","guide","targ","resp","stimulus","is5","stim"
"8894","key"," "," ","16.68308082706767","500","250","psychophysics","0","8906","0.0-0.0","57dd1a741334540001170404","6213d14f6c3b0d3c7c9609be","","","","","","",""
"1730","key"," "," ","16.683288461538442","500","250","psychophysics","1","10643","0.0-1.0","57dd1a741334540001170404","6213d14f6c3b0d3c7c9609be","","","","","","",""
"1509","key"," "," ","16.68307865168537","500","250","psychophysics","2","12154","0.0-2.0","57dd1a741334540001170404","6213d14f6c3b0d3c7c9609be","","","","","","",""
"1259","key"," "," ","16.682706666666686","500","250","psychophysics","3","13415","0.0-3.0","57dd1a741334540001170404","6213d14f6c3b0d3c7c9609be","","","","","","",""
"983","key"," "," ","16.68293103448277","500","250","psychophysics","4","14400","0.0-4.0","57dd1a741334540001170404","6213d14f6c3b0d3c7c9609be","","","","","","",""
"3230","key"," "," ","16.68318652849741","500","250","psychophysics","5","17633","0.0-5.0","57dd1a741334540001170404","6213d14f6c3b0d3c7c9609be","","","","","","",""
"1961","key"," "," ","16.683189655172413","500","250","psychophysics","6","19596","0.0-6.0","57dd1a741334540001170404","6213d14f6c3b0d3c7c9609be","","","","","","",""
"1487","key"," "," ","16.683522727272702","500","250","psychophysics","7","21085","0.0-7.0","57dd1a741334540001170404","6213d14f6c3b0d3c7c9609be","","","","","","",""
"9975","key"," "," ","16.683289297658856","500","250","psychophysics","8","31064","0.0-8.0","57dd1a741334540001170404","6213d14f6c3b0d3c7c9609be","0","0","58","55","","",""
"5987","key"," "," ","16.683150837988826","500","250","psychophysics","9","37054","0.0-9.0","57dd1a741334540001170404","6213d14f6c3b0d3c7c9609be","","","","","","",""
"1511","key"," "," ","16.68338202247195","500","250","psychophysics","10","38567","0.0-10.0","57dd1a741334540001170404","6213d14f6c3b0d3c7c9609be","","","","","","",""
"1290","key"," "," ","16.6835844155844","500","250","psychophysics","11","39861","0.0-11.0","57dd1a741334540001170404","6213d14f6c3b0d3c7c9609be","","","","","","",""
"4689","key"," "," ","16.683257142857137","500","250","psychophysics","12","44553","0.0-12.0","57dd1a741334540001170404","6213d14f6c3b0d3c7c9609be","","","","","","",""
"1153","key"," "," ","16.683102941176486","500","250","psychophysics","13","45708","0.0-13.0","57dd1a741334540001170404","6213d14f6c3b0d3c7c9609be","","","","","","",""
"1937","key"," "," ","16.683370689655177","500","250","psychophysics","14","47649","0.0-14.0","57dd1a741334540001170404","6213d14f6c3b0d3c7c9609be","","","","","","",""
"2557","key"," "," ","16.68325657894739","500","250","psychophysics","15","50208","0.0-15.0","57dd1a741334540001170404","6213d14f6c3b0d3c7c9609be","","","","","","",""
"2420","key"," "," ","16.68305555555556","500","250","psychophysics","16","52630","0.0-16.0","57dd1a741334540001170404","6213d14f6c3b0d3c7c9609be","","","","","","",""
"10641","key"," "," ","16.683216640502348","500","250","psychophysics","17","63273","0.0-17.0","57dd1a741334540001170404","6213d14f6c3b0d3c7c9609be","1","0","59","58","","",""
"8044","key"," "," ","16.683248962655604","500","250","psychophysics","18","71319","0.0-18.0","57dd1a741334540001170404","6213d14f6c3b0d3c7c9609be","1","5","38","39","","",""
"15108","key"," "," ","16.68324336283186","500","250","psychophysics","19","86429","0.0-19.0","57dd1a741334540001170404","6213d14f6c3b0d3c7c9609be","1","0","38","48","","",""
"5908","key"," "," ","16.683254237288143","500","250","psychophysics","20","92340","0.0-20.0","57dd1a741334540001170404","6213d14f6c3b0d3c7c9609be","1","5","22","27","","",""
"13923","key"," "," ","16.68324009603841","500","250","psychophysics","21","106264","0.0-21.0","57dd1a741334540001170404","6213d14f6c3b0d3c7c9609be","1","0","28","35","","",""
"9552","key"," "," ","16.68324650349652","500","250","psychophysics","22","115818","0.0-22.0","57dd1a741334540001170404","6213d14f6c3b0d3c7c9609be","1","5","37","39","","",""
"9397","key"," "," ","16.683236654804283","500","250","psychophysics","23","125218","0.0-23.0","57dd1a741334540001170404","6213d14f6c3b0d3c7c9609be","1","0","37","42","","",""
"8516","key"," "," ","16.68329019607844","500","250","psychophysics","24","133737","0.0-24.0","57dd1a741334540001170404","6213d14f6c3b0d3c7c9609be","1","5","26","30","","",""
"10507","key"," "," ","16.68320985691574","500","250","psychophysics","25","144246","0.0-25.0","57dd1a741334540001170404","6213d14f6c3b0d3c7c9609be","1","0","45","56","","",""
"6469","key"," "," ","16.68323255813959","500","250","psychophysics","26","150717","0.0-26.0","57dd1a741334540001170404","6213d14f6c3b0d3c7c9609be","1","5","34","43","","",""
"8304","key"," "," ","16.683211267605657","500","250","psychophysics","27","159024","0.0-27.0","57dd1a741334540001170404","6213d14f6c3b0d3c7c9609be","1","0","24","32","","",""
"6954","key"," "," ","16.68324519230765","500","250","psychophysics","28","165980","0.0-28.0","57dd1a741334540001170404","6213d14f6c3b0d3c7c9609be","1","5","45","52","","",""
"5314","key"," "," ","16.68313564668771","500","250","psychophysics","29","171296","0.0-29.0","57dd1a741334540001170404","6213d14f6c3b0d3c7c9609be","1","0","43","54","","",""
"4338","key"," "," ","16.68331274131275","500","250","psychophysics","30","175636","0.0-30.0","57dd1a741334540001170404","6213d14f6c3b0d3c7c9609be","1","5","54","64","","",""
"5947","key"," "," ","16.683216292134848","500","250","psychophysics","31","181585","0.0-31.0","57dd1a741334540001170404","6213d14f6c3b0d3c7c9609be","1","0","26","37","","",""
"4876","key"," "," ","16.683192439862573","500","250","psychophysics","32","186463","0.0-32.0","57dd1a741334540001170404","6213d14f6c3b0d3c7c9609be","1","5","32","35","","",""
"6452","key"," "," ","16.683246113989657","500","250","psychophysics","33","192918","0.0-33.0","57dd1a741334540001170404","6213d14f6c3b0d3c7c9609be","1","0","27","37","","",""
"5140","key"," "," ","16.683159609120555","500","250","psychophysics","34","198060","0.0-34.0","57dd1a741334540001170404","6213d14f6c3b0d3c7c9609be","1","5","44","51","","",""
"4894","key"," "," ","16.683242320819122","500","250","psychophysics","35","202958","0.0-35.0","57dd1a741334540001170404","6213d14f6c3b0d3c7c9609be","1","0","21","30","","",""
"5149","key"," "," ","16.68321103896105","500","250","psychophysics","36","208109","0.0-36.0","57dd1a741334540001170404","6213d14f6c3b0d3c7c9609be","1","5","39","49","","",""
"2406","key"," "," ","16.683468531468563","500","250","psychophysics","37","210516","0.0-37.0","57dd1a741334540001170404","6213d14f6c3b0d3c7c9609be","","","","","","",""
"5054","key"," "," ","16.68314900662257","500","250","psychophysics","38","215572","0.0-38.0","57dd1a741334540001170404","6213d14f6c3b0d3c7c9609be","","","","","","",""
"1200","key"," "," ","16.68304225352132","500","250","psychophysics","39","216775","0.0-39.0","57dd1a741334540001170404","6213d14f6c3b0d3c7c9609be","","","","","","",""
"4975","key"," "," ","16.683127516778573","500","250","psychophysics","40","221751","0.0-40.0","57dd1a741334540001170404","6213d14f6c3b0d3c7c9609be","2","0","27","34","","",""
"4793","key"," "," ","16.683237762237823","500","250","psychophysics","41","226547","0.0-41.0","57dd1a741334540001170404","6213d14f6c3b0d3c7c9609be","","","","","","",""
"6530","key"," "," ","16.68326598465475","500","250","psychophysics","42","233079","0.0-42.0","57dd1a741334540001170404","6213d14f6c3b0d3c7c9609be","2","0","45","56","","",""
"1934","key"," "," ","16.68316521739142","500","250","psychophysics","43","235016","0.0-43.0","57dd1a741334540001170404","6213d14f6c3b0d3c7c9609be","","","","","","",""
"5445","key"," "," ","16.683319999999995","500","250","psychophysics","44","240462","0.0-44.0","57dd1a741334540001170404","6213d14f6c3b0d3c7c9609be","2","0","54","58","","",""
"1861","key"," "," ","16.68310810810795","500","250","psychophysics","45","242325","0.0-45.0","57dd1a741334540001170404","6213d14f6c3b0d3c7c9609be","","","","","","",""
"5570","key"," "," ","16.683228228228185","500","250","psychophysics","46","247897","0.0-46.0","57dd1a741334540001170404","6213d14f6c3b0d3c7c9609be","2","0","45","53","","",""
"2499","key"," "," ","16.683302013422853","500","250","psychophysics","47","250399","0.0-47.0","57dd1a741334540001170404","6213d14f6c3b0d3c7c9609be","","","","","","",""
"5976","key"," "," ","16.683288515406105","500","250","psychophysics","48","256376","0.0-48.0","57dd1a741334540001170404","6213d14f6c3b0d3c7c9609be","2","0","42","52","","",""
"1787","key"," "," ","16.683330188679424","500","250","psychophysics","49","258165","0.0-49.0","57dd1a741334540001170404","6213d14f6c3b0d3c7c9609be","","","","","","",""
"3666","key"," "," ","16.683146118721446","500","250","psychophysics","50","261833","0.0-50.0","57dd1a741334540001170404","6213d14f6c3b0d3c7c9609be","2","0","43","49","","",""
"1514","key"," "," ","16.683244444444103","500","250","psychophysics","51","263349","0.0-51.0","57dd1a741334540001170404","6213d14f6c3b0d3c7c9609be","","","","","","",""
"2854","key"," "," ","16.683200000000173","500","250","psychophysics","52","266205","0.0-52.0","57dd1a741334540001170404","6213d14f6c3b0d3c7c9609be","2","0","50","54","","",""
"1562","key"," "," ","16.68341935483829","500","250","psychophysics","53","267768","0.0-53.0","57dd1a741334540001170404","6213d14f6c3b0d3c7c9609be","","","","","","",""
"3565","key"," "," ","16.683037558685278","500","250","psychophysics","54","271335","0.0-54.0","57dd1a741334540001170404","6213d14f6c3b0d3c7c9609be","2","0","32","30","","",""
"1568","key"," "," ","16.683215053763956","500","250","psychophysics","55","272905","0.0-55.0","57dd1a741334540001170404","6213d14f6c3b0d3c7c9609be","","","","","","",""
"3412","key"," "," ","16.683315270935907","500","250","psychophysics","56","276320","0.0-56.0","57dd1a741334540001170404","6213d14f6c3b0d3c7c9609be","2","0","31","32","","",""
"1385","key"," "," ","16.683349397590284","500","250","psychophysics","57","277717","0.0-57.0","57dd1a741334540001170404","6213d14f6c3b0d3c7c9609be","","","","","","",""
"3449","key"," "," ","16.68328155339803","500","250","psychophysics","58","281168","0.0-58.0","57dd1a741334540001170404","6213d14f6c3b0d3c7c9609be","2","0","28","30","","",""
"1658","key"," "," ","16.68298979591797","500","250","psychophysics","59","282828","0.0-59.0","57dd1a741334540001170404","6213d14f6c3b0d3c7c9609be","","","","","","",""
"3687","key"," "," ","16.683067873303358","500","250","psychophysics","60","286518","0.0-60.0","57dd1a741334540001170404","6213d14f6c3b0d3c7c9609be","2","0","25","24","","",""
"2212","key"," "," ","16.683389312977358","500","250","psychophysics","61","288732","0.0-61.0","57dd1a741334540001170404","6213d14f6c3b0d3c7c9609be","","","","","","",""
"4759","key"," "," ","16.683115789473565","500","250","psychophysics","62","293495","0.0-62.0","57dd1a741334540001170404","6213d14f6c3b0d3c7c9609be","2","0","46","46","","",""
"2380","key"," "," ","16.68320422535221","500","250","psychophysics","63","295876","0.0-63.0","57dd1a741334540001170404","6213d14f6c3b0d3c7c9609be","","","","","","",""
"4075","key"," "," ","16.68327983539099","500","250","psychophysics","64","299953","0.0-64.0","57dd1a741334540001170404","6213d14f6c3b0d3c7c9609be","2","0","32","32","","",""
"4163","key"," "," ","16.68320883534139","500","250","psychophysics","65","304118","0.0-65.0","57dd1a741334540001170404","6213d14f6c3b0d3c7c9609be","","","","","","",""
"5095","key"," "," ","16.682967105263263","500","250","psychophysics","66","309215","0.0-66.0","57dd1a741334540001170404","6213d14f6c3b0d3c7c9609be","2","0","52","59","","",""
"1454","key"," "," ","16.683186046511807","500","250","psychophysics","67","310671","0.0-67.0","57dd1a741334540001170404","6213d14f6c3b0d3c7c9609be","","","","","","",""
"2026","key"," "," ","16.68329752066119","500","250","psychophysics","68","312700","0.0-68.0","57dd1a741334540001170404","6213d14f6c3b0d3c7c9609be","2","0","23","25","","",""
"1392","key"," "," ","16.68291566265026","500","250","psychophysics","69","314094","0.0-69.0","57dd1a741334540001170404","6213d14f6c3b0d3c7c9609be","","","","","","",""
"2250","key"," "," ","16.683462686566966","500","250","psychophysics","70","316346","0.0-70.0","57dd1a741334540001170404","6213d14f6c3b0d3c7c9609be","","","","","","",""
"1391","key"," "," ","16.683195121951186","500","250","psychophysics","71","317739","0.0-71.0","57dd1a741334540001170404","6213d14f6c3b0d3c7c9609be","","","","","","",""
"3276","key"," "," ","16.683127551020316","500","250","psychophysics","72","321017","0.0-72.0","57dd1a741334540001170404","6213d14f6c3b0d3c7c9609be","3","5","20","23","","",""
"3951","key"," "," ","16.68320425531921","500","250","psychophysics","73","324970","0.0-73.0","57dd1a741334540001170404","6213d14f6c3b0d3c7c9609be","3","0","35","45","","",""
"2801","key"," "," ","16.68333928571415","500","250","psychophysics","74","327774","0.0-74.0","57dd1a741334540001170404","6213d14f6c3b0d3c7c9609be","3","5","28","27","","",""
"4638","key"," "," ","16.683332129963883","500","250","psychophysics","75","332414","0.0-75.0","57dd1a741334540001170404","6213d14f6c3b0d3c7c9609be","3","0","56","76","","",""
"3592","key"," "," ","16.68323364485981","500","250","psychophysics","76","336008","0.0-76.0","57dd1a741334540001170404","6213d14f6c3b0d3c7c9609be","3","5","44","43","","",""
"3399","key"," "," ","16.683167487684823","500","250","psychophysics","77","339408","0.0-77.0","57dd1a741334540001170404","6213d14f6c3b0d3c7c9609be","3","0","59","70","","",""
"3211","key"," "," ","16.6832604166669","500","250","psychophysics","78","342622","0.0-78.0","57dd1a741334540001170404","6213d14f6c3b0d3c7c9609be","3","5","26","25","","",""
"2596","key"," "," ","16.683272727273025","500","250","psychophysics","79","345220","0.0-79.0","57dd1a741334540001170404","6213d14f6c3b0d3c7c9609be","3","0","20","29","","",""
"2971","key"," "," ","16.68327528089867","500","250","psychophysics","80","348193","0.0-80.0","57dd1a741334540001170404","6213d14f6c3b0d3c7c9609be","3","5","39","38","","",""
"4957","key"," "," ","16.68324324324321","500","250","psychophysics","81","353153","0.0-81.0","57dd1a741334540001170404","6213d14f6c3b0d3c7c9609be","3","0","57","86","","",""
"4869","key"," "," ","16.68324054982829","500","250","psychophysics","82","358024","0.0-82.0","57dd1a741334540001170404","6213d14f6c3b0d3c7c9609be","3","5","58","56","","",""
"3531","key"," "," ","16.683265402843574","500","250","psychophysics","83","361557","0.0-83.0","57dd1a741334540001170404","6213d14f6c3b0d3c7c9609be","3","0","24","33","","",""
"2902","key"," "," ","16.6833063583815","500","250","psychophysics","84","364461","0.0-84.0","57dd1a741334540001170404","6213d14f6c3b0d3c7c9609be","3","5","27","30","","",""
"2775","key"," "," ","16.683393939393994","500","250","psychophysics","85","367238","0.0-85.0","57dd1a741334540001170404","6213d14f6c3b0d3c7c9609be","3","0","24","31","","",""
"4073","key"," "," ","16.683156378600753","500","250","psychophysics","86","371313","0.0-86.0","57dd1a741334540001170404","6213d14f6c3b0d3c7c9609be","3","5","52","53","","",""
"4923","key"," "," ","16.683389830508396","500","250","psychophysics","87","376238","0.0-87.0","57dd1a741334540001170404","6213d14f6c3b0d3c7c9609be","3","0","49","68","","",""
"2782","key"," "," ","16.683168674698898","500","250","psychophysics","88","379031","0.0-88.0","57dd1a741334540001170404","6213d14f6c3b0d3c7c9609be","3","5","52","55","","",""
"8041","key"," "," ","16.683286902286948","500","250","psychophysics","89","387074","0.0-89.0","57dd1a741334540001170404","6213d14f6c3b0d3c7c9609be","3","0","44","61","","",""
"5822","key"," "," ","16.683290229885152","500","250","psychophysics","90","392898","0.0-90.0","57dd1a741334540001170404","6213d14f6c3b0d3c7c9609be","3","5","56","59","","",""
"4097","key"," "," ","16.683163265306124","500","250","psychophysics","91","396997","0.0-91.0","57dd1a741334540001170404","6213d14f6c3b0d3c7c9609be","3","0","53","71","","",""
"2082","key"," "," ","16.683306451612754","500","250","psychophysics","92","399081","0.0-92.0","57dd1a741334540001170404","6213d14f6c3b0d3c7c9609be","","","","","","",""
"24600","","","n","","","","html-keyboard-response","93","423681","0.0-93.0","57dd1a741334540001170404","6213d14f6c3b0d3c7c9609be","","","","","<p> In this part of the experiment, we are going present digits 1, 2, 3, 4, 6, 7, 8, and 9.  Notice that 5 is missing.  Your job is to say whether the presented digit is less than or greater than 5.  For example, 3 is less than 5 and 7 is greater than 5.  If the digit is less than 5, press the v key; if it is greater than 5, press the n key. We are going to do 200 of these in total, but only 50 righ now. They go real fast.</p>  <br><br>  Ready? (press v or n)","",""
"2877","key","n","n","16.6837630057805","500","250","psychophysics","94","426564","0.0-94.0","57dd1a741334540001170404","6213d14f6c3b0d3c7c9609be","4","","","","","1","8"
"null","","","null","","","","html-keyboard-response","95","427065","0.0-95.0","57dd1a741334540001170404","6213d14f6c3b0d3c7c9609be","","","","","<p style=""color:darkgreen;font-size:24px;"">Correct :)</p>","",""
"2599","key","n","n","16.68352564102567","500","250","psychophysics","96","429666","0.0-96.0","57dd1a741334540001170404","6213d14f6c3b0d3c7c9609be","4","","","","","1","9"
"null","","","null","","","","html-keyboard-response","97","430168","0.0-97.0","57dd1a741334540001170404","6213d14f6c3b0d3c7c9609be","","","","","<p style=""color:darkgreen;font-size:24px;"">Correct :)</p>","",""
"2512","key","n","n","16.683350993377783","500","250","psychophysics","98","432683","0.0-98.0","57dd1a741334540001170404","6213d14f6c3b0d3c7c9609be","4","","","","","1","7"
"null","","","null","","","","html-keyboard-response","99","433184","0.0-99.0","57dd1a741334540001170404","6213d14f6c3b0d3c7c9609be","","","","","<p style=""color:darkgreen;font-size:24px;"">Correct :)</p>","",""
"2465","key","n","n","16.683277027027028","500","250","psychophysics","100","435651","0.0-100.0","57dd1a741334540001170404","6213d14f6c3b0d3c7c9609be","4","","","","","1","8"
"null","","","null","","","","html-keyboard-response","101","436152","0.0-101.0","57dd1a741334540001170404","6213d14f6c3b0d3c7c9609be","","","","","<p style=""color:darkgreen;font-size:24px;"">Correct :)</p>","",""
"2397","key","n","n","16.68336805555575","500","250","psychophysics","102","438553","0.0-102.0","57dd1a741334540001170404","6213d14f6c3b0d3c7c9609be","4","","","","","1","9"
"null","","","null","","","","html-keyboard-response","103","439054","0.0-103.0","57dd1a741334540001170404","6213d14f6c3b0d3c7c9609be","","","","","<p style=""color:darkgreen;font-size:24px;"">Correct :)</p>","",""
"2495","key","v","v","16.684536912751966","500","250","psychophysics","104","441551","0.0-104.0","57dd1a741334540001170404","6213d14f6c3b0d3c7c9609be","4","","","","","1","1"
"null","","","null","","","","html-keyboard-response","105","442053","0.0-105.0","57dd1a741334540001170404","6213d14f6c3b0d3c7c9609be","","","","","<p style=""color:darkgreen;font-size:24px;"">Correct :)</p>","",""
"2805","key","v","v","16.68333928571415","500","250","psychophysics","106","444863","0.0-106.0","57dd1a741334540001170404","6213d14f6c3b0d3c7c9609be","4","","","","","1","3"
"null","","","null","","","","html-keyboard-response","107","445364","0.0-107.0","57dd1a741334540001170404","6213d14f6c3b0d3c7c9609be","","","","","<p style=""color:darkgreen;font-size:24px;"">Correct :)</p>","",""
"2406","key","v","v","16.683291666666467","500","250","psychophysics","108","447773","0.0-108.0","57dd1a741334540001170404","6213d14f6c3b0d3c7c9609be","4","","","","","1","2"
"null","","","null","","","","html-keyboard-response","109","448274","0.0-109.0","57dd1a741334540001170404","6213d14f6c3b0d3c7c9609be","","","","","<p style=""color:darkgreen;font-size:24px;"">Correct :)</p>","",""
"2704","key","v","v","16.68309202454013","500","250","psychophysics","110","450981","0.0-110.0","57dd1a741334540001170404","6213d14f6c3b0d3c7c9609be","4","","","","","1","3"
"null","","","null","","","","html-keyboard-response","111","451483","0.0-111.0","57dd1a741334540001170404","6213d14f6c3b0d3c7c9609be","","","","","<p style=""color:darkgreen;font-size:24px;"">Correct :)</p>","",""
"2505","key","v","v","16.68311333333336","500","250","psychophysics","112","453990","0.0-112.0","57dd1a741334540001170404","6213d14f6c3b0d3c7c9609be","4","","","","","1","3"
"null","","","null","","","","html-keyboard-response","113","454492","0.0-113.0","57dd1a741334540001170404","6213d14f6c3b0d3c7c9609be","","","","","<p style=""color:darkgreen;font-size:24px;"">Correct :)</p>","",""
"2597","key","v","v","16.683307692307817","500","250","psychophysics","114","457090","0.0-114.0","57dd1a741334540001170404","6213d14f6c3b0d3c7c9609be","4","","","","","1","1"
"null","","","null","","","","html-keyboard-response","115","457592","0.0-115.0","57dd1a741334540001170404","6213d14f6c3b0d3c7c9609be","","","","","<p style=""color:darkgreen;font-size:24px;"">Correct :)</p>","",""
"4662","key","n","n","16.683136200716746","500","250","psychophysics","116","462256","0.0-116.0","57dd1a741334540001170404","6213d14f6c3b0d3c7c9609be","4","","","","","1","9"
"null","","","null","","","","html-keyboard-response","117","462757","0.0-117.0","57dd1a741334540001170404","6213d14f6c3b0d3c7c9609be","","","","","<p style=""color:darkgreen;font-size:24px;"">Correct :)</p>","",""
"2445","key","n","n","16.683431506849434","500","250","psychophysics","118","465204","0.0-118.0","57dd1a741334540001170404","6213d14f6c3b0d3c7c9609be","4","","","","","1","9"
"null","","","null","","","","html-keyboard-response","119","465705","0.0-119.0","57dd1a741334540001170404","6213d14f6c3b0d3c7c9609be","","","","","<p style=""color:darkgreen;font-size:24px;"">Correct :)</p>","",""
"2617","key","n","n","16.683267515923852","500","250","psychophysics","120","468324","0.0-120.0","57dd1a741334540001170404","6213d14f6c3b0d3c7c9609be","4","","","","","1","7"
"null","","","null","","","","html-keyboard-response","121","468825","0.0-121.0","57dd1a741334540001170404","6213d14f6c3b0d3c7c9609be","","","","","<p style=""color:darkgreen;font-size:24px;"">Correct :)</p>","",""
"2575","key","v","v","16.683232258064596","500","250","psychophysics","122","471404","0.0-122.0","57dd1a741334540001170404","6213d14f6c3b0d3c7c9609be","4","","","","","1","1"
"null","","","null","","","","html-keyboard-response","123","471905","0.0-123.0","57dd1a741334540001170404","6213d14f6c3b0d3c7c9609be","","","","","<p style=""color:darkgreen;font-size:24px;"">Correct :)</p>","",""
"2628","key","n","n","16.683221518987484","500","250","psychophysics","124","474536","0.0-124.0","57dd1a741334540001170404","6213d14f6c3b0d3c7c9609be","4","","","","","1","3"
"null","","","null","","","","html-keyboard-response","125","475038","0.0-125.0","57dd1a741334540001170404","6213d14f6c3b0d3c7c9609be","","","","","<p style=""color:red;font-size:24px;"">Error :(</p>","",""
"2521","key","n","n","16.68324503311286","500","250","psychophysics","126","477561","0.0-126.0","57dd1a741334540001170404","6213d14f6c3b0d3c7c9609be","4","","","","","1","8"
"null","","","null","","","","html-keyboard-response","127","478062","0.0-127.0","57dd1a741334540001170404","6213d14f6c3b0d3c7c9609be","","","","","<p style=""color:darkgreen;font-size:24px;"">Correct :)</p>","",""
"2526","key","n","n","16.68329801324513","500","250","psychophysics","128","480591","0.0-128.0","57dd1a741334540001170404","6213d14f6c3b0d3c7c9609be","4","","","","","1","8"
"null","","","null","","","","html-keyboard-response","129","481093","0.0-129.0","57dd1a741334540001170404","6213d14f6c3b0d3c7c9609be","","","","","<p style=""color:darkgreen;font-size:24px;"">Correct :)</p>","",""
"2505","key","v","v","16.683199999999875","500","250","psychophysics","130","483600","0.0-130.0","57dd1a741334540001170404","6213d14f6c3b0d3c7c9609be","4","","","","","1","2"
"null","","","null","","","","html-keyboard-response","131","484102","0.0-131.0","57dd1a741334540001170404","6213d14f6c3b0d3c7c9609be","","","","","<p style=""color:darkgreen;font-size:24px;"">Correct :)</p>","",""
"2620","key","n","n","16.683528662420095","500","250","psychophysics","132","486724","0.0-132.0","57dd1a741334540001170404","6213d14f6c3b0d3c7c9609be","4","","","","","1","6"
"null","","","null","","","","html-keyboard-response","133","487226","0.0-133.0","57dd1a741334540001170404","6213d14f6c3b0d3c7c9609be","","","","","<p style=""color:darkgreen;font-size:24px;"">Correct :)</p>","",""
"2499","key","v","v","16.683153333333323","500","250","psychophysics","134","489729","0.0-134.0","57dd1a741334540001170404","6213d14f6c3b0d3c7c9609be","4","","","","","1","4"
"null","","","null","","","","html-keyboard-response","135","490230","0.0-135.0","57dd1a741334540001170404","6213d14f6c3b0d3c7c9609be","","","","","<p style=""color:darkgreen;font-size:24px;"">Correct :)</p>","",""
"2835","key","n","n","16.683547058823407","500","250","psychophysics","136","493067","0.0-136.0","57dd1a741334540001170404","6213d14f6c3b0d3c7c9609be","4","","","","","1","7"
"null","","","null","","","","html-keyboard-response","137","493569","0.0-137.0","57dd1a741334540001170404","6213d14f6c3b0d3c7c9609be","","","","","<p style=""color:darkgreen;font-size:24px;"">Correct :)</p>","",""
"2582","key","n","n","16.68341290322583","500","250","psychophysics","138","496154","0.0-138.0","57dd1a741334540001170404","6213d14f6c3b0d3c7c9609be","4","","","","","1","6"
"null","","","null","","","","html-keyboard-response","139","496655","0.0-139.0","57dd1a741334540001170404","6213d14f6c3b0d3c7c9609be","","","","","<p style=""color:darkgreen;font-size:24px;"">Correct :)</p>","",""
"2514","key","v","v","16.68362251655638","500","250","psychophysics","140","499173","0.0-140.0","57dd1a741334540001170404","6213d14f6c3b0d3c7c9609be","4","","","","","1","2"
"null","","","null","","","","html-keyboard-response","141","499674","0.0-141.0","57dd1a741334540001170404","6213d14f6c3b0d3c7c9609be","","","","","<p style=""color:darkgreen;font-size:24px;"">Correct :)</p>","",""
"2833","key","v","v","16.68320588235305","500","250","psychophysics","142","502510","0.0-142.0","57dd1a741334540001170404","6213d14f6c3b0d3c7c9609be","4","","","","","1","4"
"null","","","null","","","","html-keyboard-response","143","503012","0.0-143.0","57dd1a741334540001170404","6213d14f6c3b0d3c7c9609be","","","","","<p style=""color:darkgreen;font-size:24px;"">Correct :)</p>","",""
"2757","key","n","n","16.68323493975913","500","250","psychophysics","144","505772","0.0-144.0","57dd1a741334540001170404","6213d14f6c3b0d3c7c9609be","4","","","","","1","6"
"null","","","null","","","","html-keyboard-response","145","506274","0.0-145.0","57dd1a741334540001170404","6213d14f6c3b0d3c7c9609be","","","","","<p style=""color:darkgreen;font-size:24px;"">Correct :)</p>","",""
"2645","key","n","n","16.683270440251295","500","250","psychophysics","146","508921","0.0-146.0","57dd1a741334540001170404","6213d14f6c3b0d3c7c9609be","4","","","","","1","6"
"null","","","null","","","","html-keyboard-response","147","509422","0.0-147.0","57dd1a741334540001170404","6213d14f6c3b0d3c7c9609be","","","","","<p style=""color:darkgreen;font-size:24px;"">Correct :)</p>","",""
"2732","key","n","n","16.68332926829263","500","250","psychophysics","148","512157","0.0-148.0","57dd1a741334540001170404","6213d14f6c3b0d3c7c9609be","4","","","","","1","8"
"null","","","null","","","","html-keyboard-response","149","512658","0.0-149.0","57dd1a741334540001170404","6213d14f6c3b0d3c7c9609be","","","","","<p style=""color:darkgreen;font-size:24px;"">Correct :)</p>","",""
"2663","key","n","n","16.683276729559402","500","250","psychophysics","150","515323","0.0-150.0","57dd1a741334540001170404","6213d14f6c3b0d3c7c9609be","4","","","","","1","8"
"null","","","null","","","","html-keyboard-response","151","515825","0.0-151.0","57dd1a741334540001170404","6213d14f6c3b0d3c7c9609be","","","","","<p style=""color:darkgreen;font-size:24px;"">Correct :)</p>","",""
"2633","key","n","n","16.683411392404643","500","250","psychophysics","152","518461","0.0-152.0","57dd1a741334540001170404","6213d14f6c3b0d3c7c9609be","4","","","","","1","9"
"null","","","null","","","","html-keyboard-response","153","518962","0.0-153.0","57dd1a741334540001170404","6213d14f6c3b0d3c7c9609be","","","","","<p style=""color:darkgreen;font-size:24px;"">Correct :)</p>","",""
"4077","key","v","v","16.683172131147614","500","250","psychophysics","154","523042","0.0-154.0","57dd1a741334540001170404","6213d14f6c3b0d3c7c9609be","4","","","","","1","3"
"null","","","null","","","","html-keyboard-response","155","523543","0.0-155.0","57dd1a741334540001170404","6213d14f6c3b0d3c7c9609be","","","","","<p style=""color:darkgreen;font-size:24px;"">Correct :)</p>","",""
"5333","key","v","v","16.68333437500005","500","250","psychophysics","156","528878","0.0-156.0","57dd1a741334540001170404","6213d14f6c3b0d3c7c9609be","4","","","","","1","1"
"null","","","null","","","","html-keyboard-response","157","529380","0.0-157.0","57dd1a741334540001170404","6213d14f6c3b0d3c7c9609be","","","","","<p style=""color:darkgreen;font-size:24px;"">Correct :)</p>","",""
"5231","key","v","v","16.683277070063692","500","250","psychophysics","158","534614","0.0-158.0","57dd1a741334540001170404","6213d14f6c3b0d3c7c9609be","4","","","","","1","1"
"null","","","null","","","","html-keyboard-response","159","535115","0.0-159.0","57dd1a741334540001170404","6213d14f6c3b0d3c7c9609be","","","","","<p style=""color:darkgreen;font-size:24px;"">Correct :)</p>","",""
"2533","key","n","n","16.68276315789492","500","250","psychophysics","160","537651","0.0-160.0","57dd1a741334540001170404","6213d14f6c3b0d3c7c9609be","4","","","","","1","7"
"null","","","null","","","","html-keyboard-response","161","538152","0.0-161.0","57dd1a741334540001170404","6213d14f6c3b0d3c7c9609be","","","","","<p style=""color:darkgreen;font-size:24px;"">Correct :)</p>","",""
"2636","key","n","n","16.683265822784847","500","250","psychophysics","162","540791","0.0-162.0","57dd1a741334540001170404","6213d14f6c3b0d3c7c9609be","4","","","","","1","6"
"null","","","null","","","","html-keyboard-response","163","541292","0.0-163.0","57dd1a741334540001170404","6213d14f6c3b0d3c7c9609be","","","","","<p style=""color:darkgreen;font-size:24px;"">Correct :)</p>","",""
"2448","key","v","v","16.683510204081006","500","250","psychophysics","164","543742","0.0-164.0","57dd1a741334540001170404","6213d14f6c3b0d3c7c9609be","4","","","","","1","1"
"null","","","null","","","","html-keyboard-response","165","544244","0.0-165.0","57dd1a741334540001170404","6213d14f6c3b0d3c7c9609be","","","","","<p style=""color:darkgreen;font-size:24px;"">Correct :)</p>","",""
"2576","key","v","v","16.683331168831216","500","250","psychophysics","166","546822","0.0-166.0","57dd1a741334540001170404","6213d14f6c3b0d3c7c9609be","4","","","","","1","2"
"null","","","null","","","","html-keyboard-response","167","547324","0.0-167.0","57dd1a741334540001170404","6213d14f6c3b0d3c7c9609be","","","","","<p style=""color:darkgreen;font-size:24px;"">Correct :)</p>","",""
"2529","key","v","v","16.683264900662703","500","250","psychophysics","168","549856","0.0-168.0","57dd1a741334540001170404","6213d14f6c3b0d3c7c9609be","4","","","","","1","1"
"null","","","null","","","","html-keyboard-response","169","550357","0.0-169.0","57dd1a741334540001170404","6213d14f6c3b0d3c7c9609be","","","","","<p style=""color:darkgreen;font-size:24px;"">Correct :)</p>","",""
"2787","key","n","n","16.683281437125792","500","250","psychophysics","170","553147","0.0-170.0","57dd1a741334540001170404","6213d14f6c3b0d3c7c9609be","4","","","","","1","6"
"null","","","null","","","","html-keyboard-response","171","553648","0.0-171.0","57dd1a741334540001170404","6213d14f6c3b0d3c7c9609be","","","","","<p style=""color:darkgreen;font-size:24px;"">Correct :)</p>","",""
"3048","key","n","n","16.68319230769175","500","250","psychophysics","172","556698","0.0-172.0","57dd1a741334540001170404","6213d14f6c3b0d3c7c9609be","4","","","","","1","8"
"null","","","null","","","","html-keyboard-response","173","557200","0.0-173.0","57dd1a741334540001170404","6213d14f6c3b0d3c7c9609be","","","","","<p style=""color:darkgreen;font-size:24px;"">Correct :)</p>","",""
"3091","key","n","n","16.683349462365605","500","250","psychophysics","174","560295","0.0-174.0","57dd1a741334540001170404","6213d14f6c3b0d3c7c9609be","4","","","","","1","7"
"null","","","null","","","","html-keyboard-response","175","560796","0.0-175.0","57dd1a741334540001170404","6213d14f6c3b0d3c7c9609be","","","","","<p style=""color:darkgreen;font-size:24px;"">Correct :)</p>","",""
"2626","key","v","v","16.683392405063444","500","250","psychophysics","176","563425","0.0-176.0","57dd1a741334540001170404","6213d14f6c3b0d3c7c9609be","4","","","","","1","3"
"null","","","null","","","","html-keyboard-response","177","563926","0.0-177.0","57dd1a741334540001170404","6213d14f6c3b0d3c7c9609be","","","","","<p style=""color:darkgreen;font-size:24px;"">Correct :)</p>","",""
"2474","key","v","v","16.683398648648133","500","250","psychophysics","178","566403","0.0-178.0","57dd1a741334540001170404","6213d14f6c3b0d3c7c9609be","4","","","","","1","1"
"null","","","null","","","","html-keyboard-response","179","566905","0.0-179.0","57dd1a741334540001170404","6213d14f6c3b0d3c7c9609be","","","","","<p style=""color:darkgreen;font-size:24px;"">Correct :)</p>","",""
"2566","key","n","n","16.68319480519518","500","250","psychophysics","180","569473","0.0-180.0","57dd1a741334540001170404","6213d14f6c3b0d3c7c9609be","4","","","","","1","7"
"null","","","null","","","","html-keyboard-response","181","569975","0.0-181.0","57dd1a741334540001170404","6213d14f6c3b0d3c7c9609be","","","","","<p style=""color:darkgreen;font-size:24px;"">Correct :)</p>","",""
"2590","key","v","v","16.68328205128245","500","250","psychophysics","182","572567","0.0-182.0","57dd1a741334540001170404","6213d14f6c3b0d3c7c9609be","4","","","","","1","2"
"null","","","null","","","","html-keyboard-response","183","573068","0.0-183.0","57dd1a741334540001170404","6213d14f6c3b0d3c7c9609be","","","","","<p style=""color:darkgreen;font-size:24px;"">Correct :)</p>","",""
"2610","key","v","v","16.683185897436207","500","250","psychophysics","184","575681","0.0-184.0","57dd1a741334540001170404","6213d14f6c3b0d3c7c9609be","4","","","","","1","2"
"null","","","null","","","","html-keyboard-response","185","576183","0.0-185.0","57dd1a741334540001170404","6213d14f6c3b0d3c7c9609be","","","","","<p style=""color:darkgreen;font-size:24px;"">Correct :)</p>","",""
"2867","key","v","v","16.683404624277074","500","250","psychophysics","186","579059","0.0-186.0","57dd1a741334540001170404","6213d14f6c3b0d3c7c9609be","4","","","","","1","4"
"null","","","null","","","","html-keyboard-response","187","579561","0.0-187.0","57dd1a741334540001170404","6213d14f6c3b0d3c7c9609be","","","","","<p style=""color:darkgreen;font-size:24px;"">Correct :)</p>","",""
"2647","key","n","n","16.683371069182133","500","250","psychophysics","188","582210","0.0-188.0","57dd1a741334540001170404","6213d14f6c3b0d3c7c9609be","4","","","","","1","9"
"null","","","null","","","","html-keyboard-response","189","582711","0.0-189.0","57dd1a741334540001170404","6213d14f6c3b0d3c7c9609be","","","","","<p style=""color:darkgreen;font-size:24px;"">Correct :)</p>","",""
"2768","key","v","v","16.683271084337758","500","250","psychophysics","190","585482","0.0-190.0","57dd1a741334540001170404","6213d14f6c3b0d3c7c9609be","4","","","","","1","2"
"null","","","null","","","","html-keyboard-response","191","585983","0.0-191.0","57dd1a741334540001170404","6213d14f6c3b0d3c7c9609be","","","","","<p style=""color:darkgreen;font-size:24px;"">Correct :)</p>","",""
"2699","key","v","v","16.683290123456604","500","250","psychophysics","192","588684","0.0-192.0","57dd1a741334540001170404","6213d14f6c3b0d3c7c9609be","4","","","","","1","4"
"null","","","null","","","","html-keyboard-response","193","589186","0.0-193.0","57dd1a741334540001170404","6213d14f6c3b0d3c7c9609be","","","","","<p style=""color:darkgreen;font-size:24px;"">Correct :)</p>","",""
"9472","","","v","","","","html-keyboard-response","194","598659","0.0-194.0","57dd1a741334540001170404","6213d14f6c3b0d3c7c9609be","","","","","<p> Ok, now we are going present the same digits as before.  Your job is to say whether the digit is even or odd  If the digit is odd, press to v key; if it is even, press the n key. We are going to do 50 of these.  </p>  <br><br>  Ready? (press v or n)","",""
"2727","key","n","n","16.684055214724218","500","250","psychophysics","195","601390","0.0-195.0","57dd1a741334540001170404","6213d14f6c3b0d3c7c9609be","5","","","","","0","6"
"null","","","null","","","","html-keyboard-response","196","601891","0.0-196.0","57dd1a741334540001170404","6213d14f6c3b0d3c7c9609be","","","","","<p style=""color:darkgreen;font-size:24px;"">Correct :)</p>","",""
"3160","key","n","n","16.683205263157937","500","250","psychophysics","197","605054","0.0-197.0","57dd1a741334540001170404","6213d14f6c3b0d3c7c9609be","5","","","","","0","2"
"null","","","null","","","","html-keyboard-response","198","605555","0.0-198.0","57dd1a741334540001170404","6213d14f6c3b0d3c7c9609be","","","","","<p style=""color:darkgreen;font-size:24px;"">Correct :)</p>","",""
"2595","key","v","v","16.683455128204795","500","250","psychophysics","199","608152","0.0-199.0","57dd1a741334540001170404","6213d14f6c3b0d3c7c9609be","5","","","","","0","7"
"null","","","null","","","","html-keyboard-response","200","608655","0.0-200.0","57dd1a741334540001170404","6213d14f6c3b0d3c7c9609be","","","","","<p style=""color:darkgreen;font-size:24px;"">Correct :)</p>","",""
"2587","key","v","v","16.683277419354436","500","250","psychophysics","201","611245","0.0-201.0","57dd1a741334540001170404","6213d14f6c3b0d3c7c9609be","5","","","","","0","1"
"null","","","null","","","","html-keyboard-response","202","611746","0.0-202.0","57dd1a741334540001170404","6213d14f6c3b0d3c7c9609be","","","","","<p style=""color:darkgreen;font-size:24px;"">Correct :)</p>","",""
"2697","key","n","n","16.683104938271967","500","250","psychophysics","203","614445","0.0-203.0","57dd1a741334540001170404","6213d14f6c3b0d3c7c9609be","5","","","","","0","4"
"null","","","null","","","","html-keyboard-response","204","614947","0.0-204.0","57dd1a741334540001170404","6213d14f6c3b0d3c7c9609be","","","","","<p style=""color:darkgreen;font-size:24px;"">Correct :)</p>","",""
"2893","key","v","v","16.683206896551873","500","250","psychophysics","205","617850","0.0-205.0","57dd1a741334540001170404","6213d14f6c3b0d3c7c9609be","5","","","","","0","7"
"null","","","null","","","","html-keyboard-response","206","618351","0.0-206.0","57dd1a741334540001170404","6213d14f6c3b0d3c7c9609be","","","","","<p style=""color:darkgreen;font-size:24px;"">Correct :)</p>","",""
"2718","key","n","n","16.68331901840523","500","250","psychophysics","207","621072","0.0-207.0","57dd1a741334540001170404","6213d14f6c3b0d3c7c9609be","5","","","","","0","7"
"null","","","null","","","","html-keyboard-response","208","621573","0.0-208.0","57dd1a741334540001170404","6213d14f6c3b0d3c7c9609be","","","","","<p style=""color:red;font-size:24px;"">Error :(</p>","",""
"3165","key","n","n","16.68338421052628","500","250","psychophysics","209","624740","0.0-209.0","57dd1a741334540001170404","6213d14f6c3b0d3c7c9609be","5","","","","","0","8"
"null","","","null","","","","html-keyboard-response","210","625242","0.0-210.0","57dd1a741334540001170404","6213d14f6c3b0d3c7c9609be","","","","","<p style=""color:darkgreen;font-size:24px;"">Correct :)</p>","",""
"2535","key","v","v","16.683355263157864","500","250","psychophysics","211","627780","0.0-211.0","57dd1a741334540001170404","6213d14f6c3b0d3c7c9609be","5","","","","","0","3"
"null","","","null","","","","html-keyboard-response","212","628281","0.0-212.0","57dd1a741334540001170404","6213d14f6c3b0d3c7c9609be","","","","","<p style=""color:darkgreen;font-size:24px;"">Correct :)</p>","",""
"2514","key","n","n","16.683377483444108","500","250","psychophysics","213","630798","0.0-213.0","57dd1a741334540001170404","6213d14f6c3b0d3c7c9609be","5","","","","","0","8"
"null","","","null","","","","html-keyboard-response","214","631299","0.0-214.0","57dd1a741334540001170404","6213d14f6c3b0d3c7c9609be","","","","","<p style=""color:darkgreen;font-size:24px;"">Correct :)</p>","",""
"2671","key","v","v","16.683306250000168","500","250","psychophysics","215","633972","0.0-215.0","57dd1a741334540001170404","6213d14f6c3b0d3c7c9609be","5","","","","","0","3"
"null","","","null","","","","html-keyboard-response","216","634474","0.0-216.0","57dd1a741334540001170404","6213d14f6c3b0d3c7c9609be","","","","","<p style=""color:darkgreen;font-size:24px;"">Correct :)</p>","",""
"2673","key","n","n","16.683335403726662","500","250","psychophysics","217","637149","0.0-217.0","57dd1a741334540001170404","6213d14f6c3b0d3c7c9609be","5","","","","","0","4"
"null","","","null","","","","html-keyboard-response","218","637650","0.0-218.0","57dd1a741334540001170404","6213d14f6c3b0d3c7c9609be","","","","","<p style=""color:darkgreen;font-size:24px;"">Correct :)</p>","",""
"3042","key","v","v","16.683098901099022","500","250","psychophysics","219","640696","0.0-219.0","57dd1a741334540001170404","6213d14f6c3b0d3c7c9609be","5","","","","","0","4"
"null","","","null","","","","html-keyboard-response","220","641197","0.0-220.0","57dd1a741334540001170404","6213d14f6c3b0d3c7c9609be","","","","","<p style=""color:red;font-size:24px;"">Error :(</p>","",""
"2762","key","v","v","16.683333333333334","500","250","psychophysics","221","643961","0.0-221.0","57dd1a741334540001170404","6213d14f6c3b0d3c7c9609be","5","","","","","0","2"
"null","","","null","","","","html-keyboard-response","222","644462","0.0-222.0","57dd1a741334540001170404","6213d14f6c3b0d3c7c9609be","","","","","<p style=""color:red;font-size:24px;"">Error :(</p>","",""
"2532","key","n","n","16.6832960526318","500","250","psychophysics","223","646996","0.0-223.0","57dd1a741334540001170404","6213d14f6c3b0d3c7c9609be","5","","","","","0","8"
"null","","","null","","","","html-keyboard-response","224","647497","0.0-224.0","57dd1a741334540001170404","6213d14f6c3b0d3c7c9609be","","","","","<p style=""color:darkgreen;font-size:24px;"">Correct :)</p>","",""
"2678","key","n","n","16.683385093167846","500","250","psychophysics","225","650178","0.0-225.0","57dd1a741334540001170404","6213d14f6c3b0d3c7c9609be","5","","","","","0","2"
"null","","","null","","","","html-keyboard-response","226","650679","0.0-226.0","57dd1a741334540001170404","6213d14f6c3b0d3c7c9609be","","","","","<p style=""color:darkgreen;font-size:24px;"">Correct :)</p>","",""
"2562","key","n","n","16.68336601307223","500","250","psychophysics","227","653244","0.0-227.0","57dd1a741334540001170404","6213d14f6c3b0d3c7c9609be","5","","","","","0","6"
"null","","","null","","","","html-keyboard-response","228","653745","0.0-228.0","57dd1a741334540001170404","6213d14f6c3b0d3c7c9609be","","","","","<p style=""color:darkgreen;font-size:24px;"">Correct :)</p>","",""
"2703","key","v","v","16.683239263803785","500","250","psychophysics","229","656451","0.0-229.0","57dd1a741334540001170404","6213d14f6c3b0d3c7c9609be","5","","","","","0","1"
"null","","","null","","","","html-keyboard-response","230","656953","0.0-230.0","57dd1a741334540001170404","6213d14f6c3b0d3c7c9609be","","","","","<p style=""color:darkgreen;font-size:24px;"">Correct :)</p>","",""
"3183","key","v","v","16.68331413612584","500","250","psychophysics","231","660138","0.0-231.0","57dd1a741334540001170404","6213d14f6c3b0d3c7c9609be","5","","","","","0","7"
"null","","","null","","","","html-keyboard-response","232","660639","0.0-232.0","57dd1a741334540001170404","6213d14f6c3b0d3c7c9609be","","","","","<p style=""color:darkgreen;font-size:24px;"">Correct :)</p>","",""
"2874","key","v","v","16.683232558139217","500","250","psychophysics","233","663516","0.0-233.0","57dd1a741334540001170404","6213d14f6c3b0d3c7c9609be","5","","","","","0","3"
"null","","","null","","","","html-keyboard-response","234","664017","0.0-234.0","57dd1a741334540001170404","6213d14f6c3b0d3c7c9609be","","","","","<p style=""color:darkgreen;font-size:24px;"">Correct :)</p>","",""
"2851","key","v","v","16.68346198830394","500","250","psychophysics","235","666872","0.0-235.0","57dd1a741334540001170404","6213d14f6c3b0d3c7c9609be","5","","","","","0","7"
"null","","","null","","","","html-keyboard-response","236","667373","0.0-236.0","57dd1a741334540001170404","6213d14f6c3b0d3c7c9609be","","","","","<p style=""color:darkgreen;font-size:24px;"">Correct :)</p>","",""
"2937","key","v","v","16.68334659090959","500","250","psychophysics","237","670311","0.0-237.0","57dd1a741334540001170404","6213d14f6c3b0d3c7c9609be","5","","","","","0","9"
"null","","","null","","","","html-keyboard-response","238","670813","0.0-238.0","57dd1a741334540001170404","6213d14f6c3b0d3c7c9609be","","","","","<p style=""color:darkgreen;font-size:24px;"">Correct :)</p>","",""
"2744","key","v","v","16.683359756097538","500","250","psychophysics","239","673560","0.0-239.0","57dd1a741334540001170404","6213d14f6c3b0d3c7c9609be","5","","","","","0","7"
"null","","","null","","","","html-keyboard-response","240","674061","0.0-240.0","57dd1a741334540001170404","6213d14f6c3b0d3c7c9609be","","","","","<p style=""color:darkgreen;font-size:24px;"">Correct :)</p>","",""
"2926","key","v","v","16.683306818181748","500","250","psychophysics","241","676989","0.0-241.0","57dd1a741334540001170404","6213d14f6c3b0d3c7c9609be","5","","","","","0","3"
"null","","","null","","","","html-keyboard-response","242","677490","0.0-242.0","57dd1a741334540001170404","6213d14f6c3b0d3c7c9609be","","","","","<p style=""color:darkgreen;font-size:24px;"">Correct :)</p>","",""
"2734","key","v","v","16.68312804878011","500","250","psychophysics","243","680227","0.0-243.0","57dd1a741334540001170404","6213d14f6c3b0d3c7c9609be","5","","","","","0","1"
"null","","","null","","","","html-keyboard-response","244","680729","0.0-244.0","57dd1a741334540001170404","6213d14f6c3b0d3c7c9609be","","","","","<p style=""color:darkgreen;font-size:24px;"">Correct :)</p>","",""
"2788","key","n","n","16.68316167664664","500","250","psychophysics","245","683519","0.0-245.0","57dd1a741334540001170404","6213d14f6c3b0d3c7c9609be","5","","","","","0","4"
"null","","","null","","","","html-keyboard-response","246","684021","0.0-246.0","57dd1a741334540001170404","6213d14f6c3b0d3c7c9609be","","","","","<p style=""color:darkgreen;font-size:24px;"">Correct :)</p>","",""
"3755","key","n","n","16.683288888888846","500","250","psychophysics","247","687778","0.0-247.0","57dd1a741334540001170404","6213d14f6c3b0d3c7c9609be","5","","","","","0","8"
"null","","","null","","","","html-keyboard-response","248","688279","0.0-248.0","57dd1a741334540001170404","6213d14f6c3b0d3c7c9609be","","","","","<p style=""color:darkgreen;font-size:24px;"">Correct :)</p>","",""
"3669","key","n","n","16.683280542986445","500","250","psychophysics","249","691952","0.0-249.0","57dd1a741334540001170404","6213d14f6c3b0d3c7c9609be","5","","","","","0","4"
"null","","","null","","","","html-keyboard-response","250","692453","0.0-250.0","57dd1a741334540001170404","6213d14f6c3b0d3c7c9609be","","","","","<p style=""color:darkgreen;font-size:24px;"">Correct :)</p>","",""
"2847","key","v","v","16.68337647058823","500","250","psychophysics","251","695302","0.0-251.0","57dd1a741334540001170404","6213d14f6c3b0d3c7c9609be","5","","","","","0","9"
"null","","","null","","","","html-keyboard-response","252","695803","0.0-252.0","57dd1a741334540001170404","6213d14f6c3b0d3c7c9609be","","","","","<p style=""color:darkgreen;font-size:24px;"">Correct :)</p>","",""
"84663","key","v","v","16.683246305418713","500","250","psychophysics","253","780471","0.0-253.0","57dd1a741334540001170404","6213d14f6c3b0d3c7c9609be","5","","","","","0","9"
"null","","","null","","","","html-keyboard-response","254","780972","0.0-254.0","57dd1a741334540001170404","6213d14f6c3b0d3c7c9609be","","","","","<p style=""color:darkgreen;font-size:24px;"">Correct :)</p>","",""
"3032","key","v","v","16.68332967032988","500","250","psychophysics","255","784008","0.0-255.0","57dd1a741334540001170404","6213d14f6c3b0d3c7c9609be","5","","","","","0","7"
"null","","","null","","","","html-keyboard-response","256","784509","0.0-256.0","57dd1a741334540001170404","6213d14f6c3b0d3c7c9609be","","","","","<p style=""color:darkgreen;font-size:24px;"">Correct :)</p>","",""
"2860","key","v","v","16.683244186046746","500","250","psychophysics","257","787372","0.0-257.0","57dd1a741334540001170404","6213d14f6c3b0d3c7c9609be","5","","","","","0","9"
"null","","","null","","","","html-keyboard-response","258","787873","0.0-258.0","57dd1a741334540001170404","6213d14f6c3b0d3c7c9609be","","","","","<p style=""color:darkgreen;font-size:24px;"">Correct :)</p>","",""
"2795","key","n","n","16.683357142857165","500","250","psychophysics","259","790671","0.0-259.0","57dd1a741334540001170404","6213d14f6c3b0d3c7c9609be","5","","","","","0","6"
"null","","","null","","","","html-keyboard-response","260","791177","0.0-260.0","57dd1a741334540001170404","6213d14f6c3b0d3c7c9609be","","","","","<p style=""color:darkgreen;font-size:24px;"">Correct :)</p>","",""
"2954","key","n","n","16.683276836157876","500","250","psychophysics","261","794133","0.0-261.0","57dd1a741334540001170404","6213d14f6c3b0d3c7c9609be","5","","","","","0","6"
"null","","","null","","","","html-keyboard-response","262","794634","0.0-262.0","57dd1a741334540001170404","6213d14f6c3b0d3c7c9609be","","","","","<p style=""color:darkgreen;font-size:24px;"">Correct :)</p>","",""
"2808","key","v","v","16.683177514792526","500","250","psychophysics","263","797445","0.0-263.0","57dd1a741334540001170404","6213d14f6c3b0d3c7c9609be","5","","","","","0","1"
"null","","","null","","","","html-keyboard-response","264","797946","0.0-264.0","57dd1a741334540001170404","6213d14f6c3b0d3c7c9609be","","","","","<p style=""color:darkgreen;font-size:24px;"">Correct :)</p>","",""
"2746","key","v","v","16.683375757575657","500","250","psychophysics","265","800694","0.0-265.0","57dd1a741334540001170404","6213d14f6c3b0d3c7c9609be","5","","","","","0","7"
"null","","","null","","","","html-keyboard-response","266","801195","0.0-266.0","57dd1a741334540001170404","6213d14f6c3b0d3c7c9609be","","","","","<p style=""color:darkgreen;font-size:24px;"">Correct :)</p>","",""
"2924","key","n","n","16.68327428571414","500","250","psychophysics","267","804122","0.0-267.0","57dd1a741334540001170404","6213d14f6c3b0d3c7c9609be","5","","","","","0","2"
"null","","","null","","","","html-keyboard-response","268","804623","0.0-268.0","57dd1a741334540001170404","6213d14f6c3b0d3c7c9609be","","","","","<p style=""color:darkgreen;font-size:24px;"">Correct :)</p>","",""
"2982","key","n","n","16.68322905027906","500","250","psychophysics","269","807607","0.0-269.0","57dd1a741334540001170404","6213d14f6c3b0d3c7c9609be","5","","","","","0","2"
"null","","","null","","","","html-keyboard-response","270","808109","0.0-270.0","57dd1a741334540001170404","6213d14f6c3b0d3c7c9609be","","","","","<p style=""color:darkgreen;font-size:24px;"">Correct :)</p>","",""
"4053","key","v","v","16.68323868312758","500","250","psychophysics","271","812164","0.0-271.0","57dd1a741334540001170404","6213d14f6c3b0d3c7c9609be","5","","","","","0","3"
"null","","","null","","","","html-keyboard-response","272","812666","0.0-272.0","57dd1a741334540001170404","6213d14f6c3b0d3c7c9609be","","","","","<p style=""color:darkgreen;font-size:24px;"">Correct :)</p>","",""
"2731","key","v","v","16.68340853658553","500","250","psychophysics","273","815399","0.0-273.0","57dd1a741334540001170404","6213d14f6c3b0d3c7c9609be","5","","","","","0","1"
"null","","","null","","","","html-keyboard-response","274","815901","0.0-274.0","57dd1a741334540001170404","6213d14f6c3b0d3c7c9609be","","","","","<p style=""color:darkgreen;font-size:24px;"">Correct :)</p>","",""
"2690","key","v","v","16.683534161490677","500","250","psychophysics","275","818593","0.0-275.0","57dd1a741334540001170404","6213d14f6c3b0d3c7c9609be","5","","","","","0","9"
"null","","","null","","","","html-keyboard-response","276","819095","0.0-276.0","57dd1a741334540001170404","6213d14f6c3b0d3c7c9609be","","","","","<p style=""color:darkgreen;font-size:24px;"">Correct :)</p>","",""
"2803","key","v","v","16.68327380952403","500","250","psychophysics","277","821900","0.0-277.0","57dd1a741334540001170404","6213d14f6c3b0d3c7c9609be","5","","","","","0","7"
"null","","","null","","","","html-keyboard-response","278","822401","0.0-278.0","57dd1a741334540001170404","6213d14f6c3b0d3c7c9609be","","","","","<p style=""color:darkgreen;font-size:24px;"">Correct :)</p>","",""
"95380","key","n","n","16.68324435892951","500","250","psychophysics","279","917783","0.0-279.0","57dd1a741334540001170404","6213d14f6c3b0d3c7c9609be","5","","","","","0","8"
"null","","","null","","","","html-keyboard-response","280","918284","0.0-280.0","57dd1a741334540001170404","6213d14f6c3b0d3c7c9609be","","","","","<p style=""color:darkgreen;font-size:24px;"">Correct :)</p>","",""
"2861","key","v","v","16.683290697674153","500","250","psychophysics","281","921147","0.0-281.0","57dd1a741334540001170404","6213d14f6c3b0d3c7c9609be","5","","","","","0","7"
"null","","","null","","","","html-keyboard-response","282","921648","0.0-282.0","57dd1a741334540001170404","6213d14f6c3b0d3c7c9609be","","","","","<p style=""color:darkgreen;font-size:24px;"">Correct :)</p>","",""
"3424","key","n","n","16.683404878048773","500","250","psychophysics","283","925075","0.0-283.0","57dd1a741334540001170404","6213d14f6c3b0d3c7c9609be","5","","","","","0","6"
"null","","","null","","","","html-keyboard-response","284","925576","0.0-284.0","57dd1a741334540001170404","6213d14f6c3b0d3c7c9609be","","","","","<p style=""color:darkgreen;font-size:24px;"">Correct :)</p>","",""
"3774","key","n","n","16.683345132743305","500","250","psychophysics","285","929352","0.0-285.0","57dd1a741334540001170404","6213d14f6c3b0d3c7c9609be","5","","","","","0","4"
"null","","","null","","","","html-keyboard-response","286","929853","0.0-286.0","57dd1a741334540001170404","6213d14f6c3b0d3c7c9609be","","","","","<p style=""color:darkgreen;font-size:24px;"">Correct :)</p>","",""
"3111","key","n","n","16.772989247311582","500","250","psychophysics","287","932967","0.0-287.0","57dd1a741334540001170404","6213d14f6c3b0d3c7c9609be","5","","","","","0","8"
"null","","","null","","","","html-keyboard-response","288","933468","0.0-288.0","57dd1a741334540001170404","6213d14f6c3b0d3c7c9609be","","","","","<p style=""color:darkgreen;font-size:24px;"">Correct :)</p>","",""
"11026","key","n","n","16.68329652042358","500","250","psychophysics","289","944496","0.0-289.0","57dd1a741334540001170404","6213d14f6c3b0d3c7c9609be","5","","","","","0","6"
"null","","","null","","","","html-keyboard-response","290","944997","0.0-290.0","57dd1a741334540001170404","6213d14f6c3b0d3c7c9609be","","","","","<p style=""color:darkgreen;font-size:24px;"">Correct :)</p>","",""
"3494","key","v","v","16.68333809523777","500","250","psychophysics","291","948494","0.0-291.0","57dd1a741334540001170404","6213d14f6c3b0d3c7c9609be","5","","","","","0","9"
"null","","","null","","","","html-keyboard-response","292","948995","0.0-292.0","57dd1a741334540001170404","6213d14f6c3b0d3c7c9609be","","","","","<p style=""color:darkgreen;font-size:24px;"">Correct :)</p>","",""
"6455","key","v","v","16.683162790697576","500","250","psychophysics","293","955452","0.0-293.0","57dd1a741334540001170404","6213d14f6c3b0d3c7c9609be","5","","","","","0","3"
"null","","","null","","","","html-keyboard-response","294","955953","0.0-294.0","57dd1a741334540001170404","6213d14f6c3b0d3c7c9609be","","","","","<p style=""color:darkgreen;font-size:24px;"">Correct :)</p>","",""
"5688","","","v","","","","html-keyboard-response","295","961641","0.0-295.0","57dd1a741334540001170404","6213d14f6c3b0d3c7c9609be","","","","","<p> Here, the tasks are going to switch.  For some trials, your job is to decide if the digit is less than or greater than 5.  For others, it is to decide if the digit is even or odd.  You will be told which type of trial the current one is.  But, pay attention, the type of trial changes too.  We are going to do 50 of these.  </p>  <br><br>  Ready? (press v or n)","",""
"3515","key","n","n","16.683654028435694","500","250","psychophysics","296","965159","0.0-296.0","57dd1a741334540001170404","6213d14f6c3b0d3c7c9609be","6","","","","","0","8"
"null","","","null","","","","html-keyboard-response","297","965660","0.0-297.0","57dd1a741334540001170404","6213d14f6c3b0d3c7c9609be","","","","","<p style=""color:darkgreen;font-size:24px;"">Correct :)</p>","",""
"2711","key","v","v","16.683419753086643","500","250","psychophysics","298","968374","0.0-298.0","57dd1a741334540001170404","6213d14f6c3b0d3c7c9609be","6","","","","","1","1"
"null","","","null","","","","html-keyboard-response","299","968875","0.0-299.0","57dd1a741334540001170404","6213d14f6c3b0d3c7c9609be","","","","","<p style=""color:darkgreen;font-size:24px;"">Correct :)</p>","",""
"3286","key","n","n","16.68344162436507","500","250","psychophysics","300","972165","0.0-300.0","57dd1a741334540001170404","6213d14f6c3b0d3c7c9609be","6","","","","","1","6"
"null","","","null","","","","html-keyboard-response","301","972667","0.0-301.0","57dd1a741334540001170404","6213d14f6c3b0d3c7c9609be","","","","","<p style=""color:darkgreen;font-size:24px;"">Correct :)</p>","",""
"2770","key","v","v","16.683313253011654","500","250","psychophysics","302","975439","0.0-302.0","57dd1a741334540001170404","6213d14f6c3b0d3c7c9609be","6","","","","","0","7"
"null","","","null","","","","html-keyboard-response","303","975940","0.0-303.0","57dd1a741334540001170404","6213d14f6c3b0d3c7c9609be","","","","","<p style=""color:darkgreen;font-size:24px;"">Correct :)</p>","",""
"2717","key","v","v","16.683300613497092","500","250","psychophysics","304","978660","0.0-304.0","57dd1a741334540001170404","6213d14f6c3b0d3c7c9609be","6","","","","","1","1"
"null","","","null","","","","html-keyboard-response","305","979161","0.0-305.0","57dd1a741334540001170404","6213d14f6c3b0d3c7c9609be","","","","","<p style=""color:darkgreen;font-size:24px;"">Correct :)</p>","",""
"2485","key","v","v","16.683261744966323","500","250","psychophysics","306","981649","0.0-306.0","57dd1a741334540001170404","6213d14f6c3b0d3c7c9609be","6","","","","","1","4"
"null","","","null","","","","html-keyboard-response","307","982150","0.0-307.0","57dd1a741334540001170404","6213d14f6c3b0d3c7c9609be","","","","","<p style=""color:darkgreen;font-size:24px;"">Correct :)</p>","",""
"3790","key","n","n","16.68338325991201","500","250","psychophysics","308","985943","0.0-308.0","57dd1a741334540001170404","6213d14f6c3b0d3c7c9609be","6","","","","","0","4"
"null","","","null","","","","html-keyboard-response","309","986444","0.0-309.0","57dd1a741334540001170404","6213d14f6c3b0d3c7c9609be","","","","","<p style=""color:darkgreen;font-size:24px;"">Correct :)</p>","",""
"3133","key","n","n","16.68335294117653","500","250","psychophysics","310","989579","0.0-310.0","57dd1a741334540001170404","6213d14f6c3b0d3c7c9609be","6","","","","","0","8"
"null","","","null","","","","html-keyboard-response","311","990081","0.0-311.0","57dd1a741334540001170404","6213d14f6c3b0d3c7c9609be","","","","","<p style=""color:darkgreen;font-size:24px;"">Correct :)</p>","",""
"3154","key","v","v","16.683343915343926","500","250","psychophysics","312","993238","0.0-312.0","57dd1a741334540001170404","6213d14f6c3b0d3c7c9609be","6","","","","","0","1"
"null","","","null","","","","html-keyboard-response","313","993739","0.0-313.0","57dd1a741334540001170404","6213d14f6c3b0d3c7c9609be","","","","","<p style=""color:darkgreen;font-size:24px;"">Correct :)</p>","",""
"3555","key","v","v","16.683300469483317","500","250","psychophysics","314","997297","0.0-314.0","57dd1a741334540001170404","6213d14f6c3b0d3c7c9609be","6","","","","","1","2"
"null","","","null","","","","html-keyboard-response","315","997798","0.0-315.0","57dd1a741334540001170404","6213d14f6c3b0d3c7c9609be","","","","","<p style=""color:darkgreen;font-size:24px;"">Correct :)</p>","",""
"63138","key","v","v","16.683249405548228","500","250","psychophysics","316","1060939","0.0-316.0","57dd1a741334540001170404","6213d14f6c3b0d3c7c9609be","6","","","","","1","2"
"null","","","null","","","","html-keyboard-response","317","1061440","0.0-317.0","57dd1a741334540001170404","6213d14f6c3b0d3c7c9609be","","","","","<p style=""color:darkgreen;font-size:24px;"">Correct :)</p>","",""
"2701","key","v","v","16.683327160493967","500","250","psychophysics","318","1064143","0.0-318.0","57dd1a741334540001170404","6213d14f6c3b0d3c7c9609be","6","","","","","1","2"
"null","","","null","","","","html-keyboard-response","319","1064644","0.0-319.0","57dd1a741334540001170404","6213d14f6c3b0d3c7c9609be","","","","","<p style=""color:darkgreen;font-size:24px;"">Correct :)</p>","",""
"3635","key","v","v","16.683302752293407","500","250","psychophysics","320","1068281","0.0-320.0","57dd1a741334540001170404","6213d14f6c3b0d3c7c9609be","6","","","","","0","3"
"null","","","null","","","","html-keyboard-response","321","1068784","0.0-321.0","57dd1a741334540001170404","6213d14f6c3b0d3c7c9609be","","","","","<p style=""color:darkgreen;font-size:24px;"">Correct :)</p>","",""
"90902","key","v","v","16.6832464672417","500","250","psychophysics","322","1159687","0.0-322.0","57dd1a741334540001170404","6213d14f6c3b0d3c7c9609be","6","","","","","1","4"
"null","","","null","","","","html-keyboard-response","323","1160188","0.0-323.0","57dd1a741334540001170404","6213d14f6c3b0d3c7c9609be","","","","","<p style=""color:darkgreen;font-size:24px;"">Correct :)</p>","",""
"48632","key","v","v","16.683248370497424","500","250","psychophysics","324","1208823","0.0-324.0","57dd1a741334540001170404","6213d14f6c3b0d3c7c9609be","6","","","","","0","1"
"null","","","null","","","","html-keyboard-response","325","1209325","0.0-325.0","57dd1a741334540001170404","6213d14f6c3b0d3c7c9609be","","","","","<p style=""color:darkgreen;font-size:24px;"">Correct :)</p>","",""
"2982","key","n","n","16.683100558658698","500","250","psychophysics","326","1212309","0.0-326.0","57dd1a741334540001170404","6213d14f6c3b0d3c7c9609be","6","","","","","1","7"
"null","","","null","","","","html-keyboard-response","327","1212810","0.0-327.0","57dd1a741334540001170404","6213d14f6c3b0d3c7c9609be","","","","","<p style=""color:darkgreen;font-size:24px;"">Correct :)</p>","",""
"3098","key","n","n","16.683344086022515","500","250","psychophysics","328","1215911","0.0-328.0","57dd1a741334540001170404","6213d14f6c3b0d3c7c9609be","6","","","","","0","8"
"null","","","null","","","","html-keyboard-response","329","1216411","0.0-329.0","57dd1a741334540001170404","6213d14f6c3b0d3c7c9609be","","","","","<p style=""color:darkgreen;font-size:24px;"">Correct :)</p>","",""
"5612","key","v","v","16.683190476190205","500","250","psychophysics","330","1222025","0.0-330.0","57dd1a741334540001170404","6213d14f6c3b0d3c7c9609be","6","","","","","0","1"
"null","","","null","","","","html-keyboard-response","331","1222528","0.0-331.0","57dd1a741334540001170404","6213d14f6c3b0d3c7c9609be","","","","","<p style=""color:darkgreen;font-size:24px;"">Correct :)</p>","",""
"3245","key","v","v","16.683154639175893","500","250","psychophysics","332","1225776","0.0-332.0","57dd1a741334540001170404","6213d14f6c3b0d3c7c9609be","6","","","","","1","2"
"null","","","null","","","","html-keyboard-response","333","1226277","0.0-333.0","57dd1a741334540001170404","6213d14f6c3b0d3c7c9609be","","","","","<p style=""color:darkgreen;font-size:24px;"">Correct :)</p>","",""
"3015","key","v","v","16.683171270718766","500","250","psychophysics","334","1229294","0.0-334.0","57dd1a741334540001170404","6213d14f6c3b0d3c7c9609be","6","","","","","0","7"
"null","","","null","","","","html-keyboard-response","335","1229797","0.0-335.0","57dd1a741334540001170404","6213d14f6c3b0d3c7c9609be","","","","","<p style=""color:darkgreen;font-size:24px;"">Correct :)</p>","",""
"2916","key","n","n","16.683262857142836","500","250","psychophysics","336","1232715","0.0-336.0","57dd1a741334540001170404","6213d14f6c3b0d3c7c9609be","6","","","","","1","9"
"null","","","null","","","","html-keyboard-response","337","1233216","0.0-337.0","57dd1a741334540001170404","6213d14f6c3b0d3c7c9609be","","","","","<p style=""color:darkgreen;font-size:24px;"">Correct :)</p>","",""
"2826","key","n","n","16.683317647059447","500","250","psychophysics","338","1236045","0.0-338.0","57dd1a741334540001170404","6213d14f6c3b0d3c7c9609be","6","","","","","1","9"
"null","","","null","","","","html-keyboard-response","339","1236546","0.0-339.0","57dd1a741334540001170404","6213d14f6c3b0d3c7c9609be","","","","","<p style=""color:darkgreen;font-size:24px;"">Correct :)</p>","",""
"3254","key","v","v","16.683282051282003","500","250","psychophysics","340","1239803","0.0-340.0","57dd1a741334540001170404","6213d14f6c3b0d3c7c9609be","6","","","","","0","7"
"null","","","null","","","","html-keyboard-response","341","1240304","0.0-341.0","57dd1a741334540001170404","6213d14f6c3b0d3c7c9609be","","","","","<p style=""color:darkgreen;font-size:24px;"">Correct :)</p>","",""
"3157","key","v","v","16.683873015872287","500","250","psychophysics","342","1243463","0.0-342.0","57dd1a741334540001170404","6213d14f6c3b0d3c7c9609be","6","","","","","0","9"
"null","","","null","","","","html-keyboard-response","343","1243964","0.0-343.0","57dd1a741334540001170404","6213d14f6c3b0d3c7c9609be","","","","","<p style=""color:darkgreen;font-size:24px;"">Correct :)</p>","",""
"2629","key","v","v","16.683455696202746","500","250","psychophysics","344","1246598","0.0-344.0","57dd1a741334540001170404","6213d14f6c3b0d3c7c9609be","6","","","","","1","4"
"null","","","null","","","","html-keyboard-response","345","1247099","0.0-345.0","57dd1a741334540001170404","6213d14f6c3b0d3c7c9609be","","","","","<p style=""color:darkgreen;font-size:24px;"">Correct :)</p>","",""
"3141","key","n","n","16.683275132274954","500","250","psychophysics","346","1250243","0.0-346.0","57dd1a741334540001170404","6213d14f6c3b0d3c7c9609be","6","","","","","0","4"
"null","","","null","","","","html-keyboard-response","347","1250744","0.0-347.0","57dd1a741334540001170404","6213d14f6c3b0d3c7c9609be","","","","","<p style=""color:darkgreen;font-size:24px;"">Correct :)</p>","",""
"2874","key","v","v","16.683366279070384","500","250","psychophysics","348","1253621","0.0-348.0","57dd1a741334540001170404","6213d14f6c3b0d3c7c9609be","6","","","","","1","4"
"null","","","null","","","","html-keyboard-response","349","1254122","0.0-349.0","57dd1a741334540001170404","6213d14f6c3b0d3c7c9609be","","","","","<p style=""color:darkgreen;font-size:24px;"">Correct :)</p>","",""
"200917","key","n","n","16.684634196977246","500","250","psychophysics","350","1455040","0.0-350.0","57dd1a741334540001170404","6213d14f6c3b0d3c7c9609be","6","","","","","0","2"
"null","","","null","","","","html-keyboard-response","351","1455542","0.0-351.0","57dd1a741334540001170404","6213d14f6c3b0d3c7c9609be","","","","","<p style=""color:darkgreen;font-size:24px;"">Correct :)</p>","",""
"3209","key","v","v","16.770026041666522","500","250","psychophysics","352","1458753","0.0-352.0","57dd1a741334540001170404","6213d14f6c3b0d3c7c9609be","6","","","","","0","9"
"null","","","null","","","","html-keyboard-response","353","1459255","0.0-353.0","57dd1a741334540001170404","6213d14f6c3b0d3c7c9609be","","","","","<p style=""color:darkgreen;font-size:24px;"">Correct :)</p>","",""
"2752","key","v","v","16.683339393940386","500","250","psychophysics","354","1462009","0.0-354.0","57dd1a741334540001170404","6213d14f6c3b0d3c7c9609be","6","","","","","0","7"
"null","","","null","","","","html-keyboard-response","355","1462512","0.0-355.0","57dd1a741334540001170404","6213d14f6c3b0d3c7c9609be","","","","","<p style=""color:darkgreen;font-size:24px;"">Correct :)</p>","",""
"2908","key","v","v","16.683274285714806","500","250","psychophysics","356","1465423","0.0-356.0","57dd1a741334540001170404","6213d14f6c3b0d3c7c9609be","6","","","","","0","3"
"null","","","null","","","","html-keyboard-response","357","1465924","0.0-357.0","57dd1a741334540001170404","6213d14f6c3b0d3c7c9609be","","","","","<p style=""color:darkgreen;font-size:24px;"">Correct :)</p>","",""
"2747","key","n","n","16.683335365853896","500","250","psychophysics","358","1468673","0.0-358.0","57dd1a741334540001170404","6213d14f6c3b0d3c7c9609be","6","","","","","1","8"
"null","","","null","","","","html-keyboard-response","359","1469174","0.0-359.0","57dd1a741334540001170404","6213d14f6c3b0d3c7c9609be","","","","","<p style=""color:darkgreen;font-size:24px;"">Correct :)</p>","",""
"2856","key","n","n","16.683251461989045","500","250","psychophysics","360","1472032","0.0-360.0","57dd1a741334540001170404","6213d14f6c3b0d3c7c9609be","6","","","","","0","2"
"null","","","null","","","","html-keyboard-response","361","1472533","0.0-361.0","57dd1a741334540001170404","6213d14f6c3b0d3c7c9609be","","","","","<p style=""color:darkgreen;font-size:24px;"">Correct :)</p>","",""
"2714","key","n","n","16.683239263803785","500","250","psychophysics","362","1475250","0.0-362.0","57dd1a741334540001170404","6213d14f6c3b0d3c7c9609be","6","","","","","1","7"
"null","","","null","","","","html-keyboard-response","363","1475750","0.0-363.0","57dd1a741334540001170404","6213d14f6c3b0d3c7c9609be","","","","","<p style=""color:darkgreen;font-size:24px;"">Correct :)</p>","",""
"2868","key","v","v","16.683313953488536","500","250","psychophysics","364","1478621","0.0-364.0","57dd1a741334540001170404","6213d14f6c3b0d3c7c9609be","6","","","","","0","3"
"null","","","null","","","","html-keyboard-response","365","1479122","0.0-365.0","57dd1a741334540001170404","6213d14f6c3b0d3c7c9609be","","","","","<p style=""color:darkgreen;font-size:24px;"">Correct :)</p>","",""
"2987","key","n","n","16.683474860334893","500","250","psychophysics","366","1482112","0.0-366.0","57dd1a741334540001170404","6213d14f6c3b0d3c7c9609be","6","","","","","1","6"
"null","","","null","","","","html-keyboard-response","367","1482614","0.0-367.0","57dd1a741334540001170404","6213d14f6c3b0d3c7c9609be","","","","","<p style=""color:darkgreen;font-size:24px;"">Correct :)</p>","",""
"2761","key","v","v","16.683319277109028","500","250","psychophysics","368","1485377","0.0-368.0","57dd1a741334540001170404","6213d14f6c3b0d3c7c9609be","6","","","","","1","1"
"null","","","null","","","","html-keyboard-response","369","1485879","0.0-369.0","57dd1a741334540001170404","6213d14f6c3b0d3c7c9609be","","","","","<p style=""color:darkgreen;font-size:24px;"">Correct :)</p>","",""
"2830","key","v","v","16.68331176470691","500","250","psychophysics","370","1488710","0.0-370.0","57dd1a741334540001170404","6213d14f6c3b0d3c7c9609be","6","","","","","0","1"
"null","","","null","","","","html-keyboard-response","371","1489219","0.0-371.0","57dd1a741334540001170404","6213d14f6c3b0d3c7c9609be","","","","","<p style=""color:darkgreen;font-size:24px;"">Correct :)</p>","",""
"2834","key","v","v","16.68337058823501","500","250","psychophysics","372","1492055","0.0-372.0","57dd1a741334540001170404","6213d14f6c3b0d3c7c9609be","6","","","","","1","3"
"null","","","null","","","","html-keyboard-response","373","1492557","0.0-373.0","57dd1a741334540001170404","6213d14f6c3b0d3c7c9609be","","","","","<p style=""color:darkgreen;font-size:24px;"">Correct :)</p>","",""
"2686","key","n","n","16.683416149068496","500","250","psychophysics","374","1495245","0.0-374.0","57dd1a741334540001170404","6213d14f6c3b0d3c7c9609be","6","","","","","0","9"
"null","","","null","","","","html-keyboard-response","375","1495746","0.0-375.0","57dd1a741334540001170404","6213d14f6c3b0d3c7c9609be","","","","","<p style=""color:red;font-size:24px;"">Error :(</p>","",""
"3311","key","n","n","16.6832713567846","500","250","psychophysics","376","1499059","0.0-376.0","57dd1a741334540001170404","6213d14f6c3b0d3c7c9609be","6","","","","","0","2"
"null","","","null","","","","html-keyboard-response","377","1499561","0.0-377.0","57dd1a741334540001170404","6213d14f6c3b0d3c7c9609be","","","","","<p style=""color:darkgreen;font-size:24px;"">Correct :)</p>","",""
"2814","key","v","v","16.683431952662723","500","250","psychophysics","378","1502377","0.0-378.0","57dd1a741334540001170404","6213d14f6c3b0d3c7c9609be","6","","","","","0","7"
"null","","","null","","","","html-keyboard-response","379","1502878","0.0-379.0","57dd1a741334540001170404","6213d14f6c3b0d3c7c9609be","","","","","<p style=""color:darkgreen;font-size:24px;"">Correct :)</p>","",""
"3224","key","n","n","16.683181347149315","500","250","psychophysics","380","1506104","0.0-380.0","57dd1a741334540001170404","6213d14f6c3b0d3c7c9609be","6","","","","","1","6"
"null","","","null","","","","html-keyboard-response","381","1506605","0.0-381.0","57dd1a741334540001170404","6213d14f6c3b0d3c7c9609be","","","","","<p style=""color:darkgreen;font-size:24px;"">Correct :)</p>","",""
"10758","key","n","n","16.683289922480725","500","250","psychophysics","382","1517365","0.0-382.0","57dd1a741334540001170404","6213d14f6c3b0d3c7c9609be","6","","","","","0","2"
"null","","","null","","","","html-keyboard-response","383","1517866","0.0-383.0","57dd1a741334540001170404","6213d14f6c3b0d3c7c9609be","","","","","<p style=""color:darkgreen;font-size:24px;"">Correct :)</p>","",""
"3068","key","n","n","16.683211956522427","500","250","psychophysics","384","1520937","0.0-384.0","57dd1a741334540001170404","6213d14f6c3b0d3c7c9609be","6","","","","","1","9"
"null","","","null","","","","html-keyboard-response","385","1521438","0.0-385.0","57dd1a741334540001170404","6213d14f6c3b0d3c7c9609be","","","","","<p style=""color:darkgreen;font-size:24px;"">Correct :)</p>","",""
"5425","key","v","v","16.683294478527475","500","250","psychophysics","386","1526866","0.0-386.0","57dd1a741334540001170404","6213d14f6c3b0d3c7c9609be","6","","","","","1","2"
"null","","","null","","","","html-keyboard-response","387","1527368","0.0-387.0","57dd1a741334540001170404","6213d14f6c3b0d3c7c9609be","","","","","<p style=""color:darkgreen;font-size:24px;"">Correct :)</p>","",""
"2791","key","n","n","16.683335329340437","500","250","psychophysics","388","1530161","0.0-388.0","57dd1a741334540001170404","6213d14f6c3b0d3c7c9609be","6","","","","","1","7"
"null","","","null","","","","html-keyboard-response","389","1530662","0.0-389.0","57dd1a741334540001170404","6213d14f6c3b0d3c7c9609be","","","","","<p style=""color:darkgreen;font-size:24px;"">Correct :)</p>","",""
"3050","key","v","v","16.683278688524794","500","250","psychophysics","390","1533715","0.0-390.0","57dd1a741334540001170404","6213d14f6c3b0d3c7c9609be","6","","","","","1","4"
"null","","","null","","","","html-keyboard-response","391","1534216","0.0-391.0","57dd1a741334540001170404","6213d14f6c3b0d3c7c9609be","","","","","<p style=""color:darkgreen;font-size:24px;"">Correct :)</p>","",""
"2705","key","n","n","16.683469135802884","500","250","psychophysics","392","1536923","0.0-392.0","57dd1a741334540001170404","6213d14f6c3b0d3c7c9609be","6","","","","","0","4"
"null","","","null","","","","html-keyboard-response","393","1537424","0.0-393.0","57dd1a741334540001170404","6213d14f6c3b0d3c7c9609be","","","","","<p style=""color:darkgreen;font-size:24px;"">Correct :)</p>","",""
"2675","key","n","n","16.893270440251747","500","250","psychophysics","394","1540102","0.0-394.0","57dd1a741334540001170404","6213d14f6c3b0d3c7c9609be","6","","","","","1","8"
"null","","","null","","","","html-keyboard-response","395","1540603","0.0-395.0","57dd1a741334540001170404","6213d14f6c3b0d3c7c9609be","","","","","<p style=""color:darkgreen;font-size:24px;"">Correct :)</p>","",""
"5503","","","v","","","","html-keyboard-response","396","1546107","0.0-396.0","57dd1a741334540001170404","6213d14f6c3b0d3c7c9609be","","","","","<p> Last set of trials.  Here, the tasks are going to switch once again.  We are going to do 50 of these.  And then you are done with the experiment.  </p>  <br><br>  Ready? (press v or n)","",""
"3765","key","v","v","16.6835265486734","500","250","psychophysics","397","1549874","0.0-397.0","57dd1a741334540001170404","6213d14f6c3b0d3c7c9609be","7","","","","","1","4"
"null","","","null","","","","html-keyboard-response","398","1550376","0.0-398.0","57dd1a741334540001170404","6213d14f6c3b0d3c7c9609be","","","","","<p style=""color:darkgreen;font-size:24px;"">Correct :)</p>","",""
"2792","key","n","n","16.683383233532933","500","250","psychophysics","399","1553170","0.0-399.0","57dd1a741334540001170404","6213d14f6c3b0d3c7c9609be","7","","","","","1","7"
"null","","","null","","","","html-keyboard-response","400","1553671","0.0-400.0","57dd1a741334540001170404","6213d14f6c3b0d3c7c9609be","","","","","<p style=""color:darkgreen;font-size:24px;"">Correct :)</p>","",""
"2748","key","v","v","16.683357575757316","500","250","psychophysics","401","1556421","0.0-401.0","57dd1a741334540001170404","6213d14f6c3b0d3c7c9609be","7","","","","","0","3"
"null","","","null","","","","html-keyboard-response","402","1556922","0.0-402.0","57dd1a741334540001170404","6213d14f6c3b0d3c7c9609be","","","","","<p style=""color:darkgreen;font-size:24px;"">Correct :)</p>","",""
"6172","key","v","v","16.68328648648678","500","250","psychophysics","403","1563095","0.0-403.0","57dd1a741334540001170404","6213d14f6c3b0d3c7c9609be","7","","","","","0","7"
"null","","","null","","","","html-keyboard-response","404","1563597","0.0-404.0","57dd1a741334540001170404","6213d14f6c3b0d3c7c9609be","","","","","<p style=""color:darkgreen;font-size:24px;"">Correct :)</p>","",""
"98654","key","v","v","16.683253635441304","500","250","psychophysics","405","1662253","0.0-405.0","57dd1a741334540001170404","6213d14f6c3b0d3c7c9609be","7","","","","","1","1"
"null","","","null","","","","html-keyboard-response","406","1662755","0.0-406.0","57dd1a741334540001170404","6213d14f6c3b0d3c7c9609be","","","","","<p style=""color:darkgreen;font-size:24px;"">Correct :)</p>","",""
"6112","key","v","v","16.68329781420781","500","250","psychophysics","407","1668871","0.0-407.0","57dd1a741334540001170404","6213d14f6c3b0d3c7c9609be","7","","","","","1","2"
"null","","","null","","","","html-keyboard-response","408","1669374","0.0-408.0","57dd1a741334540001170404","6213d14f6c3b0d3c7c9609be","","","","","<p style=""color:darkgreen;font-size:24px;"">Correct :)</p>","",""
"3260","key","v","v","16.68324615384619","500","250","psychophysics","409","1672637","0.0-409.0","57dd1a741334540001170404","6213d14f6c3b0d3c7c9609be","7","","","","","0","3"
"null","","","null","","","","html-keyboard-response","410","1673139","0.0-410.0","57dd1a741334540001170404","6213d14f6c3b0d3c7c9609be","","","","","<p style=""color:darkgreen;font-size:24px;"">Correct :)</p>","",""
"2887","key","v","v","16.68331791907603","500","250","psychophysics","411","1676028","0.0-411.0","57dd1a741334540001170404","6213d14f6c3b0d3c7c9609be","7","","","","","0","7"
"null","","","null","","","","html-keyboard-response","412","1676529","0.0-412.0","57dd1a741334540001170404","6213d14f6c3b0d3c7c9609be","","","","","<p style=""color:darkgreen;font-size:24px;"">Correct :)</p>","",""
"2715","key","v","v","16.683234567902005","500","250","psychophysics","413","1679247","0.0-413.0","57dd1a741334540001170404","6213d14f6c3b0d3c7c9609be","7","","","","","0","7"
"null","","","null","","","","html-keyboard-response","414","1679748","0.0-414.0","57dd1a741334540001170404","6213d14f6c3b0d3c7c9609be","","","","","<p style=""color:darkgreen;font-size:24px;"">Correct :)</p>","",""
"2895","key","v","v","16.77973988439317","500","250","psychophysics","415","1682645","0.0-415.0","57dd1a741334540001170404","6213d14f6c3b0d3c7c9609be","7","","","","","0","1"
"null","","","null","","","","html-keyboard-response","416","1683147","0.0-416.0","57dd1a741334540001170404","6213d14f6c3b0d3c7c9609be","","","","","<p style=""color:darkgreen;font-size:24px;"">Correct :)</p>","",""
"3357","key","v","v","16.683341584158","500","250","psychophysics","417","1686507","0.0-417.0","57dd1a741334540001170404","6213d14f6c3b0d3c7c9609be","7","","","","","1","4"
"null","","","null","","","","html-keyboard-response","418","1687008","0.0-418.0","57dd1a741334540001170404","6213d14f6c3b0d3c7c9609be","","","","","<p style=""color:darkgreen;font-size:24px;"">Correct :)</p>","",""
"3247","key","n","n","16.68324615384619","500","250","psychophysics","419","1690267","0.0-419.0","57dd1a741334540001170404","6213d14f6c3b0d3c7c9609be","7","","","","","0","2"
"null","","","null","","","","html-keyboard-response","420","1690768","0.0-420.0","57dd1a741334540001170404","6213d14f6c3b0d3c7c9609be","","","","","<p style=""color:darkgreen;font-size:24px;"">Correct :)</p>","",""
"2834","key","v","v","16.683317647059447","500","250","psychophysics","421","1693605","0.0-421.0","57dd1a741334540001170404","6213d14f6c3b0d3c7c9609be","7","","","","","0","1"
"null","","","null","","","","html-keyboard-response","422","1694107","0.0-422.0","57dd1a741334540001170404","6213d14f6c3b0d3c7c9609be","","","","","<p style=""color:darkgreen;font-size:24px;"">Correct :)</p>","",""
"4045","key","v","v","16.683341563785632","500","250","psychophysics","423","1698154","0.0-423.0","57dd1a741334540001170404","6213d14f6c3b0d3c7c9609be","7","","","","","0","7"
"null","","","null","","","","html-keyboard-response","424","1698655","0.0-424.0","57dd1a741334540001170404","6213d14f6c3b0d3c7c9609be","","","","","<p style=""color:darkgreen;font-size:24px;"">Correct :)</p>","",""
"3541","key","n","n","16.683358490565915","500","250","psychophysics","425","1702199","0.0-425.0","57dd1a741334540001170404","6213d14f6c3b0d3c7c9609be","7","","","","","1","7"
"null","","","null","","","","html-keyboard-response","426","1702700","0.0-426.0","57dd1a741334540001170404","6213d14f6c3b0d3c7c9609be","","","","","<p style=""color:darkgreen;font-size:24px;"">Correct :)</p>","",""
"5046","key","n","n","16.683300330033127","500","250","psychophysics","427","1707748","0.0-427.0","57dd1a741334540001170404","6213d14f6c3b0d3c7c9609be","7","","","","","1","7"
"null","","","null","","","","html-keyboard-response","428","1708249","0.0-428.0","57dd1a741334540001170404","6213d14f6c3b0d3c7c9609be","","","","","<p style=""color:darkgreen;font-size:24px;"">Correct :)</p>","",""
"2491","key","n","n","16.683228187919312","500","250","psychophysics","429","1710742","0.0-429.0","57dd1a741334540001170404","6213d14f6c3b0d3c7c9609be","7","","","","","1","7"
"null","","","null","","","","html-keyboard-response","430","1711243","0.0-430.0","57dd1a741334540001170404","6213d14f6c3b0d3c7c9609be","","","","","<p style=""color:darkgreen;font-size:24px;"">Correct :)</p>","",""
"2848","key","v","v","16.68338596491192","500","250","psychophysics","431","1714093","0.0-431.0","57dd1a741334540001170404","6213d14f6c3b0d3c7c9609be","7","","","","","0","1"
"null","","","null","","","","html-keyboard-response","432","1714595","0.0-432.0","57dd1a741334540001170404","6213d14f6c3b0d3c7c9609be","","","","","<p style=""color:darkgreen;font-size:24px;"">Correct :)</p>","",""
"2980","key","v","v","16.68322905028036","500","250","psychophysics","433","1717578","0.0-433.0","57dd1a741334540001170404","6213d14f6c3b0d3c7c9609be","7","","","","","0","3"
"null","","","null","","","","html-keyboard-response","434","1718079","0.0-434.0","57dd1a741334540001170404","6213d14f6c3b0d3c7c9609be","","","","","<p style=""color:darkgreen;font-size:24px;"">Correct :)</p>","",""
"3235","key","n","n","16.683262886598314","500","250","psychophysics","435","1721316","0.0-435.0","57dd1a741334540001170404","6213d14f6c3b0d3c7c9609be","7","","","","","0","4"
"null","","","null","","","","html-keyboard-response","436","1721817","0.0-436.0","57dd1a741334540001170404","6213d14f6c3b0d3c7c9609be","","","","","<p style=""color:darkgreen;font-size:24px;"">Correct :)</p>","",""
"3680","key","v","v","16.6832352941171","500","250","psychophysics","437","1725500","0.0-437.0","57dd1a741334540001170404","6213d14f6c3b0d3c7c9609be","7","","","","","1","2"
"null","","","null","","","","html-keyboard-response","438","1726001","0.0-438.0","57dd1a741334540001170404","6213d14f6c3b0d3c7c9609be","","","","","<p style=""color:darkgreen;font-size:24px;"">Correct :)</p>","",""
"3269","key","v","v","16.683336734693327","500","250","psychophysics","439","1729273","0.0-439.0","57dd1a741334540001170404","6213d14f6c3b0d3c7c9609be","7","","","","","1","3"
"null","","","null","","","","html-keyboard-response","440","1729774","0.0-440.0","57dd1a741334540001170404","6213d14f6c3b0d3c7c9609be","","","","","<p style=""color:darkgreen;font-size:24px;"">Correct :)</p>","",""
"2840","key","v","v","16.683447058823454","500","250","psychophysics","441","1732616","0.0-441.0","57dd1a741334540001170404","6213d14f6c3b0d3c7c9609be","7","","","","","1","4"
"null","","","null","","","","html-keyboard-response","442","1733117","0.0-442.0","57dd1a741334540001170404","6213d14f6c3b0d3c7c9609be","","","","","<p style=""color:darkgreen;font-size:24px;"">Correct :)</p>","",""
"3053","key","n","n","16.68335326087064","500","250","psychophysics","443","1736173","0.0-443.0","57dd1a741334540001170404","6213d14f6c3b0d3c7c9609be","7","","","","","0","6"
"null","","","null","","","","html-keyboard-response","444","1736674","0.0-444.0","57dd1a741334540001170404","6213d14f6c3b0d3c7c9609be","","","","","<p style=""color:darkgreen;font-size:24px;"">Correct :)</p>","",""
"350870","key","n","n","16.687211642728048","500","250","psychophysics","445","2087546","0.0-445.0","57dd1a741334540001170404","6213d14f6c3b0d3c7c9609be","7","","","","","0","6"
"null","","","null","","","","html-keyboard-response","446","2088048","0.0-446.0","57dd1a741334540001170404","6213d14f6c3b0d3c7c9609be","","","","","<p style=""color:darkgreen;font-size:24px;"">Correct :)</p>","",""
"2742","key","n","n","16.68312727272736","500","250","psychophysics","447","2090794","0.0-447.0","57dd1a741334540001170404","6213d14f6c3b0d3c7c9609be","7","","","","","0","6"
"null","","","null","","","","html-keyboard-response","448","2091294","0.0-448.0","57dd1a741334540001170404","6213d14f6c3b0d3c7c9609be","","","","","<p style=""color:darkgreen;font-size:24px;"">Correct :)</p>","",""
"3344","key","v","v","16.683020000001417","500","250","psychophysics","449","2094640","0.0-449.0","57dd1a741334540001170404","6213d14f6c3b0d3c7c9609be","7","","","","","1","4"
"null","","","null","","","","html-keyboard-response","450","2095143","0.0-450.0","57dd1a741334540001170404","6213d14f6c3b0d3c7c9609be","","","","","<p style=""color:darkgreen;font-size:24px;"">Correct :)</p>","",""
"3367","key","v","v","16.683168316831683","500","250","psychophysics","451","2098516","0.0-451.0","57dd1a741334540001170404","6213d14f6c3b0d3c7c9609be","7","","","","","1","3"
"null","","","null","","","","html-keyboard-response","452","2099019","0.0-452.0","57dd1a741334540001170404","6213d14f6c3b0d3c7c9609be","","","","","<p style=""color:darkgreen;font-size:24px;"">Correct :)</p>","",""
"2845","key","v","v","16.683352941176032","500","250","psychophysics","453","2101867","0.0-453.0","57dd1a741334540001170404","6213d14f6c3b0d3c7c9609be","7","","","","","1","2"
"null","","","null","","","","html-keyboard-response","454","2102368","0.0-454.0","57dd1a741334540001170404","6213d14f6c3b0d3c7c9609be","","","","","<p style=""color:darkgreen;font-size:24px;"">Correct :)</p>","",""
"3135","key","n","n","16.683377659574962","500","250","psychophysics","455","2105506","0.0-455.0","57dd1a741334540001170404","6213d14f6c3b0d3c7c9609be","7","","","","","1","7"
"null","","","null","","","","html-keyboard-response","456","2106008","0.0-456.0","57dd1a741334540001170404","6213d14f6c3b0d3c7c9609be","","","","","<p style=""color:darkgreen;font-size:24px;"">Correct :)</p>","",""
"3069","key","v","v","16.68341847826251","500","250","psychophysics","457","2109080","0.0-457.0","57dd1a741334540001170404","6213d14f6c3b0d3c7c9609be","7","","","","","0","7"
"null","","","null","","","","html-keyboard-response","458","2109582","0.0-458.0","57dd1a741334540001170404","6213d14f6c3b0d3c7c9609be","","","","","<p style=""color:darkgreen;font-size:24px;"">Correct :)</p>","",""
"2575","key","v","v","16.683409090909816","500","250","psychophysics","459","2112160","0.0-459.0","57dd1a741334540001170404","6213d14f6c3b0d3c7c9609be","7","","","","","0","7"
"null","","","null","","","","html-keyboard-response","460","2112661","0.0-460.0","57dd1a741334540001170404","6213d14f6c3b0d3c7c9609be","","","","","<p style=""color:darkgreen;font-size:24px;"">Correct :)</p>","",""
"2939","key","n","n","16.68309039548092","500","250","psychophysics","461","2115603","0.0-461.0","57dd1a741334540001170404","6213d14f6c3b0d3c7c9609be","7","","","","","0","6"
"null","","","null","","","","html-keyboard-response","462","2116105","0.0-462.0","57dd1a741334540001170404","6213d14f6c3b0d3c7c9609be","","","","","<p style=""color:darkgreen;font-size:24px;"">Correct :)</p>","",""
"3313","key","v","v","16.683378787878244","500","250","psychophysics","463","2119420","0.0-463.0","57dd1a741334540001170404","6213d14f6c3b0d3c7c9609be","7","","","","","0","3"
"null","","","null","","","","html-keyboard-response","464","2119923","0.0-464.0","57dd1a741334540001170404","6213d14f6c3b0d3c7c9609be","","","","","<p style=""color:darkgreen;font-size:24px;"">Correct :)</p>","",""
"2989","key","n","n","16.68310614525179","500","250","psychophysics","465","2122915","0.0-465.0","57dd1a741334540001170404","6213d14f6c3b0d3c7c9609be","7","","","","","0","4"
"null","","","null","","","","html-keyboard-response","466","2123417","0.0-466.0","57dd1a741334540001170404","6213d14f6c3b0d3c7c9609be","","","","","<p style=""color:darkgreen;font-size:24px;"">Correct :)</p>","",""
"3078","key","v","v","16.683291891891812","500","250","psychophysics","467","2126497","0.0-467.0","57dd1a741334540001170404","6213d14f6c3b0d3c7c9609be","7","","","","","0","7"
"null","","","null","","","","html-keyboard-response","468","2126999","0.0-468.0","57dd1a741334540001170404","6213d14f6c3b0d3c7c9609be","","","","","<p style=""color:darkgreen;font-size:24px;"">Correct :)</p>","",""
"3177","key","n","n","16.683189473685957","500","250","psychophysics","469","2130178","0.0-469.0","57dd1a741334540001170404","6213d14f6c3b0d3c7c9609be","7","","","","","0","4"
"null","","","null","","","","html-keyboard-response","470","2130680","0.0-470.0","57dd1a741334540001170404","6213d14f6c3b0d3c7c9609be","","","","","<p style=""color:darkgreen;font-size:24px;"">Correct :)</p>","",""
"3185","key","v","v","16.68321465968559","500","250","psychophysics","471","2133869","0.0-471.0","57dd1a741334540001170404","6213d14f6c3b0d3c7c9609be","7","","","","","1","1"
"null","","","null","","","","html-keyboard-response","472","2134370","0.0-472.0","57dd1a741334540001170404","6213d14f6c3b0d3c7c9609be","","","","","<p style=""color:darkgreen;font-size:24px;"">Correct :)</p>","",""
"3035","key","n","n","16.683197802196226","500","250","psychophysics","473","2137408","0.0-473.0","57dd1a741334540001170404","6213d14f6c3b0d3c7c9609be","7","","","","","0","2"
"null","","","null","","","","html-keyboard-response","474","2137910","0.0-474.0","57dd1a741334540001170404","6213d14f6c3b0d3c7c9609be","","","","","<p style=""color:darkgreen;font-size:24px;"">Correct :)</p>","",""
"2876","key","v","v","16.683313953487183","500","250","psychophysics","475","2140789","0.0-475.0","57dd1a741334540001170404","6213d14f6c3b0d3c7c9609be","7","","","","","0","1"
"null","","","null","","","","html-keyboard-response","476","2141290","0.0-476.0","57dd1a741334540001170404","6213d14f6c3b0d3c7c9609be","","","","","<p style=""color:darkgreen;font-size:24px;"">Correct :)</p>","",""
"3092","key","n","n","16.68343548387069","500","250","psychophysics","477","2144387","0.0-477.0","57dd1a741334540001170404","6213d14f6c3b0d3c7c9609be","7","","","","","1","7"
"null","","","null","","","","html-keyboard-response","478","2144889","0.0-478.0","57dd1a741334540001170404","6213d14f6c3b0d3c7c9609be","","","","","<p style=""color:darkgreen;font-size:24px;"">Correct :)</p>","",""
"3251","key","v","v","16.683282051283197","500","250","psychophysics","479","2148142","0.0-479.0","57dd1a741334540001170404","6213d14f6c3b0d3c7c9609be","7","","","","","0","7"
"null","","","null","","","","html-keyboard-response","480","2148643","0.0-480.0","57dd1a741334540001170404","6213d14f6c3b0d3c7c9609be","","","","","<p style=""color:darkgreen;font-size:24px;"">Correct :)</p>","",""
"2874","key","v","v","16.683693641616365","500","250","psychophysics","481","2151520","0.0-481.0","57dd1a741334540001170404","6213d14f6c3b0d3c7c9609be","7","","","","","0","3"
"null","","","null","","","","html-keyboard-response","482","2152022","0.0-482.0","57dd1a741334540001170404","6213d14f6c3b0d3c7c9609be","","","","","<p style=""color:darkgreen;font-size:24px;"">Correct :)</p>","",""
"2846","key","v","v","16.68331176470417","500","250","psychophysics","483","2154871","0.0-483.0","57dd1a741334540001170404","6213d14f6c3b0d3c7c9609be","7","","","","","0","1"
"null","","","null","","","","html-keyboard-response","484","2155374","0.0-484.0","57dd1a741334540001170404","6213d14f6c3b0d3c7c9609be","","","","","<p style=""color:darkgreen;font-size:24px;"">Correct :)</p>","",""
"3199","key","n","n","16.68343229166688","500","250","psychophysics","485","2158577","0.0-485.0","57dd1a741334540001170404","6213d14f6c3b0d3c7c9609be","7","","","","","1","7"
"null","","","null","","","","html-keyboard-response","486","2159079","0.0-486.0","57dd1a741334540001170404","6213d14f6c3b0d3c7c9609be","","","","","<p style=""color:darkgreen;font-size:24px;"">Correct :)</p>","",""
"3056","key","v","v","16.683404371585148","500","250","psychophysics","487","2162138","0.0-487.0","57dd1a741334540001170404","6213d14f6c3b0d3c7c9609be","7","","","","","0","7"
"null","","","null","","","","html-keyboard-response","488","2162640","0.0-488.0","57dd1a741334540001170404","6213d14f6c3b0d3c7c9609be","","","","","<p style=""color:darkgreen;font-size:24px;"">Correct :)</p>","",""
"2835","key","n","n","16.6834647058838","500","250","psychophysics","489","2165477","0.0-489.0","57dd1a741334540001170404","6213d14f6c3b0d3c7c9609be","7","","","","","0","6"
"null","","","null","","","","html-keyboard-response","490","2165978","0.0-490.0","57dd1a741334540001170404","6213d14f6c3b0d3c7c9609be","","","","","<p style=""color:darkgreen;font-size:24px;"">Correct :)</p>","",""
"2720","key","n","n","16.683331288343034","500","250","psychophysics","491","2168701","0.0-491.0","57dd1a741334540001170404","6213d14f6c3b0d3c7c9609be","7","","","","","1","7"
"null","","","null","","","","html-keyboard-response","492","2169202","0.0-492.0","57dd1a741334540001170404","6213d14f6c3b0d3c7c9609be","","","","","<p style=""color:darkgreen;font-size:24px;"">Correct :)</p>","",""
"2787","key","v","v","16.683029761906557","500","250","psychophysics","493","2171992","0.0-493.0","57dd1a741334540001170404","6213d14f6c3b0d3c7c9609be","7","","","","","0","1"
"null","","","null","","","","html-keyboard-response","494","2172493","0.0-494.0","57dd1a741334540001170404","6213d14f6c3b0d3c7c9609be","","","","","<p style=""color:darkgreen;font-size:24px;"">Correct :)</p>","",""
"3050","key","v","v","16.68328961748579","500","250","psychophysics","495","2175547","0.0-495.0","57dd1a741334540001170404","6213d14f6c3b0d3c7c9609be","7","","","","","1","3"
"null","","","null","","","","html-keyboard-response","496","2176048","0.0-496.0","57dd1a741334540001170404","6213d14f6c3b0d3c7c9609be","","","","","<p style=""color:darkgreen;font-size:24px;"">Correct :)</p>","",""
