"rt","response_type","key_press","response","avg_frame_time","center_x","center_y","trial_type","trial_index","time_elapsed","internal_node_id","pid","sid","phase","guide","targ","resp","stimulus","is5","stim"
"4654","key"," "," ","19.80942213114754","500","250","psychophysics","0","4876","0.0-0.0","5d57f9cdedef630016280505","620a6771185659b2469ee154","","","","","","",""
"1938","key"," "," ","17.6828695652174","500","250","psychophysics","1","6879","0.0-1.0","5d57f9cdedef630016280505","620a6771185659b2469ee154","","","","","","",""
"2423","key"," "," ","16.89708965517241","500","250","psychophysics","2","9341","0.0-2.0","5d57f9cdedef630016280505","620a6771185659b2469ee154","","","","","","",""
"1342","key"," "," ","16.872567901234568","500","250","psychophysics","3","10725","0.0-3.0","5d57f9cdedef630016280505","620a6771185659b2469ee154","","","","","","",""
"2625","key"," "," ","17.429503267973857","500","250","psychophysics","4","13413","0.0-4.0","5d57f9cdedef630016280505","620a6771185659b2469ee154","","","","","","",""
"10179","key"," "," ","16.916034825870646","500","250","psychophysics","5","23623","0.0-5.0","5d57f9cdedef630016280505","620a6771185659b2469ee154","","","","","","",""
"7224","key"," "," ","16.74418244803694","500","250","psychophysics","6","30889","0.0-6.0","5d57f9cdedef630016280505","620a6771185659b2469ee154","","","","","","",""
"4389","key"," "," ","16.79388593155894","500","250","psychophysics","7","35324","0.0-7.0","5d57f9cdedef630016280505","620a6771185659b2469ee154","","","","","","",""
"11597","key"," "," ","16.81202026049204","500","250","psychophysics","8","46964","0.0-8.0","5d57f9cdedef630016280505","620a6771185659b2469ee154","0","0","51","54","","",""
"4485","key"," "," ","16.729104089219334","500","250","psychophysics","9","51473","0.0-9.0","5d57f9cdedef630016280505","620a6771185659b2469ee154","","","","","","",""
"2035","key"," "," ","17.67255172413796","500","250","psychophysics","10","53551","0.0-10.0","5d57f9cdedef630016280505","620a6771185659b2469ee154","","","","","","",""
"3593","key"," "," ","16.900925233644873","500","250","psychophysics","11","57178","0.0-11.0","5d57f9cdedef630016280505","620a6771185659b2469ee154","","","","","","",""
"4237","key"," "," ","17.068831325301186","500","250","psychophysics","12","61453","0.0-12.0","5d57f9cdedef630016280505","620a6771185659b2469ee154","","","","","","",""
"1400","key"," "," ","17.491209876543216","500","250","psychophysics","13","62885","0.0-13.0","5d57f9cdedef630016280505","620a6771185659b2469ee154","","","","","","",""
"3104","key"," "," ","17.125098901098923","500","250","psychophysics","14","66013","0.0-14.0","5d57f9cdedef630016280505","620a6771185659b2469ee154","","","","","","",""
"3600","key"," "," ","17.14117535545024","500","250","psychophysics","15","69650","0.0-15.0","5d57f9cdedef630016280505","620a6771185659b2469ee154","","","","","","",""
"2592","key"," "," ","17.56236241610739","500","250","psychophysics","16","72282","0.0-16.0","5d57f9cdedef630016280505","620a6771185659b2469ee154","","","","","","",""
"7778","key"," "," ","16.88315550755939","500","250","psychophysics","17","80115","0.0-17.0","5d57f9cdedef630016280505","620a6771185659b2469ee154","1","0","23","27","","",""
"7025","key"," "," ","16.826906698564585","500","250","psychophysics","18","87175","0.0-18.0","5d57f9cdedef630016280505","620a6771185659b2469ee154","1","5","31","31","","",""
"10257","key"," "," ","16.748685667752444","500","250","psychophysics","19","97472","0.0-19.0","5d57f9cdedef630016280505","620a6771185659b2469ee154","1","0","22","26","","",""
"8892","key"," "," ","16.85617580340265","500","250","psychophysics","20","106402","0.0-20.0","5d57f9cdedef630016280505","620a6771185659b2469ee154","1","5","51","56","","",""
"6298","key"," "," ","16.845","500","250","psychophysics","21","112734","0.0-21.0","5d57f9cdedef630016280505","620a6771185659b2469ee154","1","0","27","31","","",""
"13121","key"," "," ","16.859483333333348","500","250","psychophysics","22","125903","0.0-22.0","5d57f9cdedef630016280505","620a6771185659b2469ee154","1","5","59","64","","",""
"5575","key"," "," ","16.766375375375357","500","250","psychophysics","23","131505","0.0-23.0","5d57f9cdedef630016280505","620a6771185659b2469ee154","1","0","25","31","","",""
"9508","key"," "," ","16.93379218472465","500","250","psychophysics","24","141051","0.0-24.0","5d57f9cdedef630016280505","620a6771185659b2469ee154","1","5","54","58","","",""
"5653","key"," "," ","17.167921921921938","500","250","psychophysics","25","146782","0.0-25.0","5d57f9cdedef630016280505","620a6771185659b2469ee154","1","0","49","73","","",""
"8217","key"," "," ","16.769105906313634","500","250","psychophysics","26","155029","0.0-26.0","5d57f9cdedef630016280505","620a6771185659b2469ee154","1","5","48","51","","",""
"7496","key"," "," ","16.85392376681609","500","250","psychophysics","27","162564","0.0-27.0","5d57f9cdedef630016280505","620a6771185659b2469ee154","1","0","40","69","","",""
"8553","key"," "," ","16.864181102362235","500","250","psychophysics","28","171146","0.0-28.0","5d57f9cdedef630016280505","620a6771185659b2469ee154","1","5","46","50","","",""
"11887","key"," "," ","16.90396875","500","250","psychophysics","29","183065","0.0-29.0","5d57f9cdedef630016280505","620a6771185659b2469ee154","1","0","41","84","","",""
"5771","key"," "," ","17.63277134146341","500","250","psychophysics","30","188870","0.0-30.0","5d57f9cdedef630016280505","620a6771185659b2469ee154","1","5","28","38","","",""
"8413","key"," "," ","17.00402222222224","500","250","psychophysics","31","197312","0.0-31.0","5d57f9cdedef630016280505","620a6771185659b2469ee154","1","0","39","61","","",""
"4579","key"," "," ","16.91231617647057","500","250","psychophysics","32","201919","0.0-32.0","5d57f9cdedef630016280505","620a6771185659b2469ee154","1","5","20","25","","",""
"5771","key"," "," ","16.812543604651204","500","250","psychophysics","33","207720","0.0-33.0","5d57f9cdedef630016280505","620a6771185659b2469ee154","1","0","27","44","","",""
"12842","key"," "," ","16.797993464052283","500","250","psychophysics","34","220591","0.0-34.0","5d57f9cdedef630016280505","620a6771185659b2469ee154","1","5","46","58","","",""
"5474","key"," "," ","16.87224307692314","500","250","psychophysics","35","226088","0.0-35.0","5d57f9cdedef630016280505","620a6771185659b2469ee154","1","0","34","63","","",""
"10088","key"," "," ","16.75014593698174","500","250","psychophysics","36","236209","0.0-36.0","5d57f9cdedef630016280505","620a6771185659b2469ee154","1","5","21","34","","",""
"3186","key"," "," ","16.93162433862444","500","250","psychophysics","37","239424","0.0-37.0","5d57f9cdedef630016280505","620a6771185659b2469ee154","","","","","","",""
"5223","key"," "," ","16.774278846153884","500","250","psychophysics","38","244673","0.0-38.0","5d57f9cdedef630016280505","620a6771185659b2469ee154","","","","","","",""
"1661","key"," "," ","16.83555555555557","500","250","psychophysics","39","246366","0.0-39.0","5d57f9cdedef630016280505","620a6771185659b2469ee154","","","","","","",""
"11027","key"," "," ","17.001100154083172","500","250","psychophysics","40","257433","0.0-40.0","5d57f9cdedef630016280505","620a6771185659b2469ee154","2","0","44","141","","",""
"4438","key"," "," ","16.85529699248128","500","250","psychophysics","41","261916","0.0-41.0","5d57f9cdedef630016280505","620a6771185659b2469ee154","","","","","","",""
"5440","key"," "," ","16.978669781931437","500","250","psychophysics","42","267394","0.0-42.0","5d57f9cdedef630016280505","620a6771185659b2469ee154","2","0","32","64","","",""
"4457","key"," "," ","16.792426966292275","500","250","psychophysics","43","271891","0.0-43.0","5d57f9cdedef630016280505","620a6771185659b2469ee154","","","","","","",""
"5492","key"," "," ","16.923661538461545","500","250","psychophysics","44","277405","0.0-44.0","5d57f9cdedef630016280505","620a6771185659b2469ee154","2","0","48","92","","",""
"3463","key"," "," ","16.747144230769315","500","250","psychophysics","45","280898","0.0-45.0","5d57f9cdedef630016280505","620a6771185659b2469ee154","","","","","","",""
"3925","key"," "," ","17.1765458515284","500","250","psychophysics","46","284853","0.0-46.0","5d57f9cdedef630016280505","620a6771185659b2469ee154","2","0","20","43","","",""
"1892","key"," "," ","16.813307017543895","500","250","psychophysics","47","286783","0.0-47.0","5d57f9cdedef630016280505","620a6771185659b2469ee154","","","","","","",""
"3576","key"," "," ","16.823469483567962","500","250","psychophysics","48","290389","0.0-48.0","5d57f9cdedef630016280505","620a6771185659b2469ee154","2","0","29","55","","",""
"2171","key"," "," ","16.795292307692133","500","250","psychophysics","49","292584","0.0-49.0","5d57f9cdedef630016280505","620a6771185659b2469ee154","","","","","","",""
"4186","key"," "," ","16.86812449799197","500","250","psychophysics","50","296800","0.0-50.0","5d57f9cdedef630016280505","620a6771185659b2469ee154","2","0","34","58","","",""
"2022","key"," "," ","16.667073770492056","500","250","psychophysics","51","298850","0.0-51.0","5d57f9cdedef630016280505","620a6771185659b2469ee154","","","","","","",""
"4353","key"," "," ","17.05798828125012","500","250","psychophysics","52","303235","0.0-52.0","5d57f9cdedef630016280505","620a6771185659b2469ee154","2","0","45","67","","",""
"1777","key"," "," ","16.824084905660403","500","250","psychophysics","53","305035","0.0-53.0","5d57f9cdedef630016280505","620a6771185659b2469ee154","","","","","","",""
"3705","key"," "," ","17.047730593607213","500","250","psychophysics","54","308787","0.0-54.0","5d57f9cdedef630016280505","620a6771185659b2469ee154","2","0","32","49","","",""
"1429","key"," "," ","17.05922352941159","500","250","psychophysics","55","310253","0.0-55.0","5d57f9cdedef630016280505","620a6771185659b2469ee154","","","","","","",""
"3645","key"," "," ","16.897847926267207","500","250","psychophysics","56","313936","0.0-56.0","5d57f9cdedef630016280505","620a6771185659b2469ee154","2","0","32","38","","",""
"1473","key"," "," ","16.856352272727236","500","250","psychophysics","57","315434","0.0-57.0","5d57f9cdedef630016280505","620a6771185659b2469ee154","","","","","","",""
"2780","key"," "," ","16.972554878048847","500","250","psychophysics","58","318242","0.0-58.0","5d57f9cdedef630016280505","620a6771185659b2469ee154","2","0","22","27","","",""
"1442","key"," "," ","17.05419767441886","500","250","psychophysics","59","319715","0.0-59.0","5d57f9cdedef630016280505","620a6771185659b2469ee154","","","","","","",""
"2604","key"," "," ","16.882277419355006","500","250","psychophysics","60","322350","0.0-60.0","5d57f9cdedef630016280505","620a6771185659b2469ee154","2","0","25","30","","",""
"2273","key"," "," ","16.790536764706143","500","250","psychophysics","61","324655","0.0-61.0","5d57f9cdedef630016280505","620a6771185659b2469ee154","","","","","","",""
"2267","key"," "," ","16.79010294117667","500","250","psychophysics","62","326958","0.0-62.0","5d57f9cdedef630016280505","620a6771185659b2469ee154","2","0","50","18","","",""
"2821","key"," "," ","16.867630952380882","500","250","psychophysics","63","329800","0.0-63.0","5d57f9cdedef630016280505","620a6771185659b2469ee154","","","","","","",""
"2612","key"," "," ","16.880846153846225","500","250","psychophysics","64","332454","0.0-64.0","5d57f9cdedef630016280505","620a6771185659b2469ee154","2","0","21","23","","",""
"1583","key"," "," ","16.842547368420608","500","250","psychophysics","65","334065","0.0-65.0","5d57f9cdedef630016280505","620a6771185659b2469ee154","","","","","","",""
"2461","key"," "," ","17.01168275862081","500","250","psychophysics","66","336557","0.0-66.0","5d57f9cdedef630016280505","620a6771185659b2469ee154","2","0","52","33","","",""
"2129","key"," "," ","16.931785714285475","500","250","psychophysics","67","338706","0.0-67.0","5d57f9cdedef630016280505","620a6771185659b2469ee154","","","","","","",""
"5158","key"," "," ","17.222903333333477","500","250","psychophysics","68","343893","0.0-68.0","5d57f9cdedef630016280505","620a6771185659b2469ee154","2","0","27","28","","",""
"4343","key"," "," ","16.731299999999912","500","250","psychophysics","69","348258","0.0-69.0","5d57f9cdedef630016280505","620a6771185659b2469ee154","","","","","","",""
"2331","key"," "," ","17.02750359712212","500","250","psychophysics","70","350646","0.0-70.0","5d57f9cdedef630016280505","620a6771185659b2469ee154","","","","","","",""
"2154","key"," "," ","17.32816666666657","500","250","psychophysics","71","352836","0.0-71.0","5d57f9cdedef630016280505","620a6771185659b2469ee154","","","","","","",""
"2652","key"," "," ","16.983550632911474","500","250","psychophysics","72","355538","0.0-72.0","5d57f9cdedef630016280505","620a6771185659b2469ee154","3","5","34","12","","",""
"2926","key"," "," ","17.56518562874251","500","250","psychophysics","73","358495","0.0-73.0","5d57f9cdedef630016280505","620a6771185659b2469ee154","3","0","26","22","","",""
"4558","key"," "," ","16.97692936802972","500","250","psychophysics","74","363085","0.0-74.0","5d57f9cdedef630016280505","620a6771185659b2469ee154","3","5","25","16","","",""
"3710","key"," "," ","17.28479166666646","500","250","psychophysics","75","366836","0.0-75.0","5d57f9cdedef630016280505","620a6771185659b2469ee154","3","0","23","21","","",""
"2945","key"," "," ","17.554928994082815","500","250","psychophysics","76","369815","0.0-76.0","5d57f9cdedef630016280505","620a6771185659b2469ee154","3","5","60","27","","",""
"2469","key"," "," ","17.241468965517484","500","250","psychophysics","77","372322","0.0-77.0","5d57f9cdedef630016280505","620a6771185659b2469ee154","3","0","40","23","","",""
"4342","key"," "," ","17.19453754940732","500","250","psychophysics","78","376701","0.0-78.0","5d57f9cdedef630016280505","620a6771185659b2469ee154","3","5","24","11","","",""
"3141","key"," "," ","17.117670270270114","500","250","psychophysics","79","379875","0.0-79.0","5d57f9cdedef630016280505","620a6771185659b2469ee154","3","0","34","18","","",""
"2237","key"," "," ","16.915857142857206","500","250","psychophysics","80","382139","0.0-80.0","5d57f9cdedef630016280505","620a6771185659b2469ee154","3","5","31","14","","",""
"6159","key"," "," ","16.895613698630072","500","250","psychophysics","81","388332","0.0-81.0","5d57f9cdedef630016280505","620a6771185659b2469ee154","3","0","56","46","","",""
"2781","key"," "," ","16.86983132530151","500","250","psychophysics","82","391144","0.0-82.0","5d57f9cdedef630016280505","620a6771185659b2469ee154","3","5","28","19","","",""
"5379","key"," "," ","16.823590624999998","500","250","psychophysics","83","396548","0.0-83.0","5d57f9cdedef630016280505","620a6771185659b2469ee154","3","0","58","36","","",""
"2413","key"," "," ","16.900251748251577","500","250","psychophysics","84","398983","0.0-84.0","5d57f9cdedef630016280505","620a6771185659b2469ee154","3","5","49","20","","",""
"4972","key"," "," ","17.184444827586212","500","250","psychophysics","85","403992","0.0-85.0","5d57f9cdedef630016280505","620a6771185659b2469ee154","3","0","28","27","","",""
"3504","key"," "," ","17.069927536232054","500","250","psychophysics","86","407534","0.0-86.0","5d57f9cdedef630016280505","620a6771185659b2469ee154","3","5","58","20","","",""
"7569","key"," "," ","16.81502660753878","500","250","psychophysics","87","415125","0.0-87.0","5d57f9cdedef630016280505","620a6771185659b2469ee154","3","0","44","29","","",""
"2764","key"," "," ","16.870408536585206","500","250","psychophysics","88","417914","0.0-88.0","5d57f9cdedef630016280505","620a6771185659b2469ee154","3","5","31","12","","",""
"3822","key"," "," ","16.739751091703273","500","250","psychophysics","89","421755","0.0-89.0","5d57f9cdedef630016280505","620a6771185659b2469ee154","3","0","45","25","","",""
"4194","key"," "," ","16.868112449799092","500","250","psychophysics","90","425978","0.0-90.0","5d57f9cdedef630016280505","620a6771185659b2469ee154","3","5","20","6","","",""
"6556","key"," "," ","16.924293059126082","500","250","psychophysics","91","432572","0.0-91.0","5d57f9cdedef630016280505","620a6771185659b2469ee154","3","0","57","52","","",""
"1293","key"," "," ","16.666987179487478","500","250","psychophysics","92","433894","0.0-92.0","5d57f9cdedef630016280505","620a6771185659b2469ee154","","","","","","",""
"29358","","","v","","","","html-keyboard-response","93","463256","0.0-93.0","5d57f9cdedef630016280505","620a6771185659b2469ee154","","","","","<p> In this part of the experiment, we are going present digits 1, 2, 3, 4, 6, 7, 8, and 9.  Notice that 5 is missing.  Your job is to say whether the presented digit is less than or greater than 5.  For example, 3 is less than 5 and 7 is greater than 5.  If the digit is less than 5, press the v key; if it is greater than 5, press the n key. We are going to do 200 of these in total, but only 50 righ now. They go real fast.</p>  <br><br>  Ready? (press v or n)","",""
"3291","key","n","n","16.921233502538108","500","250","psychophysics","94","466588","0.0-94.0","5d57f9cdedef630016280505","620a6771185659b2469ee154","4","","","","","1","7"
"null","","","null","","","","html-keyboard-response","95","467096","0.0-95.0","5d57f9cdedef630016280505","620a6771185659b2469ee154","","","","","<p style=""color:darkgreen;font-size:24px;"">Correct :)</p>","",""
"2979","key","v","v","16.66691061452502","500","250","psychophysics","96","470096","0.0-96.0","5d57f9cdedef630016280505","620a6771185659b2469ee154","4","","","","","1","2"
"null","","","null","","","","html-keyboard-response","97","470602","0.0-97.0","5d57f9cdedef630016280505","620a6771185659b2469ee154","","","","","<p style=""color:darkgreen;font-size:24px;"">Correct :)</p>","",""
"2685","key","v","v","16.875700000000144","500","250","psychophysics","98","473315","0.0-98.0","5d57f9cdedef630016280505","620a6771185659b2469ee154","4","","","","","1","4"
"null","","","null","","","","html-keyboard-response","99","473821","0.0-99.0","5d57f9cdedef630016280505","620a6771185659b2469ee154","","","","","<p style=""color:darkgreen;font-size:24px;"">Correct :)</p>","",""
"2465","key","v","v","16.778236486486513","500","250","psychophysics","100","476312","0.0-100.0","5d57f9cdedef630016280505","620a6771185659b2469ee154","4","","","","","1","4"
"null","","","null","","","","html-keyboard-response","101","476817","0.0-101.0","5d57f9cdedef630016280505","620a6771185659b2469ee154","","","","","<p style=""color:darkgreen;font-size:24px;"">Correct :)</p>","",""
"2485","key","n","n","16.778892617449618","500","250","psychophysics","102","479326","0.0-102.0","5d57f9cdedef630016280505","620a6771185659b2469ee154","4","","","","","1","9"
"null","","","null","","","","html-keyboard-response","103","479836","0.0-103.0","5d57f9cdedef630016280505","620a6771185659b2469ee154","","","","","<p style=""color:darkgreen;font-size:24px;"">Correct :)</p>","",""
"2516","key","n","n","16.777708609271578","500","250","psychophysics","104","482374","0.0-104.0","5d57f9cdedef630016280505","620a6771185659b2469ee154","4","","","","","1","8"
"null","","","null","","","","html-keyboard-response","105","482881","0.0-105.0","5d57f9cdedef630016280505","620a6771185659b2469ee154","","","","","<p style=""color:darkgreen;font-size:24px;"">Correct :)</p>","",""
"2508","key","v","v","16.778986666666654","500","250","psychophysics","106","485412","0.0-106.0","5d57f9cdedef630016280505","620a6771185659b2469ee154","4","","","","","1","2"
"null","","","null","","","","html-keyboard-response","107","485917","0.0-107.0","5d57f9cdedef630016280505","620a6771185659b2469ee154","","","","","<p style=""color:darkgreen;font-size:24px;"">Correct :)</p>","",""
"2609","key","v","v","16.774653846153598","500","250","psychophysics","108","488544","0.0-108.0","5d57f9cdedef630016280505","620a6771185659b2469ee154","4","","","","","1","3"
"null","","","null","","","","html-keyboard-response","109","489050","0.0-109.0","5d57f9cdedef630016280505","620a6771185659b2469ee154","","","","","<p style=""color:darkgreen;font-size:24px;"">Correct :)</p>","",""
"2471","key","n","n","16.77997972972957","500","250","psychophysics","110","491554","0.0-110.0","5d57f9cdedef630016280505","620a6771185659b2469ee154","4","","","","","1","4"
"null","","","null","","","","html-keyboard-response","111","492063","0.0-111.0","5d57f9cdedef630016280505","620a6771185659b2469ee154","","","","","<p style=""color:red;font-size:24px;"">Error :(</p>","",""
"2459","key","n","n","16.895417808219374","500","250","psychophysics","112","494540","0.0-112.0","5d57f9cdedef630016280505","620a6771185659b2469ee154","4","","","","","1","6"
"null","","","null","","","","html-keyboard-response","113","495045","0.0-113.0","5d57f9cdedef630016280505","620a6771185659b2469ee154","","","","","<p style=""color:darkgreen;font-size:24px;"">Correct :)</p>","",""
"2563","key","v","v","16.66789610389629","500","250","psychophysics","114","497629","0.0-114.0","5d57f9cdedef630016280505","620a6771185659b2469ee154","4","","","","","1","9"
"null","","","null","","","","html-keyboard-response","115","498134","0.0-115.0","5d57f9cdedef630016280505","620a6771185659b2469ee154","","","","","<p style=""color:red;font-size:24px;"">Error :(</p>","",""
"2634","key","n","n","16.773000000000128","500","250","psychophysics","116","500790","0.0-116.0","5d57f9cdedef630016280505","620a6771185659b2469ee154","4","","","","","1","9"
"null","","","null","","","","html-keyboard-response","117","501295","0.0-117.0","5d57f9cdedef630016280505","620a6771185659b2469ee154","","","","","<p style=""color:darkgreen;font-size:24px;"">Correct :)</p>","",""
"2482","key","v","v","16.667335570469927","500","250","psychophysics","118","503801","0.0-118.0","5d57f9cdedef630016280505","620a6771185659b2469ee154","4","","","","","1","9"
"null","","","null","","","","html-keyboard-response","119","504307","0.0-119.0","5d57f9cdedef630016280505","620a6771185659b2469ee154","","","","","<p style=""color:red;font-size:24px;"">Error :(</p>","",""
"2519","key","n","n","16.77751655629119","500","250","psychophysics","120","506850","0.0-120.0","5d57f9cdedef630016280505","620a6771185659b2469ee154","4","","","","","1","7"
"null","","","null","","","","html-keyboard-response","121","507356","0.0-121.0","5d57f9cdedef630016280505","620a6771185659b2469ee154","","","","","<p style=""color:darkgreen;font-size:24px;"">Correct :)</p>","",""
"2919","key","n","n","16.95608670520226","500","250","psychophysics","122","510302","0.0-122.0","5d57f9cdedef630016280505","620a6771185659b2469ee154","4","","","","","1","6"
"null","","","null","","","","html-keyboard-response","123","510809","0.0-123.0","5d57f9cdedef630016280505","620a6771185659b2469ee154","","","","","<p style=""color:darkgreen;font-size:24px;"">Correct :)</p>","",""
"2664","key","n","n","16.8757625000002","500","250","psychophysics","124","513505","0.0-124.0","5d57f9cdedef630016280505","620a6771185659b2469ee154","4","","","","","1","6"
"null","","","null","","","","html-keyboard-response","125","514009","0.0-125.0","5d57f9cdedef630016280505","620a6771185659b2469ee154","","","","","<p style=""color:darkgreen;font-size:24px;"">Correct :)</p>","",""
"2580","key","n","n","16.774838709677645","500","250","psychophysics","126","516614","0.0-126.0","5d57f9cdedef630016280505","620a6771185659b2469ee154","4","","","","","1","7"
"null","","","null","","","","html-keyboard-response","127","517117","0.0-127.0","5d57f9cdedef630016280505","620a6771185659b2469ee154","","","","","<p style=""color:darkgreen;font-size:24px;"">Correct :)</p>","",""
"2698","key","v","v","16.769864197530826","500","250","psychophysics","128","519839","0.0-128.0","5d57f9cdedef630016280505","620a6771185659b2469ee154","4","","","","","1","2"
"null","","","null","","","","html-keyboard-response","129","520343","0.0-129.0","5d57f9cdedef630016280505","620a6771185659b2469ee154","","","","","<p style=""color:darkgreen;font-size:24px;"">Correct :)</p>","",""
"2564","key","n","n","16.667402597402777","500","250","psychophysics","130","522931","0.0-130.0","5d57f9cdedef630016280505","620a6771185659b2469ee154","4","","","","","1","7"
"null","","","null","","","","html-keyboard-response","131","523437","0.0-131.0","5d57f9cdedef630016280505","620a6771185659b2469ee154","","","","","<p style=""color:darkgreen;font-size:24px;"">Correct :)</p>","",""
"2549","key","n","n","16.776359477123776","500","250","psychophysics","132","526013","0.0-132.0","5d57f9cdedef630016280505","620a6771185659b2469ee154","4","","","","","1","6"
"null","","","null","","","","html-keyboard-response","133","526526","0.0-133.0","5d57f9cdedef630016280505","620a6771185659b2469ee154","","","","","<p style=""color:darkgreen;font-size:24px;"">Correct :)</p>","",""
"2536","key","n","n","16.77727631578914","500","250","psychophysics","134","529082","0.0-134.0","5d57f9cdedef630016280505","620a6771185659b2469ee154","4","","","","","1","9"
"null","","","null","","","","html-keyboard-response","135","529587","0.0-135.0","5d57f9cdedef630016280505","620a6771185659b2469ee154","","","","","<p style=""color:darkgreen;font-size:24px;"">Correct :)</p>","",""
"2552","key","v","v","16.775954545454375","500","250","psychophysics","136","532173","0.0-136.0","5d57f9cdedef630016280505","620a6771185659b2469ee154","4","","","","","1","4"
"null","","","null","","","","html-keyboard-response","137","532678","0.0-137.0","5d57f9cdedef630016280505","620a6771185659b2469ee154","","","","","<p style=""color:darkgreen;font-size:24px;"">Correct :)</p>","",""
"2542","key","n","n","16.667150326796772","500","250","psychophysics","138","535248","0.0-138.0","5d57f9cdedef630016280505","620a6771185659b2469ee154","4","","","","","1","8"
"null","","","null","","","","html-keyboard-response","139","535753","0.0-139.0","5d57f9cdedef630016280505","620a6771185659b2469ee154","","","","","<p style=""color:darkgreen;font-size:24px;"">Correct :)</p>","",""
"2602","key","n","n","16.77222435897476","500","250","psychophysics","140","538376","0.0-140.0","5d57f9cdedef630016280505","620a6771185659b2469ee154","4","","","","","1","6"
"null","","","null","","","","html-keyboard-response","141","538886","0.0-141.0","5d57f9cdedef630016280505","620a6771185659b2469ee154","","","","","<p style=""color:darkgreen;font-size:24px;"">Correct :)</p>","",""
"3289","key","v","v","16.752340101522893","500","250","psychophysics","142","542195","0.0-142.0","5d57f9cdedef630016280505","620a6771185659b2469ee154","4","","","","","1","9"
"null","","","null","","","","html-keyboard-response","143","542703","0.0-143.0","5d57f9cdedef630016280505","620a6771185659b2469ee154","","","","","<p style=""color:red;font-size:24px;"">Error :(</p>","",""
"2538","key","n","n","16.777131578947056","500","250","psychophysics","144","545260","0.0-144.0","5d57f9cdedef630016280505","620a6771185659b2469ee154","4","","","","","1","7"
"null","","","null","","","","html-keyboard-response","145","545770","0.0-145.0","5d57f9cdedef630016280505","620a6771185659b2469ee154","","","","","<p style=""color:darkgreen;font-size:24px;"">Correct :)</p>","",""
"2524","key","n","n","16.777649006622052","500","250","psychophysics","146","548313","0.0-146.0","5d57f9cdedef630016280505","620a6771185659b2469ee154","4","","","","","1","7"
"null","","","null","","","","html-keyboard-response","147","548817","0.0-147.0","5d57f9cdedef630016280505","620a6771185659b2469ee154","","","","","<p style=""color:darkgreen;font-size:24px;"">Correct :)</p>","",""
"2528","key","n","n","16.777715231787678","500","250","psychophysics","148","551371","0.0-148.0","5d57f9cdedef630016280505","620a6771185659b2469ee154","4","","","","","1","7"
"null","","","null","","","","html-keyboard-response","149","551876","0.0-149.0","5d57f9cdedef630016280505","620a6771185659b2469ee154","","","","","<p style=""color:darkgreen;font-size:24px;"">Correct :)</p>","",""
"2484","key","n","n","16.779013333333037","500","250","psychophysics","150","554389","0.0-150.0","5d57f9cdedef630016280505","620a6771185659b2469ee154","4","","","","","1","9"
"null","","","null","","","","html-keyboard-response","151","554901","0.0-151.0","5d57f9cdedef630016280505","620a6771185659b2469ee154","","","","","<p style=""color:darkgreen;font-size:24px;"">Correct :)</p>","",""
"2602","key","v","v","16.667596153846272","500","250","psychophysics","152","557524","0.0-152.0","5d57f9cdedef630016280505","620a6771185659b2469ee154","4","","","","","1","3"
"null","","","null","","","","html-keyboard-response","153","558028","0.0-153.0","5d57f9cdedef630016280505","620a6771185659b2469ee154","","","","","<p style=""color:darkgreen;font-size:24px;"">Correct :)</p>","",""
"2557","key","v","v","16.667448051948124","500","250","psychophysics","154","560609","0.0-154.0","5d57f9cdedef630016280505","620a6771185659b2469ee154","4","","","","","1","3"
"null","","","null","","","","html-keyboard-response","155","561114","0.0-155.0","5d57f9cdedef630016280505","620a6771185659b2469ee154","","","","","<p style=""color:darkgreen;font-size:24px;"">Correct :)</p>","",""
"3076","key","v","v","16.66797297297335","500","250","psychophysics","156","564213","0.0-156.0","5d57f9cdedef630016280505","620a6771185659b2469ee154","4","","","","","1","4"
"null","","","null","","","","html-keyboard-response","157","564720","0.0-157.0","5d57f9cdedef630016280505","620a6771185659b2469ee154","","","","","<p style=""color:darkgreen;font-size:24px;"">Correct :)</p>","",""
"2680","key","n","n","16.770782608695775","500","250","psychophysics","158","567424","0.0-158.0","5d57f9cdedef630016280505","620a6771185659b2469ee154","4","","","","","1","2"
"null","","","null","","","","html-keyboard-response","159","567929","0.0-159.0","5d57f9cdedef630016280505","620a6771185659b2469ee154","","","","","<p style=""color:red;font-size:24px;"">Error :(</p>","",""
"3150","key","v","v","16.667291005291094","500","250","psychophysics","160","571102","0.0-160.0","5d57f9cdedef630016280505","620a6771185659b2469ee154","4","","","","","1","4"
"null","","","null","","","","html-keyboard-response","161","571607","0.0-161.0","5d57f9cdedef630016280505","620a6771185659b2469ee154","","","","","<p style=""color:darkgreen;font-size:24px;"">Correct :)</p>","",""
"2779","key","n","n","16.767371257484758","500","250","psychophysics","162","574408","0.0-162.0","5d57f9cdedef630016280505","620a6771185659b2469ee154","4","","","","","1","6"
"null","","","null","","","","html-keyboard-response","163","574914","0.0-163.0","5d57f9cdedef630016280505","620a6771185659b2469ee154","","","","","<p style=""color:darkgreen;font-size:24px;"">Correct :)</p>","",""
"2690","key","n","n","16.770931677018606","500","250","psychophysics","164","577625","0.0-164.0","5d57f9cdedef630016280505","620a6771185659b2469ee154","4","","","","","1","7"
"null","","","null","","","","html-keyboard-response","165","578131","0.0-165.0","5d57f9cdedef630016280505","620a6771185659b2469ee154","","","","","<p style=""color:darkgreen;font-size:24px;"">Correct :)</p>","",""
"2513","key","n","n","16.66725827814527","500","250","psychophysics","166","580668","0.0-166.0","5d57f9cdedef630016280505","620a6771185659b2469ee154","4","","","","","1","6"
"null","","","null","","","","html-keyboard-response","167","581174","0.0-167.0","5d57f9cdedef630016280505","620a6771185659b2469ee154","","","","","<p style=""color:darkgreen;font-size:24px;"">Correct :)</p>","",""
"2846","key","v","v","16.863788235293676","500","250","psychophysics","168","584046","0.0-168.0","5d57f9cdedef630016280505","620a6771185659b2469ee154","4","","","","","1","1"
"null","","","null","","","","html-keyboard-response","169","584550","0.0-169.0","5d57f9cdedef630016280505","620a6771185659b2469ee154","","","","","<p style=""color:darkgreen;font-size:24px;"">Correct :)</p>","",""
"2587","key","n","n","16.77843225806456","500","250","psychophysics","170","587159","0.0-170.0","5d57f9cdedef630016280505","620a6771185659b2469ee154","4","","","","","1","7"
"null","","","null","","","","html-keyboard-response","171","587668","0.0-171.0","5d57f9cdedef630016280505","620a6771185659b2469ee154","","","","","<p style=""color:darkgreen;font-size:24px;"">Correct :)</p>","",""
"2672","key","n","n","16.770807453416726","500","250","psychophysics","172","590376","0.0-172.0","5d57f9cdedef630016280505","620a6771185659b2469ee154","4","","","","","1","6"
"null","","","null","","","","html-keyboard-response","173","590883","0.0-173.0","5d57f9cdedef630016280505","620a6771185659b2469ee154","","","","","<p style=""color:darkgreen;font-size:24px;"">Correct :)</p>","",""
"2652","key","n","n","16.667350000000443","500","250","psychophysics","174","593558","0.0-174.0","5d57f9cdedef630016280505","620a6771185659b2469ee154","4","","","","","1","9"
"null","","","null","","","","html-keyboard-response","175","594065","0.0-175.0","5d57f9cdedef630016280505","620a6771185659b2469ee154","","","","","<p style=""color:darkgreen;font-size:24px;"">Correct :)</p>","",""
"2848","key","v","v","16.668257309941506","500","250","psychophysics","176","596935","0.0-176.0","5d57f9cdedef630016280505","620a6771185659b2469ee154","4","","","","","1","4"
"null","","","null","","","","html-keyboard-response","177","597440","0.0-177.0","5d57f9cdedef630016280505","620a6771185659b2469ee154","","","","","<p style=""color:darkgreen;font-size:24px;"">Correct :)</p>","",""
"2539","key","n","n","16.777717105263083","500","250","psychophysics","178","600002","0.0-178.0","5d57f9cdedef630016280505","620a6771185659b2469ee154","4","","","","","1","6"
"null","","","null","","","","html-keyboard-response","179","600506","0.0-179.0","5d57f9cdedef630016280505","620a6771185659b2469ee154","","","","","<p style=""color:darkgreen;font-size:24px;"">Correct :)</p>","",""
"2526","key","n","n","16.77802649006596","500","250","psychophysics","180","603051","0.0-180.0","5d57f9cdedef630016280505","620a6771185659b2469ee154","4","","","","","1","7"
"null","","","null","","","","html-keyboard-response","181","603554","0.0-181.0","5d57f9cdedef630016280505","620a6771185659b2469ee154","","","","","<p style=""color:darkgreen;font-size:24px;"">Correct :)</p>","",""
"2601","key","n","n","16.774185897436183","500","250","psychophysics","182","606180","0.0-182.0","5d57f9cdedef630016280505","620a6771185659b2469ee154","4","","","","","1","9"
"null","","","null","","","","html-keyboard-response","183","606687","0.0-183.0","5d57f9cdedef630016280505","620a6771185659b2469ee154","","","","","<p style=""color:darkgreen;font-size:24px;"">Correct :)</p>","",""
"2600","key","v","v","16.774352564102557","500","250","psychophysics","184","609317","0.0-184.0","5d57f9cdedef630016280505","620a6771185659b2469ee154","4","","","","","1","1"
"null","","","null","","","","html-keyboard-response","185","609823","0.0-185.0","5d57f9cdedef630016280505","620a6771185659b2469ee154","","","","","<p style=""color:darkgreen;font-size:24px;"">Correct :)</p>","",""
"2700","key","n","n","16.770635802469094","500","250","psychophysics","186","612544","0.0-186.0","5d57f9cdedef630016280505","620a6771185659b2469ee154","4","","","","","1","6"
"null","","","null","","","","html-keyboard-response","187","613049","0.0-187.0","5d57f9cdedef630016280505","620a6771185659b2469ee154","","","","","<p style=""color:darkgreen;font-size:24px;"">Correct :)</p>","",""
"2696","key","n","n","16.770869565217303","500","250","psychophysics","188","615763","0.0-188.0","5d57f9cdedef630016280505","620a6771185659b2469ee154","4","","","","","1","7"
"null","","","null","","","","html-keyboard-response","189","616270","0.0-189.0","5d57f9cdedef630016280505","620a6771185659b2469ee154","","","","","<p style=""color:darkgreen;font-size:24px;"">Correct :)</p>","",""
"2467","key","n","n","16.780121621621515","500","250","psychophysics","190","618761","0.0-190.0","5d57f9cdedef630016280505","620a6771185659b2469ee154","4","","","","","1","8"
"null","","","null","","","","html-keyboard-response","191","619265","0.0-191.0","5d57f9cdedef630016280505","620a6771185659b2469ee154","","","","","<p style=""color:darkgreen;font-size:24px;"">Correct :)</p>","",""
"2717","key","v","v","16.66735582822074","500","250","psychophysics","192","622004","0.0-192.0","5d57f9cdedef630016280505","620a6771185659b2469ee154","4","","","","","1","1"
"null","","","null","","","","html-keyboard-response","193","622511","0.0-193.0","5d57f9cdedef630016280505","620a6771185659b2469ee154","","","","","<p style=""color:darkgreen;font-size:24px;"">Correct :)</p>","",""
"20890","","","n","","","","html-keyboard-response","194","643404","0.0-194.0","5d57f9cdedef630016280505","620a6771185659b2469ee154","","","","","<p> Ok, now we are going present the same digits as before.  Your job is to say whether the digit is even or odd  If the digit is odd, press to v key; if it is even, press the n key. We are going to do 50 of these.  </p>  <br><br>  Ready? (press v or n)","",""
"2676","key","v","v","16.771399999999993","500","250","psychophysics","195","646102","0.0-195.0","5d57f9cdedef630016280505","620a6771185659b2469ee154","5","","","","","0","3"
"null","","","null","","","","html-keyboard-response","196","646606","0.0-196.0","5d57f9cdedef630016280505","620a6771185659b2469ee154","","","","","<p style=""color:darkgreen;font-size:24px;"">Correct :)</p>","",""
"2410","key","n","n","16.782124137931408","500","250","psychophysics","197","649044","0.0-197.0","5d57f9cdedef630016280505","620a6771185659b2469ee154","5","","","","","0","4"
"null","","","null","","","","html-keyboard-response","198","649547","0.0-198.0","5d57f9cdedef630016280505","620a6771185659b2469ee154","","","","","<p style=""color:darkgreen;font-size:24px;"">Correct :)</p>","",""
"2538","key","n","n","16.66742483660156","500","250","psychophysics","199","652110","0.0-199.0","5d57f9cdedef630016280505","620a6771185659b2469ee154","5","","","","","0","4"
"null","","","null","","","","html-keyboard-response","200","652616","0.0-200.0","5d57f9cdedef630016280505","620a6771185659b2469ee154","","","","","<p style=""color:darkgreen;font-size:24px;"">Correct :)</p>","",""
"2469","key","v","v","16.667268456375513","500","250","psychophysics","201","655110","0.0-201.0","5d57f9cdedef630016280505","620a6771185659b2469ee154","5","","","","","0","3"
"null","","","null","","","","html-keyboard-response","202","655616","0.0-202.0","5d57f9cdedef630016280505","620a6771185659b2469ee154","","","","","<p style=""color:darkgreen;font-size:24px;"">Correct :)</p>","",""
"2951","key","n","n","16.668005649717315","500","250","psychophysics","203","658585","0.0-203.0","5d57f9cdedef630016280505","620a6771185659b2469ee154","5","","","","","0","7"
"null","","","null","","","","html-keyboard-response","204","659095","0.0-204.0","5d57f9cdedef630016280505","620a6771185659b2469ee154","","","","","<p style=""color:red;font-size:24px;"">Error :(</p>","",""
"2451","key","v","v","16.78117687074819","500","250","psychophysics","205","661572","0.0-205.0","5d57f9cdedef630016280505","620a6771185659b2469ee154","5","","","","","0","3"
"null","","","null","","","","html-keyboard-response","206","662077","0.0-206.0","5d57f9cdedef630016280505","620a6771185659b2469ee154","","","","","<p style=""color:darkgreen;font-size:24px;"">Correct :)</p>","",""
"2627","key","n","n","16.77306962025328","500","250","psychophysics","207","664729","0.0-207.0","5d57f9cdedef630016280505","620a6771185659b2469ee154","5","","","","","0","8"
"null","","","null","","","","html-keyboard-response","208","665235","0.0-208.0","5d57f9cdedef630016280505","620a6771185659b2469ee154","","","","","<p style=""color:darkgreen;font-size:24px;"">Correct :)</p>","",""
"2556","key","v","v","16.66724025974029","500","250","psychophysics","209","667812","0.0-209.0","5d57f9cdedef630016280505","620a6771185659b2469ee154","5","","","","","0","1"
"null","","","null","","","","html-keyboard-response","210","668317","0.0-210.0","5d57f9cdedef630016280505","620a6771185659b2469ee154","","","","","<p style=""color:darkgreen;font-size:24px;"">Correct :)</p>","",""
"2715","key","v","v","16.667601226993973","500","250","psychophysics","211","671054","0.0-211.0","5d57f9cdedef630016280505","620a6771185659b2469ee154","5","","","","","0","3"
"null","","","null","","","","html-keyboard-response","212","671560","0.0-212.0","5d57f9cdedef630016280505","620a6771185659b2469ee154","","","","","<p style=""color:darkgreen;font-size:24px;"">Correct :)</p>","",""
"2520","key","n","n","16.777834437085957","500","250","psychophysics","213","674102","0.0-213.0","5d57f9cdedef630016280505","620a6771185659b2469ee154","5","","","","","0","2"
"null","","","null","","","","html-keyboard-response","214","674607","0.0-214.0","5d57f9cdedef630016280505","620a6771185659b2469ee154","","","","","<p style=""color:darkgreen;font-size:24px;"">Correct :)</p>","",""
"2571","key","n","n","16.7756753246755","500","250","psychophysics","215","677202","0.0-215.0","5d57f9cdedef630016280505","620a6771185659b2469ee154","5","","","","","0","6"
"null","","","null","","","","html-keyboard-response","216","677708","0.0-216.0","5d57f9cdedef630016280505","620a6771185659b2469ee154","","","","","<p style=""color:darkgreen;font-size:24px;"">Correct :)</p>","",""
"2762","key","v","v","16.76770481927719","500","250","psychophysics","217","680497","0.0-217.0","5d57f9cdedef630016280505","620a6771185659b2469ee154","5","","","","","0","3"
"null","","","null","","","","html-keyboard-response","218","681003","0.0-218.0","5d57f9cdedef630016280505","620a6771185659b2469ee154","","","","","<p style=""color:darkgreen;font-size:24px;"">Correct :)</p>","",""
"2613","key","n","n","16.66774522293","500","250","psychophysics","219","683637","0.0-219.0","5d57f9cdedef630016280505","620a6771185659b2469ee154","5","","","","","0","2"
"null","","","null","","","","html-keyboard-response","220","684142","0.0-220.0","5d57f9cdedef630016280505","620a6771185659b2469ee154","","","","","<p style=""color:darkgreen;font-size:24px;"">Correct :)</p>","",""
"2567","key","n","n","16.88572549019648","500","250","psychophysics","221","686736","0.0-221.0","5d57f9cdedef630016280505","620a6771185659b2469ee154","5","","","","","0","3"
"null","","","null","","","","html-keyboard-response","222","687240","0.0-222.0","5d57f9cdedef630016280505","620a6771185659b2469ee154","","","","","<p style=""color:red;font-size:24px;"">Error :(</p>","",""
"2621","key","n","n","16.773280254776505","500","250","psychophysics","223","689885","0.0-223.0","5d57f9cdedef630016280505","620a6771185659b2469ee154","5","","","","","0","9"
"null","","","null","","","","html-keyboard-response","224","690389","0.0-224.0","5d57f9cdedef630016280505","620a6771185659b2469ee154","","","","","<p style=""color:red;font-size:24px;"">Error :(</p>","",""
"2644","key","n","n","16.66762893081792","500","250","psychophysics","225","693058","0.0-225.0","5d57f9cdedef630016280505","620a6771185659b2469ee154","5","","","","","0","2"
"null","","","null","","","","html-keyboard-response","226","693564","0.0-226.0","5d57f9cdedef630016280505","620a6771185659b2469ee154","","","","","<p style=""color:darkgreen;font-size:24px;"">Correct :)</p>","",""
"2593","key","v","v","16.77405769230786","500","250","psychophysics","227","696180","0.0-227.0","5d57f9cdedef630016280505","620a6771185659b2469ee154","5","","","","","0","7"
"null","","","null","","","","html-keyboard-response","228","696685","0.0-228.0","5d57f9cdedef630016280505","620a6771185659b2469ee154","","","","","<p style=""color:darkgreen;font-size:24px;"">Correct :)</p>","",""
"2571","key","v","v","16.667548387096595","500","250","psychophysics","229","699280","0.0-229.0","5d57f9cdedef630016280505","620a6771185659b2469ee154","5","","","","","0","1"
"null","","","null","","","","html-keyboard-response","230","699784","0.0-230.0","5d57f9cdedef630016280505","620a6771185659b2469ee154","","","","","<p style=""color:darkgreen;font-size:24px;"">Correct :)</p>","",""
"2522","key","n","n","16.66726315789473","500","250","psychophysics","231","702326","0.0-231.0","5d57f9cdedef630016280505","620a6771185659b2469ee154","5","","","","","0","2"
"null","","","null","","","","html-keyboard-response","232","702831","0.0-232.0","5d57f9cdedef630016280505","620a6771185659b2469ee154","","","","","<p style=""color:darkgreen;font-size:24px;"">Correct :)</p>","",""
"2586","key","n","n","16.77540645161343","500","250","psychophysics","233","705435","0.0-233.0","5d57f9cdedef630016280505","620a6771185659b2469ee154","5","","","","","0","8"
"null","","","null","","","","html-keyboard-response","234","705941","0.0-234.0","5d57f9cdedef630016280505","620a6771185659b2469ee154","","","","","<p style=""color:darkgreen;font-size:24px;"">Correct :)</p>","",""
"2584","key","n","n","16.774780645161385","500","250","psychophysics","235","708550","0.0-235.0","5d57f9cdedef630016280505","620a6771185659b2469ee154","5","","","","","0","2"
"null","","","null","","","","html-keyboard-response","236","709055","0.0-236.0","5d57f9cdedef630016280505","620a6771185659b2469ee154","","","","","<p style=""color:darkgreen;font-size:24px;"">Correct :)</p>","",""
"2677","key","v","v","16.66754658385151","500","250","psychophysics","237","711753","0.0-237.0","5d57f9cdedef630016280505","620a6771185659b2469ee154","5","","","","","0","7"
"null","","","null","","","","html-keyboard-response","238","712257","0.0-238.0","5d57f9cdedef630016280505","620a6771185659b2469ee154","","","","","<p style=""color:darkgreen;font-size:24px;"">Correct :)</p>","",""
"2588","key","n","n","16.77501935483888","500","250","psychophysics","239","714866","0.0-239.0","5d57f9cdedef630016280505","620a6771185659b2469ee154","5","","","","","0","6"
"null","","","null","","","","html-keyboard-response","240","715370","0.0-240.0","5d57f9cdedef630016280505","620a6771185659b2469ee154","","","","","<p style=""color:darkgreen;font-size:24px;"">Correct :)</p>","",""
"2805","key","v","v","16.666088757396555","500","250","psychophysics","241","718200","0.0-241.0","5d57f9cdedef630016280505","620a6771185659b2469ee154","5","","","","","0","9"
"null","","","null","","","","html-keyboard-response","242","718706","0.0-242.0","5d57f9cdedef630016280505","620a6771185659b2469ee154","","","","","<p style=""color:darkgreen;font-size:24px;"">Correct :)</p>","",""
"2533","key","n","n","16.777190789473888","500","250","psychophysics","243","721263","0.0-243.0","5d57f9cdedef630016280505","620a6771185659b2469ee154","5","","","","","0","2"
"null","","","null","","","","html-keyboard-response","244","721767","0.0-244.0","5d57f9cdedef630016280505","620a6771185659b2469ee154","","","","","<p style=""color:darkgreen;font-size:24px;"">Correct :)</p>","",""
"2764","key","v","v","16.667415662650413","500","250","psychophysics","245","724552","0.0-245.0","5d57f9cdedef630016280505","620a6771185659b2469ee154","5","","","","","0","1"
"null","","","null","","","","html-keyboard-response","246","725057","0.0-246.0","5d57f9cdedef630016280505","620a6771185659b2469ee154","","","","","<p style=""color:darkgreen;font-size:24px;"">Correct :)</p>","",""
"2496","key","v","v","16.77818000000048","500","250","psychophysics","247","727584","0.0-247.0","5d57f9cdedef630016280505","620a6771185659b2469ee154","5","","","","","0","3"
"null","","","null","","","","html-keyboard-response","248","728097","0.0-248.0","5d57f9cdedef630016280505","620a6771185659b2469ee154","","","","","<p style=""color:darkgreen;font-size:24px;"">Correct :)</p>","",""
"2451","key","n","n","16.89569178082237","500","250","psychophysics","249","730572","0.0-249.0","5d57f9cdedef630016280505","620a6771185659b2469ee154","5","","","","","0","7"
"null","","","null","","","","html-keyboard-response","250","731078","0.0-250.0","5d57f9cdedef630016280505","620a6771185659b2469ee154","","","","","<p style=""color:red;font-size:24px;"">Error :(</p>","",""
"2624","key","n","n","16.77329113924083","500","250","psychophysics","251","733735","0.0-251.0","5d57f9cdedef630016280505","620a6771185659b2469ee154","5","","","","","0","2"
"null","","","null","","","","html-keyboard-response","252","734240","0.0-252.0","5d57f9cdedef630016280505","620a6771185659b2469ee154","","","","","<p style=""color:darkgreen;font-size:24px;"">Correct :)</p>","",""
"2606","key","v","v","16.667738853502946","500","250","psychophysics","253","736865","0.0-253.0","5d57f9cdedef630016280505","620a6771185659b2469ee154","5","","","","","0","2"
"null","","","null","","","","html-keyboard-response","254","737371","0.0-254.0","5d57f9cdedef630016280505","620a6771185659b2469ee154","","","","","<p style=""color:red;font-size:24px;"">Error :(</p>","",""
"3137","key","n","n","16.667978723404033","500","250","psychophysics","255","740529","0.0-255.0","5d57f9cdedef630016280505","620a6771185659b2469ee154","5","","","","","0","2"
"null","","","null","","","","html-keyboard-response","256","741033","0.0-256.0","5d57f9cdedef630016280505","620a6771185659b2469ee154","","","","","<p style=""color:darkgreen;font-size:24px;"">Correct :)</p>","",""
"2590","key","n","n","16.667070512820292","500","250","psychophysics","257","743648","0.0-257.0","5d57f9cdedef630016280505","620a6771185659b2469ee154","5","","","","","0","2"
"null","","","null","","","","html-keyboard-response","258","744155","0.0-258.0","5d57f9cdedef630016280505","620a6771185659b2469ee154","","","","","<p style=""color:darkgreen;font-size:24px;"">Correct :)</p>","",""
"2711","key","v","v","16.77027777777726","500","250","psychophysics","259","746889","0.0-259.0","5d57f9cdedef630016280505","620a6771185659b2469ee154","5","","","","","0","9"
"null","","","null","","","","html-keyboard-response","260","747395","0.0-260.0","5d57f9cdedef630016280505","620a6771185659b2469ee154","","","","","<p style=""color:darkgreen;font-size:24px;"">Correct :)</p>","",""
"2668","key","v","v","16.771787499999483","500","250","psychophysics","261","750083","0.0-261.0","5d57f9cdedef630016280505","620a6771185659b2469ee154","5","","","","","0","1"
"null","","","null","","","","html-keyboard-response","262","750592","0.0-262.0","5d57f9cdedef630016280505","620a6771185659b2469ee154","","","","","<p style=""color:darkgreen;font-size:24px;"">Correct :)</p>","",""
"2813","key","n","n","16.66740236686372","500","250","psychophysics","263","753425","0.0-263.0","5d57f9cdedef630016280505","620a6771185659b2469ee154","5","","","","","0","6"
"null","","","null","","","","html-keyboard-response","264","753929","0.0-264.0","5d57f9cdedef630016280505","620a6771185659b2469ee154","","","","","<p style=""color:darkgreen;font-size:24px;"">Correct :)</p>","",""
"2497","key","n","n","16.891416107382526","500","250","psychophysics","265","756448","0.0-265.0","5d57f9cdedef630016280505","620a6771185659b2469ee154","5","","","","","0","2"
"null","","","null","","","","html-keyboard-response","266","756951","0.0-266.0","5d57f9cdedef630016280505","620a6771185659b2469ee154","","","","","<p style=""color:darkgreen;font-size:24px;"">Correct :)</p>","",""
"2660","key","v","v","16.667462499999964","500","250","psychophysics","267","759634","0.0-267.0","5d57f9cdedef630016280505","620a6771185659b2469ee154","5","","","","","0","3"
"null","","","null","","","","html-keyboard-response","268","760143","0.0-268.0","5d57f9cdedef630016280505","620a6771185659b2469ee154","","","","","<p style=""color:darkgreen;font-size:24px;"">Correct :)</p>","",""
"2703","key","n","n","16.7702530864195","500","250","psychophysics","269","762874","0.0-269.0","5d57f9cdedef630016280505","620a6771185659b2469ee154","5","","","","","0","2"
"null","","","null","","","","html-keyboard-response","270","763380","0.0-270.0","5d57f9cdedef630016280505","620a6771185659b2469ee154","","","","","<p style=""color:darkgreen;font-size:24px;"">Correct :)</p>","",""
"2545","key","n","n","16.77634640522849","500","250","psychophysics","271","765948","0.0-271.0","5d57f9cdedef630016280505","620a6771185659b2469ee154","5","","","","","0","9"
"null","","","null","","","","html-keyboard-response","272","766453","0.0-272.0","5d57f9cdedef630016280505","620a6771185659b2469ee154","","","","","<p style=""color:red;font-size:24px;"">Error :(</p>","",""
"2787","key","n","n","16.6672202380952","500","250","psychophysics","273","769263","0.0-273.0","5d57f9cdedef630016280505","620a6771185659b2469ee154","5","","","","","0","6"
"null","","","null","","","","html-keyboard-response","274","769768","0.0-274.0","5d57f9cdedef630016280505","620a6771185659b2469ee154","","","","","<p style=""color:darkgreen;font-size:24px;"">Correct :)</p>","",""
"2696","key","v","v","16.87465838509357","500","250","psychophysics","275","772485","0.0-275.0","5d57f9cdedef630016280505","620a6771185659b2469ee154","5","","","","","0","1"
"null","","","null","","","","html-keyboard-response","276","772996","0.0-276.0","5d57f9cdedef630016280505","620a6771185659b2469ee154","","","","","<p style=""color:darkgreen;font-size:24px;"">Correct :)</p>","",""
"2999","key","v","v","16.853452513966054","500","250","psychophysics","277","776020","0.0-277.0","5d57f9cdedef630016280505","620a6771185659b2469ee154","5","","","","","0","1"
"null","","","null","","","","html-keyboard-response","278","776527","0.0-278.0","5d57f9cdedef630016280505","620a6771185659b2469ee154","","","","","<p style=""color:darkgreen;font-size:24px;"">Correct :)</p>","",""
"2517","key","n","n","16.77806622516564","500","250","psychophysics","279","779064","0.0-279.0","5d57f9cdedef630016280505","620a6771185659b2469ee154","5","","","","","0","6"
"null","","","null","","","","html-keyboard-response","280","779568","0.0-280.0","5d57f9cdedef630016280505","620a6771185659b2469ee154","","","","","<p style=""color:darkgreen;font-size:24px;"">Correct :)</p>","",""
"2640","key","n","n","16.667314465408822","500","250","psychophysics","281","782230","0.0-281.0","5d57f9cdedef630016280505","620a6771185659b2469ee154","5","","","","","0","8"
"null","","","null","","","","html-keyboard-response","282","782734","0.0-282.0","5d57f9cdedef630016280505","620a6771185659b2469ee154","","","","","<p style=""color:darkgreen;font-size:24px;"">Correct :)</p>","",""
"2712","key","v","v","16.769969325153404","500","250","psychophysics","283","785464","0.0-283.0","5d57f9cdedef630016280505","620a6771185659b2469ee154","5","","","","","0","7"
"null","","","null","","","","html-keyboard-response","284","785974","0.0-284.0","5d57f9cdedef630016280505","620a6771185659b2469ee154","","","","","<p style=""color:darkgreen;font-size:24px;"">Correct :)</p>","",""
"2539","key","v","v","16.777124999999376","500","250","psychophysics","285","788542","0.0-285.0","5d57f9cdedef630016280505","620a6771185659b2469ee154","5","","","","","0","7"
"null","","","null","","","","html-keyboard-response","286","789046","0.0-286.0","5d57f9cdedef630016280505","620a6771185659b2469ee154","","","","","<p style=""color:darkgreen;font-size:24px;"">Correct :)</p>","",""
"2808","key","v","v","16.766446428570948","500","250","psychophysics","287","791873","0.0-287.0","5d57f9cdedef630016280505","620a6771185659b2469ee154","5","","","","","0","1"
"null","","","null","","","","html-keyboard-response","288","792378","0.0-288.0","5d57f9cdedef630016280505","620a6771185659b2469ee154","","","","","<p style=""color:darkgreen;font-size:24px;"">Correct :)</p>","",""
"2658","key","v","v","16.877169811320577","500","250","psychophysics","289","795065","0.0-289.0","5d57f9cdedef630016280505","620a6771185659b2469ee154","5","","","","","0","9"
"null","","","null","","","","html-keyboard-response","290","795571","0.0-290.0","5d57f9cdedef630016280505","620a6771185659b2469ee154","","","","","<p style=""color:darkgreen;font-size:24px;"">Correct :)</p>","",""
"2654","key","v","v","16.667475000000557","500","250","psychophysics","291","798247","0.0-291.0","5d57f9cdedef630016280505","620a6771185659b2469ee154","5","","","","","0","1"
"null","","","null","","","","html-keyboard-response","292","798755","0.0-292.0","5d57f9cdedef630016280505","620a6771185659b2469ee154","","","","","<p style=""color:darkgreen;font-size:24px;"">Correct :)</p>","",""
"2613","key","v","v","16.667464968152967","500","250","psychophysics","293","801388","0.0-293.0","5d57f9cdedef630016280505","620a6771185659b2469ee154","5","","","","","0","1"
"null","","","null","","","","html-keyboard-response","294","801894","0.0-294.0","5d57f9cdedef630016280505","620a6771185659b2469ee154","","","","","<p style=""color:darkgreen;font-size:24px;"">Correct :)</p>","",""
"68489","","","v","","","","html-keyboard-response","295","870387","0.0-295.0","5d57f9cdedef630016280505","620a6771185659b2469ee154","","","","","<p> Here, the tasks are going to switch.  For some trials, your job is to decide if the digit is less than or greater than 5.  For others, it is to decide if the digit is even or odd.  You will be told which type of trial the current one is.  But, pay attention, the type of trial changes too.  We are going to do 50 of these.  </p>  <br><br>  Ready? (press v or n)","",""
"3401","key","n","n","16.749225490195812","500","250","psychophysics","296","873814","0.0-296.0","5d57f9cdedef630016280505","620a6771185659b2469ee154","6","","","","","1","7"
"null","","","null","","","","html-keyboard-response","297","874320","0.0-297.0","5d57f9cdedef630016280505","620a6771185659b2469ee154","","","","","<p style=""color:darkgreen;font-size:24px;"">Correct :)</p>","",""
"2707","key","n","n","16.770518518518656","500","250","psychophysics","298","877044","0.0-298.0","5d57f9cdedef630016280505","620a6771185659b2469ee154","6","","","","","0","4"
"null","","","null","","","","html-keyboard-response","299","877548","0.0-299.0","5d57f9cdedef630016280505","620a6771185659b2469ee154","","","","","<p style=""color:darkgreen;font-size:24px;"">Correct :)</p>","",""
"3505","key","n","n","16.746885714285252","500","250","psychophysics","300","881079","0.0-300.0","5d57f9cdedef630016280505","620a6771185659b2469ee154","6","","","","","1","9"
"null","","","null","","","","html-keyboard-response","301","881584","0.0-301.0","5d57f9cdedef630016280505","620a6771185659b2469ee154","","","","","<p style=""color:darkgreen;font-size:24px;"">Correct :)</p>","",""
"3142","key","n","n","17.21103804347829","500","250","psychophysics","302","884754","0.0-302.0","5d57f9cdedef630016280505","620a6771185659b2469ee154","6","","","","","1","6"
"null","","","null","","","","html-keyboard-response","303","885266","0.0-303.0","5d57f9cdedef630016280505","620a6771185659b2469ee154","","","","","<p style=""color:darkgreen;font-size:24px;"">Correct :)</p>","",""
"3339","key","v","v","16.750779999999796","500","250","psychophysics","304","888632","0.0-304.0","5d57f9cdedef630016280505","620a6771185659b2469ee154","6","","","","","0","9"
"null","","","null","","","","html-keyboard-response","305","889136","0.0-305.0","5d57f9cdedef630016280505","620a6771185659b2469ee154","","","","","<p style=""color:darkgreen;font-size:24px;"">Correct :)</p>","",""
"2960","key","n","n","16.76142134831491","500","250","psychophysics","306","892129","0.0-306.0","5d57f9cdedef630016280505","620a6771185659b2469ee154","6","","","","","1","2"
"null","","","null","","","","html-keyboard-response","307","892636","0.0-307.0","5d57f9cdedef630016280505","620a6771185659b2469ee154","","","","","<p style=""color:red;font-size:24px;"">Error :(</p>","",""
"3474","key","n","n","16.747186602870865","500","250","psychophysics","308","896141","0.0-308.0","5d57f9cdedef630016280505","620a6771185659b2469ee154","6","","","","","1","1"
"null","","","null","","","","html-keyboard-response","309","896647","0.0-309.0","5d57f9cdedef630016280505","620a6771185659b2469ee154","","","","","<p style=""color:red;font-size:24px;"">Error :(</p>","",""
"2626","key","v","v","16.77371974522322","500","250","psychophysics","310","899294","0.0-310.0","5d57f9cdedef630016280505","620a6771185659b2469ee154","6","","","","","0","3"
"null","","","null","","","","html-keyboard-response","311","899799","0.0-311.0","5d57f9cdedef630016280505","620a6771185659b2469ee154","","","","","<p style=""color:darkgreen;font-size:24px;"">Correct :)</p>","",""
"2983","key","v","v","16.760759776536187","500","250","psychophysics","312","902804","0.0-312.0","5d57f9cdedef630016280505","620a6771185659b2469ee154","6","","","","","0","3"
"null","","","null","","","","html-keyboard-response","313","903308","0.0-313.0","5d57f9cdedef630016280505","620a6771185659b2469ee154","","","","","<p style=""color:darkgreen;font-size:24px;"">Correct :)</p>","",""
"2479","key","n","n","16.894843537415074","500","250","psychophysics","314","905810","0.0-314.0","5d57f9cdedef630016280505","620a6771185659b2469ee154","6","","","","","1","8"
"null","","","null","","","","html-keyboard-response","315","906315","0.0-315.0","5d57f9cdedef630016280505","620a6771185659b2469ee154","","","","","<p style=""color:darkgreen;font-size:24px;"">Correct :)</p>","",""
"3271","key","v","v","16.75262755102048","500","250","psychophysics","316","909609","0.0-316.0","5d57f9cdedef630016280505","620a6771185659b2469ee154","6","","","","","0","7"
"null","","","null","","","","html-keyboard-response","317","910121","0.0-317.0","5d57f9cdedef630016280505","620a6771185659b2469ee154","","","","","<p style=""color:darkgreen;font-size:24px;"">Correct :)</p>","",""
"3022","key","n","n","16.759696132596712","500","250","psychophysics","318","913162","0.0-318.0","5d57f9cdedef630016280505","620a6771185659b2469ee154","6","","","","","1","8"
"null","","","null","","","","html-keyboard-response","319","913666","0.0-319.0","5d57f9cdedef630016280505","620a6771185659b2469ee154","","","","","<p style=""color:darkgreen;font-size:24px;"">Correct :)</p>","",""
"2655","key","n","n","16.878924050632882","500","250","psychophysics","320","916342","0.0-320.0","5d57f9cdedef630016280505","620a6771185659b2469ee154","6","","","","","0","8"
"null","","","null","","","","html-keyboard-response","321","916846","0.0-321.0","5d57f9cdedef630016280505","620a6771185659b2469ee154","","","","","<p style=""color:darkgreen;font-size:24px;"">Correct :)</p>","",""
"3337","key","v","v","16.667323383084494","500","250","psychophysics","322","920203","0.0-322.0","5d57f9cdedef630016280505","620a6771185659b2469ee154","6","","","","","1","2"
"null","","","null","","","","html-keyboard-response","323","920709","0.0-323.0","5d57f9cdedef630016280505","620a6771185659b2469ee154","","","","","<p style=""color:darkgreen;font-size:24px;"">Correct :)</p>","",""
"2772","key","v","v","16.767909638554205","500","250","psychophysics","324","923504","0.0-324.0","5d57f9cdedef630016280505","620a6771185659b2469ee154","6","","","","","1","1"
"null","","","null","","","","html-keyboard-response","325","924011","0.0-325.0","5d57f9cdedef630016280505","620a6771185659b2469ee154","","","","","<p style=""color:darkgreen;font-size:24px;"">Correct :)</p>","",""
"2970","key","v","v","16.761089887640704","500","250","psychophysics","326","927005","0.0-326.0","5d57f9cdedef630016280505","620a6771185659b2469ee154","6","","","","","1","3"
"null","","","null","","","","html-keyboard-response","327","927511","0.0-327.0","5d57f9cdedef630016280505","620a6771185659b2469ee154","","","","","<p style=""color:darkgreen;font-size:24px;"">Correct :)</p>","",""
"2911","key","v","v","16.85955172413813","500","250","psychophysics","328","930456","0.0-328.0","5d57f9cdedef630016280505","620a6771185659b2469ee154","6","","","","","1","3"
"null","","","null","","","","html-keyboard-response","329","930965","0.0-329.0","5d57f9cdedef630016280505","620a6771185659b2469ee154","","","","","<p style=""color:darkgreen;font-size:24px;"">Correct :)</p>","",""
"2916","key","v","v","16.762377142857627","500","250","psychophysics","330","933903","0.0-330.0","5d57f9cdedef630016280505","620a6771185659b2469ee154","6","","","","","0","9"
"null","","","null","","","","html-keyboard-response","331","934408","0.0-331.0","5d57f9cdedef630016280505","620a6771185659b2469ee154","","","","","<p style=""color:darkgreen;font-size:24px;"">Correct :)</p>","",""
"2942","key","v","v","16.66757062146911","500","250","psychophysics","332","937373","0.0-332.0","5d57f9cdedef630016280505","620a6771185659b2469ee154","6","","","","","0","7"
"null","","","null","","","","html-keyboard-response","333","937880","0.0-333.0","5d57f9cdedef630016280505","620a6771185659b2469ee154","","","","","<p style=""color:darkgreen;font-size:24px;"">Correct :)</p>","",""
"2737","key","n","n","16.667560975610353","500","250","psychophysics","334","940636","0.0-334.0","5d57f9cdedef630016280505","620a6771185659b2469ee154","6","","","","","1","6"
"null","","","null","","","","html-keyboard-response","335","941144","0.0-335.0","5d57f9cdedef630016280505","620a6771185659b2469ee154","","","","","<p style=""color:darkgreen;font-size:24px;"">Correct :)</p>","",""
"3086","key","v","v","16.66717204301097","500","250","psychophysics","336","944254","0.0-336.0","5d57f9cdedef630016280505","620a6771185659b2469ee154","6","","","","","0","1"
"null","","","null","","","","html-keyboard-response","337","944761","0.0-337.0","5d57f9cdedef630016280505","620a6771185659b2469ee154","","","","","<p style=""color:darkgreen;font-size:24px;"">Correct :)</p>","",""
"2975","key","n","n","16.761022471909783","500","250","psychophysics","338","947756","0.0-338.0","5d57f9cdedef630016280505","620a6771185659b2469ee154","6","","","","","0","4"
"null","","","null","","","","html-keyboard-response","339","948263","0.0-339.0","5d57f9cdedef630016280505","620a6771185659b2469ee154","","","","","<p style=""color:darkgreen;font-size:24px;"">Correct :)</p>","",""
"3030","key","n","n","16.66583516483533","500","250","psychophysics","340","951313","0.0-340.0","5d57f9cdedef630016280505","620a6771185659b2469ee154","6","","","","","0","8"
"null","","","null","","","","html-keyboard-response","341","951822","0.0-341.0","5d57f9cdedef630016280505","620a6771185659b2469ee154","","","","","<p style=""color:darkgreen;font-size:24px;"">Correct :)</p>","",""
"2778","key","n","n","16.76735928143698","500","250","psychophysics","342","954625","0.0-342.0","5d57f9cdedef630016280505","620a6771185659b2469ee154","6","","","","","1","2"
"null","","","null","","","","html-keyboard-response","343","955134","0.0-343.0","5d57f9cdedef630016280505","620a6771185659b2469ee154","","","","","<p style=""color:red;font-size:24px;"">Error :(</p>","",""
"2759","key","n","n","16.768156626506524","500","250","psychophysics","344","957922","0.0-344.0","5d57f9cdedef630016280505","620a6771185659b2469ee154","6","","","","","0","8"
"null","","","null","","","","html-keyboard-response","345","958426","0.0-345.0","5d57f9cdedef630016280505","620a6771185659b2469ee154","","","","","<p style=""color:darkgreen;font-size:24px;"">Correct :)</p>","",""
"2772","key","v","v","16.66716167664652","500","250","psychophysics","346","961221","0.0-346.0","5d57f9cdedef630016280505","620a6771185659b2469ee154","6","","","","","0","9"
"null","","","null","","","","html-keyboard-response","347","961727","0.0-347.0","5d57f9cdedef630016280505","620a6771185659b2469ee154","","","","","<p style=""color:darkgreen;font-size:24px;"">Correct :)</p>","",""
"2931","key","n","n","16.667562500000216","500","250","psychophysics","348","964683","0.0-348.0","5d57f9cdedef630016280505","620a6771185659b2469ee154","6","","","","","0","8"
"null","","","null","","","","html-keyboard-response","349","965193","0.0-349.0","5d57f9cdedef630016280505","620a6771185659b2469ee154","","","","","<p style=""color:darkgreen;font-size:24px;"">Correct :)</p>","",""
"3163","key","v","v","16.667405263158052","500","250","psychophysics","350","968376","0.0-350.0","5d57f9cdedef630016280505","620a6771185659b2469ee154","6","","","","","0","7"
"null","","","null","","","","html-keyboard-response","351","968881","0.0-351.0","5d57f9cdedef630016280505","620a6771185659b2469ee154","","","","","<p style=""color:darkgreen;font-size:24px;"">Correct :)</p>","",""
"3224","key","v","v","16.66757731958768","500","250","psychophysics","352","972128","0.0-352.0","5d57f9cdedef630016280505","620a6771185659b2469ee154","6","","","","","0","7"
"null","","","null","","","","html-keyboard-response","353","972635","0.0-353.0","5d57f9cdedef630016280505","620a6771185659b2469ee154","","","","","<p style=""color:darkgreen;font-size:24px;"">Correct :)</p>","",""
"2850","key","v","v","16.86351764705854","500","250","psychophysics","354","975515","0.0-354.0","5d57f9cdedef630016280505","620a6771185659b2469ee154","6","","","","","1","1"
"null","","","null","","","","html-keyboard-response","355","976023","0.0-355.0","5d57f9cdedef630016280505","620a6771185659b2469ee154","","","","","<p style=""color:darkgreen;font-size:24px;"">Correct :)</p>","",""
"2914","key","n","n","16.762662857142942","500","250","psychophysics","356","978961","0.0-356.0","5d57f9cdedef630016280505","620a6771185659b2469ee154","6","","","","","1","8"
"null","","","null","","","","html-keyboard-response","357","979465","0.0-357.0","5d57f9cdedef630016280505","620a6771185659b2469ee154","","","","","<p style=""color:darkgreen;font-size:24px;"">Correct :)</p>","",""
"2782","key","n","n","16.769035928143733","500","250","psychophysics","358","982275","0.0-358.0","5d57f9cdedef630016280505","620a6771185659b2469ee154","6","","","","","0","4"
"null","","","null","","","","html-keyboard-response","359","982781","0.0-359.0","5d57f9cdedef630016280505","620a6771185659b2469ee154","","","","","<p style=""color:darkgreen;font-size:24px;"">Correct :)</p>","",""
"2611","key","n","n","16.882529032258166","500","250","psychophysics","360","985414","0.0-360.0","5d57f9cdedef630016280505","620a6771185659b2469ee154","6","","","","","0","6"
"null","","","null","","","","html-keyboard-response","361","985918","0.0-361.0","5d57f9cdedef630016280505","620a6771185659b2469ee154","","","","","<p style=""color:darkgreen;font-size:24px;"">Correct :)</p>","",""
"2621","key","v","v","16.77709493670934","500","250","psychophysics","362","988570","0.0-362.0","5d57f9cdedef630016280505","620a6771185659b2469ee154","6","","","","","1","1"
"null","","","null","","","","html-keyboard-response","363","989075","0.0-363.0","5d57f9cdedef630016280505","620a6771185659b2469ee154","","","","","<p style=""color:darkgreen;font-size:24px;"">Correct :)</p>","",""
"2593","key","n","n","16.77429487179511","500","250","psychophysics","364","991694","0.0-364.0","5d57f9cdedef630016280505","620a6771185659b2469ee154","6","","","","","1","8"
"null","","","null","","","","html-keyboard-response","365","992198","0.0-365.0","5d57f9cdedef630016280505","620a6771185659b2469ee154","","","","","<p style=""color:darkgreen;font-size:24px;"">Correct :)</p>","",""
"2914","key","v","v","16.66756000000052","500","250","psychophysics","366","995134","0.0-366.0","5d57f9cdedef630016280505","620a6771185659b2469ee154","6","","","","","0","9"
"null","","","null","","","","html-keyboard-response","367","995640","0.0-367.0","5d57f9cdedef630016280505","620a6771185659b2469ee154","","","","","<p style=""color:darkgreen;font-size:24px;"">Correct :)</p>","",""
"2620","key","n","n","16.773942675159734","500","250","psychophysics","368","998283","0.0-368.0","5d57f9cdedef630016280505","620a6771185659b2469ee154","6","","","","","0","6"
"null","","","null","","","","html-keyboard-response","369","998790","0.0-369.0","5d57f9cdedef630016280505","620a6771185659b2469ee154","","","","","<p style=""color:darkgreen;font-size:24px;"">Correct :)</p>","",""
"2596","key","n","n","16.774134615384703","500","250","psychophysics","370","1001408","0.0-370.0","5d57f9cdedef630016280505","620a6771185659b2469ee154","6","","","","","0","6"
"null","","","null","","","","html-keyboard-response","371","1001916","0.0-371.0","5d57f9cdedef630016280505","620a6771185659b2469ee154","","","","","<p style=""color:darkgreen;font-size:24px;"">Correct :)</p>","",""
"2781","key","n","n","16.667790419161374","500","250","psychophysics","372","1004715","0.0-372.0","5d57f9cdedef630016280505","620a6771185659b2469ee154","6","","","","","0","8"
"null","","","null","","","","html-keyboard-response","373","1005223","0.0-373.0","5d57f9cdedef630016280505","620a6771185659b2469ee154","","","","","<p style=""color:darkgreen;font-size:24px;"">Correct :)</p>","",""
"2701","key","n","n","16.770839506173132","500","250","psychophysics","374","1007947","0.0-374.0","5d57f9cdedef630016280505","620a6771185659b2469ee154","6","","","","","0","4"
"null","","","null","","","","html-keyboard-response","375","1008456","0.0-375.0","5d57f9cdedef630016280505","620a6771185659b2469ee154","","","","","<p style=""color:darkgreen;font-size:24px;"">Correct :)</p>","",""
"2716","key","n","n","16.769625766871304","500","250","psychophysics","376","1011191","0.0-376.0","5d57f9cdedef630016280505","620a6771185659b2469ee154","6","","","","","0","6"
"null","","","null","","","","html-keyboard-response","377","1011695","0.0-377.0","5d57f9cdedef630016280505","620a6771185659b2469ee154","","","","","<p style=""color:darkgreen;font-size:24px;"">Correct :)</p>","",""
"2723","key","v","v","16.76919512195149","500","250","psychophysics","378","1014454","0.0-378.0","5d57f9cdedef630016280505","620a6771185659b2469ee154","6","","","","","0","1"
"null","","","null","","","","html-keyboard-response","379","1014958","0.0-379.0","5d57f9cdedef630016280505","620a6771185659b2469ee154","","","","","<p style=""color:darkgreen;font-size:24px;"">Correct :)</p>","",""
"2695","key","v","v","16.770493827160177","500","250","psychophysics","380","1017678","0.0-380.0","5d57f9cdedef630016280505","620a6771185659b2469ee154","6","","","","","0","1"
"null","","","null","","","","html-keyboard-response","381","1018182","0.0-381.0","5d57f9cdedef630016280505","620a6771185659b2469ee154","","","","","<p style=""color:darkgreen;font-size:24px;"">Correct :)</p>","",""
"2652","key","n","n","16.986261146496773","500","250","psychophysics","382","1020857","0.0-382.0","5d57f9cdedef630016280505","620a6771185659b2469ee154","6","","","","","0","2"
"null","","","null","","","","html-keyboard-response","383","1021367","0.0-383.0","5d57f9cdedef630016280505","620a6771185659b2469ee154","","","","","<p style=""color:darkgreen;font-size:24px;"">Correct :)</p>","",""
"2606","key","n","n","16.772743589744024","500","250","psychophysics","384","1023996","0.0-384.0","5d57f9cdedef630016280505","620a6771185659b2469ee154","6","","","","","0","8"
"null","","","null","","","","html-keyboard-response","385","1024502","0.0-385.0","5d57f9cdedef630016280505","620a6771185659b2469ee154","","","","","<p style=""color:darkgreen;font-size:24px;"">Correct :)</p>","",""
"2705","key","v","v","16.667441717791085","500","250","psychophysics","386","1027226","0.0-386.0","5d57f9cdedef630016280505","620a6771185659b2469ee154","6","","","","","0","1"
"null","","","null","","","","html-keyboard-response","387","1027738","0.0-387.0","5d57f9cdedef630016280505","620a6771185659b2469ee154","","","","","<p style=""color:darkgreen;font-size:24px;"">Correct :)</p>","",""
"2743","key","v","v","16.768690909090395","500","250","psychophysics","388","1030509","0.0-388.0","5d57f9cdedef630016280505","620a6771185659b2469ee154","6","","","","","0","7"
"null","","","null","","","","html-keyboard-response","389","1031017","0.0-389.0","5d57f9cdedef630016280505","620a6771185659b2469ee154","","","","","<p style=""color:darkgreen;font-size:24px;"">Correct :)</p>","",""
"3185","key","v","v","16.667715789473885","500","250","psychophysics","390","1034231","0.0-390.0","5d57f9cdedef630016280505","620a6771185659b2469ee154","6","","","","","1","3"
"null","","","null","","","","html-keyboard-response","391","1034737","0.0-391.0","5d57f9cdedef630016280505","620a6771185659b2469ee154","","","","","<p style=""color:darkgreen;font-size:24px;"">Correct :)</p>","",""
"2584","key","v","v","16.77494193548412","500","250","psychophysics","392","1037347","0.0-392.0","5d57f9cdedef630016280505","620a6771185659b2469ee154","6","","","","","0","7"
"null","","","null","","","","html-keyboard-response","393","1037855","0.0-393.0","5d57f9cdedef630016280505","620a6771185659b2469ee154","","","","","<p style=""color:darkgreen;font-size:24px;"">Correct :)</p>","",""
"2415","key","n","n","16.78256551724104","500","250","psychophysics","394","1040293","0.0-394.0","5d57f9cdedef630016280505","620a6771185659b2469ee154","6","","","","","1","8"
"null","","","null","","","","html-keyboard-response","395","1040802","0.0-395.0","5d57f9cdedef630016280505","620a6771185659b2469ee154","","","","","<p style=""color:darkgreen;font-size:24px;"">Correct :)</p>","",""
"6852","","","v","","","","html-keyboard-response","396","1047656","0.0-396.0","5d57f9cdedef630016280505","620a6771185659b2469ee154","","","","","<p> Last set of trials.  Here, the tasks are going to switch once again.  We are going to do 50 of these.  And then you are done with the experiment.  </p>  <br><br>  Ready? (press v or n)","",""
"3303","key","v","v","16.751646464647056","500","250","psychophysics","397","1050976","0.0-397.0","5d57f9cdedef630016280505","620a6771185659b2469ee154","7","","","","","1","4"
"null","","","null","","","","html-keyboard-response","398","1051486","0.0-398.0","5d57f9cdedef630016280505","620a6771185659b2469ee154","","","","","<p style=""color:darkgreen;font-size:24px;"">Correct :)</p>","",""
"3587","key","v","v","16.744893023255823","500","250","psychophysics","399","1055094","0.0-399.0","5d57f9cdedef630016280505","620a6771185659b2469ee154","7","","","","","0","1"
"null","","","null","","","","html-keyboard-response","400","1055598","0.0-400.0","5d57f9cdedef630016280505","620a6771185659b2469ee154","","","","","<p style=""color:darkgreen;font-size:24px;"">Correct :)</p>","",""
"2968","key","v","v","16.667675977654746","500","250","psychophysics","401","1058589","0.0-401.0","5d57f9cdedef630016280505","620a6771185659b2469ee154","7","","","","","1","1"
"null","","","null","","","","html-keyboard-response","402","1059093","0.0-402.0","5d57f9cdedef630016280505","620a6771185659b2469ee154","","","","","<p style=""color:darkgreen;font-size:24px;"">Correct :)</p>","",""
"2757","key","v","v","16.869612121212324","500","250","psychophysics","403","1061873","0.0-403.0","5d57f9cdedef630016280505","620a6771185659b2469ee154","7","","","","","0","3"
"null","","","null","","","","html-keyboard-response","404","1062377","0.0-404.0","5d57f9cdedef630016280505","620a6771185659b2469ee154","","","","","<p style=""color:darkgreen;font-size:24px;"">Correct :)</p>","",""
"2744","key","n","n","16.66747272727221","500","250","psychophysics","405","1065146","0.0-405.0","5d57f9cdedef630016280505","620a6771185659b2469ee154","7","","","","","0","4"
"null","","","null","","","","html-keyboard-response","406","1065652","0.0-406.0","5d57f9cdedef630016280505","620a6771185659b2469ee154","","","","","<p style=""color:darkgreen;font-size:24px;"">Correct :)</p>","",""
"2981","key","n","n","16.667547486033083","500","250","psychophysics","407","1068656","0.0-407.0","5d57f9cdedef630016280505","620a6771185659b2469ee154","7","","","","","1","7"
"null","","","null","","","","html-keyboard-response","408","1069161","0.0-408.0","5d57f9cdedef630016280505","620a6771185659b2469ee154","","","","","<p style=""color:darkgreen;font-size:24px;"">Correct :)</p>","",""
"2998","key","n","n","16.853497206704304","500","250","psychophysics","409","1072177","0.0-409.0","5d57f9cdedef630016280505","620a6771185659b2469ee154","7","","","","","0","2"
"null","","","null","","","","html-keyboard-response","410","1072685","0.0-410.0","5d57f9cdedef630016280505","620a6771185659b2469ee154","","","","","<p style=""color:darkgreen;font-size:24px;"">Correct :)</p>","",""
"2897","key","n","n","16.764271676300815","500","250","psychophysics","411","1075605","0.0-411.0","5d57f9cdedef630016280505","620a6771185659b2469ee154","7","","","","","0","6"
"null","","","null","","","","html-keyboard-response","412","1076112","0.0-412.0","5d57f9cdedef630016280505","620a6771185659b2469ee154","","","","","<p style=""color:darkgreen;font-size:24px;"">Correct :)</p>","",""
"3242","key","v","v","16.753015384615328","500","250","psychophysics","413","1079378","0.0-413.0","5d57f9cdedef630016280505","620a6771185659b2469ee154","7","","","","","1","2"
"null","","","null","","","","html-keyboard-response","414","1079886","0.0-414.0","5d57f9cdedef630016280505","620a6771185659b2469ee154","","","","","<p style=""color:darkgreen;font-size:24px;"">Correct :)</p>","",""
"3090","key","v","v","16.757881081081624","500","250","psychophysics","415","1082998","0.0-415.0","5d57f9cdedef630016280505","620a6771185659b2469ee154","7","","","","","0","1"
"null","","","null","","","","html-keyboard-response","416","1083504","0.0-416.0","5d57f9cdedef630016280505","620a6771185659b2469ee154","","","","","<p style=""color:darkgreen;font-size:24px;"">Correct :)</p>","",""
"2902","key","v","v","16.76304022988556","500","250","psychophysics","417","1086428","0.0-417.0","5d57f9cdedef630016280505","620a6771185659b2469ee154","7","","","","","1","3"
"null","","","null","","","","html-keyboard-response","418","1086935","0.0-418.0","5d57f9cdedef630016280505","620a6771185659b2469ee154","","","","","<p style=""color:darkgreen;font-size:24px;"">Correct :)</p>","",""
"3120","key","v","v","16.667175531914914","500","250","psychophysics","419","1090077","0.0-419.0","5d57f9cdedef630016280505","620a6771185659b2469ee154","7","","","","","1","2"
"null","","","null","","","","html-keyboard-response","420","1090586","0.0-420.0","5d57f9cdedef630016280505","620a6771185659b2469ee154","","","","","<p style=""color:darkgreen;font-size:24px;"">Correct :)</p>","",""
"2671","key","v","v","16.6675590062109","500","250","psychophysics","421","1093278","0.0-421.0","5d57f9cdedef630016280505","620a6771185659b2469ee154","7","","","","","0","1"
"null","","","null","","","","html-keyboard-response","422","1093785","0.0-422.0","5d57f9cdedef630016280505","620a6771185659b2469ee154","","","","","<p style=""color:darkgreen;font-size:24px;"">Correct :)</p>","",""
"2740","key","v","v","16.768890243902426","500","250","psychophysics","423","1096550","0.0-423.0","5d57f9cdedef630016280505","620a6771185659b2469ee154","7","","","","","1","1"
"null","","","null","","","","html-keyboard-response","424","1097056","0.0-424.0","5d57f9cdedef630016280505","620a6771185659b2469ee154","","","","","<p style=""color:darkgreen;font-size:24px;"">Correct :)</p>","",""
"2703","key","n","n","16.7701728395057","500","250","psychophysics","425","1099783","0.0-425.0","5d57f9cdedef630016280505","620a6771185659b2469ee154","7","","","","","1","6"
"null","","","null","","","","html-keyboard-response","426","1100287","0.0-426.0","5d57f9cdedef630016280505","620a6771185659b2469ee154","","","","","<p style=""color:darkgreen;font-size:24px;"">Correct :)</p>","",""
"3065","key","v","v","16.84939890710352","500","250","psychophysics","427","1103375","0.0-427.0","5d57f9cdedef630016280505","620a6771185659b2469ee154","7","","","","","1","4"
"null","","","null","","","","html-keyboard-response","428","1103879","0.0-428.0","5d57f9cdedef630016280505","620a6771185659b2469ee154","","","","","<p style=""color:darkgreen;font-size:24px;"">Correct :)</p>","",""
"3027","key","n","n","16.667318681317667","500","250","psychophysics","429","1106933","0.0-429.0","5d57f9cdedef630016280505","620a6771185659b2469ee154","7","","","","","0","2"
"null","","","null","","","","html-keyboard-response","430","1107436","0.0-430.0","5d57f9cdedef630016280505","620a6771185659b2469ee154","","","","","<p style=""color:darkgreen;font-size:24px;"">Correct :)</p>","",""
"2534","key","v","v","16.776723684209987","500","250","psychophysics","431","1109996","0.0-431.0","5d57f9cdedef630016280505","620a6771185659b2469ee154","7","","","","","0","3"
"null","","","null","","","","html-keyboard-response","432","1110504","0.0-432.0","5d57f9cdedef630016280505","620a6771185659b2469ee154","","","","","<p style=""color:darkgreen;font-size:24px;"">Correct :)</p>","",""
"2609","key","v","v","16.774173076922754","500","250","psychophysics","433","1113135","0.0-433.0","5d57f9cdedef630016280505","620a6771185659b2469ee154","7","","","","","1","1"
"null","","","null","","","","html-keyboard-response","434","1113641","0.0-434.0","5d57f9cdedef630016280505","620a6771185659b2469ee154","","","","","<p style=""color:darkgreen;font-size:24px;"">Correct :)</p>","",""
"2856","key","v","v","16.863588235294447","500","250","psychophysics","435","1116518","0.0-435.0","5d57f9cdedef630016280505","620a6771185659b2469ee154","7","","","","","0","3"
"null","","","null","","","","html-keyboard-response","436","1117025","0.0-436.0","5d57f9cdedef630016280505","620a6771185659b2469ee154","","","","","<p style=""color:darkgreen;font-size:24px;"">Correct :)</p>","",""
"2670","key","v","v","16.771781249999187","500","250","psychophysics","437","1119718","0.0-437.0","5d57f9cdedef630016280505","620a6771185659b2469ee154","7","","","","","0","3"
"null","","","null","","","","html-keyboard-response","438","1120225","0.0-438.0","5d57f9cdedef630016280505","620a6771185659b2469ee154","","","","","<p style=""color:darkgreen;font-size:24px;"">Correct :)</p>","",""
"2645","key","v","v","16.772528301886393","500","250","psychophysics","439","1122894","0.0-439.0","5d57f9cdedef630016280505","620a6771185659b2469ee154","7","","","","","1","1"
"null","","","null","","","","html-keyboard-response","440","1123400","0.0-440.0","5d57f9cdedef630016280505","620a6771185659b2469ee154","","","","","<p style=""color:darkgreen;font-size:24px;"">Correct :)</p>","",""
"2679","key","n","n","16.66754658385151","500","250","psychophysics","441","1126101","0.0-441.0","5d57f9cdedef630016280505","620a6771185659b2469ee154","7","","","","","0","4"
"null","","","null","","","","html-keyboard-response","442","1126606","0.0-442.0","5d57f9cdedef630016280505","620a6771185659b2469ee154","","","","","<p style=""color:darkgreen;font-size:24px;"">Correct :)</p>","",""
"2625","key","n","n","16.773592356687328","500","250","psychophysics","443","1129255","0.0-443.0","5d57f9cdedef630016280505","620a6771185659b2469ee154","7","","","","","0","6"
"null","","","null","","","","html-keyboard-response","444","1129760","0.0-444.0","5d57f9cdedef630016280505","620a6771185659b2469ee154","","","","","<p style=""color:darkgreen;font-size:24px;"">Correct :)</p>","",""
"3130","key","v","v","16.756281914892902","500","250","psychophysics","445","1132913","0.0-445.0","5d57f9cdedef630016280505","620a6771185659b2469ee154","7","","","","","1","2"
"null","","","null","","","","html-keyboard-response","446","1133421","0.0-446.0","5d57f9cdedef630016280505","620a6771185659b2469ee154","","","","","<p style=""color:darkgreen;font-size:24px;"">Correct :)</p>","",""
"2626","key","v","v","16.66747468354363","500","250","psychophysics","447","1136069","0.0-447.0","5d57f9cdedef630016280505","620a6771185659b2469ee154","7","","","","","1","4"
"null","","","null","","","","html-keyboard-response","448","1136573","0.0-448.0","5d57f9cdedef630016280505","620a6771185659b2469ee154","","","","","<p style=""color:darkgreen;font-size:24px;"">Correct :)</p>","",""
"2759","key","v","v","16.768848484847695","500","250","psychophysics","449","1139352","0.0-449.0","5d57f9cdedef630016280505","620a6771185659b2469ee154","7","","","","","1","2"
"null","","","null","","","","html-keyboard-response","450","1139856","0.0-450.0","5d57f9cdedef630016280505","620a6771185659b2469ee154","","","","","<p style=""color:darkgreen;font-size:24px;"">Correct :)</p>","",""
"2670","key","v","v","16.772068749999743","500","250","psychophysics","451","1142547","0.0-451.0","5d57f9cdedef630016280505","620a6771185659b2469ee154","7","","","","","0","7"
"null","","","null","","","","html-keyboard-response","452","1143055","0.0-452.0","5d57f9cdedef630016280505","620a6771185659b2469ee154","","","","","<p style=""color:darkgreen;font-size:24px;"">Correct :)</p>","",""
"2544","key","v","v","16.77705921052563","500","250","psychophysics","453","1145623","0.0-453.0","5d57f9cdedef630016280505","620a6771185659b2469ee154","7","","","","","1","4"
"null","","","null","","","","html-keyboard-response","454","1146132","0.0-454.0","5d57f9cdedef630016280505","620a6771185659b2469ee154","","","","","<p style=""color:darkgreen;font-size:24px;"">Correct :)</p>","",""
"2632","key","v","v","16.773853503183943","500","250","psychophysics","455","1148784","0.0-455.0","5d57f9cdedef630016280505","620a6771185659b2469ee154","7","","","","","0","4"
"null","","","null","","","","html-keyboard-response","456","1149288","0.0-456.0","5d57f9cdedef630016280505","620a6771185659b2469ee154","","","","","<p style=""color:red;font-size:24px;"">Error :(</p>","",""
"2684","key","v","v","16.77080745341528","500","250","psychophysics","457","1152002","0.0-457.0","5d57f9cdedef630016280505","620a6771185659b2469ee154","7","","","","","1","7"
"null","","","null","","","","html-keyboard-response","458","1152506","0.0-458.0","5d57f9cdedef630016280505","620a6771185659b2469ee154","","","","","<p style=""color:red;font-size:24px;"">Error :(</p>","",""
"2932","key","v","v","16.858182857143028","500","250","psychophysics","459","1155463","0.0-459.0","5d57f9cdedef630016280505","620a6771185659b2469ee154","7","","","","","1","1"
"null","","","null","","","","html-keyboard-response","460","1155975","0.0-460.0","5d57f9cdedef630016280505","620a6771185659b2469ee154","","","","","<p style=""color:darkgreen;font-size:24px;"">Correct :)</p>","",""
"2603","key","v","v","16.773713375796167","500","250","psychophysics","461","1158612","0.0-461.0","5d57f9cdedef630016280505","620a6771185659b2469ee154","7","","","","","0","1"
"null","","","null","","","","html-keyboard-response","462","1159117","0.0-462.0","5d57f9cdedef630016280505","620a6771185659b2469ee154","","","","","<p style=""color:darkgreen;font-size:24px;"">Correct :)</p>","",""
"2813","key","v","v","16.766750000000076","500","250","psychophysics","463","1161952","0.0-463.0","5d57f9cdedef630016280505","620a6771185659b2469ee154","7","","","","","1","3"
"null","","","null","","","","html-keyboard-response","464","1162459","0.0-464.0","5d57f9cdedef630016280505","620a6771185659b2469ee154","","","","","<p style=""color:darkgreen;font-size:24px;"">Correct :)</p>","",""
"2682","key","n","n","16.77079503105589","500","250","psychophysics","465","1165163","0.0-465.0","5d57f9cdedef630016280505","620a6771185659b2469ee154","7","","","","","0","6"
"null","","","null","","","","html-keyboard-response","466","1165671","0.0-466.0","5d57f9cdedef630016280505","620a6771185659b2469ee154","","","","","<p style=""color:darkgreen;font-size:24px;"">Correct :)</p>","",""
"2735","key","v","v","16.667503030303244","500","250","psychophysics","467","1168428","0.0-467.0","5d57f9cdedef630016280505","620a6771185659b2469ee154","7","","","","","1","4"
"null","","","null","","","","html-keyboard-response","468","1168933","0.0-468.0","5d57f9cdedef630016280505","620a6771185659b2469ee154","","","","","<p style=""color:darkgreen;font-size:24px;"">Correct :)</p>","",""
"2654","key","v","v","16.773411392405205","500","250","psychophysics","469","1171608","0.0-469.0","5d57f9cdedef630016280505","620a6771185659b2469ee154","7","","","","","1","2"
"null","","","null","","","","html-keyboard-response","470","1172118","0.0-470.0","5d57f9cdedef630016280505","620a6771185659b2469ee154","","","","","<p style=""color:darkgreen;font-size:24px;"">Correct :)</p>","",""
"2607","key","n","n","16.667566878980644","500","250","psychophysics","471","1174748","0.0-471.0","5d57f9cdedef630016280505","620a6771185659b2469ee154","7","","","","","1","7"
"null","","","null","","","","html-keyboard-response","472","1175253","0.0-472.0","5d57f9cdedef630016280505","620a6771185659b2469ee154","","","","","<p style=""color:darkgreen;font-size:24px;"">Correct :)</p>","",""
"2703","key","v","v","16.66711656441712","500","250","psychophysics","473","1177980","0.0-473.0","5d57f9cdedef630016280505","620a6771185659b2469ee154","7","","","","","1","2"
"null","","","null","","","","html-keyboard-response","474","1178493","0.0-474.0","5d57f9cdedef630016280505","620a6771185659b2469ee154","","","","","<p style=""color:darkgreen;font-size:24px;"">Correct :)</p>","",""
"2782","key","n","n","16.76746706586766","500","250","psychophysics","475","1181303","0.0-475.0","5d57f9cdedef630016280505","620a6771185659b2469ee154","7","","","","","1","6"
"null","","","null","","","","html-keyboard-response","476","1181821","0.0-476.0","5d57f9cdedef630016280505","620a6771185659b2469ee154","","","","","<p style=""color:darkgreen;font-size:24px;"">Correct :)</p>","",""
"3419","key","n","n","16.913812807881563","500","250","psychophysics","477","1185263","0.0-477.0","5d57f9cdedef630016280505","620a6771185659b2469ee154","7","","","","","1","6"
"null","","","null","","","","html-keyboard-response","478","1185767","0.0-478.0","5d57f9cdedef630016280505","620a6771185659b2469ee154","","","","","<p style=""color:darkgreen;font-size:24px;"">Correct :)</p>","",""
"2784","key","n","n","16.767323353292955","500","250","psychophysics","479","1188581","0.0-479.0","5d57f9cdedef630016280505","620a6771185659b2469ee154","7","","","","","0","7"
"null","","","null","","","","html-keyboard-response","480","1189089","0.0-480.0","5d57f9cdedef630016280505","620a6771185659b2469ee154","","","","","<p style=""color:red;font-size:24px;"">Error :(</p>","",""
"3023","key","n","n","16.7596519337028","500","250","psychophysics","481","1192135","0.0-481.0","5d57f9cdedef630016280505","620a6771185659b2469ee154","7","","","","","0","6"
"null","","","null","","","","html-keyboard-response","482","1192642","0.0-482.0","5d57f9cdedef630016280505","620a6771185659b2469ee154","","","","","<p style=""color:darkgreen;font-size:24px;"">Correct :)</p>","",""
"2973","key","n","n","16.762567415731446","500","250","psychophysics","483","1195639","0.0-483.0","5d57f9cdedef630016280505","620a6771185659b2469ee154","7","","","","","1","6"
"null","","","null","","","","html-keyboard-response","484","1196147","0.0-484.0","5d57f9cdedef630016280505","620a6771185659b2469ee154","","","","","<p style=""color:darkgreen;font-size:24px;"">Correct :)</p>","",""
"3258","key","v","v","16.752362244897903","500","250","psychophysics","485","1199431","0.0-485.0","5d57f9cdedef630016280505","620a6771185659b2469ee154","7","","","","","1","4"
"null","","","null","","","","html-keyboard-response","486","1199939","0.0-486.0","5d57f9cdedef630016280505","620a6771185659b2469ee154","","","","","<p style=""color:darkgreen;font-size:24px;"">Correct :)</p>","",""
"2774","key","n","n","16.869484848483946","500","250","psychophysics","487","1202738","0.0-487.0","5d57f9cdedef630016280505","620a6771185659b2469ee154","7","","","","","1","6"
"null","","","null","","","","html-keyboard-response","488","1203246","0.0-488.0","5d57f9cdedef630016280505","620a6771185659b2469ee154","","","","","<p style=""color:darkgreen;font-size:24px;"">Correct :)</p>","",""
"2731","key","n","n","16.76924999999933","500","250","psychophysics","489","1206004","0.0-489.0","5d57f9cdedef630016280505","620a6771185659b2469ee154","7","","","","","0","7"
"null","","","null","","","","html-keyboard-response","490","1206508","0.0-490.0","5d57f9cdedef630016280505","620a6771185659b2469ee154","","","","","<p style=""color:red;font-size:24px;"">Error :(</p>","",""
"2689","key","v","v","16.97991875000007","500","250","psychophysics","491","1209239","0.0-491.0","5d57f9cdedef630016280505","620a6771185659b2469ee154","7","","","","","1","3"
"null","","","null","","","","html-keyboard-response","492","1209743","0.0-492.0","5d57f9cdedef630016280505","620a6771185659b2469ee154","","","","","<p style=""color:darkgreen;font-size:24px;"">Correct :)</p>","",""
"3347","key","n","n","16.7503432835816","500","250","psychophysics","493","1213111","0.0-493.0","5d57f9cdedef630016280505","620a6771185659b2469ee154","7","","","","","1","6"
"null","","","null","","","","html-keyboard-response","494","1213615","0.0-494.0","5d57f9cdedef630016280505","620a6771185659b2469ee154","","","","","<p style=""color:darkgreen;font-size:24px;"">Correct :)</p>","",""
"4218","key","n","n","16.73346640316221","500","250","psychophysics","495","1217864","0.0-495.0","5d57f9cdedef630016280505","620a6771185659b2469ee154","7","","","","","0","4"
"null","","","null","","","","html-keyboard-response","496","1218372","0.0-496.0","5d57f9cdedef630016280505","620a6771185659b2469ee154","","","","","<p style=""color:darkgreen;font-size:24px;"">Correct :)</p>","",""
