"rt","response_type","key_press","response","avg_frame_time","center_x","center_y","trial_type","trial_index","time_elapsed","internal_node_id","pid","sid","phase","guide","targ","resp","stimulus","is5","stim"
"10784","key"," "," ","40.38846441947565","500","250","psychophysics","0","10803","0.0-0.0","6101c5bffd584fdda7def135","6213cdcae43402b29e410d40","","","","","","",""
"74601","key"," "," ","16.667602011173184","500","250","psychophysics","1","85406","0.0-1.0","6101c5bffd584fdda7def135","6213cdcae43402b29e410d40","","","","","","",""
"2312","key"," "," ","16.66599999999997","500","250","psychophysics","2","87725","0.0-2.0","6101c5bffd584fdda7def135","6213cdcae43402b29e410d40","","","","","","",""
"1066","key"," "," ","16.666000000000167","500","250","psychophysics","3","88798","0.0-3.0","6101c5bffd584fdda7def135","6213cdcae43402b29e410d40","","","","","","",""
"5002","key"," "," ","16.666000000000018","500","250","psychophysics","4","93805","0.0-4.0","6101c5bffd584fdda7def135","6213cdcae43402b29e410d40","","","","","","",""
"9342","key"," "," ","16.6674607142857","500","250","psychophysics","5","103151","0.0-5.0","6101c5bffd584fdda7def135","6213cdcae43402b29e410d40","","","","","","",""
"3627","key"," "," ","16.670345622119868","500","250","psychophysics","6","106783","0.0-6.0","6101c5bffd584fdda7def135","6213cdcae43402b29e410d40","","","","","","",""
"4353","key"," "," ","16.666000000000015","500","250","psychophysics","7","111139","0.0-7.0","6101c5bffd584fdda7def135","6213cdcae43402b29e410d40","","","","","","",""
"6242","key"," "," ","16.668187165775407","500","250","psychophysics","8","117385","0.0-8.0","6101c5bffd584fdda7def135","6213cdcae43402b29e410d40","0","0","51","47","","",""
"8500","key"," "," ","16.667607072691535","500","250","psychophysics","9","125889","0.0-9.0","6101c5bffd584fdda7def135","6213cdcae43402b29e410d40","","","","","","",""
"3703","key"," "," ","16.665999999999997","500","250","psychophysics","10","129600","0.0-10.0","6101c5bffd584fdda7def135","6213cdcae43402b29e410d40","","","","","","",""
"3681","key"," "," ","16.66599999999995","500","250","psychophysics","11","133286","0.0-11.0","6101c5bffd584fdda7def135","6213cdcae43402b29e410d40","","","","","","",""
"4461","key"," "," ","16.669063670412037","500","250","psychophysics","12","137752","0.0-12.0","6101c5bffd584fdda7def135","6213cdcae43402b29e410d40","","","","","","",""
"1238","key"," "," ","16.666000000000192","500","250","psychophysics","13","138995","0.0-13.0","6101c5bffd584fdda7def135","6213cdcae43402b29e410d40","","","","","","",""
"5065","key"," "," ","16.665999999999936","500","250","psychophysics","14","144064","0.0-14.0","6101c5bffd584fdda7def135","6213cdcae43402b29e410d40","","","","","","",""
"6568","key"," "," ","16.668081424936418","500","250","psychophysics","15","150634","0.0-15.0","6101c5bffd584fdda7def135","6213cdcae43402b29e410d40","","","","","","",""
"5321","key"," "," ","16.668572327044025","500","250","psychophysics","16","155959","0.0-16.0","6101c5bffd584fdda7def135","6213cdcae43402b29e410d40","","","","","","",""
"7607","key"," "," ","16.665999999999993","500","250","psychophysics","17","163572","0.0-17.0","6101c5bffd584fdda7def135","6213cdcae43402b29e410d40","1","0","36","39","","",""
"10905","key"," "," ","16.667441896024485","500","250","psychophysics","18","174483","0.0-18.0","6101c5bffd584fdda7def135","6213cdcae43402b29e410d40","1","5","55","57","","",""
"7645","key"," "," ","16.66778602620085","500","250","psychophysics","19","182132","0.0-19.0","6101c5bffd584fdda7def135","6213cdcae43402b29e410d40","1","0","36","37","","",""
"6282","key"," "," ","16.66817553191496","500","250","psychophysics","20","188416","0.0-20.0","6101c5bffd584fdda7def135","6213cdcae43402b29e410d40","1","5","38","40","","",""
"5662","key"," "," ","16.66599999999993","500","250","psychophysics","21","194082","0.0-21.0","6101c5bffd584fdda7def135","6213cdcae43402b29e410d40","1","0","38","44","","",""
"4878","key"," "," ","16.66880136986294","500","250","psychophysics","22","198965","0.0-22.0","6101c5bffd584fdda7def135","6213cdcae43402b29e410d40","1","5","23","24","","",""
"5932","key"," "," ","16.66600000000006","500","250","psychophysics","23","204900","0.0-23.0","6101c5bffd584fdda7def135","6213cdcae43402b29e410d40","1","0","45","45","","",""
"6313","key"," "," ","16.668494708994686","500","250","psychophysics","24","211218","0.0-24.0","6101c5bffd584fdda7def135","6213cdcae43402b29e410d40","1","5","21","22","","",""
"3938","key"," "," ","16.669480851063867","500","250","psychophysics","25","215160","0.0-25.0","6101c5bffd584fdda7def135","6213cdcae43402b29e410d40","1","0","37","37","","",""
"9378","key"," "," ","16.665999999999972","500","250","psychophysics","26","224544","0.0-26.0","6101c5bffd584fdda7def135","6213cdcae43402b29e410d40","1","5","54","55","","",""
"5075","key"," "," ","16.66869966996693","500","250","psychophysics","27","229622","0.0-27.0","6101c5bffd584fdda7def135","6213cdcae43402b29e410d40","1","0","25","27","","",""
"6922","key"," "," ","16.668573493975934","500","250","psychophysics","28","236550","0.0-28.0","6101c5bffd584fdda7def135","6213cdcae43402b29e410d40","1","5","48","52","","",""
"41229","key"," "," ","57.97263291139243","500","250","psychophysics","29","277772","0.0-29.0","6101c5bffd584fdda7def135","6213cdcae43402b29e410d40","1","0","41","48","","",""
"5479","key"," "," ","16.6660000000001","500","250","psychophysics","30","283252","0.0-30.0","6101c5bffd584fdda7def135","6213cdcae43402b29e410d40","1","5","23","25","","",""
"3677","key"," "," ","16.66971818181813","500","250","psychophysics","31","286931","0.0-31.0","6101c5bffd584fdda7def135","6213cdcae43402b29e410d40","1","0","25","26","","",""
"7786","key"," "," ","16.70184086021499","500","250","psychophysics","32","294718","0.0-32.0","6101c5bffd584fdda7def135","6213cdcae43402b29e410d40","1","5","54","55","","",""
"5163","key"," "," ","16.669051779935348","500","250","psychophysics","33","299884","0.0-33.0","6101c5bffd584fdda7def135","6213cdcae43402b29e410d40","1","0","38","41","","",""
"4929","key"," "," ","16.666000000000103","500","250","psychophysics","34","304815","0.0-34.0","6101c5bffd584fdda7def135","6213cdcae43402b29e410d40","1","5","26","26","","",""
"3030","key"," "," ","16.670519337016582","500","250","psychophysics","35","307847","0.0-35.0","6101c5bffd584fdda7def135","6213cdcae43402b29e410d40","1","0","22","24","","",""
"6832","key"," "," ","16.66599999999993","500","250","psychophysics","36","314682","0.0-36.0","6101c5bffd584fdda7def135","6213cdcae43402b29e410d40","1","5","32","35","","",""
"3753","key"," "," ","16.670209821428475","500","250","psychophysics","37","318440","0.0-37.0","6101c5bffd584fdda7def135","6213cdcae43402b29e410d40","","","","","","",""
"22521","key"," "," ","16.66711843079201","500","250","psychophysics","38","340964","0.0-38.0","6101c5bffd584fdda7def135","6213cdcae43402b29e410d40","","","","","","",""
"2634","key"," "," ","16.66600000000022","500","250","psychophysics","39","343603","0.0-39.0","6101c5bffd584fdda7def135","6213cdcae43402b29e410d40","","","","","","",""
"5353","key"," "," ","16.668937694704024","500","250","psychophysics","40","348958","0.0-40.0","6101c5bffd584fdda7def135","6213cdcae43402b29e410d40","2","0","20","25","","",""
"3102","key"," "," ","16.665999999999798","500","250","psychophysics","41","352065","0.0-41.0","6101c5bffd584fdda7def135","6213cdcae43402b29e410d40","","","","","","",""
"6206","key"," "," ","16.66820485175197","500","250","psychophysics","42","358273","0.0-42.0","6101c5bffd584fdda7def135","6213cdcae43402b29e410d40","2","0","39","45","","",""
"2919","key"," "," ","16.665999999999933","500","250","psychophysics","43","361197","0.0-43.0","6101c5bffd584fdda7def135","6213cdcae43402b29e410d40","","","","","","",""
"5184","key"," "," ","16.668638709677392","500","250","psychophysics","44","366387","0.0-44.0","6101c5bffd584fdda7def135","6213cdcae43402b29e410d40","2","0","37","38","","",""
"1051","key"," "," ","16.666000000000672","500","250","psychophysics","45","367441","0.0-45.0","6101c5bffd584fdda7def135","6213cdcae43402b29e410d40","","","","","","",""
"7488","key"," "," ","16.666000000000036","500","250","psychophysics","46","374932","0.0-46.0","6101c5bffd584fdda7def135","6213cdcae43402b29e410d40","2","0","47","44","","",""
"845","key"," "," ","16.682360000000337","500","250","psychophysics","47","375779","0.0-47.0","6101c5bffd584fdda7def135","6213cdcae43402b29e410d40","","","","","","",""
"4892","key"," "," ","16.66599999999983","500","250","psychophysics","48","380673","0.0-48.0","6101c5bffd584fdda7def135","6213cdcae43402b29e410d40","2","0","33","33","","",""
"1230","key"," "," ","16.66600000000023","500","250","psychophysics","49","381906","0.0-49.0","6101c5bffd584fdda7def135","6213cdcae43402b29e410d40","","","","","","",""
"6785","key"," "," ","16.668316953316964","500","250","psychophysics","50","388696","0.0-50.0","6101c5bffd584fdda7def135","6213cdcae43402b29e410d40","2","0","38","39","","",""
"897","key"," "," ","16.666000000000185","500","250","psychophysics","51","389595","0.0-51.0","6101c5bffd584fdda7def135","6213cdcae43402b29e410d40","","","","","","",""
"6093","key"," "," ","16.668247252747328","500","250","psychophysics","52","395690","0.0-52.0","6101c5bffd584fdda7def135","6213cdcae43402b29e410d40","2","0","58","59","","",""
"1075","key"," "," ","16.666000000000167","500","250","psychophysics","53","396769","0.0-53.0","6101c5bffd584fdda7def135","6213cdcae43402b29e410d40","","","","","","",""
"3674","key"," "," ","16.66599999999982","500","250","psychophysics","54","400446","0.0-54.0","6101c5bffd584fdda7def135","6213cdcae43402b29e410d40","2","0","29","31","","",""
"813","key"," "," ","16.665999999999865","500","250","psychophysics","55","401262","0.0-55.0","6101c5bffd584fdda7def135","6213cdcae43402b29e410d40","","","","","","",""
"4846","key"," "," ","16.66882068965532","500","250","psychophysics","56","406112","0.0-56.0","6101c5bffd584fdda7def135","6213cdcae43402b29e410d40","2","0","36","35","","",""
"831","key"," "," ","16.66600000000041","500","250","psychophysics","57","406947","0.0-57.0","6101c5bffd584fdda7def135","6213cdcae43402b29e410d40","","","","","","",""
"6221","key"," "," ","16.6660000000001","500","250","psychophysics","58","413170","0.0-58.0","6101c5bffd584fdda7def135","6213cdcae43402b29e410d40","2","0","42","42","","",""
"669","key"," "," ","16.66600000000035","500","250","psychophysics","59","413847","0.0-59.0","6101c5bffd584fdda7def135","6213cdcae43402b29e410d40","","","","","","",""
"4149","key"," "," ","16.66980241935474","500","250","psychophysics","60","418000","0.0-60.0","6101c5bffd584fdda7def135","6213cdcae43402b29e410d40","2","0","21","23","","",""
"673","key"," "," ","16.665999999998895","500","250","psychophysics","61","418677","0.0-61.0","6101c5bffd584fdda7def135","6213cdcae43402b29e410d40","","","","","","",""
"2949","key"," "," ","16.666000000000086","500","250","psychophysics","62","421629","0.0-62.0","6101c5bffd584fdda7def135","6213cdcae43402b29e410d40","2","0","25","23","","",""
"785","key"," "," ","16.66599999999997","500","250","psychophysics","63","422419","0.0-63.0","6101c5bffd584fdda7def135","6213cdcae43402b29e410d40","","","","","","",""
"8260","key"," "," ","16.66765252525255","500","250","psychophysics","64","430682","0.0-64.0","6101c5bffd584fdda7def135","6213cdcae43402b29e410d40","2","0","27","28","","",""
"663","key"," "," ","16.665999999999677","500","250","psychophysics","65","431348","0.0-65.0","6101c5bffd584fdda7def135","6213cdcae43402b29e410d40","","","","","","",""
"5579","key"," "," ","16.66844910179637","500","250","psychophysics","66","436931","0.0-66.0","6101c5bffd584fdda7def135","6213cdcae43402b29e410d40","2","0","49","50","","",""
"848","key"," "," ","16.665999999999766","500","250","psychophysics","67","437781","0.0-67.0","6101c5bffd584fdda7def135","6213cdcae43402b29e410d40","","","","","","",""
"3568","key"," "," ","16.66600000000016","500","250","psychophysics","68","441370","0.0-68.0","6101c5bffd584fdda7def135","6213cdcae43402b29e410d40","2","0","21","24","","",""
"704","key"," "," ","16.66600000000021","500","250","psychophysics","69","442078","0.0-69.0","6101c5bffd584fdda7def135","6213cdcae43402b29e410d40","","","","","","",""
"2765","key"," "," ","16.66599999999973","500","250","psychophysics","70","444846","0.0-70.0","6101c5bffd584fdda7def135","6213cdcae43402b29e410d40","","","","","","",""
"2330","key"," "," ","16.673683453237356","500","250","psychophysics","71","447180","0.0-71.0","6101c5bffd584fdda7def135","6213cdcae43402b29e410d40","","","","","","",""
"11106","key"," "," ","16.667228228228243","500","250","psychophysics","72","458291","0.0-72.0","6101c5bffd584fdda7def135","6213cdcae43402b29e410d40","3","5","52","49","","",""
"9510","key"," "," ","16.667437609841823","500","250","psychophysics","73","467806","0.0-73.0","6101c5bffd584fdda7def135","6213cdcae43402b29e410d40","3","0","42","44","","",""
"10862","key"," "," ","16.66744854070655","500","250","psychophysics","74","478670","0.0-74.0","6101c5bffd584fdda7def135","6213cdcae43402b29e410d40","3","5","59","62","","",""
"8394","key"," "," ","16.667626242544713","500","250","psychophysics","75","487070","0.0-75.0","6101c5bffd584fdda7def135","6213cdcae43402b29e410d40","3","0","51","56","","",""
"6849","key"," "," ","16.665999999999993","500","250","psychophysics","76","493923","0.0-76.0","6101c5bffd584fdda7def135","6213cdcae43402b29e410d40","3","5","49","49","","",""
"4950","key"," "," ","16.66917508417507","500","250","psychophysics","77","498880","0.0-77.0","6101c5bffd584fdda7def135","6213cdcae43402b29e410d40","3","0","34","36","","",""
"4988","key"," "," ","16.66599999999998","500","250","psychophysics","78","503870","0.0-78.0","6101c5bffd584fdda7def135","6213cdcae43402b29e410d40","3","5","31","31","","",""
"5011","key"," "," ","16.66872666666672","500","250","psychophysics","79","508885","0.0-79.0","6101c5bffd584fdda7def135","6213cdcae43402b29e410d40","3","0","37","40","","",""
"5031","key"," "," ","16.665999999999944","500","250","psychophysics","80","513924","0.0-80.0","6101c5bffd584fdda7def135","6213cdcae43402b29e410d40","3","5","28","26","","",""
"4719","key"," "," ","16.66934397163122","500","250","psychophysics","81","518646","0.0-81.0","6101c5bffd584fdda7def135","6213cdcae43402b29e410d40","3","0","36","42","","",""
"5862","key"," "," ","16.665999999999844","500","250","psychophysics","82","524510","0.0-82.0","6101c5bffd584fdda7def135","6213cdcae43402b29e410d40","3","5","52","48","","",""
"5842","key"," "," ","16.668343839541485","500","250","psychophysics","83","530357","0.0-83.0","6101c5bffd584fdda7def135","6213cdcae43402b29e410d40","3","0","47","46","","",""
"5819","key"," "," ","16.668343839541485","500","250","psychophysics","84","536179","0.0-84.0","6101c5bffd584fdda7def135","6213cdcae43402b29e410d40","3","5","24","24","","",""
"5699","key"," "," ","16.665999999999745","500","250","psychophysics","85","541881","0.0-85.0","6101c5bffd584fdda7def135","6213cdcae43402b29e410d40","3","0","56","53","","",""
"7479","key"," "," ","16.667825892857113","500","250","psychophysics","86","549364","0.0-86.0","6101c5bffd584fdda7def135","6213cdcae43402b29e410d40","3","5","59","61","","",""
"3976","key"," "," ","16.66600000000013","500","250","psychophysics","87","553344","0.0-87.0","6101c5bffd584fdda7def135","6213cdcae43402b29e410d40","3","0","31","29","","",""
"5074","key"," "," ","16.668699669967122","500","250","psychophysics","88","558422","0.0-88.0","6101c5bffd584fdda7def135","6213cdcae43402b29e410d40","3","5","43","41","","",""
"3011","key"," "," ","16.666000000000025","500","250","psychophysics","89","561437","0.0-89.0","6101c5bffd584fdda7def135","6213cdcae43402b29e410d40","3","0","22","24","","",""
"5437","key"," "," ","16.668892638036837","500","250","psychophysics","90","566879","0.0-90.0","6101c5bffd584fdda7def135","6213cdcae43402b29e410d40","3","5","45","45","","",""
"4185","key"," "," ","16.666","500","250","psychophysics","91","571067","0.0-91.0","6101c5bffd584fdda7def135","6213cdcae43402b29e410d40","3","0","28","32","","",""
"2477","key"," "," ","16.665999999999798","500","250","psychophysics","92","573548","0.0-92.0","6101c5bffd584fdda7def135","6213cdcae43402b29e410d40","","","","","","",""
"29697","","","v","","","","html-keyboard-response","93","603247","0.0-93.0","6101c5bffd584fdda7def135","6213cdcae43402b29e410d40","","","","","<p> In this part of the experiment, we are going present digits 1, 2, 3, 4, 6, 7, 8, and 9.  Notice that 5 is missing.  Your job is to say whether the presented digit is less than or greater than 5.  For example, 3 is less than 5 and 7 is greater than 5.  If the digit is less than 5, press the v key; if it is greater than 5, press the n key. We are going to do 200 of these in total, but only 50 righ now. They go real fast.</p>  <br><br>  Ready? (press v or n)","",""
"2987","key","v","v","16.679644444444502","500","250","psychophysics","94","606246","0.0-94.0","6101c5bffd584fdda7def135","6213cdcae43402b29e410d40","4","","","","","1","1"
"null","","","null","","","","html-keyboard-response","95","606748","0.0-95.0","6101c5bffd584fdda7def135","6213cdcae43402b29e410d40","","","","","<p style=""color:darkgreen;font-size:24px;"">Correct :)</p>","",""
"2574","key","v","v","16.67208387096743","500","250","psychophysics","96","609328","0.0-96.0","6101c5bffd584fdda7def135","6213cdcae43402b29e410d40","4","","","","","1","2"
"null","","","null","","","","html-keyboard-response","97","609831","0.0-97.0","6101c5bffd584fdda7def135","6213cdcae43402b29e410d40","","","","","<p style=""color:darkgreen;font-size:24px;"">Correct :)</p>","",""
"2540","key","n","n","16.66600000000029","500","250","psychophysics","98","612383","0.0-98.0","6101c5bffd584fdda7def135","6213cdcae43402b29e410d40","4","","","","","1","7"
"null","","","null","","","","html-keyboard-response","99","612885","0.0-99.0","6101c5bffd584fdda7def135","6213cdcae43402b29e410d40","","","","","<p style=""color:darkgreen;font-size:24px;"">Correct :)</p>","",""
"2591","key","n","n","16.666000000000423","500","250","psychophysics","100","615481","0.0-100.0","6101c5bffd584fdda7def135","6213cdcae43402b29e410d40","4","","","","","1","7"
"null","","","null","","","","html-keyboard-response","101","615985","0.0-101.0","6101c5bffd584fdda7def135","6213cdcae43402b29e410d40","","","","","<p style=""color:darkgreen;font-size:24px;"">Correct :)</p>","",""
"2614","key","n","n","16.67121019108283","500","250","psychophysics","102","618603","0.0-102.0","6101c5bffd584fdda7def135","6213cdcae43402b29e410d40","4","","","","","1","8"
"null","","","null","","","","html-keyboard-response","103","619107","0.0-103.0","6101c5bffd584fdda7def135","6213cdcae43402b29e410d40","","","","","<p style=""color:darkgreen;font-size:24px;"">Correct :)</p>","",""
"2369","key","n","n","16.66600000000031","500","250","psychophysics","104","621481","0.0-104.0","6101c5bffd584fdda7def135","6213cdcae43402b29e410d40","4","","","","","1","8"
"null","","","null","","","","html-keyboard-response","105","621983","0.0-105.0","6101c5bffd584fdda7def135","6213cdcae43402b29e410d40","","","","","<p style=""color:darkgreen;font-size:24px;"">Correct :)</p>","",""
"2407","key","n","n","16.665999999999645","500","250","psychophysics","106","624398","0.0-106.0","6101c5bffd584fdda7def135","6213cdcae43402b29e410d40","4","","","","","1","9"
"null","","","null","","","","html-keyboard-response","107","624900","0.0-107.0","6101c5bffd584fdda7def135","6213cdcae43402b29e410d40","","","","","<p style=""color:darkgreen;font-size:24px;"">Correct :)</p>","",""
"2389","key","n","n","16.671680555556023","500","250","psychophysics","108","627294","0.0-108.0","6101c5bffd584fdda7def135","6213cdcae43402b29e410d40","4","","","","","1","9"
"null","","","null","","","","html-keyboard-response","109","627795","0.0-109.0","6101c5bffd584fdda7def135","6213cdcae43402b29e410d40","","","","","<p style=""color:darkgreen;font-size:24px;"">Correct :)</p>","",""
"2462","key","v","v","16.665999999999798","500","250","psychophysics","110","630263","0.0-110.0","6101c5bffd584fdda7def135","6213cdcae43402b29e410d40","4","","","","","1","6"
"null","","","null","","","","html-keyboard-response","111","630765","0.0-111.0","6101c5bffd584fdda7def135","6213cdcae43402b29e410d40","","","","","<p style=""color:red;font-size:24px;"">Error :(</p>","",""
"2609","key","v","v","16.66600000000022","500","250","psychophysics","112","633381","0.0-112.0","6101c5bffd584fdda7def135","6213cdcae43402b29e410d40","4","","","","","1","1"
"null","","","null","","","","html-keyboard-response","113","633883","0.0-113.0","6101c5bffd584fdda7def135","6213cdcae43402b29e410d40","","","","","<p style=""color:darkgreen;font-size:24px;"">Correct :)</p>","",""
"2769","key","v","v","16.670927710843788","500","250","psychophysics","114","636655","0.0-114.0","6101c5bffd584fdda7def135","6213cdcae43402b29e410d40","4","","","","","1","2"
"null","","","null","","","","html-keyboard-response","115","637157","0.0-115.0","6101c5bffd584fdda7def135","6213cdcae43402b29e410d40","","","","","<p style=""color:darkgreen;font-size:24px;"">Correct :)</p>","",""
"2434","key","v","v","16.66600000000023","500","250","psychophysics","116","639596","0.0-116.0","6101c5bffd584fdda7def135","6213cdcae43402b29e410d40","4","","","","","1","9"
"null","","","null","","","","html-keyboard-response","117","640097","0.0-117.0","6101c5bffd584fdda7def135","6213cdcae43402b29e410d40","","","","","<p style=""color:red;font-size:24px;"">Error :(</p>","",""
"2438","key","n","n","16.66600000000001","500","250","psychophysics","118","642541","0.0-118.0","6101c5bffd584fdda7def135","6213cdcae43402b29e410d40","4","","","","","1","8"
"null","","","null","","","","html-keyboard-response","119","643045","0.0-119.0","6101c5bffd584fdda7def135","6213cdcae43402b29e410d40","","","","","<p style=""color:darkgreen;font-size:24px;"">Correct :)</p>","",""
"2519","key","n","n","16.665999999999944","500","250","psychophysics","120","645570","0.0-120.0","6101c5bffd584fdda7def135","6213cdcae43402b29e410d40","4","","","","","1","6"
"null","","","null","","","","html-keyboard-response","121","646071","0.0-121.0","6101c5bffd584fdda7def135","6213cdcae43402b29e410d40","","","","","<p style=""color:darkgreen;font-size:24px;"">Correct :)</p>","",""
"2395","key","n","n","16.672594405594282","500","250","psychophysics","122","648473","0.0-122.0","6101c5bffd584fdda7def135","6213cdcae43402b29e410d40","4","","","","","1","7"
"null","","","null","","","","html-keyboard-response","123","648976","0.0-123.0","6101c5bffd584fdda7def135","6213cdcae43402b29e410d40","","","","","<p style=""color:darkgreen;font-size:24px;"">Correct :)</p>","",""
"2503","key","v","v","16.666000000000157","500","250","psychophysics","124","651486","0.0-124.0","6101c5bffd584fdda7def135","6213cdcae43402b29e410d40","4","","","","","1","1"
"null","","","null","","","","html-keyboard-response","125","651990","0.0-125.0","6101c5bffd584fdda7def135","6213cdcae43402b29e410d40","","","","","<p style=""color:darkgreen;font-size:24px;"">Correct :)</p>","",""
"2550","key","n","n","16.66600000000029","500","250","psychophysics","126","654547","0.0-126.0","6101c5bffd584fdda7def135","6213cdcae43402b29e410d40","4","","","","","1","7"
"null","","","null","","","","html-keyboard-response","127","655050","0.0-127.0","6101c5bffd584fdda7def135","6213cdcae43402b29e410d40","","","","","<p style=""color:darkgreen;font-size:24px;"">Correct :)</p>","",""
"2494","key","n","n","16.672286666666622","500","250","psychophysics","128","657549","0.0-128.0","6101c5bffd584fdda7def135","6213cdcae43402b29e410d40","4","","","","","1","9"
"null","","","null","","","","html-keyboard-response","129","658051","0.0-129.0","6101c5bffd584fdda7def135","6213cdcae43402b29e410d40","","","","","<p style=""color:darkgreen;font-size:24px;"">Correct :)</p>","",""
"2510","key","n","n","16.666000000000714","500","250","psychophysics","130","660568","0.0-130.0","6101c5bffd584fdda7def135","6213cdcae43402b29e410d40","4","","","","","1","6"
"null","","","null","","","","html-keyboard-response","131","661072","0.0-131.0","6101c5bffd584fdda7def135","6213cdcae43402b29e410d40","","","","","<p style=""color:darkgreen;font-size:24px;"">Correct :)</p>","",""
"2403","key","n","n","16.665999999999865","500","250","psychophysics","132","663479","0.0-132.0","6101c5bffd584fdda7def135","6213cdcae43402b29e410d40","4","","","","","1","6"
"null","","","null","","","","html-keyboard-response","133","663983","0.0-133.0","6101c5bffd584fdda7def135","6213cdcae43402b29e410d40","","","","","<p style=""color:darkgreen;font-size:24px;"">Correct :)</p>","",""
"2574","key","v","v","16.66599999999988","500","250","psychophysics","134","666562","0.0-134.0","6101c5bffd584fdda7def135","6213cdcae43402b29e410d40","4","","","","","1","1"
"null","","","null","","","","html-keyboard-response","135","667065","0.0-135.0","6101c5bffd584fdda7def135","6213cdcae43402b29e410d40","","","","","<p style=""color:darkgreen;font-size:24px;"">Correct :)</p>","",""
"2439","key","v","v","16.66600000000001","500","250","psychophysics","136","669512","0.0-136.0","6101c5bffd584fdda7def135","6213cdcae43402b29e410d40","4","","","","","1","1"
"null","","","null","","","","html-keyboard-response","137","670014","0.0-137.0","6101c5bffd584fdda7def135","6213cdcae43402b29e410d40","","","","","<p style=""color:darkgreen;font-size:24px;"">Correct :)</p>","",""
"2458","key","v","v","16.665999999999798","500","250","psychophysics","138","672478","0.0-138.0","6101c5bffd584fdda7def135","6213cdcae43402b29e410d40","4","","","","","1","3"
"null","","","null","","","","html-keyboard-response","139","672980","0.0-139.0","6101c5bffd584fdda7def135","6213cdcae43402b29e410d40","","","","","<p style=""color:darkgreen;font-size:24px;"">Correct :)</p>","",""
"2441","key","n","n","16.66600000000001","500","250","psychophysics","140","675426","0.0-140.0","6101c5bffd584fdda7def135","6213cdcae43402b29e410d40","4","","","","","1","8"
"null","","","null","","","","html-keyboard-response","141","675929","0.0-141.0","6101c5bffd584fdda7def135","6213cdcae43402b29e410d40","","","","","<p style=""color:darkgreen;font-size:24px;"">Correct :)</p>","",""
"2515","key","v","v","16.671417218542793","500","250","psychophysics","142","678449","0.0-142.0","6101c5bffd584fdda7def135","6213cdcae43402b29e410d40","4","","","","","1","3"
"null","","","null","","","","html-keyboard-response","143","678950","0.0-143.0","6101c5bffd584fdda7def135","6213cdcae43402b29e410d40","","","","","<p style=""color:darkgreen;font-size:24px;"">Correct :)</p>","",""
"2500","key","n","n","16.665999999999944","500","250","psychophysics","144","681456","0.0-144.0","6101c5bffd584fdda7def135","6213cdcae43402b29e410d40","4","","","","","1","7"
"null","","","null","","","","html-keyboard-response","145","681958","0.0-145.0","6101c5bffd584fdda7def135","6213cdcae43402b29e410d40","","","","","<p style=""color:darkgreen;font-size:24px;"">Correct :)</p>","",""
"2800","key","v","v","16.66600000000002","500","250","psychophysics","146","684777","0.0-146.0","6101c5bffd584fdda7def135","6213cdcae43402b29e410d40","4","","","","","1","4"
"null","","","null","","","","html-keyboard-response","147","685280","0.0-147.0","6101c5bffd584fdda7def135","6213cdcae43402b29e410d40","","","","","<p style=""color:darkgreen;font-size:24px;"">Correct :)</p>","",""
"2570","key","n","n","16.672123376624025","500","250","psychophysics","148","687855","0.0-148.0","6101c5bffd584fdda7def135","6213cdcae43402b29e410d40","4","","","","","1","4"
"null","","","null","","","","html-keyboard-response","149","688357","0.0-149.0","6101c5bffd584fdda7def135","6213cdcae43402b29e410d40","","","","","<p style=""color:red;font-size:24px;"">Error :(</p>","",""
"2533","key","n","n","16.665999999999737","500","250","psychophysics","150","690895","0.0-150.0","6101c5bffd584fdda7def135","6213cdcae43402b29e410d40","4","","","","","1","6"
"null","","","null","","","","html-keyboard-response","151","691398","0.0-151.0","6101c5bffd584fdda7def135","6213cdcae43402b29e410d40","","","","","<p style=""color:darkgreen;font-size:24px;"">Correct :)</p>","",""
"2479","key","n","n","16.66599999999938","500","250","psychophysics","152","693900","0.0-152.0","6101c5bffd584fdda7def135","6213cdcae43402b29e410d40","4","","","","","1","7"
"null","","","null","","","","html-keyboard-response","153","694405","0.0-153.0","6101c5bffd584fdda7def135","6213cdcae43402b29e410d40","","","","","<p style=""color:darkgreen;font-size:24px;"">Correct :)</p>","",""
"2418","key","v","v","16.671641379309786","500","250","psychophysics","154","696829","0.0-154.0","6101c5bffd584fdda7def135","6213cdcae43402b29e410d40","4","","","","","1","3"
"null","","","null","","","","html-keyboard-response","155","697331","0.0-155.0","6101c5bffd584fdda7def135","6213cdcae43402b29e410d40","","","","","<p style=""color:darkgreen;font-size:24px;"">Correct :)</p>","",""
"2443","key","n","n","16.66600000000001","500","250","psychophysics","156","699779","0.0-156.0","6101c5bffd584fdda7def135","6213cdcae43402b29e410d40","4","","","","","1","8"
"null","","","null","","","","html-keyboard-response","157","700281","0.0-157.0","6101c5bffd584fdda7def135","6213cdcae43402b29e410d40","","","","","<p style=""color:darkgreen;font-size:24px;"">Correct :)</p>","",""
"2439","key","n","n","16.66600000000001","500","250","psychophysics","158","702727","0.0-158.0","6101c5bffd584fdda7def135","6213cdcae43402b29e410d40","4","","","","","1","6"
"null","","","null","","","","html-keyboard-response","159","703229","0.0-159.0","6101c5bffd584fdda7def135","6213cdcae43402b29e410d40","","","","","<p style=""color:darkgreen;font-size:24px;"">Correct :)</p>","",""
"2482","key","n","n","16.66599999999959","500","250","psychophysics","160","705713","0.0-160.0","6101c5bffd584fdda7def135","6213cdcae43402b29e410d40","4","","","","","1","8"
"null","","","null","","","","html-keyboard-response","161","706218","0.0-161.0","6101c5bffd584fdda7def135","6213cdcae43402b29e410d40","","","","","<p style=""color:darkgreen;font-size:24px;"">Correct :)</p>","",""
"2870","key","v","v","16.671450867051814","500","250","psychophysics","162","709095","0.0-162.0","6101c5bffd584fdda7def135","6213cdcae43402b29e410d40","4","","","","","1","4"
"null","","","null","","","","html-keyboard-response","163","709598","0.0-163.0","6101c5bffd584fdda7def135","6213cdcae43402b29e410d40","","","","","<p style=""color:darkgreen;font-size:24px;"">Correct :)</p>","",""
"2576","key","v","v","16.66599999999988","500","250","psychophysics","164","712180","0.0-164.0","6101c5bffd584fdda7def135","6213cdcae43402b29e410d40","4","","","","","1","2"
"null","","","null","","","","html-keyboard-response","165","712684","0.0-165.0","6101c5bffd584fdda7def135","6213cdcae43402b29e410d40","","","","","<p style=""color:darkgreen;font-size:24px;"">Correct :)</p>","",""
"2504","key","v","v","16.665999999999944","500","250","psychophysics","166","715194","0.0-166.0","6101c5bffd584fdda7def135","6213cdcae43402b29e410d40","4","","","","","1","1"
"null","","","null","","","","html-keyboard-response","167","715698","0.0-167.0","6101c5bffd584fdda7def135","6213cdcae43402b29e410d40","","","","","<p style=""color:darkgreen;font-size:24px;"">Correct :)</p>","",""
"2463","key","v","v","16.671527027026624","500","250","psychophysics","168","718165","0.0-168.0","6101c5bffd584fdda7def135","6213cdcae43402b29e410d40","4","","","","","1","8"
"null","","","null","","","","html-keyboard-response","169","718670","0.0-169.0","6101c5bffd584fdda7def135","6213cdcae43402b29e410d40","","","","","<p style=""color:red;font-size:24px;"">Error :(</p>","",""
"2457","key","n","n","16.66600000000001","500","250","psychophysics","170","721131","0.0-170.0","6101c5bffd584fdda7def135","6213cdcae43402b29e410d40","4","","","","","1","8"
"null","","","null","","","","html-keyboard-response","171","721635","0.0-171.0","6101c5bffd584fdda7def135","6213cdcae43402b29e410d40","","","","","<p style=""color:darkgreen;font-size:24px;"">Correct :)</p>","",""
"2533","key","v","v","16.66599999999953","500","250","psychophysics","172","724172","0.0-172.0","6101c5bffd584fdda7def135","6213cdcae43402b29e410d40","4","","","","","1","1"
"null","","","null","","","","html-keyboard-response","173","724677","0.0-173.0","6101c5bffd584fdda7def135","6213cdcae43402b29e410d40","","","","","<p style=""color:darkgreen;font-size:24px;"">Correct :)</p>","",""
"2641","key","n","n","16.67117721519044","500","250","psychophysics","174","727322","0.0-174.0","6101c5bffd584fdda7def135","6213cdcae43402b29e410d40","4","","","","","1","6"
"null","","","null","","","","html-keyboard-response","175","727824","0.0-175.0","6101c5bffd584fdda7def135","6213cdcae43402b29e410d40","","","","","<p style=""color:darkgreen;font-size:24px;"">Correct :)</p>","",""
"2456","key","v","v","16.66600000000001","500","250","psychophysics","176","730285","0.0-176.0","6101c5bffd584fdda7def135","6213cdcae43402b29e410d40","4","","","","","1","1"
"null","","","null","","","","html-keyboard-response","177","730790","0.0-177.0","6101c5bffd584fdda7def135","6213cdcae43402b29e410d40","","","","","<p style=""color:darkgreen;font-size:24px;"">Correct :)</p>","",""
"2727","key","v","v","16.665999999999567","500","250","psychophysics","178","733526","0.0-178.0","6101c5bffd584fdda7def135","6213cdcae43402b29e410d40","4","","","","","1","3"
"null","","","null","","","","html-keyboard-response","179","734029","0.0-179.0","6101c5bffd584fdda7def135","6213cdcae43402b29e410d40","","","","","<p style=""color:darkgreen;font-size:24px;"">Correct :)</p>","",""
"2515","key","v","v","16.665999999999944","500","250","psychophysics","180","736550","0.0-180.0","6101c5bffd584fdda7def135","6213cdcae43402b29e410d40","4","","","","","1","2"
"null","","","null","","","","html-keyboard-response","181","737054","0.0-181.0","6101c5bffd584fdda7def135","6213cdcae43402b29e410d40","","","","","<p style=""color:darkgreen;font-size:24px;"">Correct :)</p>","",""
"2500","key","n","n","16.6720133333335","500","250","psychophysics","182","739561","0.0-182.0","6101c5bffd584fdda7def135","6213cdcae43402b29e410d40","4","","","","","1","6"
"null","","","null","","","","html-keyboard-response","183","740065","0.0-183.0","6101c5bffd584fdda7def135","6213cdcae43402b29e410d40","","","","","<p style=""color:darkgreen;font-size:24px;"">Correct :)</p>","",""
"2468","key","n","n","16.66599999999959","500","250","psychophysics","184","742545","0.0-184.0","6101c5bffd584fdda7def135","6213cdcae43402b29e410d40","4","","","","","1","7"
"null","","","null","","","","html-keyboard-response","185","743049","0.0-185.0","6101c5bffd584fdda7def135","6213cdcae43402b29e410d40","","","","","<p style=""color:darkgreen;font-size:24px;"">Correct :)</p>","",""
"2527","key","n","n","16.6660000000005","500","250","psychophysics","186","745581","0.0-186.0","6101c5bffd584fdda7def135","6213cdcae43402b29e410d40","4","","","","","1","7"
"null","","","null","","","","html-keyboard-response","187","746084","0.0-187.0","6101c5bffd584fdda7def135","6213cdcae43402b29e410d40","","","","","<p style=""color:darkgreen;font-size:24px;"">Correct :)</p>","",""
"2424","key","v","v","16.671602739726055","500","250","psychophysics","188","748512","0.0-188.0","6101c5bffd584fdda7def135","6213cdcae43402b29e410d40","4","","","","","1","1"
"null","","","null","","","","html-keyboard-response","189","749016","0.0-189.0","6101c5bffd584fdda7def135","6213cdcae43402b29e410d40","","","","","<p style=""color:darkgreen;font-size:24px;"">Correct :)</p>","",""
"2507","key","n","n","16.665999999999944","500","250","psychophysics","190","751531","0.0-190.0","6101c5bffd584fdda7def135","6213cdcae43402b29e410d40","4","","","","","1","6"
"null","","","null","","","","html-keyboard-response","191","752034","0.0-191.0","6101c5bffd584fdda7def135","6213cdcae43402b29e410d40","","","","","<p style=""color:darkgreen;font-size:24px;"">Correct :)</p>","",""
"2655","key","n","n","16.66600000000035","500","250","psychophysics","192","754694","0.0-192.0","6101c5bffd584fdda7def135","6213cdcae43402b29e410d40","4","","","","","1","7"
"null","","","null","","","","html-keyboard-response","193","755198","0.0-193.0","6101c5bffd584fdda7def135","6213cdcae43402b29e410d40","","","","","<p style=""color:darkgreen;font-size:24px;"">Correct :)</p>","",""
"15713","","","n","","","","html-keyboard-response","194","770912","0.0-194.0","6101c5bffd584fdda7def135","6213cdcae43402b29e410d40","","","","","<p> Ok, now we are going present the same digits as before.  Your job is to say whether the digit is even or odd  If the digit is odd, press to v key; if it is even, press the n key. We are going to do 50 of these.  </p>  <br><br>  Ready? (press v or n)","",""
"2885","key","v","v","16.675456647399134","500","250","psychophysics","195","773803","0.0-195.0","6101c5bffd584fdda7def135","6213cdcae43402b29e410d40","5","","","","","0","9"
"null","","","null","","","","html-keyboard-response","196","774307","0.0-196.0","6101c5bffd584fdda7def135","6213cdcae43402b29e410d40","","","","","<p style=""color:darkgreen;font-size:24px;"">Correct :)</p>","",""
"2584","key","v","v","16.66600000000063","500","250","psychophysics","197","776897","0.0-197.0","6101c5bffd584fdda7def135","6213cdcae43402b29e410d40","5","","","","","0","3"
"null","","","null","","","","html-keyboard-response","198","777401","0.0-198.0","6101c5bffd584fdda7def135","6213cdcae43402b29e410d40","","","","","<p style=""color:darkgreen;font-size:24px;"">Correct :)</p>","",""
"2583","key","v","v","16.672044871795105","500","250","psychophysics","199","779989","0.0-199.0","6101c5bffd584fdda7def135","6213cdcae43402b29e410d40","5","","","","","0","1"
"null","","","null","","","","html-keyboard-response","200","780494","0.0-200.0","6101c5bffd584fdda7def135","6213cdcae43402b29e410d40","","","","","<p style=""color:darkgreen;font-size:24px;"">Correct :)</p>","",""
"2428","key","n","n","16.665999999999432","500","250","psychophysics","201","782928","0.0-201.0","6101c5bffd584fdda7def135","6213cdcae43402b29e410d40","5","","","","","0","8"
"null","","","null","","","","html-keyboard-response","202","783432","0.0-202.0","6101c5bffd584fdda7def135","6213cdcae43402b29e410d40","","","","","<p style=""color:darkgreen;font-size:24px;"">Correct :)</p>","",""
"2506","key","n","n","16.665999999999944","500","250","psychophysics","203","785944","0.0-203.0","6101c5bffd584fdda7def135","6213cdcae43402b29e410d40","5","","","","","0","8"
"null","","","null","","","","html-keyboard-response","204","786445","0.0-204.0","6101c5bffd584fdda7def135","6213cdcae43402b29e410d40","","","","","<p style=""color:darkgreen;font-size:24px;"">Correct :)</p>","",""
"2504","key","n","n","16.671417218542793","500","250","psychophysics","205","788962","0.0-205.0","6101c5bffd584fdda7def135","6213cdcae43402b29e410d40","5","","","","","0","6"
"null","","","null","","","","html-keyboard-response","206","789464","0.0-206.0","6101c5bffd584fdda7def135","6213cdcae43402b29e410d40","","","","","<p style=""color:darkgreen;font-size:24px;"">Correct :)</p>","",""
"2566","key","n","n","16.666000000000086","500","250","psychophysics","207","792036","0.0-207.0","6101c5bffd584fdda7def135","6213cdcae43402b29e410d40","5","","","","","0","2"
"null","","","null","","","","html-keyboard-response","208","792538","0.0-208.0","6101c5bffd584fdda7def135","6213cdcae43402b29e410d40","","","","","<p style=""color:darkgreen;font-size:24px;"">Correct :)</p>","",""
"2521","key","v","v","16.665999999999944","500","250","psychophysics","209","795065","0.0-209.0","6101c5bffd584fdda7def135","6213cdcae43402b29e410d40","5","","","","","0","2"
"null","","","null","","","","html-keyboard-response","210","795569","0.0-210.0","6101c5bffd584fdda7def135","6213cdcae43402b29e410d40","","","","","<p style=""color:red;font-size:24px;"">Error :(</p>","",""
"2507","key","v","v","16.67145333333329","500","250","psychophysics","211","798083","0.0-211.0","6101c5bffd584fdda7def135","6213cdcae43402b29e410d40","5","","","","","0","7"
"null","","","null","","","","html-keyboard-response","212","798588","0.0-212.0","6101c5bffd584fdda7def135","6213cdcae43402b29e410d40","","","","","<p style=""color:darkgreen;font-size:24px;"">Correct :)</p>","",""
"2549","key","v","v","16.66599999999953","500","250","psychophysics","213","801144","0.0-213.0","6101c5bffd584fdda7def135","6213cdcae43402b29e410d40","5","","","","","0","1"
"null","","","null","","","","html-keyboard-response","214","801647","0.0-214.0","6101c5bffd584fdda7def135","6213cdcae43402b29e410d40","","","","","<p style=""color:darkgreen;font-size:24px;"">Correct :)</p>","",""
"2433","key","v","v","16.66600000000023","500","250","psychophysics","215","804086","0.0-215.0","6101c5bffd584fdda7def135","6213cdcae43402b29e410d40","5","","","","","0","1"
"null","","","null","","","","html-keyboard-response","216","804590","0.0-216.0","6101c5bffd584fdda7def135","6213cdcae43402b29e410d40","","","","","<p style=""color:darkgreen;font-size:24px;"">Correct :)</p>","",""
"2433","key","v","v","16.66600000000023","500","250","psychophysics","217","807028","0.0-217.0","6101c5bffd584fdda7def135","6213cdcae43402b29e410d40","5","","","","","0","1"
"null","","","null","","","","html-keyboard-response","218","807533","0.0-218.0","6101c5bffd584fdda7def135","6213cdcae43402b29e410d40","","","","","<p style=""color:darkgreen;font-size:24px;"">Correct :)</p>","",""
"2605","key","n","n","16.665999999999478","500","250","psychophysics","219","810145","0.0-219.0","6101c5bffd584fdda7def135","6213cdcae43402b29e410d40","5","","","","","0","8"
"null","","","null","","","","html-keyboard-response","220","810650","0.0-220.0","6101c5bffd584fdda7def135","6213cdcae43402b29e410d40","","","","","<p style=""color:darkgreen;font-size:24px;"">Correct :)</p>","",""
"2460","key","n","n","16.666000000000587","500","250","psychophysics","221","813113","0.0-221.0","6101c5bffd584fdda7def135","6213cdcae43402b29e410d40","5","","","","","0","4"
"null","","","null","","","","html-keyboard-response","222","813616","0.0-222.0","6101c5bffd584fdda7def135","6213cdcae43402b29e410d40","","","","","<p style=""color:darkgreen;font-size:24px;"">Correct :)</p>","",""
"2621","key","v","v","16.666000000000018","500","250","psychophysics","223","816247","0.0-223.0","6101c5bffd584fdda7def135","6213cdcae43402b29e410d40","5","","","","","0","1"
"null","","","null","","","","html-keyboard-response","224","816751","0.0-224.0","6101c5bffd584fdda7def135","6213cdcae43402b29e410d40","","","","","<p style=""color:darkgreen;font-size:24px;"">Correct :)</p>","",""
"2605","key","n","n","16.672006369426782","500","250","psychophysics","225","819362","0.0-225.0","6101c5bffd584fdda7def135","6213cdcae43402b29e410d40","5","","","","","0","8"
"null","","","null","","","","html-keyboard-response","226","819865","0.0-226.0","6101c5bffd584fdda7def135","6213cdcae43402b29e410d40","","","","","<p style=""color:darkgreen;font-size:24px;"">Correct :)</p>","",""
"2483","key","n","n","16.666000000000157","500","250","psychophysics","227","822361","0.0-227.0","6101c5bffd584fdda7def135","6213cdcae43402b29e410d40","5","","","","","0","8"
"null","","","null","","","","html-keyboard-response","228","822863","0.0-228.0","6101c5bffd584fdda7def135","6213cdcae43402b29e410d40","","","","","<p style=""color:darkgreen;font-size:24px;"">Correct :)</p>","",""
"2513","key","v","v","16.665999999999944","500","250","psychophysics","229","825378","0.0-229.0","6101c5bffd584fdda7def135","6213cdcae43402b29e410d40","5","","","","","0","3"
"null","","","null","","","","html-keyboard-response","230","825881","0.0-230.0","6101c5bffd584fdda7def135","6213cdcae43402b29e410d40","","","","","<p style=""color:darkgreen;font-size:24px;"">Correct :)</p>","",""
"2522","key","v","v","16.671381578947674","500","250","psychophysics","231","828410","0.0-231.0","6101c5bffd584fdda7def135","6213cdcae43402b29e410d40","5","","","","","0","7"
"null","","","null","","","","html-keyboard-response","232","828911","0.0-232.0","6101c5bffd584fdda7def135","6213cdcae43402b29e410d40","","","","","<p style=""color:darkgreen;font-size:24px;"">Correct :)</p>","",""
"2413","key","v","v","16.666000000000448","500","250","psychophysics","233","831331","0.0-233.0","6101c5bffd584fdda7def135","6213cdcae43402b29e410d40","5","","","","","0","4"
"null","","","null","","","","html-keyboard-response","234","831833","0.0-234.0","6101c5bffd584fdda7def135","6213cdcae43402b29e410d40","","","","","<p style=""color:red;font-size:24px;"">Error :(</p>","",""
"2464","key","n","n","16.66599999999959","500","250","psychophysics","235","834305","0.0-235.0","6101c5bffd584fdda7def135","6213cdcae43402b29e410d40","5","","","","","0","4"
"null","","","null","","","","html-keyboard-response","236","834809","0.0-236.0","6101c5bffd584fdda7def135","6213cdcae43402b29e410d40","","","","","<p style=""color:darkgreen;font-size:24px;"">Correct :)</p>","",""
"2616","key","v","v","16.67121019108283","500","250","psychophysics","237","837432","0.0-237.0","6101c5bffd584fdda7def135","6213cdcae43402b29e410d40","5","","","","","0","9"
"null","","","null","","","","html-keyboard-response","238","837933","0.0-238.0","6101c5bffd584fdda7def135","6213cdcae43402b29e410d40","","","","","<p style=""color:darkgreen;font-size:24px;"">Correct :)</p>","",""
"2566","key","v","v","16.66599999999933","500","250","psychophysics","239","840506","0.0-239.0","6101c5bffd584fdda7def135","6213cdcae43402b29e410d40","5","","","","","0","1"
"null","","","null","","","","html-keyboard-response","240","841008","0.0-240.0","6101c5bffd584fdda7def135","6213cdcae43402b29e410d40","","","","","<p style=""color:darkgreen;font-size:24px;"">Correct :)</p>","",""
"2424","key","v","v","16.66600000000023","500","250","psychophysics","241","843438","0.0-241.0","6101c5bffd584fdda7def135","6213cdcae43402b29e410d40","5","","","","","0","1"
"null","","","null","","","","html-keyboard-response","242","843940","0.0-242.0","6101c5bffd584fdda7def135","6213cdcae43402b29e410d40","","","","","<p style=""color:darkgreen;font-size:24px;"">Correct :)</p>","",""
"2687","key","v","v","16.66599999999943","500","250","psychophysics","243","846632","0.0-243.0","6101c5bffd584fdda7def135","6213cdcae43402b29e410d40","5","","","","","0","9"
"null","","","null","","","","html-keyboard-response","244","847134","0.0-244.0","6101c5bffd584fdda7def135","6213cdcae43402b29e410d40","","","","","<p style=""color:darkgreen;font-size:24px;"">Correct :)</p>","",""
"2417","key","v","v","16.672503448275304","500","250","psychophysics","245","849554","0.0-245.0","6101c5bffd584fdda7def135","6213cdcae43402b29e410d40","5","","","","","0","1"
"null","","","null","","","","html-keyboard-response","246","850058","0.0-246.0","6101c5bffd584fdda7def135","6213cdcae43402b29e410d40","","","","","<p style=""color:darkgreen;font-size:24px;"">Correct :)</p>","",""
"2453","key","n","n","16.66600000000001","500","250","psychophysics","247","852517","0.0-247.0","6101c5bffd584fdda7def135","6213cdcae43402b29e410d40","5","","","","","0","4"
"null","","","null","","","","html-keyboard-response","248","853020","0.0-248.0","6101c5bffd584fdda7def135","6213cdcae43402b29e410d40","","","","","<p style=""color:darkgreen;font-size:24px;"">Correct :)</p>","",""
"2488","key","n","n","16.66600000000037","500","250","psychophysics","249","855510","0.0-249.0","6101c5bffd584fdda7def135","6213cdcae43402b29e410d40","5","","","","","0","4"
"null","","","null","","","","html-keyboard-response","250","856014","0.0-250.0","6101c5bffd584fdda7def135","6213cdcae43402b29e410d40","","","","","<p style=""color:darkgreen;font-size:24px;"">Correct :)</p>","",""
"2506","key","v","v","16.671417218542793","500","250","psychophysics","251","858527","0.0-251.0","6101c5bffd584fdda7def135","6213cdcae43402b29e410d40","5","","","","","0","1"
"null","","","null","","","","html-keyboard-response","252","859028","0.0-252.0","6101c5bffd584fdda7def135","6213cdcae43402b29e410d40","","","","","<p style=""color:darkgreen;font-size:24px;"">Correct :)</p>","",""
"2511","key","v","v","16.665999999999944","500","250","psychophysics","253","861544","0.0-253.0","6101c5bffd584fdda7def135","6213cdcae43402b29e410d40","5","","","","","0","2"
"null","","","null","","","","html-keyboard-response","254","862047","0.0-254.0","6101c5bffd584fdda7def135","6213cdcae43402b29e410d40","","","","","<p style=""color:red;font-size:24px;"">Error :(</p>","",""
"2543","key","v","v","16.66599999999953","500","250","psychophysics","255","864597","0.0-255.0","6101c5bffd584fdda7def135","6213cdcae43402b29e410d40","5","","","","","0","1"
"null","","","null","","","","html-keyboard-response","256","865099","0.0-256.0","6101c5bffd584fdda7def135","6213cdcae43402b29e410d40","","","","","<p style=""color:darkgreen;font-size:24px;"">Correct :)</p>","",""
"2638","key","n","n","16.671144654088412","500","250","psychophysics","257","867744","0.0-257.0","6101c5bffd584fdda7def135","6213cdcae43402b29e410d40","5","","","","","0","4"
"null","","","null","","","","html-keyboard-response","258","868245","0.0-258.0","6101c5bffd584fdda7def135","6213cdcae43402b29e410d40","","","","","<p style=""color:darkgreen;font-size:24px;"">Correct :)</p>","",""
"2730","key","v","v","16.666000000000277","500","250","psychophysics","259","870977","0.0-259.0","6101c5bffd584fdda7def135","6213cdcae43402b29e410d40","5","","","","","0","7"
"null","","","null","","","","html-keyboard-response","260","871479","0.0-260.0","6101c5bffd584fdda7def135","6213cdcae43402b29e410d40","","","","","<p style=""color:darkgreen;font-size:24px;"">Correct :)</p>","",""
"2596","key","n","n","16.665999999999677","500","250","psychophysics","261","874081","0.0-261.0","6101c5bffd584fdda7def135","6213cdcae43402b29e410d40","5","","","","","0","6"
"null","","","null","","","","html-keyboard-response","262","874583","0.0-262.0","6101c5bffd584fdda7def135","6213cdcae43402b29e410d40","","","","","<p style=""color:darkgreen;font-size:24px;"">Correct :)</p>","",""
"2518","key","n","n","16.6660000000005","500","250","psychophysics","263","877107","0.0-263.0","6101c5bffd584fdda7def135","6213cdcae43402b29e410d40","5","","","","","0","6"
"null","","","null","","","","html-keyboard-response","264","877611","0.0-264.0","6101c5bffd584fdda7def135","6213cdcae43402b29e410d40","","","","","<p style=""color:darkgreen;font-size:24px;"">Correct :)</p>","",""
"2626","key","n","n","16.672759493670714","500","250","psychophysics","265","880243","0.0-265.0","6101c5bffd584fdda7def135","6213cdcae43402b29e410d40","5","","","","","0","8"
"null","","","null","","","","html-keyboard-response","266","880747","0.0-266.0","6101c5bffd584fdda7def135","6213cdcae43402b29e410d40","","","","","<p style=""color:darkgreen;font-size:24px;"">Correct :)</p>","",""
"2560","key","n","n","16.666000000000086","500","250","psychophysics","267","883313","0.0-267.0","6101c5bffd584fdda7def135","6213cdcae43402b29e410d40","5","","","","","0","2"
"null","","","null","","","","html-keyboard-response","268","883815","0.0-268.0","6101c5bffd584fdda7def135","6213cdcae43402b29e410d40","","","","","<p style=""color:darkgreen;font-size:24px;"">Correct :)</p>","",""
"2551","key","v","v","16.666000000000086","500","250","psychophysics","269","886371","0.0-269.0","6101c5bffd584fdda7def135","6213cdcae43402b29e410d40","5","","","","","0","7"
"null","","","null","","","","html-keyboard-response","270","886872","0.0-270.0","6101c5bffd584fdda7def135","6213cdcae43402b29e410d40","","","","","<p style=""color:darkgreen;font-size:24px;"">Correct :)</p>","",""
"2590","key","n","n","16.671277419355278","500","250","psychophysics","271","889467","0.0-271.0","6101c5bffd584fdda7def135","6213cdcae43402b29e410d40","5","","","","","0","6"
"null","","","null","","","","html-keyboard-response","272","889971","0.0-272.0","6101c5bffd584fdda7def135","6213cdcae43402b29e410d40","","","","","<p style=""color:darkgreen;font-size:24px;"">Correct :)</p>","",""
"2466","key","v","v","16.666000000000587","500","250","psychophysics","273","892445","0.0-273.0","6101c5bffd584fdda7def135","6213cdcae43402b29e410d40","5","","","","","0","1"
"null","","","null","","","","html-keyboard-response","274","892947","0.0-274.0","6101c5bffd584fdda7def135","6213cdcae43402b29e410d40","","","","","<p style=""color:darkgreen;font-size:24px;"">Correct :)</p>","",""
"2663","key","v","v","16.66599999999962","500","250","psychophysics","275","895616","0.0-275.0","6101c5bffd584fdda7def135","6213cdcae43402b29e410d40","5","","","","","0","3"
"null","","","null","","","","html-keyboard-response","276","896119","0.0-276.0","6101c5bffd584fdda7def135","6213cdcae43402b29e410d40","","","","","<p style=""color:darkgreen;font-size:24px;"">Correct :)</p>","",""
"2919","key","n","n","16.671388571428","500","250","psychophysics","277","899045","0.0-277.0","6101c5bffd584fdda7def135","6213cdcae43402b29e410d40","5","","","","","0","4"
"null","","","null","","","","html-keyboard-response","278","899549","0.0-278.0","6101c5bffd584fdda7def135","6213cdcae43402b29e410d40","","","","","<p style=""color:darkgreen;font-size:24px;"">Correct :)</p>","",""
"2554","key","n","n","16.666000000000086","500","250","psychophysics","279","902113","0.0-279.0","6101c5bffd584fdda7def135","6213cdcae43402b29e410d40","5","","","","","0","6"
"null","","","null","","","","html-keyboard-response","280","902615","0.0-280.0","6101c5bffd584fdda7def135","6213cdcae43402b29e410d40","","","","","<p style=""color:darkgreen;font-size:24px;"">Correct :)</p>","",""
"2575","key","n","n","16.66599999999988","500","250","psychophysics","281","905195","0.0-281.0","6101c5bffd584fdda7def135","6213cdcae43402b29e410d40","5","","","","","0","8"
"null","","","null","","","","html-keyboard-response","282","905698","0.0-282.0","6101c5bffd584fdda7def135","6213cdcae43402b29e410d40","","","","","<p style=""color:darkgreen;font-size:24px;"">Correct :)</p>","",""
"2691","key","v","v","16.671049382715818","500","250","psychophysics","283","908395","0.0-283.0","6101c5bffd584fdda7def135","6213cdcae43402b29e410d40","5","","","","","0","9"
"null","","","null","","","","html-keyboard-response","284","908900","0.0-284.0","6101c5bffd584fdda7def135","6213cdcae43402b29e410d40","","","","","<p style=""color:darkgreen;font-size:24px;"">Correct :)</p>","",""
"2731","key","n","n","16.666000000000277","500","250","psychophysics","285","911637","0.0-285.0","6101c5bffd584fdda7def135","6213cdcae43402b29e410d40","5","","","","","0","4"
"null","","","null","","","","html-keyboard-response","286","912140","0.0-286.0","6101c5bffd584fdda7def135","6213cdcae43402b29e410d40","","","","","<p style=""color:darkgreen;font-size:24px;"">Correct :)</p>","",""
"2453","key","n","n","16.66600000000001","500","250","psychophysics","287","914599","0.0-287.0","6101c5bffd584fdda7def135","6213cdcae43402b29e410d40","5","","","","","0","9"
"null","","","null","","","","html-keyboard-response","288","915103","0.0-288.0","6101c5bffd584fdda7def135","6213cdcae43402b29e410d40","","","","","<p style=""color:red;font-size:24px;"">Error :(</p>","",""
"2727","key","v","v","16.671018404908267","500","250","psychophysics","289","917836","0.0-289.0","6101c5bffd584fdda7def135","6213cdcae43402b29e410d40","5","","","","","0","9"
"null","","","null","","","","html-keyboard-response","290","918338","0.0-290.0","6101c5bffd584fdda7def135","6213cdcae43402b29e410d40","","","","","<p style=""color:darkgreen;font-size:24px;"">Correct :)</p>","",""
"3166","key","v","v","16.666000000000196","500","250","psychophysics","291","921510","0.0-291.0","6101c5bffd584fdda7def135","6213cdcae43402b29e410d40","5","","","","","0","9"
"null","","","null","","","","html-keyboard-response","292","922012","0.0-292.0","6101c5bffd584fdda7def135","6213cdcae43402b29e410d40","","","","","<p style=""color:darkgreen;font-size:24px;"">Correct :)</p>","",""
"3323","key","n","n","16.665999999999926","500","250","psychophysics","293","925337","0.0-293.0","6101c5bffd584fdda7def135","6213cdcae43402b29e410d40","5","","","","","0","4"
"null","","","null","","","","html-keyboard-response","294","925839","0.0-294.0","6101c5bffd584fdda7def135","6213cdcae43402b29e410d40","","","","","<p style=""color:darkgreen;font-size:24px;"">Correct :)</p>","",""
"11954","","","n","","","","html-keyboard-response","295","937794","0.0-295.0","6101c5bffd584fdda7def135","6213cdcae43402b29e410d40","","","","","<p> Here, the tasks are going to switch.  For some trials, your job is to decide if the digit is less than or greater than 5.  For others, it is to decide if the digit is even or odd.  You will be told which type of trial the current one is.  But, pay attention, the type of trial changes too.  We are going to do 50 of these.  </p>  <br><br>  Ready? (press v or n)","",""
"2681","key","v","v","16.676937888199262","500","250","psychophysics","296","940478","0.0-296.0","6101c5bffd584fdda7def135","6213cdcae43402b29e410d40","6","","","","","1","7"
"null","","","null","","","","html-keyboard-response","297","940983","0.0-297.0","6101c5bffd584fdda7def135","6213cdcae43402b29e410d40","","","","","<p style=""color:red;font-size:24px;"">Error :(</p>","",""
"2504","key","n","n","16.665999999999944","500","250","psychophysics","298","943494","0.0-298.0","6101c5bffd584fdda7def135","6213cdcae43402b29e410d40","6","","","","","1","8"
"null","","","null","","","","html-keyboard-response","299","943995","0.0-299.0","6101c5bffd584fdda7def135","6213cdcae43402b29e410d40","","","","","<p style=""color:darkgreen;font-size:24px;"">Correct :)</p>","",""
"2424","key","n","n","16.66600000000023","500","250","psychophysics","300","946426","0.0-300.0","6101c5bffd584fdda7def135","6213cdcae43402b29e410d40","6","","","","","0","8"
"null","","","null","","","","html-keyboard-response","301","946927","0.0-301.0","6101c5bffd584fdda7def135","6213cdcae43402b29e410d40","","","","","<p style=""color:darkgreen;font-size:24px;"">Correct :)</p>","",""
"2547","key","v","v","16.67216339869291","500","250","psychophysics","302","949479","0.0-302.0","6101c5bffd584fdda7def135","6213cdcae43402b29e410d40","6","","","","","0","1"
"null","","","null","","","","html-keyboard-response","303","949981","0.0-303.0","6101c5bffd584fdda7def135","6213cdcae43402b29e410d40","","","","","<p style=""color:darkgreen;font-size:24px;"">Correct :)</p>","",""
"2473","key","n","n","16.66600000000037","500","250","psychophysics","304","952460","0.0-304.0","6101c5bffd584fdda7def135","6213cdcae43402b29e410d40","6","","","","","0","6"
"null","","","null","","","","html-keyboard-response","305","952963","0.0-305.0","6101c5bffd584fdda7def135","6213cdcae43402b29e410d40","","","","","<p style=""color:darkgreen;font-size:24px;"">Correct :)</p>","",""
"2542","key","v","v","16.66599999999953","500","250","psychophysics","306","955510","0.0-306.0","6101c5bffd584fdda7def135","6213cdcae43402b29e410d40","6","","","","","0","3"
"null","","","null","","","","html-keyboard-response","307","956012","0.0-307.0","6101c5bffd584fdda7def135","6213cdcae43402b29e410d40","","","","","<p style=""color:darkgreen;font-size:24px;"">Correct :)</p>","",""
"2673","key","v","v","16.670304347826054","500","250","psychophysics","308","958691","0.0-308.0","6101c5bffd584fdda7def135","6213cdcae43402b29e410d40","6","","","","","1","1"
"null","","","null","","","","html-keyboard-response","309","959194","0.0-309.0","6101c5bffd584fdda7def135","6213cdcae43402b29e410d40","","","","","<p style=""color:darkgreen;font-size:24px;"">Correct :)</p>","",""
"2562","key","n","n","16.666000000000086","500","250","psychophysics","310","961762","0.0-310.0","6101c5bffd584fdda7def135","6213cdcae43402b29e410d40","6","","","","","0","9"
"null","","","null","","","","html-keyboard-response","311","962264","0.0-311.0","6101c5bffd584fdda7def135","6213cdcae43402b29e410d40","","","","","<p style=""color:red;font-size:24px;"">Error :(</p>","",""
"2604","key","v","v","16.665999999999478","500","250","psychophysics","312","964878","0.0-312.0","6101c5bffd584fdda7def135","6213cdcae43402b29e410d40","6","","","","","0","8"
"null","","","null","","","","html-keyboard-response","313","965380","0.0-313.0","6101c5bffd584fdda7def135","6213cdcae43402b29e410d40","","","","","<p style=""color:red;font-size:24px;"">Error :(</p>","",""
"3303","key","n","n","16.67073869346711","500","250","psychophysics","314","968688","0.0-314.0","6101c5bffd584fdda7def135","6213cdcae43402b29e410d40","6","","","","","0","4"
"null","","","null","","","","html-keyboard-response","315","969193","0.0-315.0","6101c5bffd584fdda7def135","6213cdcae43402b29e410d40","","","","","<p style=""color:darkgreen;font-size:24px;"">Correct :)</p>","",""
"2765","key","n","n","16.665999999999894","500","250","psychophysics","316","971964","0.0-316.0","6101c5bffd584fdda7def135","6213cdcae43402b29e410d40","6","","","","","1","8"
"null","","","null","","","","html-keyboard-response","317","972469","0.0-317.0","6101c5bffd584fdda7def135","6213cdcae43402b29e410d40","","","","","<p style=""color:darkgreen;font-size:24px;"">Correct :)</p>","",""
"2553","key","n","n","16.66599999999953","500","250","psychophysics","318","975027","0.0-318.0","6101c5bffd584fdda7def135","6213cdcae43402b29e410d40","6","","","","","1","8"
"null","","","null","","","","html-keyboard-response","319","975528","0.0-319.0","6101c5bffd584fdda7def135","6213cdcae43402b29e410d40","","","","","<p style=""color:darkgreen;font-size:24px;"">Correct :)</p>","",""
"2819","key","n","n","16.670840236686924","500","250","psychophysics","320","978355","0.0-320.0","6101c5bffd584fdda7def135","6213cdcae43402b29e410d40","6","","","","","0","6"
"null","","","null","","","","html-keyboard-response","321","978857","0.0-321.0","6101c5bffd584fdda7def135","6213cdcae43402b29e410d40","","","","","<p style=""color:darkgreen;font-size:24px;"">Correct :)</p>","",""
"2784","key","n","n","16.666000000000402","500","250","psychophysics","322","981645","0.0-322.0","6101c5bffd584fdda7def135","6213cdcae43402b29e410d40","6","","","","","0","8"
"null","","","null","","","","html-keyboard-response","323","982150","0.0-323.0","6101c5bffd584fdda7def135","6213cdcae43402b29e410d40","","","","","<p style=""color:darkgreen;font-size:24px;"">Correct :)</p>","",""
"2949","key","v","v","16.665999999999727","500","250","psychophysics","324","985109","0.0-324.0","6101c5bffd584fdda7def135","6213cdcae43402b29e410d40","6","","","","","1","7"
"null","","","null","","","","html-keyboard-response","325","985611","0.0-325.0","6101c5bffd584fdda7def135","6213cdcae43402b29e410d40","","","","","<p style=""color:red;font-size:24px;"">Error :(</p>","",""
"2761","key","n","n","16.670927710843788","500","250","psychophysics","326","988377","0.0-326.0","6101c5bffd584fdda7def135","6213cdcae43402b29e410d40","6","","","","","0","8"
"null","","","null","","","","html-keyboard-response","327","988882","0.0-327.0","6101c5bffd584fdda7def135","6213cdcae43402b29e410d40","","","","","<p style=""color:darkgreen;font-size:24px;"">Correct :)</p>","",""
"3805","key","v","v","16.665999999999855","500","250","psychophysics","328","992692","0.0-328.0","6101c5bffd584fdda7def135","6213cdcae43402b29e410d40","6","","","","","1","3"
"null","","","null","","","","html-keyboard-response","329","993197","0.0-329.0","6101c5bffd584fdda7def135","6213cdcae43402b29e410d40","","","","","<p style=""color:darkgreen;font-size:24px;"">Correct :)</p>","",""
"3843","key","n","n","16.666000000000086","500","250","psychophysics","330","997045","0.0-330.0","6101c5bffd584fdda7def135","6213cdcae43402b29e410d40","6","","","","","1","7"
"null","","","null","","","","html-keyboard-response","331","997549","0.0-331.0","6101c5bffd584fdda7def135","6213cdcae43402b29e410d40","","","","","<p style=""color:darkgreen;font-size:24px;"">Correct :)</p>","",""
"3195","key","v","v","16.67026041666698","500","250","psychophysics","332","1000749","0.0-332.0","6101c5bffd584fdda7def135","6213cdcae43402b29e410d40","6","","","","","0","3"
"null","","","null","","","","html-keyboard-response","333","1001252","0.0-333.0","6101c5bffd584fdda7def135","6213cdcae43402b29e410d40","","","","","<p style=""color:darkgreen;font-size:24px;"">Correct :)</p>","",""
"3237","key","n","n","16.66600000000014","500","250","psychophysics","334","1004496","0.0-334.0","6101c5bffd584fdda7def135","6213cdcae43402b29e410d40","6","","","","","1","4"
"null","","","null","","","","html-keyboard-response","335","1004998","0.0-335.0","6101c5bffd584fdda7def135","6213cdcae43402b29e410d40","","","","","<p style=""color:red;font-size:24px;"">Error :(</p>","",""
"2773","key","n","n","16.67164670658705","500","250","psychophysics","336","1007776","0.0-336.0","6101c5bffd584fdda7def135","6213cdcae43402b29e410d40","6","","","","","1","8"
"null","","","null","","","","html-keyboard-response","337","1008277","0.0-337.0","6101c5bffd584fdda7def135","6213cdcae43402b29e410d40","","","","","<p style=""color:darkgreen;font-size:24px;"">Correct :)</p>","",""
"2978","key","v","v","16.666000000000203","500","250","psychophysics","338","1011259","0.0-338.0","6101c5bffd584fdda7def135","6213cdcae43402b29e410d40","6","","","","","1","3"
"null","","","null","","","","html-keyboard-response","339","1011763","0.0-339.0","6101c5bffd584fdda7def135","6213cdcae43402b29e410d40","","","","","<p style=""color:darkgreen;font-size:24px;"">Correct :)</p>","",""
"2538","key","v","v","16.66599999999953","500","250","psychophysics","340","1014307","0.0-340.0","6101c5bffd584fdda7def135","6213cdcae43402b29e410d40","6","","","","","1","2"
"null","","","null","","","","html-keyboard-response","341","1014812","0.0-341.0","6101c5bffd584fdda7def135","6213cdcae43402b29e410d40","","","","","<p style=""color:darkgreen;font-size:24px;"">Correct :)</p>","",""
"2569","key","n","n","16.66599999999988","500","250","psychophysics","342","1017386","0.0-342.0","6101c5bffd584fdda7def135","6213cdcae43402b29e410d40","6","","","","","1","8"
"null","","","null","","","","html-keyboard-response","343","1017888","0.0-343.0","6101c5bffd584fdda7def135","6213cdcae43402b29e410d40","","","","","<p style=""color:darkgreen;font-size:24px;"">Correct :)</p>","",""
"2999","key","n","n","16.670316666666704","500","250","psychophysics","344","1020892","0.0-344.0","6101c5bffd584fdda7def135","6213cdcae43402b29e410d40","6","","","","","0","4"
"null","","","null","","","","html-keyboard-response","345","1021395","0.0-345.0","6101c5bffd584fdda7def135","6213cdcae43402b29e410d40","","","","","<p style=""color:darkgreen;font-size:24px;"">Correct :)</p>","",""
"2579","key","v","v","16.66599999999988","500","250","psychophysics","346","1023980","0.0-346.0","6101c5bffd584fdda7def135","6213cdcae43402b29e410d40","6","","","","","1","1"
"null","","","null","","","","html-keyboard-response","347","1024483","0.0-347.0","6101c5bffd584fdda7def135","6213cdcae43402b29e410d40","","","","","<p style=""color:darkgreen;font-size:24px;"">Correct :)</p>","",""
"3044","key","n","n","16.666000000000142","500","250","psychophysics","348","1027530","0.0-348.0","6101c5bffd584fdda7def135","6213cdcae43402b29e410d40","6","","","","","1","8"
"null","","","null","","","","html-keyboard-response","349","1028032","0.0-349.0","6101c5bffd584fdda7def135","6213cdcae43402b29e410d40","","","","","<p style=""color:darkgreen;font-size:24px;"">Correct :)</p>","",""
"3143","key","v","v","16.67077248677286","500","250","psychophysics","350","1031181","0.0-350.0","6101c5bffd584fdda7def135","6213cdcae43402b29e410d40","6","","","","","0","3"
"null","","","null","","","","html-keyboard-response","351","1031686","0.0-351.0","6101c5bffd584fdda7def135","6213cdcae43402b29e410d40","","","","","<p style=""color:darkgreen;font-size:24px;"">Correct :)</p>","",""
"2975","key","n","n","16.66600000000038","500","250","psychophysics","352","1034667","0.0-352.0","6101c5bffd584fdda7def135","6213cdcae43402b29e410d40","6","","","","","1","6"
"null","","","null","","","","html-keyboard-response","353","1035169","0.0-353.0","6101c5bffd584fdda7def135","6213cdcae43402b29e410d40","","","","","<p style=""color:darkgreen;font-size:24px;"">Correct :)</p>","",""
"3162","key","v","v","16.670305263157935","500","250","psychophysics","354","1038337","0.0-354.0","6101c5bffd584fdda7def135","6213cdcae43402b29e410d40","6","","","","","0","1"
"null","","","null","","","","html-keyboard-response","355","1038839","0.0-355.0","6101c5bffd584fdda7def135","6213cdcae43402b29e410d40","","","","","<p style=""color:darkgreen;font-size:24px;"">Correct :)</p>","",""
"2968","key","n","n","16.665999999999727","500","250","psychophysics","356","1041812","0.0-356.0","6101c5bffd584fdda7def135","6213cdcae43402b29e410d40","6","","","","","1","9"
"null","","","null","","","","html-keyboard-response","357","1042315","0.0-357.0","6101c5bffd584fdda7def135","6213cdcae43402b29e410d40","","","","","<p style=""color:darkgreen;font-size:24px;"">Correct :)</p>","",""
"3239","key","n","n","16.665999999999976","500","250","psychophysics","358","1045561","0.0-358.0","6101c5bffd584fdda7def135","6213cdcae43402b29e410d40","6","","","","","0","4"
"null","","","null","","","","html-keyboard-response","359","1046064","0.0-359.0","6101c5bffd584fdda7def135","6213cdcae43402b29e410d40","","","","","<p style=""color:darkgreen;font-size:24px;"">Correct :)</p>","",""
"2920","key","n","n","16.67135795454537","500","250","psychophysics","360","1048990","0.0-360.0","6101c5bffd584fdda7def135","6213cdcae43402b29e410d40","6","","","","","1","9"
"null","","","null","","","","html-keyboard-response","361","1049495","0.0-361.0","6101c5bffd584fdda7def135","6213cdcae43402b29e410d40","","","","","<p style=""color:darkgreen;font-size:24px;"">Correct :)</p>","",""
"3128","key","n","n","16.666000000000533","500","250","psychophysics","362","1052629","0.0-362.0","6101c5bffd584fdda7def135","6213cdcae43402b29e410d40","6","","","","","1","4"
"null","","","null","","","","html-keyboard-response","363","1053131","0.0-363.0","6101c5bffd584fdda7def135","6213cdcae43402b29e410d40","","","","","<p style=""color:red;font-size:24px;"">Error :(</p>","",""
"2840","key","n","n","16.665999999999652","500","250","psychophysics","364","1055977","0.0-364.0","6101c5bffd584fdda7def135","6213cdcae43402b29e410d40","6","","","","","0","2"
"null","","","null","","","","html-keyboard-response","365","1056479","0.0-365.0","6101c5bffd584fdda7def135","6213cdcae43402b29e410d40","","","","","<p style=""color:darkgreen;font-size:24px;"">Correct :)</p>","",""
"3525","key","v","v","16.66985849056608","500","250","psychophysics","366","1060010","0.0-366.0","6101c5bffd584fdda7def135","6213cdcae43402b29e410d40","6","","","","","0","7"
"null","","","null","","","","html-keyboard-response","367","1060512","0.0-367.0","6101c5bffd584fdda7def135","6213cdcae43402b29e410d40","","","","","<p style=""color:darkgreen;font-size:24px;"">Correct :)</p>","",""
"3426","key","n","n","16.665999999999983","500","250","psychophysics","368","1063944","0.0-368.0","6101c5bffd584fdda7def135","6213cdcae43402b29e410d40","6","","","","","1","1"
"null","","","null","","","","html-keyboard-response","369","1064448","0.0-369.0","6101c5bffd584fdda7def135","6213cdcae43402b29e410d40","","","","","<p style=""color:red;font-size:24px;"">Error :(</p>","",""
"2539","key","n","n","16.66600000000029","500","250","psychophysics","370","1066993","0.0-370.0","6101c5bffd584fdda7def135","6213cdcae43402b29e410d40","6","","","","","1","9"
"null","","","null","","","","html-keyboard-response","371","1067495","0.0-371.0","6101c5bffd584fdda7def135","6213cdcae43402b29e410d40","","","","","<p style=""color:darkgreen;font-size:24px;"">Correct :)</p>","",""
"3363","key","n","n","16.670049504950956","500","250","psychophysics","372","1070862","0.0-372.0","6101c5bffd584fdda7def135","6213cdcae43402b29e410d40","6","","","","","1","2"
"null","","","null","","","","html-keyboard-response","373","1071367","0.0-373.0","6101c5bffd584fdda7def135","6213cdcae43402b29e410d40","","","","","<p style=""color:red;font-size:24px;"">Error :(</p>","",""
"2764","key","n","n","16.665999999999006","500","250","psychophysics","374","1074142","0.0-374.0","6101c5bffd584fdda7def135","6213cdcae43402b29e410d40","6","","","","","0","8"
"null","","","null","","","","html-keyboard-response","375","1074643","0.0-375.0","6101c5bffd584fdda7def135","6213cdcae43402b29e410d40","","","","","<p style=""color:darkgreen;font-size:24px;"">Correct :)</p>","",""
"2544","key","v","v","16.66599999999877","500","250","psychophysics","376","1077193","0.0-376.0","6101c5bffd584fdda7def135","6213cdcae43402b29e410d40","6","","","","","0","3"
"null","","","null","","","","html-keyboard-response","377","1077694","0.0-377.0","6101c5bffd584fdda7def135","6213cdcae43402b29e410d40","","","","","<p style=""color:darkgreen;font-size:24px;"">Correct :)</p>","",""
"2990","key","v","v","16.67054444444495","500","250","psychophysics","378","1080689","0.0-378.0","6101c5bffd584fdda7def135","6213cdcae43402b29e410d40","6","","","","","0","1"
"null","","","null","","","","html-keyboard-response","379","1081194","0.0-379.0","6101c5bffd584fdda7def135","6213cdcae43402b29e410d40","","","","","<p style=""color:darkgreen;font-size:24px;"">Correct :)</p>","",""
"3113","key","n","n","16.666000000000707","500","250","psychophysics","380","1084313","0.0-380.0","6101c5bffd584fdda7def135","6213cdcae43402b29e410d40","6","","","","","0","9"
"null","","","null","","","","html-keyboard-response","381","1084818","0.0-381.0","6101c5bffd584fdda7def135","6213cdcae43402b29e410d40","","","","","<p style=""color:red;font-size:24px;"">Error :(</p>","",""
"2693","key","v","v","16.66600000000015","500","250","psychophysics","382","1087517","0.0-382.0","6101c5bffd584fdda7def135","6213cdcae43402b29e410d40","6","","","","","0","7"
"null","","","null","","","","html-keyboard-response","383","1088021","0.0-383.0","6101c5bffd584fdda7def135","6213cdcae43402b29e410d40","","","","","<p style=""color:darkgreen;font-size:24px;"">Correct :)</p>","",""
"2549","key","n","n","16.672712418300957","500","250","psychophysics","384","1090575","0.0-384.0","6101c5bffd584fdda7def135","6213cdcae43402b29e410d40","6","","","","","0","8"
"null","","","null","","","","html-keyboard-response","385","1091079","0.0-385.0","6101c5bffd584fdda7def135","6213cdcae43402b29e410d40","","","","","<p style=""color:darkgreen;font-size:24px;"">Correct :)</p>","",""
"2519","key","v","v","16.665999999999173","500","250","psychophysics","386","1093602","0.0-386.0","6101c5bffd584fdda7def135","6213cdcae43402b29e410d40","6","","","","","1","3"
"null","","","null","","","","html-keyboard-response","387","1094104","0.0-387.0","6101c5bffd584fdda7def135","6213cdcae43402b29e410d40","","","","","<p style=""color:darkgreen;font-size:24px;"">Correct :)</p>","",""
"3182","key","v","v","16.66599999999881","500","250","psychophysics","388","1097294","0.0-388.0","6101c5bffd584fdda7def135","6213cdcae43402b29e410d40","6","","","","","1","2"
"null","","","null","","","","html-keyboard-response","389","1097796","0.0-389.0","6101c5bffd584fdda7def135","6213cdcae43402b29e410d40","","","","","<p style=""color:darkgreen;font-size:24px;"">Correct :)</p>","",""
"2667","key","v","v","16.671857142857107","500","250","psychophysics","390","1100470","0.0-390.0","6101c5bffd584fdda7def135","6213cdcae43402b29e410d40","6","","","","","1","3"
"null","","","null","","","","html-keyboard-response","391","1100974","0.0-391.0","6101c5bffd584fdda7def135","6213cdcae43402b29e410d40","","","","","<p style=""color:darkgreen;font-size:24px;"">Correct :)</p>","",""
"2911","key","v","v","16.665999999998935","500","250","psychophysics","392","1103887","0.0-392.0","6101c5bffd584fdda7def135","6213cdcae43402b29e410d40","6","","","","","1","1"
"null","","","null","","","","html-keyboard-response","393","1104390","0.0-393.0","6101c5bffd584fdda7def135","6213cdcae43402b29e410d40","","","","","<p style=""color:darkgreen;font-size:24px;"">Correct :)</p>","",""
"2652","key","v","v","16.665999999998895","500","250","psychophysics","394","1107053","0.0-394.0","6101c5bffd584fdda7def135","6213cdcae43402b29e410d40","6","","","","","1","3"
"null","","","null","","","","html-keyboard-response","395","1107557","0.0-395.0","6101c5bffd584fdda7def135","6213cdcae43402b29e410d40","","","","","<p style=""color:darkgreen;font-size:24px;"">Correct :)</p>","",""
"6291","","","v","","","","html-keyboard-response","396","1113850","0.0-396.0","6101c5bffd584fdda7def135","6213cdcae43402b29e410d40","","","","","<p> Last set of trials.  Here, the tasks are going to switch once again.  We are going to do 50 of these.  And then you are done with the experiment.  </p>  <br><br>  Ready? (press v or n)","",""
"3304","key","n","n","16.669924242424337","500","250","psychophysics","397","1117160","0.0-397.0","6101c5bffd584fdda7def135","6213cdcae43402b29e410d40","7","","","","","1","7"
"null","","","null","","","","html-keyboard-response","398","1117661","0.0-398.0","6101c5bffd584fdda7def135","6213cdcae43402b29e410d40","","","","","<p style=""color:darkgreen;font-size:24px;"">Correct :)</p>","",""
"3262","key","v","v","16.670811224490052","500","250","psychophysics","399","1120926","0.0-399.0","6101c5bffd584fdda7def135","6213cdcae43402b29e410d40","7","","","","","0","3"
"null","","","null","","","","html-keyboard-response","400","1121428","0.0-400.0","6101c5bffd584fdda7def135","6213cdcae43402b29e410d40","","","","","<p style=""color:darkgreen;font-size:24px;"">Correct :)</p>","",""
"6325","key","v","v","16.665999999999585","500","250","psychophysics","401","1127758","0.0-401.0","6101c5bffd584fdda7def135","6213cdcae43402b29e410d40","7","","","","","0","3"
"null","","","null","","","","html-keyboard-response","402","1128259","0.0-402.0","6101c5bffd584fdda7def135","6213cdcae43402b29e410d40","","","","","<p style=""color:darkgreen;font-size:24px;"">Correct :)</p>","",""
"2792","key","v","v","16.67136904761927","500","250","psychophysics","403","1131059","0.0-403.0","6101c5bffd584fdda7def135","6213cdcae43402b29e410d40","7","","","","","0","7"
"null","","","null","","","","html-keyboard-response","404","1131562","0.0-404.0","6101c5bffd584fdda7def135","6213cdcae43402b29e410d40","","","","","<p style=""color:darkgreen;font-size:24px;"">Correct :)</p>","",""
"2524","key","v","v","16.6660000000005","500","250","psychophysics","405","1134095","0.0-405.0","6101c5bffd584fdda7def135","6213cdcae43402b29e410d40","7","","","","","0","7"
"null","","","null","","","","html-keyboard-response","406","1134598","0.0-406.0","6101c5bffd584fdda7def135","6213cdcae43402b29e410d40","","","","","<p style=""color:darkgreen;font-size:24px;"">Correct :)</p>","",""
"2433","key","v","v","16.66600000000023","500","250","psychophysics","407","1137037","0.0-407.0","6101c5bffd584fdda7def135","6213cdcae43402b29e410d40","7","","","","","0","7"
"null","","","null","","","","html-keyboard-response","408","1137540","0.0-408.0","6101c5bffd584fdda7def135","6213cdcae43402b29e410d40","","","","","<p style=""color:darkgreen;font-size:24px;"">Correct :)</p>","",""
"2945","key","n","n","16.670621468926292","500","250","psychophysics","409","1140491","0.0-409.0","6101c5bffd584fdda7def135","6213cdcae43402b29e410d40","7","","","","","1","7"
"null","","","null","","","","html-keyboard-response","410","1140994","0.0-410.0","6101c5bffd584fdda7def135","6213cdcae43402b29e410d40","","","","","<p style=""color:darkgreen;font-size:24px;"">Correct :)</p>","",""
"3191","key","v","v","16.666000000001077","500","250","psychophysics","411","1144192","0.0-411.0","6101c5bffd584fdda7def135","6213cdcae43402b29e410d40","7","","","","","1","2"
"null","","","null","","","","html-keyboard-response","412","1144693","0.0-412.0","6101c5bffd584fdda7def135","6213cdcae43402b29e410d40","","","","","<p style=""color:darkgreen;font-size:24px;"">Correct :)</p>","",""
"2584","key","v","v","16.66599999999988","500","250","psychophysics","413","1147284","0.0-413.0","6101c5bffd584fdda7def135","6213cdcae43402b29e410d40","7","","","","","0","2"
"null","","","null","","","","html-keyboard-response","414","1147786","0.0-414.0","6101c5bffd584fdda7def135","6213cdcae43402b29e410d40","","","","","<p style=""color:red;font-size:24px;"">Error :(</p>","",""
"2987","key","n","n","16.671268156423967","500","250","psychophysics","415","1150775","0.0-415.0","6101c5bffd584fdda7def135","6213cdcae43402b29e410d40","7","","","","","0","6"
"null","","","null","","","","html-keyboard-response","416","1151280","0.0-416.0","6101c5bffd584fdda7def135","6213cdcae43402b29e410d40","","","","","<p style=""color:darkgreen;font-size:24px;"">Correct :)</p>","",""
"3084","key","n","n","16.755602150538344","500","250","psychophysics","417","1154392","0.0-417.0","6101c5bffd584fdda7def135","6213cdcae43402b29e410d40","7","","","","","1","4"
"null","","","null","","","","html-keyboard-response","418","1154897","0.0-418.0","6101c5bffd584fdda7def135","6213cdcae43402b29e410d40","","","","","<p style=""color:red;font-size:24px;"">Error :(</p>","",""
"2685","key","v","v","16.66600000000015","500","250","psychophysics","419","1157584","0.0-419.0","6101c5bffd584fdda7def135","6213cdcae43402b29e410d40","7","","","","","1","1"
"null","","","null","","","","html-keyboard-response","420","1158087","0.0-420.0","6101c5bffd584fdda7def135","6213cdcae43402b29e410d40","","","","","<p style=""color:darkgreen;font-size:24px;"">Correct :)</p>","",""
"2949","key","v","v","16.670621468926292","500","250","psychophysics","421","1161042","0.0-421.0","6101c5bffd584fdda7def135","6213cdcae43402b29e410d40","7","","","","","1","4"
"null","","","null","","","","html-keyboard-response","422","1161543","0.0-422.0","6101c5bffd584fdda7def135","6213cdcae43402b29e410d40","","","","","<p style=""color:darkgreen;font-size:24px;"">Correct :)</p>","",""
"2561","key","v","v","16.666000000000086","500","250","psychophysics","423","1164109","0.0-423.0","6101c5bffd584fdda7def135","6213cdcae43402b29e410d40","7","","","","","1","1"
"null","","","null","","","","html-keyboard-response","424","1164614","0.0-424.0","6101c5bffd584fdda7def135","6213cdcae43402b29e410d40","","","","","<p style=""color:darkgreen;font-size:24px;"">Correct :)</p>","",""
"3296","key","n","n","16.666000000000086","500","250","psychophysics","425","1167916","0.0-425.0","6101c5bffd584fdda7def135","6213cdcae43402b29e410d40","7","","","","","1","7"
"null","","","null","","","","html-keyboard-response","426","1168421","0.0-426.0","6101c5bffd584fdda7def135","6213cdcae43402b29e410d40","","","","","<p style=""color:darkgreen;font-size:24px;"">Correct :)</p>","",""
"2536","key","v","v","16.67055921052509","500","250","psychophysics","427","1170960","0.0-427.0","6101c5bffd584fdda7def135","6213cdcae43402b29e410d40","7","","","","","1","1"
"null","","","null","","","","html-keyboard-response","428","1171463","0.0-428.0","6101c5bffd584fdda7def135","6213cdcae43402b29e410d40","","","","","<p style=""color:darkgreen;font-size:24px;"">Correct :)</p>","",""
"2509","key","v","v","16.77637086092766","500","250","psychophysics","429","1173997","0.0-429.0","6101c5bffd584fdda7def135","6213cdcae43402b29e410d40","7","","","","","1","1"
"null","","","null","","","","html-keyboard-response","430","1174501","0.0-430.0","6101c5bffd584fdda7def135","6213cdcae43402b29e410d40","","","","","<p style=""color:darkgreen;font-size:24px;"">Correct :)</p>","",""
"2518","key","v","v","16.666000000000714","500","250","psychophysics","431","1177026","0.0-431.0","6101c5bffd584fdda7def135","6213cdcae43402b29e410d40","7","","","","","1","2"
"null","","","null","","","","html-keyboard-response","432","1177527","0.0-432.0","6101c5bffd584fdda7def135","6213cdcae43402b29e410d40","","","","","<p style=""color:darkgreen;font-size:24px;"">Correct :)</p>","",""
"2800","key","n","n","16.67161309523813","500","250","psychophysics","433","1180332","0.0-433.0","6101c5bffd584fdda7def135","6213cdcae43402b29e410d40","7","","","","","0","2"
"null","","","null","","","","html-keyboard-response","434","1180834","0.0-434.0","6101c5bffd584fdda7def135","6213cdcae43402b29e410d40","","","","","<p style=""color:darkgreen;font-size:24px;"">Correct :)</p>","",""
"2852","key","v","v","16.665999999999652","500","250","psychophysics","435","1183690","0.0-435.0","6101c5bffd584fdda7def135","6213cdcae43402b29e410d40","7","","","","","1","7"
"null","","","null","","","","html-keyboard-response","436","1184192","0.0-436.0","6101c5bffd584fdda7def135","6213cdcae43402b29e410d40","","","","","<p style=""color:red;font-size:24px;"">Error :(</p>","",""
"3107","key","v","v","16.666000000000707","500","250","psychophysics","437","1187306","0.0-437.0","6101c5bffd584fdda7def135","6213cdcae43402b29e410d40","7","","","","","1","1"
"null","","","null","","","","html-keyboard-response","438","1187809","0.0-438.0","6101c5bffd584fdda7def135","6213cdcae43402b29e410d40","","","","","<p style=""color:darkgreen;font-size:24px;"">Correct :)</p>","",""
"2896","key","v","v","16.670701149425565","500","250","psychophysics","439","1190711","0.0-439.0","6101c5bffd584fdda7def135","6213cdcae43402b29e410d40","7","","","","","1","3"
"null","","","null","","","","html-keyboard-response","440","1191212","0.0-440.0","6101c5bffd584fdda7def135","6213cdcae43402b29e410d40","","","","","<p style=""color:darkgreen;font-size:24px;"">Correct :)</p>","",""
"2729","key","n","n","16.665999999999567","500","250","psychophysics","441","1193946","0.0-441.0","6101c5bffd584fdda7def135","6213cdcae43402b29e410d40","7","","","","","0","4"
"null","","","null","","","","html-keyboard-response","442","1194450","0.0-442.0","6101c5bffd584fdda7def135","6213cdcae43402b29e410d40","","","","","<p style=""color:darkgreen;font-size:24px;"">Correct :)</p>","",""
"2867","key","v","v","16.762895348837848","500","250","psychophysics","443","1197340","0.0-443.0","6101c5bffd584fdda7def135","6213cdcae43402b29e410d40","7","","","","","0","3"
"null","","","null","","","","html-keyboard-response","444","1197842","0.0-444.0","6101c5bffd584fdda7def135","6213cdcae43402b29e410d40","","","","","<p style=""color:darkgreen;font-size:24px;"">Correct :)</p>","",""
"3041","key","n","n","16.670469945355173","500","250","psychophysics","445","1200887","0.0-445.0","6101c5bffd584fdda7def135","6213cdcae43402b29e410d40","7","","","","","0","6"
"null","","","null","","","","html-keyboard-response","446","1201393","0.0-446.0","6101c5bffd584fdda7def135","6213cdcae43402b29e410d40","","","","","<p style=""color:darkgreen;font-size:24px;"">Correct :)</p>","",""
"2774","key","n","n","16.666000000000402","500","250","psychophysics","447","1204174","0.0-447.0","6101c5bffd584fdda7def135","6213cdcae43402b29e410d40","7","","","","","0","6"
"null","","","null","","","","html-keyboard-response","448","1204678","0.0-448.0","6101c5bffd584fdda7def135","6213cdcae43402b29e410d40","","","","","<p style=""color:darkgreen;font-size:24px;"">Correct :)</p>","",""
"2741","key","v","v","16.66599999999938","500","250","psychophysics","449","1207424","0.0-449.0","6101c5bffd584fdda7def135","6213cdcae43402b29e410d40","7","","","","","0","7"
"null","","","null","","","","html-keyboard-response","450","1207926","0.0-450.0","6101c5bffd584fdda7def135","6213cdcae43402b29e410d40","","","","","<p style=""color:darkgreen;font-size:24px;"">Correct :)</p>","",""
"2695","key","n","n","16.67182098765553","500","250","psychophysics","451","1210627","0.0-451.0","6101c5bffd584fdda7def135","6213cdcae43402b29e410d40","7","","","","","0","4"
"null","","","null","","","","html-keyboard-response","452","1211132","0.0-452.0","6101c5bffd584fdda7def135","6213cdcae43402b29e410d40","","","","","<p style=""color:darkgreen;font-size:24px;"">Correct :)</p>","",""
"2735","key","v","v","16.66599999999938","500","250","psychophysics","453","1213873","0.0-453.0","6101c5bffd584fdda7def135","6213cdcae43402b29e410d40","7","","","","","0","7"
"null","","","null","","","","html-keyboard-response","454","1214377","0.0-454.0","6101c5bffd584fdda7def135","6213cdcae43402b29e410d40","","","","","<p style=""color:darkgreen;font-size:24px;"">Correct :)</p>","",""
"2613","key","v","v","16.665999999999478","500","250","psychophysics","455","1216992","0.0-455.0","6101c5bffd584fdda7def135","6213cdcae43402b29e410d40","7","","","","","1","7"
"null","","","null","","","","html-keyboard-response","456","1217494","0.0-456.0","6101c5bffd584fdda7def135","6213cdcae43402b29e410d40","","","","","<p style=""color:red;font-size:24px;"">Error :(</p>","",""
"3060","key","v","v","16.670445652173722","500","250","psychophysics","457","1220560","0.0-457.0","6101c5bffd584fdda7def135","6213cdcae43402b29e410d40","7","","","","","1","2"
"null","","","null","","","","html-keyboard-response","458","1221064","0.0-458.0","6101c5bffd584fdda7def135","6213cdcae43402b29e410d40","","","","","<p style=""color:darkgreen;font-size:24px;"">Correct :)</p>","",""
"3007","key","v","v","16.665999999999208","500","250","psychophysics","459","1224075","0.0-459.0","6101c5bffd584fdda7def135","6213cdcae43402b29e410d40","7","","","","","1","4"
"null","","","null","","","","html-keyboard-response","460","1224577","0.0-460.0","6101c5bffd584fdda7def135","6213cdcae43402b29e410d40","","","","","<p style=""color:darkgreen;font-size:24px;"">Correct :)</p>","",""
"2731","key","v","v","16.665999999999567","500","250","psychophysics","461","1227317","0.0-461.0","6101c5bffd584fdda7def135","6213cdcae43402b29e410d40","7","","","","","1","3"
"null","","","null","","","","html-keyboard-response","462","1227821","0.0-462.0","6101c5bffd584fdda7def135","6213cdcae43402b29e410d40","","","","","<p style=""color:darkgreen;font-size:24px;"">Correct :)</p>","",""
"2871","key","v","v","16.670755813954138","500","250","psychophysics","463","1230698","0.0-463.0","6101c5bffd584fdda7def135","6213cdcae43402b29e410d40","7","","","","","1","4"
"null","","","null","","","","html-keyboard-response","464","1231200","0.0-464.0","6101c5bffd584fdda7def135","6213cdcae43402b29e410d40","","","","","<p style=""color:darkgreen;font-size:24px;"">Correct :)</p>","",""
"2904","key","n","n","16.665999999999112","500","250","psychophysics","465","1234108","0.0-465.0","6101c5bffd584fdda7def135","6213cdcae43402b29e410d40","7","","","","","0","2"
"null","","","null","","","","html-keyboard-response","466","1234612","0.0-466.0","6101c5bffd584fdda7def135","6213cdcae43402b29e410d40","","","","","<p style=""color:darkgreen;font-size:24px;"">Correct :)</p>","",""
"2593","key","n","n","16.665999999999677","500","250","psychophysics","467","1237210","0.0-467.0","6101c5bffd584fdda7def135","6213cdcae43402b29e410d40","7","","","","","1","4"
"null","","","null","","","","html-keyboard-response","468","1237713","0.0-468.0","6101c5bffd584fdda7def135","6213cdcae43402b29e410d40","","","","","<p style=""color:red;font-size:24px;"">Error :(</p>","",""
"2658","key","v","v","16.671112500000163","500","250","psychophysics","469","1240377","0.0-469.0","6101c5bffd584fdda7def135","6213cdcae43402b29e410d40","7","","","","","0","3"
"null","","","null","","","","html-keyboard-response","470","1240881","0.0-470.0","6101c5bffd584fdda7def135","6213cdcae43402b29e410d40","","","","","<p style=""color:darkgreen;font-size:24px;"">Correct :)</p>","",""
"2800","key","n","n","16.66600000000002","500","250","psychophysics","471","1243691","0.0-471.0","6101c5bffd584fdda7def135","6213cdcae43402b29e410d40","7","","","","","1","6"
"null","","","null","","","","html-keyboard-response","472","1244195","0.0-472.0","6101c5bffd584fdda7def135","6213cdcae43402b29e410d40","","","","","<p style=""color:darkgreen;font-size:24px;"">Correct :)</p>","",""
"2743","key","n","n","16.66599999999938","500","250","psychophysics","473","1246948","0.0-473.0","6101c5bffd584fdda7def135","6213cdcae43402b29e410d40","7","","","","","0","4"
"null","","","null","","","","html-keyboard-response","474","1247452","0.0-474.0","6101c5bffd584fdda7def135","6213cdcae43402b29e410d40","","","","","<p style=""color:darkgreen;font-size:24px;"">Correct :)</p>","",""
"2543","key","v","v","16.67216339869291","500","250","psychophysics","475","1250004","0.0-475.0","6101c5bffd584fdda7def135","6213cdcae43402b29e410d40","7","","","","","1","1"
"null","","","null","","","","html-keyboard-response","476","1250508","0.0-476.0","6101c5bffd584fdda7def135","6213cdcae43402b29e410d40","","","","","<p style=""color:darkgreen;font-size:24px;"">Correct :)</p>","",""
"2905","key","n","n","16.666000000000267","500","250","psychophysics","477","1253422","0.0-477.0","6101c5bffd584fdda7def135","6213cdcae43402b29e410d40","7","","","","","1","6"
"null","","","null","","","","html-keyboard-response","478","1253926","0.0-478.0","6101c5bffd584fdda7def135","6213cdcae43402b29e410d40","","","","","<p style=""color:darkgreen;font-size:24px;"">Correct :)</p>","",""
"2499","key","v","v","16.66600000000093","500","250","psychophysics","479","1256434","0.0-479.0","6101c5bffd584fdda7def135","6213cdcae43402b29e410d40","7","","","","","0","1"
"null","","","null","","","","html-keyboard-response","480","1256937","0.0-480.0","6101c5bffd584fdda7def135","6213cdcae43402b29e410d40","","","","","<p style=""color:darkgreen;font-size:24px;"">Correct :)</p>","",""
"2944","key","v","v","16.67064772727264","500","250","psychophysics","481","1259889","0.0-481.0","6101c5bffd584fdda7def135","6213cdcae43402b29e410d40","7","","","","","0","7"
"null","","","null","","","","html-keyboard-response","482","1260392","0.0-482.0","6101c5bffd584fdda7def135","6213cdcae43402b29e410d40","","","","","<p style=""color:darkgreen;font-size:24px;"">Correct :)</p>","",""
"2927","key","v","v","16.665999999999904","500","250","psychophysics","483","1263349","0.0-483.0","6101c5bffd584fdda7def135","6213cdcae43402b29e410d40","7","","","","","0","7"
"null","","","null","","","","html-keyboard-response","484","1263851","0.0-484.0","6101c5bffd584fdda7def135","6213cdcae43402b29e410d40","","","","","<p style=""color:darkgreen;font-size:24px;"">Correct :)</p>","",""
"2604","key","n","n","16.66600000000117","500","250","psychophysics","485","1266461","0.0-485.0","6101c5bffd584fdda7def135","6213cdcae43402b29e410d40","7","","","","","1","6"
"null","","","null","","","","html-keyboard-response","486","1266964","0.0-486.0","6101c5bffd584fdda7def135","6213cdcae43402b29e410d40","","","","","<p style=""color:darkgreen;font-size:24px;"">Correct :)</p>","",""
"2845","key","v","v","16.670783625730472","500","250","psychophysics","487","1269816","0.0-487.0","6101c5bffd584fdda7def135","6213cdcae43402b29e410d40","7","","","","","0","1"
"null","","","null","","","","html-keyboard-response","488","1270320","0.0-488.0","6101c5bffd584fdda7def135","6213cdcae43402b29e410d40","","","","","<p style=""color:darkgreen;font-size:24px;"">Correct :)</p>","",""
"2726","key","n","n","16.665999999999567","500","250","psychophysics","489","1273053","0.0-489.0","6101c5bffd584fdda7def135","6213cdcae43402b29e410d40","7","","","","","0","6"
"null","","","null","","","","html-keyboard-response","490","1273554","0.0-490.0","6101c5bffd584fdda7def135","6213cdcae43402b29e410d40","","","","","<p style=""color:darkgreen;font-size:24px;"">Correct :)</p>","",""
"2667","key","n","n","16.665999999998895","500","250","psychophysics","491","1276228","0.0-491.0","6101c5bffd584fdda7def135","6213cdcae43402b29e410d40","7","","","","","1","6"
"null","","","null","","","","html-keyboard-response","492","1276730","0.0-492.0","6101c5bffd584fdda7def135","6213cdcae43402b29e410d40","","","","","<p style=""color:darkgreen;font-size:24px;"">Correct :)</p>","",""
"2461","key","v","v","16.67237162162122","500","250","psychophysics","493","1279198","0.0-493.0","6101c5bffd584fdda7def135","6213cdcae43402b29e410d40","7","","","","","1","4"
"null","","","null","","","","html-keyboard-response","494","1279700","0.0-494.0","6101c5bffd584fdda7def135","6213cdcae43402b29e410d40","","","","","<p style=""color:darkgreen;font-size:24px;"">Correct :)</p>","",""
"3303","key","n","n","16.75059898477166","500","250","psychophysics","495","1283008","0.0-495.0","6101c5bffd584fdda7def135","6213cdcae43402b29e410d40","7","","","","","1","7"
"null","","","null","","","","html-keyboard-response","496","1283513","0.0-496.0","6101c5bffd584fdda7def135","6213cdcae43402b29e410d40","","","","","<p style=""color:darkgreen;font-size:24px;"">Correct :)</p>","",""
