"rt","response_type","key_press","response","avg_frame_time","center_x","center_y","trial_type","trial_index","time_elapsed","internal_node_id","pid","sid","phase","guide","targ","resp","stimulus","is5","stim"
"4481","key"," "," ","16.666628252788104","500","250","psychophysics","0","4501","0.0-0.0","612bb0204ad8e7e8bed041eb","6213d93231fc0cacf4f69107","","","","","","",""
"2123","key"," "," ","16.66776984126984","500","250","psychophysics","1","6629","0.0-1.0","612bb0204ad8e7e8bed041eb","6213d93231fc0cacf4f69107","","","","","","",""
"2631","key"," "," ","16.66707594936709","500","250","psychophysics","2","9267","0.0-2.0","612bb0204ad8e7e8bed041eb","6213d93231fc0cacf4f69107","","","","","","",""
"1086","key"," "," ","16.669296874999986","500","250","psychophysics","3","10356","0.0-3.0","612bb0204ad8e7e8bed041eb","6213d93231fc0cacf4f69107","","","","","","",""
"3660","key"," "," ","16.66673515981735","500","250","psychophysics","4","14019","0.0-4.0","612bb0204ad8e7e8bed041eb","6213d93231fc0cacf4f69107","","","","","","",""
"5917","key"," "," ","16.666985875706217","500","250","psychophysics","5","19940","0.0-5.0","612bb0204ad8e7e8bed041eb","6213d93231fc0cacf4f69107","","","","","","",""
"3693","key"," "," ","16.666009049773763","500","250","psychophysics","6","23636","0.0-6.0","612bb0204ad8e7e8bed041eb","6213d93231fc0cacf4f69107","","","","","","",""
"3326","key"," "," ","16.666301507537693","500","250","psychophysics","7","26965","0.0-7.0","612bb0204ad8e7e8bed041eb","6213d93231fc0cacf4f69107","","","","","","",""
"16875","key"," "," ","16.666437190900098","500","250","psychophysics","8","43845","0.0-8.0","612bb0204ad8e7e8bed041eb","6213d93231fc0cacf4f69107","0","0","59","61","","",""
"3193","key"," "," ","16.668031413612553","500","250","psychophysics","9","47045","0.0-9.0","612bb0204ad8e7e8bed041eb","6213d93231fc0cacf4f69107","","","","","","",""
"2423","key"," "," ","16.666751724137956","500","250","psychophysics","10","49477","0.0-10.0","612bb0204ad8e7e8bed041eb","6213d93231fc0cacf4f69107","","","","","","",""
"5288","key"," "," ","16.666917981072558","500","250","psychophysics","11","54773","0.0-11.0","612bb0204ad8e7e8bed041eb","6213d93231fc0cacf4f69107","","","","","","",""
"3739","key"," "," ","16.666491071428577","500","250","psychophysics","12","58516","0.0-12.0","612bb0204ad8e7e8bed041eb","6213d93231fc0cacf4f69107","","","","","","",""
"2509","key"," "," ","16.667046979865766","500","250","psychophysics","13","61029","0.0-13.0","612bb0204ad8e7e8bed041eb","6213d93231fc0cacf4f69107","","","","","","",""
"5337","key"," "," ","16.666849999999975","500","250","psychophysics","14","66372","0.0-14.0","612bb0204ad8e7e8bed041eb","6213d93231fc0cacf4f69107","","","","","","",""
"5438","key"," "," ","16.665736196319013","500","250","psychophysics","15","71814","0.0-15.0","612bb0204ad8e7e8bed041eb","6213d93231fc0cacf4f69107","","","","","","",""
"3851","key"," "," ","16.6666956521739","500","250","psychophysics","16","75668","0.0-16.0","612bb0204ad8e7e8bed041eb","6213d93231fc0cacf4f69107","","","","","","",""
"18957","key"," "," ","16.666430079155674","500","250","psychophysics","17","94631","0.0-17.0","612bb0204ad8e7e8bed041eb","6213d93231fc0cacf4f69107","1","0","20","29","","",""
"9723","key"," "," ","16.666427835051554","500","250","psychophysics","18","104358","0.0-18.0","612bb0204ad8e7e8bed041eb","6213d93231fc0cacf4f69107","1","5","27","26","","",""
"13086","key"," "," ","16.666247133757963","500","250","psychophysics","19","117448","0.0-19.0","612bb0204ad8e7e8bed041eb","6213d93231fc0cacf4f69107","1","0","58","88","","",""
"9306","key"," "," ","16.666529622980274","500","250","psychophysics","20","126758","0.0-20.0","612bb0204ad8e7e8bed041eb","6213d93231fc0cacf4f69107","1","5","22","22","","",""
"16860","key"," "," ","16.66646983184966","500","250","psychophysics","21","143622","0.0-21.0","612bb0204ad8e7e8bed041eb","6213d93231fc0cacf4f69107","1","0","26","42","","",""
"7372","key"," "," ","16.66651131221719","500","250","psychophysics","22","150998","0.0-22.0","612bb0204ad8e7e8bed041eb","6213d93231fc0cacf4f69107","1","5","31","31","","",""
"10749","key"," "," ","16.666476708074505","500","250","psychophysics","23","161751","0.0-23.0","612bb0204ad8e7e8bed041eb","6213d93231fc0cacf4f69107","1","0","60","89","","",""
"9165","key"," "," ","16.666703096539145","500","250","psychophysics","24","170919","0.0-24.0","612bb0204ad8e7e8bed041eb","6213d93231fc0cacf4f69107","1","5","40","40","","",""
"16012","key"," "," ","16.66650416666665","500","250","psychophysics","25","186935","0.0-25.0","612bb0204ad8e7e8bed041eb","6213d93231fc0cacf4f69107","1","0","39","61","","",""
"10205","key"," "," ","16.66621440261866","500","250","psychophysics","26","197143","0.0-26.0","612bb0204ad8e7e8bed041eb","6213d93231fc0cacf4f69107","1","5","36","38","","",""
"6441","key"," "," ","16.66651036269434","500","250","psychophysics","27","203592","0.0-27.0","612bb0204ad8e7e8bed041eb","6213d93231fc0cacf4f69107","1","0","32","45","","",""
"10172","key"," "," ","16.666411475409834","500","250","psychophysics","28","213769","0.0-28.0","612bb0204ad8e7e8bed041eb","6213d93231fc0cacf4f69107","1","5","53","51","","",""
"14764","key"," "," ","16.666411299435033","500","250","psychophysics","29","228537","0.0-29.0","612bb0204ad8e7e8bed041eb","6213d93231fc0cacf4f69107","1","0","46","81","","",""
"10813","key"," "," ","16.666595679012342","500","250","psychophysics","30","239353","0.0-30.0","612bb0204ad8e7e8bed041eb","6213d93231fc0cacf4f69107","1","5","42","49","","",""
"14509","key"," "," ","16.666617241379303","500","250","psychophysics","31","253866","0.0-31.0","612bb0204ad8e7e8bed041eb","6213d93231fc0cacf4f69107","1","0","59","104","","",""
"13723","key"," "," ","16.666490267639915","500","250","psychophysics","32","267593","0.0-32.0","612bb0204ad8e7e8bed041eb","6213d93231fc0cacf4f69107","1","5","57","58","","",""
"12492","key"," "," ","16.666456608811718","500","250","psychophysics","33","280091","0.0-33.0","612bb0204ad8e7e8bed041eb","6213d93231fc0cacf4f69107","1","0","39","70","","",""
"11148","key"," "," ","16.666191616766472","500","250","psychophysics","34","291242","0.0-34.0","612bb0204ad8e7e8bed041eb","6213d93231fc0cacf4f69107","1","5","30","33","","",""
"8029","key"," "," ","16.666623700623717","500","250","psychophysics","35","299275","0.0-35.0","612bb0204ad8e7e8bed041eb","6213d93231fc0cacf4f69107","1","0","51","73","","",""
"7533","key"," "," ","16.66608647450117","500","250","psychophysics","36","306811","0.0-36.0","612bb0204ad8e7e8bed041eb","6213d93231fc0cacf4f69107","1","5","39","40","","",""
"2813","key"," "," ","16.667708333333263","500","250","psychophysics","37","309627","0.0-37.0","612bb0204ad8e7e8bed041eb","6213d93231fc0cacf4f69107","","","","","","",""
"2589","key"," "," ","16.6677290322582","500","250","psychophysics","38","312219","0.0-38.0","612bb0204ad8e7e8bed041eb","6213d93231fc0cacf4f69107","","","","","","",""
"1662","key"," "," ","16.666131313131167","500","250","psychophysics","39","313884","0.0-39.0","612bb0204ad8e7e8bed041eb","6213d93231fc0cacf4f69107","","","","","","",""
"16747","key"," "," ","16.66639541832674","500","250","psychophysics","40","330635","0.0-40.0","612bb0204ad8e7e8bed041eb","6213d93231fc0cacf4f69107","2","0","30","52","","",""
"4555","key"," "," ","16.66705514705887","500","250","psychophysics","41","335196","0.0-41.0","612bb0204ad8e7e8bed041eb","6213d93231fc0cacf4f69107","","","","","","",""
"8314","key"," "," ","16.666459839357422","500","250","psychophysics","42","343517","0.0-42.0","612bb0204ad8e7e8bed041eb","6213d93231fc0cacf4f69107","2","0","20","26","","",""
"2122","key"," "," ","16.66800000000008","500","250","psychophysics","43","345644","0.0-43.0","612bb0204ad8e7e8bed041eb","6213d93231fc0cacf4f69107","","","","","","",""
"13229","key"," "," ","16.666406052963456","500","250","psychophysics","44","358876","0.0-44.0","612bb0204ad8e7e8bed041eb","6213d93231fc0cacf4f69107","2","0","53","78","","",""
"3005","key"," "," ","16.665500000000208","500","250","psychophysics","45","361884","0.0-45.0","612bb0204ad8e7e8bed041eb","6213d93231fc0cacf4f69107","","","","","","",""
"8796","key"," "," ","16.66624857685012","500","250","psychophysics","46","370684","0.0-46.0","612bb0204ad8e7e8bed041eb","6213d93231fc0cacf4f69107","2","0","45","52","","",""
"2781","key"," "," ","16.66591566265035","500","250","psychophysics","47","373468","0.0-47.0","612bb0204ad8e7e8bed041eb","6213d93231fc0cacf4f69107","","","","","","",""
"10701","key"," "," ","16.66621372854915","500","250","psychophysics","48","384172","0.0-48.0","612bb0204ad8e7e8bed041eb","6213d93231fc0cacf4f69107","2","0","54","61","","",""
"2572","key"," "," ","16.666522875817012","500","250","psychophysics","49","386748","0.0-49.0","612bb0204ad8e7e8bed041eb","6213d93231fc0cacf4f69107","","","","","","",""
"7256","key"," "," ","16.666905747126417","500","250","psychophysics","50","394013","0.0-50.0","612bb0204ad8e7e8bed041eb","6213d93231fc0cacf4f69107","2","0","41","47","","",""
"1658","key"," "," ","16.668292929292562","500","250","psychophysics","51","395677","0.0-51.0","612bb0204ad8e7e8bed041eb","6213d93231fc0cacf4f69107","","","","","","",""
"5197","key"," "," ","16.666475884244296","500","250","psychophysics","52","400877","0.0-52.0","612bb0204ad8e7e8bed041eb","6213d93231fc0cacf4f69107","2","0","54","52","","",""
"1325","key"," "," ","16.6668481012656","500","250","psychophysics","53","402205","0.0-53.0","612bb0204ad8e7e8bed041eb","6213d93231fc0cacf4f69107","","","","","","",""
"9388","key"," "," ","16.6667544483985","500","250","psychophysics","54","411597","0.0-54.0","612bb0204ad8e7e8bed041eb","6213d93231fc0cacf4f69107","2","0","41","49","","",""
"1034","key"," "," ","16.670032258064772","500","250","psychophysics","55","412637","0.0-55.0","612bb0204ad8e7e8bed041eb","6213d93231fc0cacf4f69107","","","","","","",""
"7357","key"," "," ","16.666709090909123","500","250","psychophysics","56","419998","0.0-56.0","612bb0204ad8e7e8bed041eb","6213d93231fc0cacf4f69107","2","0","44","53","","",""
"1081","key"," "," ","16.670876923077202","500","250","psychophysics","57","421085","0.0-57.0","612bb0204ad8e7e8bed041eb","6213d93231fc0cacf4f69107","","","","","","",""
"7646","key"," "," ","16.666316593886485","500","250","psychophysics","58","428734","0.0-58.0","612bb0204ad8e7e8bed041eb","6213d93231fc0cacf4f69107","2","0","25","32","","",""
"1116","key"," "," ","16.66578787878759","500","250","psychophysics","59","429853","0.0-59.0","612bb0204ad8e7e8bed041eb","6213d93231fc0cacf4f69107","","","","","","",""
"6957","key"," "," ","16.666307692307573","500","250","psychophysics","60","436813","0.0-60.0","612bb0204ad8e7e8bed041eb","6213d93231fc0cacf4f69107","2","0","48","53","","",""
"1370","key"," "," ","16.666817073170776","500","250","psychophysics","61","438189","0.0-61.0","612bb0204ad8e7e8bed041eb","6213d93231fc0cacf4f69107","","","","","","",""
"7276","key"," "," ","16.665983944954142","500","250","psychophysics","62","445469","0.0-62.0","612bb0204ad8e7e8bed041eb","6213d93231fc0cacf4f69107","2","0","27","32","","",""
"1741","key"," "," ","16.666786407767027","500","250","psychophysics","63","447213","0.0-63.0","612bb0204ad8e7e8bed041eb","6213d93231fc0cacf4f69107","","","","","","",""
"8490","key"," "," ","16.66670530451867","500","250","psychophysics","64","455711","0.0-64.0","612bb0204ad8e7e8bed041eb","6213d93231fc0cacf4f69107","2","0","40","47","","",""
"1165","key"," "," ","16.668144927536428","500","250","psychophysics","65","456879","0.0-65.0","612bb0204ad8e7e8bed041eb","6213d93231fc0cacf4f69107","","","","","","",""
"3613","key"," "," ","16.667444444444467","500","250","psychophysics","66","460495","0.0-66.0","612bb0204ad8e7e8bed041eb","6213d93231fc0cacf4f69107","2","0","23","29","","",""
"1533","key"," "," ","16.665890109889684","500","250","psychophysics","67","462031","0.0-67.0","612bb0204ad8e7e8bed041eb","6213d93231fc0cacf4f69107","","","","","","",""
"4332","key"," "," ","16.666207692307832","500","250","psychophysics","68","466369","0.0-68.0","612bb0204ad8e7e8bed041eb","6213d93231fc0cacf4f69107","2","0","38","38","","",""
"3339","key"," "," ","16.665472361809066","500","250","psychophysics","69","469711","0.0-69.0","612bb0204ad8e7e8bed041eb","6213d93231fc0cacf4f69107","","","","","","",""
"4397","key"," "," ","16.667220532319362","500","250","psychophysics","70","474111","0.0-70.0","612bb0204ad8e7e8bed041eb","6213d93231fc0cacf4f69107","","","","","","",""
"2477","key"," "," ","16.66629729729745","500","250","psychophysics","71","476591","0.0-71.0","612bb0204ad8e7e8bed041eb","6213d93231fc0cacf4f69107","","","","","","",""
"7358","key"," "," ","16.666319727891178","500","250","psychophysics","72","483952","0.0-72.0","612bb0204ad8e7e8bed041eb","6213d93231fc0cacf4f69107","3","5","58","37","","",""
"13483","key"," "," ","16.666559405940614","500","250","psychophysics","73","497439","0.0-73.0","612bb0204ad8e7e8bed041eb","6213d93231fc0cacf4f69107","3","0","54","69","","",""
"7644","key"," "," ","16.66630349344969","500","250","psychophysics","74","505087","0.0-74.0","612bb0204ad8e7e8bed041eb","6213d93231fc0cacf4f69107","3","5","46","35","","",""
"11741","key"," "," ","16.66652347083925","500","250","psychophysics","75","516832","0.0-75.0","612bb0204ad8e7e8bed041eb","6213d93231fc0cacf4f69107","3","0","58","69","","",""
"3818","key"," "," ","16.6675240174673","500","250","psychophysics","76","520656","0.0-76.0","612bb0204ad8e7e8bed041eb","6213d93231fc0cacf4f69107","3","5","28","27","","",""
"8205","key"," "," ","16.666619144602848","500","250","psychophysics","77","528865","0.0-77.0","612bb0204ad8e7e8bed041eb","6213d93231fc0cacf4f69107","3","0","30","38","","",""
"5738","key"," "," ","16.667188953488473","500","250","psychophysics","78","534608","0.0-78.0","612bb0204ad8e7e8bed041eb","6213d93231fc0cacf4f69107","3","5","20","22","","",""
"6061","key"," "," ","16.666658402204106","500","250","psychophysics","79","540672","0.0-79.0","612bb0204ad8e7e8bed041eb","6213d93231fc0cacf4f69107","3","0","46","38","","",""
"5726","key"," "," ","16.665731778425712","500","250","psychophysics","80","546402","0.0-80.0","612bb0204ad8e7e8bed041eb","6213d93231fc0cacf4f69107","3","5","38","28","","",""
"15690","key"," "," ","16.66645212765954","500","250","psychophysics","81","562097","0.0-81.0","612bb0204ad8e7e8bed041eb","6213d93231fc0cacf4f69107","3","0","59","59","","",""
"5738","key"," "," ","16.667078488372024","500","250","psychophysics","82","567840","0.0-82.0","612bb0204ad8e7e8bed041eb","6213d93231fc0cacf4f69107","3","5","46","31","","",""
"5421","key"," "," ","16.66620987654343","500","250","psychophysics","83","573265","0.0-83.0","612bb0204ad8e7e8bed041eb","6213d93231fc0cacf4f69107","3","0","24","33","","",""
"3210","key"," "," ","16.667453124999764","500","250","psychophysics","84","576481","0.0-84.0","612bb0204ad8e7e8bed041eb","6213d93231fc0cacf4f69107","3","5","36","27","","",""
"6955","key"," "," ","16.666573141486836","500","250","psychophysics","85","583441","0.0-85.0","612bb0204ad8e7e8bed041eb","6213d93231fc0cacf4f69107","3","0","41","40","","",""
"4236","key"," "," ","16.667272727272525","500","250","psychophysics","86","587681","0.0-86.0","612bb0204ad8e7e8bed041eb","6213d93231fc0cacf4f69107","3","5","30","20","","",""
"6555","key"," "," ","16.66707633587777","500","250","psychophysics","87","594242","0.0-87.0","612bb0204ad8e7e8bed041eb","6213d93231fc0cacf4f69107","3","0","26","33","","",""
"3148","key"," "," ","16.6664202127654","500","250","psychophysics","88","597393","0.0-88.0","612bb0204ad8e7e8bed041eb","6213d93231fc0cacf4f69107","3","5","33","27","","",""
"20828","key"," "," ","16.6665668534828","500","250","psychophysics","89","618225","0.0-89.0","612bb0204ad8e7e8bed041eb","6213d93231fc0cacf4f69107","3","0","43","65","","",""
"4813","key"," "," ","16.66643402777764","500","250","psychophysics","90","623041","0.0-90.0","612bb0204ad8e7e8bed041eb","6213d93231fc0cacf4f69107","3","5","57","36","","",""
"7596","key"," "," ","16.666421978022125","500","250","psychophysics","91","630641","0.0-91.0","612bb0204ad8e7e8bed041eb","6213d93231fc0cacf4f69107","3","0","32","43","","",""
"1693","key"," "," ","16.66466336633715","500","250","psychophysics","92","632337","0.0-92.0","612bb0204ad8e7e8bed041eb","6213d93231fc0cacf4f69107","","","","","","",""
"41679","","","n","","","","html-keyboard-response","93","674020","0.0-93.0","612bb0204ad8e7e8bed041eb","6213d93231fc0cacf4f69107","","","","","<p> In this part of the experiment, we are going present digits 1, 2, 3, 4, 6, 7, 8, and 9.  Notice that 5 is missing.  Your job is to say whether the presented digit is less than or greater than 5.  For example, 3 is less than 5 and 7 is greater than 5.  If the digit is less than 5, press the v key; if it is greater than 5, press the n key. We are going to do 200 of these in total, but only 50 righ now. They go real fast.</p>  <br><br>  Ready? (press v or n)","",""
"3798","key","n","n","16.66889035087712","500","250","psychophysics","94","677827","0.0-94.0","612bb0204ad8e7e8bed041eb","6213d93231fc0cacf4f69107","4","","","","","1","6"
"null","","","null","","","","html-keyboard-response","95","678331","0.0-95.0","612bb0204ad8e7e8bed041eb","6213d93231fc0cacf4f69107","","","","","<p style=""color:darkgreen;font-size:24px;"">Correct :)</p>","",""
"2580","key","n","n","16.666303225806463","500","250","psychophysics","96","680915","0.0-96.0","612bb0204ad8e7e8bed041eb","6213d93231fc0cacf4f69107","4","","","","","1","9"
"null","","","null","","","","html-keyboard-response","97","681417","0.0-97.0","612bb0204ad8e7e8bed041eb","6213d93231fc0cacf4f69107","","","","","<p style=""color:darkgreen;font-size:24px;"">Correct :)</p>","",""
"2389","key","v","v","16.66553146853128","500","250","psychophysics","98","683810","0.0-98.0","612bb0204ad8e7e8bed041eb","6213d93231fc0cacf4f69107","4","","","","","1","1"
"null","","","null","","","","html-keyboard-response","99","684311","0.0-99.0","612bb0204ad8e7e8bed041eb","6213d93231fc0cacf4f69107","","","","","<p style=""color:darkgreen;font-size:24px;"">Correct :)</p>","",""
"2424","key","n","n","16.667684931506574","500","250","psychophysics","100","686739","0.0-100.0","612bb0204ad8e7e8bed041eb","6213d93231fc0cacf4f69107","4","","","","","1","7"
"null","","","null","","","","html-keyboard-response","101","687241","0.0-101.0","612bb0204ad8e7e8bed041eb","6213d93231fc0cacf4f69107","","","","","<p style=""color:darkgreen;font-size:24px;"">Correct :)</p>","",""
"2438","key","v","v","16.66700684931528","500","250","psychophysics","102","689684","0.0-102.0","612bb0204ad8e7e8bed041eb","6213d93231fc0cacf4f69107","4","","","","","1","2"
"null","","","null","","","","html-keyboard-response","103","690185","0.0-103.0","612bb0204ad8e7e8bed041eb","6213d93231fc0cacf4f69107","","","","","<p style=""color:darkgreen;font-size:24px;"">Correct :)</p>","",""
"2418","key","v","v","16.664972413792917","500","250","psychophysics","104","692611","0.0-104.0","612bb0204ad8e7e8bed041eb","6213d93231fc0cacf4f69107","4","","","","","1","1"
"null","","","null","","","","html-keyboard-response","105","693113","0.0-105.0","612bb0204ad8e7e8bed041eb","6213d93231fc0cacf4f69107","","","","","<p style=""color:darkgreen;font-size:24px;"">Correct :)</p>","",""
"2438","key","n","n","16.667530612245542","500","250","psychophysics","106","695555","0.0-106.0","612bb0204ad8e7e8bed041eb","6213d93231fc0cacf4f69107","4","","","","","1","6"
"null","","","null","","","","html-keyboard-response","107","696058","0.0-107.0","612bb0204ad8e7e8bed041eb","6213d93231fc0cacf4f69107","","","","","<p style=""color:darkgreen;font-size:24px;"">Correct :)</p>","",""
"2422","key","n","n","16.666924137931222","500","250","psychophysics","108","698484","0.0-108.0","612bb0204ad8e7e8bed041eb","6213d93231fc0cacf4f69107","4","","","","","1","9"
"null","","","null","","","","html-keyboard-response","109","698985","0.0-109.0","612bb0204ad8e7e8bed041eb","6213d93231fc0cacf4f69107","","","","","<p style=""color:darkgreen;font-size:24px;"">Correct :)</p>","",""
"2422","key","v","v","16.66619310344826","500","250","psychophysics","110","701411","0.0-110.0","612bb0204ad8e7e8bed041eb","6213d93231fc0cacf4f69107","4","","","","","1","1"
"null","","","null","","","","html-keyboard-response","111","701913","0.0-111.0","612bb0204ad8e7e8bed041eb","6213d93231fc0cacf4f69107","","","","","<p style=""color:darkgreen;font-size:24px;"">Correct :)</p>","",""
"2454","key","n","n","16.666493243243657","500","250","psychophysics","112","704371","0.0-112.0","612bb0204ad8e7e8bed041eb","6213d93231fc0cacf4f69107","4","","","","","1","7"
"null","","","null","","","","html-keyboard-response","113","704874","0.0-113.0","612bb0204ad8e7e8bed041eb","6213d93231fc0cacf4f69107","","","","","<p style=""color:darkgreen;font-size:24px;"">Correct :)</p>","",""
"2533","key","v","v","16.664901315789105","500","250","psychophysics","114","707412","0.0-114.0","612bb0204ad8e7e8bed041eb","6213d93231fc0cacf4f69107","4","","","","","1","4"
"null","","","null","","","","html-keyboard-response","115","707914","0.0-115.0","612bb0204ad8e7e8bed041eb","6213d93231fc0cacf4f69107","","","","","<p style=""color:darkgreen;font-size:24px;"">Correct :)</p>","",""
"2743","key","v","v","16.665993939394443","500","250","psychophysics","116","710661","0.0-116.0","612bb0204ad8e7e8bed041eb","6213d93231fc0cacf4f69107","4","","","","","1","1"
"null","","","null","","","","html-keyboard-response","117","711168","0.0-117.0","612bb0204ad8e7e8bed041eb","6213d93231fc0cacf4f69107","","","","","<p style=""color:darkgreen;font-size:24px;"">Correct :)</p>","",""
"2514","key","n","n","16.666540000000193","500","250","psychophysics","118","713685","0.0-118.0","612bb0204ad8e7e8bed041eb","6213d93231fc0cacf4f69107","4","","","","","1","8"
"null","","","null","","","","html-keyboard-response","119","714189","0.0-119.0","612bb0204ad8e7e8bed041eb","6213d93231fc0cacf4f69107","","","","","<p style=""color:darkgreen;font-size:24px;"">Correct :)</p>","",""
"2532","key","v","v","16.66655263157889","500","250","psychophysics","120","716724","0.0-120.0","612bb0204ad8e7e8bed041eb","6213d93231fc0cacf4f69107","4","","","","","1","4"
"null","","","null","","","","html-keyboard-response","121","717226","0.0-121.0","612bb0204ad8e7e8bed041eb","6213d93231fc0cacf4f69107","","","","","<p style=""color:darkgreen;font-size:24px;"">Correct :)</p>","",""
"2662","key","n","n","16.664943749999658","500","250","psychophysics","122","719892","0.0-122.0","612bb0204ad8e7e8bed041eb","6213d93231fc0cacf4f69107","4","","","","","1","8"
"null","","","null","","","","html-keyboard-response","123","720393","0.0-123.0","612bb0204ad8e7e8bed041eb","6213d93231fc0cacf4f69107","","","","","<p style=""color:darkgreen;font-size:24px;"">Correct :)</p>","",""
"2520","key","v","v","16.665907284767606","500","250","psychophysics","124","722917","0.0-124.0","612bb0204ad8e7e8bed041eb","6213d93231fc0cacf4f69107","4","","","","","1","3"
"null","","","null","","","","html-keyboard-response","125","723419","0.0-125.0","612bb0204ad8e7e8bed041eb","6213d93231fc0cacf4f69107","","","","","<p style=""color:darkgreen;font-size:24px;"">Correct :)</p>","",""
"2422","key","n","n","16.66694482758577","500","250","psychophysics","126","725845","0.0-126.0","612bb0204ad8e7e8bed041eb","6213d93231fc0cacf4f69107","4","","","","","1","6"
"null","","","null","","","","html-keyboard-response","127","726346","0.0-127.0","612bb0204ad8e7e8bed041eb","6213d93231fc0cacf4f69107","","","","","<p style=""color:darkgreen;font-size:24px;"">Correct :)</p>","",""
"2374","key","n","n","16.666573426573883","500","250","psychophysics","128","728724","0.0-128.0","612bb0204ad8e7e8bed041eb","6213d93231fc0cacf4f69107","4","","","","","1","6"
"null","","","null","","","","html-keyboard-response","129","729225","0.0-129.0","612bb0204ad8e7e8bed041eb","6213d93231fc0cacf4f69107","","","","","<p style=""color:darkgreen;font-size:24px;"">Correct :)</p>","",""
"2392","key","n","n","16.66531944444432","500","250","psychophysics","130","731621","0.0-130.0","612bb0204ad8e7e8bed041eb","6213d93231fc0cacf4f69107","4","","","","","1","8"
"null","","","null","","","","html-keyboard-response","131","732122","0.0-131.0","612bb0204ad8e7e8bed041eb","6213d93231fc0cacf4f69107","","","","","<p style=""color:darkgreen;font-size:24px;"">Correct :)</p>","",""
"2438","key","v","v","16.66606849315018","500","250","psychophysics","132","734565","0.0-132.0","612bb0204ad8e7e8bed041eb","6213d93231fc0cacf4f69107","4","","","","","1","3"
"null","","","null","","","","html-keyboard-response","133","735066","0.0-133.0","612bb0204ad8e7e8bed041eb","6213d93231fc0cacf4f69107","","","","","<p style=""color:darkgreen;font-size:24px;"">Correct :)</p>","",""
"2439","key","n","n","16.780342465752977","500","250","psychophysics","134","737509","0.0-134.0","612bb0204ad8e7e8bed041eb","6213d93231fc0cacf4f69107","4","","","","","1","6"
"null","","","null","","","","html-keyboard-response","135","738011","0.0-135.0","612bb0204ad8e7e8bed041eb","6213d93231fc0cacf4f69107","","","","","<p style=""color:darkgreen;font-size:24px;"">Correct :)</p>","",""
"2486","key","n","n","16.66547651006762","500","250","psychophysics","136","740501","0.0-136.0","612bb0204ad8e7e8bed041eb","6213d93231fc0cacf4f69107","4","","","","","1","8"
"null","","","null","","","","html-keyboard-response","137","741003","0.0-137.0","612bb0204ad8e7e8bed041eb","6213d93231fc0cacf4f69107","","","","","<p style=""color:darkgreen;font-size:24px;"">Correct :)</p>","",""
"2630","key","v","v","16.666677215190376","500","250","psychophysics","138","743637","0.0-138.0","612bb0204ad8e7e8bed041eb","6213d93231fc0cacf4f69107","4","","","","","1","3"
"null","","","null","","","","html-keyboard-response","139","744138","0.0-139.0","612bb0204ad8e7e8bed041eb","6213d93231fc0cacf4f69107","","","","","<p style=""color:darkgreen;font-size:24px;"">Correct :)</p>","",""
"2583","key","n","n","16.666825806451662","500","250","psychophysics","140","746725","0.0-140.0","612bb0204ad8e7e8bed041eb","6213d93231fc0cacf4f69107","4","","","","","1","6"
"null","","","null","","","","html-keyboard-response","141","747227","0.0-141.0","612bb0204ad8e7e8bed041eb","6213d93231fc0cacf4f69107","","","","","<p style=""color:darkgreen;font-size:24px;"">Correct :)</p>","",""
"2598","key","v","v","16.66556410256397","500","250","psychophysics","142","749829","0.0-142.0","612bb0204ad8e7e8bed041eb","6213d93231fc0cacf4f69107","4","","","","","1","1"
"null","","","null","","","","html-keyboard-response","143","750332","0.0-143.0","612bb0204ad8e7e8bed041eb","6213d93231fc0cacf4f69107","","","","","<p style=""color:darkgreen;font-size:24px;"">Correct :)</p>","",""
"2711","key","v","v","16.665914110429412","500","250","psychophysics","144","753045","0.0-144.0","612bb0204ad8e7e8bed041eb","6213d93231fc0cacf4f69107","4","","","","","1","3"
"null","","","null","","","","html-keyboard-response","145","753546","0.0-145.0","612bb0204ad8e7e8bed041eb","6213d93231fc0cacf4f69107","","","","","<p style=""color:darkgreen;font-size:24px;"">Correct :)</p>","",""
"2438","key","n","n","16.66685034013607","500","250","psychophysics","146","755989","0.0-146.0","612bb0204ad8e7e8bed041eb","6213d93231fc0cacf4f69107","4","","","","","1","6"
"null","","","null","","","","html-keyboard-response","147","756490","0.0-147.0","612bb0204ad8e7e8bed041eb","6213d93231fc0cacf4f69107","","","","","<p style=""color:darkgreen;font-size:24px;"">Correct :)</p>","",""
"3127","key","v","v","16.66645744680848","500","250","psychophysics","148","759621","0.0-148.0","612bb0204ad8e7e8bed041eb","6213d93231fc0cacf4f69107","4","","","","","1","3"
"null","","","null","","","","html-keyboard-response","149","760123","0.0-149.0","612bb0204ad8e7e8bed041eb","6213d93231fc0cacf4f69107","","","","","<p style=""color:darkgreen;font-size:24px;"">Correct :)</p>","",""
"2454","key","n","n","16.66649659864009","500","250","psychophysics","150","762581","0.0-150.0","612bb0204ad8e7e8bed041eb","6213d93231fc0cacf4f69107","4","","","","","1","8"
"null","","","null","","","","html-keyboard-response","151","763082","0.0-151.0","612bb0204ad8e7e8bed041eb","6213d93231fc0cacf4f69107","","","","","<p style=""color:darkgreen;font-size:24px;"">Correct :)</p>","",""
"2823","key","v","v","16.666176470588237","500","250","psychophysics","152","765910","0.0-152.0","612bb0204ad8e7e8bed041eb","6213d93231fc0cacf4f69107","4","","","","","1","1"
"null","","","null","","","","html-keyboard-response","153","766422","0.0-153.0","612bb0204ad8e7e8bed041eb","6213d93231fc0cacf4f69107","","","","","<p style=""color:darkgreen;font-size:24px;"">Correct :)</p>","",""
"2494","key","v","v","16.666503355704755","500","250","psychophysics","154","768918","0.0-154.0","612bb0204ad8e7e8bed041eb","6213d93231fc0cacf4f69107","4","","","","","1","3"
"null","","","null","","","","html-keyboard-response","155","769420","0.0-155.0","612bb0204ad8e7e8bed041eb","6213d93231fc0cacf4f69107","","","","","<p style=""color:darkgreen;font-size:24px;"">Correct :)</p>","",""
"2550","key","n","n","16.66649673202644","500","250","psychophysics","156","771974","0.0-156.0","612bb0204ad8e7e8bed041eb","6213d93231fc0cacf4f69107","4","","","","","1","8"
"null","","","null","","","","html-keyboard-response","157","772475","0.0-157.0","612bb0204ad8e7e8bed041eb","6213d93231fc0cacf4f69107","","","","","<p style=""color:darkgreen;font-size:24px;"">Correct :)</p>","",""
"2424","key","v","v","16.664856164383682","500","250","psychophysics","158","774903","0.0-158.0","612bb0204ad8e7e8bed041eb","6213d93231fc0cacf4f69107","4","","","","","1","4"
"null","","","null","","","","html-keyboard-response","159","775412","0.0-159.0","612bb0204ad8e7e8bed041eb","6213d93231fc0cacf4f69107","","","","","<p style=""color:darkgreen;font-size:24px;"">Correct :)</p>","",""
"2446","key","n","n","16.665095238095834","500","250","psychophysics","160","777862","0.0-160.0","612bb0204ad8e7e8bed041eb","6213d93231fc0cacf4f69107","4","","","","","1","6"
"null","","","null","","","","html-keyboard-response","161","778364","0.0-161.0","612bb0204ad8e7e8bed041eb","6213d93231fc0cacf4f69107","","","","","<p style=""color:darkgreen;font-size:24px;"">Correct :)</p>","",""
"2551","key","n","n","16.667006535947877","500","250","psychophysics","162","780918","0.0-162.0","612bb0204ad8e7e8bed041eb","6213d93231fc0cacf4f69107","4","","","","","1","7"
"null","","","null","","","","html-keyboard-response","163","781420","0.0-163.0","612bb0204ad8e7e8bed041eb","6213d93231fc0cacf4f69107","","","","","<p style=""color:darkgreen;font-size:24px;"">Correct :)</p>","",""
"2438","key","n","n","16.66663013698696","500","250","psychophysics","164","783862","0.0-164.0","612bb0204ad8e7e8bed041eb","6213d93231fc0cacf4f69107","4","","","","","1","9"
"null","","","null","","","","html-keyboard-response","165","784376","0.0-165.0","612bb0204ad8e7e8bed041eb","6213d93231fc0cacf4f69107","","","","","<p style=""color:darkgreen;font-size:24px;"">Correct :)</p>","",""
"2476","key","n","n","16.666523489933116","500","250","psychophysics","166","786854","0.0-166.0","612bb0204ad8e7e8bed041eb","6213d93231fc0cacf4f69107","4","","","","","1","7"
"null","","","null","","","","html-keyboard-response","167","787356","0.0-167.0","612bb0204ad8e7e8bed041eb","6213d93231fc0cacf4f69107","","","","","<p style=""color:darkgreen;font-size:24px;"">Correct :)</p>","",""
"3126","key","n","n","16.665430851063338","500","250","psychophysics","168","790486","0.0-168.0","612bb0204ad8e7e8bed041eb","6213d93231fc0cacf4f69107","4","","","","","1","6"
"null","","","null","","","","html-keyboard-response","169","790989","0.0-169.0","612bb0204ad8e7e8bed041eb","6213d93231fc0cacf4f69107","","","","","<p style=""color:darkgreen;font-size:24px;"">Correct :)</p>","",""
"2676","key","v","v","16.666329192546463","500","250","psychophysics","170","793670","0.0-170.0","612bb0204ad8e7e8bed041eb","6213d93231fc0cacf4f69107","4","","","","","1","3"
"null","","","null","","","","html-keyboard-response","171","794173","0.0-171.0","612bb0204ad8e7e8bed041eb","6213d93231fc0cacf4f69107","","","","","<p style=""color:darkgreen;font-size:24px;"">Correct :)</p>","",""
"2629","key","v","v","16.66637341772159","500","250","psychophysics","172","796806","0.0-172.0","612bb0204ad8e7e8bed041eb","6213d93231fc0cacf4f69107","4","","","","","1","3"
"null","","","null","","","","html-keyboard-response","173","797308","0.0-173.0","612bb0204ad8e7e8bed041eb","6213d93231fc0cacf4f69107","","","","","<p style=""color:darkgreen;font-size:24px;"">Correct :)</p>","",""
"2518","key","n","n","16.666470198675416","500","250","psychophysics","174","799830","0.0-174.0","612bb0204ad8e7e8bed041eb","6213d93231fc0cacf4f69107","4","","","","","1","9"
"null","","","null","","","","html-keyboard-response","175","800332","0.0-175.0","612bb0204ad8e7e8bed041eb","6213d93231fc0cacf4f69107","","","","","<p style=""color:darkgreen;font-size:24px;"">Correct :)</p>","",""
"2645","key","n","n","16.665930817610256","500","250","psychophysics","176","802982","0.0-176.0","612bb0204ad8e7e8bed041eb","6213d93231fc0cacf4f69107","4","","","","","1","7"
"null","","","null","","","","html-keyboard-response","177","803496","0.0-177.0","612bb0204ad8e7e8bed041eb","6213d93231fc0cacf4f69107","","","","","<p style=""color:darkgreen;font-size:24px;"">Correct :)</p>","",""
"3002","key","n","n","16.666372222222467","500","250","psychophysics","178","806502","0.0-178.0","612bb0204ad8e7e8bed041eb","6213d93231fc0cacf4f69107","4","","","","","1","9"
"null","","","null","","","","html-keyboard-response","179","807004","0.0-179.0","612bb0204ad8e7e8bed041eb","6213d93231fc0cacf4f69107","","","","","<p style=""color:darkgreen;font-size:24px;"">Correct :)</p>","",""
"2950","key","n","n","16.666395480226264","500","250","psychophysics","180","809958","0.0-180.0","612bb0204ad8e7e8bed041eb","6213d93231fc0cacf4f69107","4","","","","","1","8"
"null","","","null","","","","html-keyboard-response","181","810459","0.0-181.0","612bb0204ad8e7e8bed041eb","6213d93231fc0cacf4f69107","","","","","<p style=""color:darkgreen;font-size:24px;"">Correct :)</p>","",""
"2439","key","n","n","16.664414965986357","500","250","psychophysics","182","812902","0.0-182.0","612bb0204ad8e7e8bed041eb","6213d93231fc0cacf4f69107","4","","","","","1","9"
"null","","","null","","","","html-keyboard-response","183","813404","0.0-183.0","612bb0204ad8e7e8bed041eb","6213d93231fc0cacf4f69107","","","","","<p style=""color:darkgreen;font-size:24px;"">Correct :)</p>","",""
"2357","key","v","v","16.66649645390088","500","250","psychophysics","184","815766","0.0-184.0","612bb0204ad8e7e8bed041eb","6213d93231fc0cacf4f69107","4","","","","","1","1"
"null","","","null","","","","html-keyboard-response","185","816267","0.0-185.0","612bb0204ad8e7e8bed041eb","6213d93231fc0cacf4f69107","","","","","<p style=""color:darkgreen;font-size:24px;"">Correct :)</p>","",""
"2423","key","v","v","16.666903448275868","500","250","psychophysics","186","818694","0.0-186.0","612bb0204ad8e7e8bed041eb","6213d93231fc0cacf4f69107","4","","","","","1","2"
"null","","","null","","","","html-keyboard-response","187","819195","0.0-187.0","612bb0204ad8e7e8bed041eb","6213d93231fc0cacf4f69107","","","","","<p style=""color:darkgreen;font-size:24px;"">Correct :)</p>","",""
"2455","key","n","n","16.665317567567204","500","250","psychophysics","188","821654","0.0-188.0","612bb0204ad8e7e8bed041eb","6213d93231fc0cacf4f69107","4","","","","","1","9"
"null","","","null","","","","html-keyboard-response","189","822156","0.0-189.0","612bb0204ad8e7e8bed041eb","6213d93231fc0cacf4f69107","","","","","<p style=""color:darkgreen;font-size:24px;"">Correct :)</p>","",""
"3190","key","v","v","16.66603141361226","500","250","psychophysics","190","825350","0.0-190.0","612bb0204ad8e7e8bed041eb","6213d93231fc0cacf4f69107","4","","","","","1","2"
"null","","","null","","","","html-keyboard-response","191","825854","0.0-191.0","612bb0204ad8e7e8bed041eb","6213d93231fc0cacf4f69107","","","","","<p style=""color:darkgreen;font-size:24px;"">Correct :)</p>","",""
"2600","key","n","n","16.66783974359024","500","250","psychophysics","192","828456","0.0-192.0","612bb0204ad8e7e8bed041eb","6213d93231fc0cacf4f69107","4","","","","","1","6"
"null","","","null","","","","html-keyboard-response","193","828958","0.0-193.0","612bb0204ad8e7e8bed041eb","6213d93231fc0cacf4f69107","","","","","<p style=""color:darkgreen;font-size:24px;"">Correct :)</p>","",""
"6601","","","n","","","","html-keyboard-response","194","835560","0.0-194.0","612bb0204ad8e7e8bed041eb","6213d93231fc0cacf4f69107","","","","","<p> Ok, now we are going present the same digits as before.  Your job is to say whether the digit is even or odd  If the digit is odd, press to v key; if it is even, press the n key. We are going to do 50 of these.  </p>  <br><br>  Ready? (press v or n)","",""
"2506","key","v","v","16.66684105960245","500","250","psychophysics","195","838072","0.0-195.0","612bb0204ad8e7e8bed041eb","6213d93231fc0cacf4f69107","5","","","","","0","2"
"null","","","null","","","","html-keyboard-response","196","838574","0.0-196.0","612bb0204ad8e7e8bed041eb","6213d93231fc0cacf4f69107","","","","","<p style=""color:red;font-size:24px;"">Error :(</p>","",""
"2822","key","v","v","16.666491124260972","500","250","psychophysics","197","841400","0.0-197.0","612bb0204ad8e7e8bed041eb","6213d93231fc0cacf4f69107","5","","","","","0","7"
"null","","","null","","","","html-keyboard-response","198","841901","0.0-198.0","612bb0204ad8e7e8bed041eb","6213d93231fc0cacf4f69107","","","","","<p style=""color:darkgreen;font-size:24px;"">Correct :)</p>","",""
"2934","key","n","n","16.76129545454552","500","250","psychophysics","199","844840","0.0-199.0","612bb0204ad8e7e8bed041eb","6213d93231fc0cacf4f69107","5","","","","","0","4"
"null","","","null","","","","html-keyboard-response","200","845342","0.0-200.0","612bb0204ad8e7e8bed041eb","6213d93231fc0cacf4f69107","","","","","<p style=""color:darkgreen;font-size:24px;"">Correct :)</p>","",""
"3591","key","n","n","16.665883720930406","500","250","psychophysics","201","848936","0.0-201.0","612bb0204ad8e7e8bed041eb","6213d93231fc0cacf4f69107","5","","","","","0","6"
"null","","","null","","","","html-keyboard-response","202","849450","0.0-202.0","612bb0204ad8e7e8bed041eb","6213d93231fc0cacf4f69107","","","","","<p style=""color:darkgreen;font-size:24px;"">Correct :)</p>","",""
"2682","key","n","n","16.666664596273918","500","250","psychophysics","203","852136","0.0-203.0","612bb0204ad8e7e8bed041eb","6213d93231fc0cacf4f69107","5","","","","","0","8"
"null","","","null","","","","html-keyboard-response","204","852638","0.0-204.0","612bb0204ad8e7e8bed041eb","6213d93231fc0cacf4f69107","","","","","<p style=""color:darkgreen;font-size:24px;"">Correct :)</p>","",""
"2502","key","n","n","16.66604666666671","500","250","psychophysics","205","855144","0.0-205.0","612bb0204ad8e7e8bed041eb","6213d93231fc0cacf4f69107","5","","","","","0","2"
"null","","","null","","","","html-keyboard-response","206","855645","0.0-206.0","612bb0204ad8e7e8bed041eb","6213d93231fc0cacf4f69107","","","","","<p style=""color:darkgreen;font-size:24px;"">Correct :)</p>","",""
"2488","key","v","v","16.665","500","250","psychophysics","207","858137","0.0-207.0","612bb0204ad8e7e8bed041eb","6213d93231fc0cacf4f69107","5","","","","","0","1"
"null","","","null","","","","html-keyboard-response","208","858652","0.0-208.0","612bb0204ad8e7e8bed041eb","6213d93231fc0cacf4f69107","","","","","<p style=""color:darkgreen;font-size:24px;"">Correct :)</p>","",""
"2535","key","n","n","16.66550657894741","500","250","psychophysics","209","861191","0.0-209.0","612bb0204ad8e7e8bed041eb","6213d93231fc0cacf4f69107","5","","","","","0","2"
"null","","","null","","","","html-keyboard-response","210","861692","0.0-210.0","612bb0204ad8e7e8bed041eb","6213d93231fc0cacf4f69107","","","","","<p style=""color:darkgreen;font-size:24px;"">Correct :)</p>","",""
"3736","key","n","n","16.666508928571734","500","250","psychophysics","211","865432","0.0-211.0","612bb0204ad8e7e8bed041eb","6213d93231fc0cacf4f69107","5","","","","","0","6"
"null","","","null","","","","html-keyboard-response","212","865934","0.0-212.0","612bb0204ad8e7e8bed041eb","6213d93231fc0cacf4f69107","","","","","<p style=""color:darkgreen;font-size:24px;"">Correct :)</p>","",""
"2453","key","n","n","16.779748299319873","500","250","psychophysics","213","868392","0.0-213.0","612bb0204ad8e7e8bed041eb","6213d93231fc0cacf4f69107","5","","","","","0","6"
"null","","","null","","","","html-keyboard-response","214","868893","0.0-214.0","612bb0204ad8e7e8bed041eb","6213d93231fc0cacf4f69107","","","","","<p style=""color:darkgreen;font-size:24px;"">Correct :)</p>","",""
"2455","key","n","n","16.666115646258465","500","250","psychophysics","215","871352","0.0-215.0","612bb0204ad8e7e8bed041eb","6213d93231fc0cacf4f69107","5","","","","","0","8"
"null","","","null","","","","html-keyboard-response","216","871854","0.0-216.0","612bb0204ad8e7e8bed041eb","6213d93231fc0cacf4f69107","","","","","<p style=""color:darkgreen;font-size:24px;"">Correct :)</p>","",""
"2454","key","v","v","16.66644217687038","500","250","psychophysics","217","874312","0.0-217.0","612bb0204ad8e7e8bed041eb","6213d93231fc0cacf4f69107","5","","","","","0","7"
"null","","","null","","","","html-keyboard-response","218","874814","0.0-218.0","612bb0204ad8e7e8bed041eb","6213d93231fc0cacf4f69107","","","","","<p style=""color:darkgreen;font-size:24px;"">Correct :)</p>","",""
"2678","key","n","n","16.665229813664318","500","250","psychophysics","219","877496","0.0-219.0","612bb0204ad8e7e8bed041eb","6213d93231fc0cacf4f69107","5","","","","","0","6"
"null","","","null","","","","html-keyboard-response","220","877997","0.0-220.0","612bb0204ad8e7e8bed041eb","6213d93231fc0cacf4f69107","","","","","<p style=""color:darkgreen;font-size:24px;"">Correct :)</p>","",""
"3799","key","n","n","16.66623684210527","500","250","psychophysics","221","881800","0.0-221.0","612bb0204ad8e7e8bed041eb","6213d93231fc0cacf4f69107","5","","","","","0","4"
"null","","","null","","","","html-keyboard-response","222","882301","0.0-222.0","612bb0204ad8e7e8bed041eb","6213d93231fc0cacf4f69107","","","","","<p style=""color:darkgreen;font-size:24px;"">Correct :)</p>","",""
"2471","key","n","n","16.778945945945846","500","250","psychophysics","223","884776","0.0-223.0","612bb0204ad8e7e8bed041eb","6213d93231fc0cacf4f69107","5","","","","","0","2"
"null","","","null","","","","html-keyboard-response","224","885281","0.0-224.0","612bb0204ad8e7e8bed041eb","6213d93231fc0cacf4f69107","","","","","<p style=""color:darkgreen;font-size:24px;"">Correct :)</p>","",""
"2643","key","n","n","16.665503144653737","500","250","psychophysics","225","887929","0.0-225.0","612bb0204ad8e7e8bed041eb","6213d93231fc0cacf4f69107","5","","","","","0","2"
"null","","","null","","","","html-keyboard-response","226","888429","0.0-226.0","612bb0204ad8e7e8bed041eb","6213d93231fc0cacf4f69107","","","","","<p style=""color:darkgreen;font-size:24px;"">Correct :)</p>","",""
"7","key","n","n","16.457000000053085","500","250","psychophysics","227","888440","0.0-227.0","612bb0204ad8e7e8bed041eb","6213d93231fc0cacf4f69107","5","","","","","0","4"
"null","","","null","","","","html-keyboard-response","228","888942","0.0-228.0","612bb0204ad8e7e8bed041eb","6213d93231fc0cacf4f69107","","","","","<p style=""color:darkgreen;font-size:24px;"">Correct :)</p>","",""
"2949","key","v","v","16.6652937853113","500","250","psychophysics","229","891896","0.0-229.0","612bb0204ad8e7e8bed041eb","6213d93231fc0cacf4f69107","5","","","","","0","3"
"null","","","null","","","","html-keyboard-response","230","892398","0.0-230.0","612bb0204ad8e7e8bed041eb","6213d93231fc0cacf4f69107","","","","","<p style=""color:darkgreen;font-size:24px;"">Correct :)</p>","",""
"2854","key","n","n","16.66624418604675","500","250","psychophysics","231","895256","0.0-231.0","612bb0204ad8e7e8bed041eb","6213d93231fc0cacf4f69107","5","","","","","0","9"
"null","","","null","","","","html-keyboard-response","232","895759","0.0-232.0","612bb0204ad8e7e8bed041eb","6213d93231fc0cacf4f69107","","","","","<p style=""color:red;font-size:24px;"">Error :(</p>","",""
"2997","key","v","v","16.66656111111127","500","250","psychophysics","233","898761","0.0-233.0","612bb0204ad8e7e8bed041eb","6213d93231fc0cacf4f69107","5","","","","","0","3"
"null","","","null","","","","html-keyboard-response","234","899263","0.0-234.0","612bb0204ad8e7e8bed041eb","6213d93231fc0cacf4f69107","","","","","<p style=""color:darkgreen;font-size:24px;"">Correct :)</p>","",""
"2789","key","n","n","16.666464285714376","500","250","psychophysics","235","902056","0.0-235.0","612bb0204ad8e7e8bed041eb","6213d93231fc0cacf4f69107","5","","","","","0","6"
"null","","","null","","","","html-keyboard-response","236","902558","0.0-236.0","612bb0204ad8e7e8bed041eb","6213d93231fc0cacf4f69107","","","","","<p style=""color:darkgreen;font-size:24px;"">Correct :)</p>","",""
"2598","key","v","v","16.66650641025626","500","250","psychophysics","237","905160","0.0-237.0","612bb0204ad8e7e8bed041eb","6213d93231fc0cacf4f69107","5","","","","","0","2"
"null","","","null","","","","html-keyboard-response","238","905662","0.0-238.0","612bb0204ad8e7e8bed041eb","6213d93231fc0cacf4f69107","","","","","<p style=""color:red;font-size:24px;"">Error :(</p>","",""
"2838","key","n","n","16.66564912280702","500","250","psychophysics","239","908504","0.0-239.0","612bb0204ad8e7e8bed041eb","6213d93231fc0cacf4f69107","5","","","","","0","2"
"null","","","null","","","","html-keyboard-response","240","909006","0.0-240.0","612bb0204ad8e7e8bed041eb","6213d93231fc0cacf4f69107","","","","","<p style=""color:darkgreen;font-size:24px;"">Correct :)</p>","",""
"2631","key","v","v","16.66574683544282","500","250","psychophysics","241","911640","0.0-241.0","612bb0204ad8e7e8bed041eb","6213d93231fc0cacf4f69107","5","","","","","0","7"
"null","","","null","","","","html-keyboard-response","242","912142","0.0-242.0","612bb0204ad8e7e8bed041eb","6213d93231fc0cacf4f69107","","","","","<p style=""color:darkgreen;font-size:24px;"">Correct :)</p>","",""
"2630","key","v","v","16.668044303797327","500","250","psychophysics","243","914776","0.0-243.0","612bb0204ad8e7e8bed041eb","6213d93231fc0cacf4f69107","5","","","","","0","9"
"null","","","null","","","","html-keyboard-response","244","915278","0.0-244.0","612bb0204ad8e7e8bed041eb","6213d93231fc0cacf4f69107","","","","","<p style=""color:darkgreen;font-size:24px;"">Correct :)</p>","",""
"4150","key","n","n","16.666180722891863","500","250","psychophysics","245","919432","0.0-245.0","612bb0204ad8e7e8bed041eb","6213d93231fc0cacf4f69107","5","","","","","0","8"
"null","","","null","","","","html-keyboard-response","246","919932","0.0-246.0","612bb0204ad8e7e8bed041eb","6213d93231fc0cacf4f69107","","","","","<p style=""color:darkgreen;font-size:24px;"">Correct :)</p>","",""
"2488","key","v","v","16.666239999999913","500","250","psychophysics","247","922424","0.0-247.0","612bb0204ad8e7e8bed041eb","6213d93231fc0cacf4f69107","5","","","","","0","9"
"null","","","null","","","","html-keyboard-response","248","922928","0.0-248.0","612bb0204ad8e7e8bed041eb","6213d93231fc0cacf4f69107","","","","","<p style=""color:darkgreen;font-size:24px;"">Correct :)</p>","",""
"3828","key","v","v","16.667395652173614","500","250","psychophysics","249","926760","0.0-249.0","612bb0204ad8e7e8bed041eb","6213d93231fc0cacf4f69107","5","","","","","0","7"
"null","","","null","","","","html-keyboard-response","250","927263","0.0-250.0","612bb0204ad8e7e8bed041eb","6213d93231fc0cacf4f69107","","","","","<p style=""color:darkgreen;font-size:24px;"">Correct :)</p>","",""
"4150","key","n","n","16.66635742971868","500","250","psychophysics","251","931416","0.0-251.0","612bb0204ad8e7e8bed041eb","6213d93231fc0cacf4f69107","5","","","","","0","2"
"null","","","null","","","","html-keyboard-response","252","931919","0.0-252.0","612bb0204ad8e7e8bed041eb","6213d93231fc0cacf4f69107","","","","","<p style=""color:darkgreen;font-size:24px;"">Correct :)</p>","",""
"3286","key","n","n","16.666436548223057","500","250","psychophysics","253","935209","0.0-253.0","612bb0204ad8e7e8bed041eb","6213d93231fc0cacf4f69107","5","","","","","0","6"
"null","","","null","","","","html-keyboard-response","254","935710","0.0-254.0","612bb0204ad8e7e8bed041eb","6213d93231fc0cacf4f69107","","","","","<p style=""color:darkgreen;font-size:24px;"">Correct :)</p>","",""
"4535","key","v","v","16.665911764705978","500","250","psychophysics","255","940248","0.0-255.0","612bb0204ad8e7e8bed041eb","6213d93231fc0cacf4f69107","5","","","","","0","1"
"null","","","null","","","","html-keyboard-response","256","940750","0.0-256.0","612bb0204ad8e7e8bed041eb","6213d93231fc0cacf4f69107","","","","","<p style=""color:darkgreen;font-size:24px;"">Correct :)</p>","",""
"2695","key","v","v","16.76886956521703","500","250","psychophysics","257","943448","0.0-257.0","612bb0204ad8e7e8bed041eb","6213d93231fc0cacf4f69107","5","","","","","0","3"
"null","","","null","","","","html-keyboard-response","258","943955","0.0-258.0","612bb0204ad8e7e8bed041eb","6213d93231fc0cacf4f69107","","","","","<p style=""color:darkgreen;font-size:24px;"">Correct :)</p>","",""
"3618","key","n","n","16.666050691243953","500","250","psychophysics","259","947577","0.0-259.0","612bb0204ad8e7e8bed041eb","6213d93231fc0cacf4f69107","5","","","","","0","8"
"null","","","null","","","","html-keyboard-response","260","948079","0.0-260.0","612bb0204ad8e7e8bed041eb","6213d93231fc0cacf4f69107","","","","","<p style=""color:darkgreen;font-size:24px;"">Correct :)</p>","",""
"7526","key","n","n","16.666442477876274","500","250","psychophysics","261","955609","0.0-261.0","612bb0204ad8e7e8bed041eb","6213d93231fc0cacf4f69107","5","","","","","0","2"
"null","","","null","","","","html-keyboard-response","262","956110","0.0-262.0","612bb0204ad8e7e8bed041eb","6213d93231fc0cacf4f69107","","","","","<p style=""color:darkgreen;font-size:24px;"">Correct :)</p>","",""
"2535","key","v","v","16.666467105263635","500","250","psychophysics","263","958649","0.0-263.0","612bb0204ad8e7e8bed041eb","6213d93231fc0cacf4f69107","5","","","","","0","1"
"null","","","null","","","","html-keyboard-response","264","959151","0.0-264.0","612bb0204ad8e7e8bed041eb","6213d93231fc0cacf4f69107","","","","","<p style=""color:darkgreen;font-size:24px;"">Correct :)</p>","",""
"2438","key","v","v","16.780691780822117","500","250","psychophysics","265","961593","0.0-265.0","612bb0204ad8e7e8bed041eb","6213d93231fc0cacf4f69107","5","","","","","0","1"
"null","","","null","","","","html-keyboard-response","266","962095","0.0-266.0","612bb0204ad8e7e8bed041eb","6213d93231fc0cacf4f69107","","","","","<p style=""color:darkgreen;font-size:24px;"">Correct :)</p>","",""
"2790","key","n","n","16.66605952380979","500","250","psychophysics","267","964889","0.0-267.0","612bb0204ad8e7e8bed041eb","6213d93231fc0cacf4f69107","5","","","","","0","4"
"null","","","null","","","","html-keyboard-response","268","965391","0.0-268.0","612bb0204ad8e7e8bed041eb","6213d93231fc0cacf4f69107","","","","","<p style=""color:darkgreen;font-size:24px;"">Correct :)</p>","",""
"2630","key","n","n","16.66535443038005","500","250","psychophysics","269","968025","0.0-269.0","612bb0204ad8e7e8bed041eb","6213d93231fc0cacf4f69107","5","","","","","0","6"
"null","","","null","","","","html-keyboard-response","270","968527","0.0-270.0","612bb0204ad8e7e8bed041eb","6213d93231fc0cacf4f69107","","","","","<p style=""color:darkgreen;font-size:24px;"">Correct :)</p>","",""
"2439","key","n","n","16.665476190475875","500","250","psychophysics","271","970970","0.0-271.0","612bb0204ad8e7e8bed041eb","6213d93231fc0cacf4f69107","5","","","","","0","2"
"null","","","null","","","","html-keyboard-response","272","971471","0.0-272.0","612bb0204ad8e7e8bed041eb","6213d93231fc0cacf4f69107","","","","","<p style=""color:darkgreen;font-size:24px;"">Correct :)</p>","",""
"3686","key","n","n","16.666149321267152","500","250","psychophysics","273","975161","0.0-273.0","612bb0204ad8e7e8bed041eb","6213d93231fc0cacf4f69107","5","","","","","0","8"
"null","","","null","","","","html-keyboard-response","274","975662","0.0-274.0","612bb0204ad8e7e8bed041eb","6213d93231fc0cacf4f69107","","","","","<p style=""color:darkgreen;font-size:24px;"">Correct :)</p>","",""
"2487","key","v","v","16.66597999999998","500","250","psychophysics","275","978154","0.0-275.0","612bb0204ad8e7e8bed041eb","6213d93231fc0cacf4f69107","5","","","","","0","7"
"null","","","null","","","","html-keyboard-response","276","978660","0.0-276.0","612bb0204ad8e7e8bed041eb","6213d93231fc0cacf4f69107","","","","","<p style=""color:darkgreen;font-size:24px;"">Correct :)</p>","",""
"4050","key","n","n","16.666037037036833","500","250","psychophysics","277","982713","0.0-277.0","612bb0204ad8e7e8bed041eb","6213d93231fc0cacf4f69107","5","","","","","0","6"
"null","","","null","","","","html-keyboard-response","278","983214","0.0-278.0","612bb0204ad8e7e8bed041eb","6213d93231fc0cacf4f69107","","","","","<p style=""color:darkgreen;font-size:24px;"">Correct :)</p>","",""
"3767","key","n","n","16.665255506608087","500","250","psychophysics","279","986986","0.0-279.0","612bb0204ad8e7e8bed041eb","6213d93231fc0cacf4f69107","5","","","","","0","6"
"null","","","null","","","","html-keyboard-response","280","987488","0.0-280.0","612bb0204ad8e7e8bed041eb","6213d93231fc0cacf4f69107","","","","","<p style=""color:darkgreen;font-size:24px;"">Correct :)</p>","",""
"2093","key","v","v","16.664208000000567","500","250","psychophysics","281","989585","0.0-281.0","612bb0204ad8e7e8bed041eb","6213d93231fc0cacf4f69107","5","","","","","0","7"
"null","","","null","","","","html-keyboard-response","282","990087","0.0-282.0","612bb0204ad8e7e8bed041eb","6213d93231fc0cacf4f69107","","","","","<p style=""color:darkgreen;font-size:24px;"">Correct :)</p>","",""
"2605","key","v","v","16.666750000000228","500","250","psychophysics","283","992697","0.0-283.0","612bb0204ad8e7e8bed041eb","6213d93231fc0cacf4f69107","5","","","","","0","7"
"null","","","null","","","","html-keyboard-response","284","993199","0.0-284.0","612bb0204ad8e7e8bed041eb","6213d93231fc0cacf4f69107","","","","","<p style=""color:darkgreen;font-size:24px;"">Correct :)</p>","",""
"2598","key","v","v","16.66623076923096","500","250","psychophysics","285","995802","0.0-285.0","612bb0204ad8e7e8bed041eb","6213d93231fc0cacf4f69107","5","","","","","0","9"
"null","","","null","","","","html-keyboard-response","286","996304","0.0-286.0","612bb0204ad8e7e8bed041eb","6213d93231fc0cacf4f69107","","","","","<p style=""color:darkgreen;font-size:24px;"">Correct :)</p>","",""
"2917","key","n","n","16.66631428571418","500","250","psychophysics","287","999225","0.0-287.0","612bb0204ad8e7e8bed041eb","6213d93231fc0cacf4f69107","5","","","","","0","2"
"null","","","null","","","","html-keyboard-response","288","999726","0.0-288.0","612bb0204ad8e7e8bed041eb","6213d93231fc0cacf4f69107","","","","","<p style=""color:darkgreen;font-size:24px;"">Correct :)</p>","",""
"4713","key","v","v","16.66611307420498","500","250","psychophysics","289","1004443","0.0-289.0","612bb0204ad8e7e8bed041eb","6213d93231fc0cacf4f69107","5","","","","","0","4"
"null","","","null","","","","html-keyboard-response","290","1004945","0.0-290.0","612bb0204ad8e7e8bed041eb","6213d93231fc0cacf4f69107","","","","","<p style=""color:red;font-size:24px;"">Error :(</p>","",""
"2468","key","n","n","16.665885135134985","500","250","psychophysics","291","1007418","0.0-291.0","612bb0204ad8e7e8bed041eb","6213d93231fc0cacf4f69107","5","","","","","0","7"
"null","","","null","","","","html-keyboard-response","292","1007920","0.0-292.0","612bb0204ad8e7e8bed041eb","6213d93231fc0cacf4f69107","","","","","<p style=""color:red;font-size:24px;"">Error :(</p>","",""
"2582","key","n","n","16.666812903225992","500","250","psychophysics","293","1010505","0.0-293.0","612bb0204ad8e7e8bed041eb","6213d93231fc0cacf4f69107","5","","","","","0","2"
"null","","","null","","","","html-keyboard-response","294","1011008","0.0-294.0","612bb0204ad8e7e8bed041eb","6213d93231fc0cacf4f69107","","","","","<p style=""color:darkgreen;font-size:24px;"">Correct :)</p>","",""
"3561","","","n","","","","html-keyboard-response","295","1014570","0.0-295.0","612bb0204ad8e7e8bed041eb","6213d93231fc0cacf4f69107","","","","","<p> Here, the tasks are going to switch.  For some trials, your job is to decide if the digit is less than or greater than 5.  For others, it is to decide if the digit is even or odd.  You will be told which type of trial the current one is.  But, pay attention, the type of trial changes too.  We are going to do 50 of these.  </p>  <br><br>  Ready? (press v or n)","",""
"2460","key","n","n","16.667394557822856","500","250","psychophysics","296","1017033","0.0-296.0","612bb0204ad8e7e8bed041eb","6213d93231fc0cacf4f69107","6","","","","","1","9"
"null","","","null","","","","html-keyboard-response","297","1017535","0.0-297.0","612bb0204ad8e7e8bed041eb","6213d93231fc0cacf4f69107","","","","","<p style=""color:darkgreen;font-size:24px;"">Correct :)</p>","",""
"2679","key","n","n","16.666562500000147","500","250","psychophysics","298","1020218","0.0-298.0","612bb0204ad8e7e8bed041eb","6213d93231fc0cacf4f69107","6","","","","","0","6"
"null","","","null","","","","html-keyboard-response","299","1020720","0.0-299.0","612bb0204ad8e7e8bed041eb","6213d93231fc0cacf4f69107","","","","","<p style=""color:darkgreen;font-size:24px;"">Correct :)</p>","",""
"2502","key","n","n","16.66658666666597","500","250","psychophysics","300","1023225","0.0-300.0","612bb0204ad8e7e8bed041eb","6213d93231fc0cacf4f69107","6","","","","","1","6"
"null","","","null","","","","html-keyboard-response","301","1023728","0.0-301.0","612bb0204ad8e7e8bed041eb","6213d93231fc0cacf4f69107","","","","","<p style=""color:darkgreen;font-size:24px;"">Correct :)</p>","",""
"2933","key","v","v","16.666454545454393","500","250","psychophysics","302","1026665","0.0-302.0","612bb0204ad8e7e8bed041eb","6213d93231fc0cacf4f69107","6","","","","","1","4"
"null","","","null","","","","html-keyboard-response","303","1027167","0.0-303.0","612bb0204ad8e7e8bed041eb","6213d93231fc0cacf4f69107","","","","","<p style=""color:darkgreen;font-size:24px;"">Correct :)</p>","",""
"3350","key","v","v","16.66695024875637","500","250","psychophysics","304","1030522","0.0-304.0","612bb0204ad8e7e8bed041eb","6213d93231fc0cacf4f69107","6","","","","","1","1"
"null","","","null","","","","html-keyboard-response","305","1031024","0.0-305.0","612bb0204ad8e7e8bed041eb","6213d93231fc0cacf4f69107","","","","","<p style=""color:darkgreen;font-size:24px;"">Correct :)</p>","",""
"2759","key","v","v","16.665933734939312","500","250","psychophysics","306","1033786","0.0-306.0","612bb0204ad8e7e8bed041eb","6213d93231fc0cacf4f69107","6","","","","","1","1"
"null","","","null","","","","html-keyboard-response","307","1034289","0.0-307.0","612bb0204ad8e7e8bed041eb","6213d93231fc0cacf4f69107","","","","","<p style=""color:darkgreen;font-size:24px;"">Correct :)</p>","",""
"2453","key","v","v","16.66500000000003","500","250","psychophysics","308","1036745","0.0-308.0","612bb0204ad8e7e8bed041eb","6213d93231fc0cacf4f69107","6","","","","","1","2"
"null","","","null","","","","html-keyboard-response","309","1037247","0.0-309.0","612bb0204ad8e7e8bed041eb","6213d93231fc0cacf4f69107","","","","","<p style=""color:darkgreen;font-size:24px;"">Correct :)</p>","",""
"2615","key","n","n","16.66650955414008","500","250","psychophysics","310","1039865","0.0-310.0","612bb0204ad8e7e8bed041eb","6213d93231fc0cacf4f69107","6","","","","","1","7"
"null","","","null","","","","html-keyboard-response","311","1040367","0.0-311.0","612bb0204ad8e7e8bed041eb","6213d93231fc0cacf4f69107","","","","","<p style=""color:darkgreen;font-size:24px;"">Correct :)</p>","",""
"2488","key","n","n","16.77843624161128","500","250","psychophysics","312","1042859","0.0-312.0","612bb0204ad8e7e8bed041eb","6213d93231fc0cacf4f69107","6","","","","","0","7"
"null","","","null","","","","html-keyboard-response","313","1043370","0.0-313.0","612bb0204ad8e7e8bed041eb","6213d93231fc0cacf4f69107","","","","","<p style=""color:red;font-size:24px;"">Error :(</p>","",""
"2556","key","n","n","16.666607843137506","500","250","psychophysics","314","1045929","0.0-314.0","612bb0204ad8e7e8bed041eb","6213d93231fc0cacf4f69107","6","","","","","0","8"
"null","","","null","","","","html-keyboard-response","315","1046431","0.0-315.0","612bb0204ad8e7e8bed041eb","6213d93231fc0cacf4f69107","","","","","<p style=""color:darkgreen;font-size:24px;"">Correct :)</p>","",""
"2726","key","n","n","16.664957317072904","500","250","psychophysics","316","1049161","0.0-316.0","612bb0204ad8e7e8bed041eb","6213d93231fc0cacf4f69107","6","","","","","1","7"
"null","","","null","","","","html-keyboard-response","317","1049663","0.0-317.0","612bb0204ad8e7e8bed041eb","6213d93231fc0cacf4f69107","","","","","<p style=""color:darkgreen;font-size:24px;"">Correct :)</p>","",""
"2414","key","n","n","16.66679452054764","500","250","psychophysics","318","1052089","0.0-318.0","612bb0204ad8e7e8bed041eb","6213d93231fc0cacf4f69107","6","","","","","1","7"
"null","","","null","","","","html-keyboard-response","319","1052592","0.0-319.0","612bb0204ad8e7e8bed041eb","6213d93231fc0cacf4f69107","","","","","<p style=""color:darkgreen;font-size:24px;"">Correct :)</p>","",""
"2406","key","v","v","16.66488965517231","500","250","psychophysics","320","1055003","0.0-320.0","612bb0204ad8e7e8bed041eb","6213d93231fc0cacf4f69107","6","","","","","1","3"
"null","","","null","","","","html-keyboard-response","321","1055505","0.0-321.0","612bb0204ad8e7e8bed041eb","6213d93231fc0cacf4f69107","","","","","<p style=""color:darkgreen;font-size:24px;"">Correct :)</p>","",""
"2469","key","n","n","16.666648648649367","500","250","psychophysics","322","1057977","0.0-322.0","612bb0204ad8e7e8bed041eb","6213d93231fc0cacf4f69107","6","","","","","1","6"
"null","","","null","","","","html-keyboard-response","323","1058479","0.0-323.0","612bb0204ad8e7e8bed041eb","6213d93231fc0cacf4f69107","","","","","<p style=""color:darkgreen;font-size:24px;"">Correct :)</p>","",""
"2486","key","n","n","16.665420000000548","500","250","psychophysics","324","1060970","0.0-324.0","612bb0204ad8e7e8bed041eb","6213d93231fc0cacf4f69107","6","","","","","1","6"
"null","","","null","","","","html-keyboard-response","325","1061472","0.0-325.0","612bb0204ad8e7e8bed041eb","6213d93231fc0cacf4f69107","","","","","<p style=""color:darkgreen;font-size:24px;"">Correct :)</p>","",""
"2581","key","n","n","16.666483870967323","500","250","psychophysics","326","1064057","0.0-326.0","612bb0204ad8e7e8bed041eb","6213d93231fc0cacf4f69107","6","","","","","0","4"
"null","","","null","","","","html-keyboard-response","327","1064559","0.0-327.0","612bb0204ad8e7e8bed041eb","6213d93231fc0cacf4f69107","","","","","<p style=""color:darkgreen;font-size:24px;"">Correct :)</p>","",""
"2423","key","v","v","16.665047945205938","500","250","psychophysics","328","1066987","0.0-328.0","612bb0204ad8e7e8bed041eb","6213d93231fc0cacf4f69107","6","","","","","0","7"
"null","","","null","","","","html-keyboard-response","329","1067491","0.0-329.0","612bb0204ad8e7e8bed041eb","6213d93231fc0cacf4f69107","","","","","<p style=""color:darkgreen;font-size:24px;"">Correct :)</p>","",""
"2499","key","v","v","16.666120000000422","500","250","psychophysics","330","1069994","0.0-330.0","612bb0204ad8e7e8bed041eb","6213d93231fc0cacf4f69107","6","","","","","1","1"
"null","","","null","","","","html-keyboard-response","331","1070495","0.0-331.0","612bb0204ad8e7e8bed041eb","6213d93231fc0cacf4f69107","","","","","<p style=""color:darkgreen;font-size:24px;"">Correct :)</p>","",""
"3047","key","v","v","16.665792349727234","500","250","psychophysics","332","1073546","0.0-332.0","612bb0204ad8e7e8bed041eb","6213d93231fc0cacf4f69107","6","","","","","1","3"
"null","","","null","","","","html-keyboard-response","333","1074047","0.0-333.0","612bb0204ad8e7e8bed041eb","6213d93231fc0cacf4f69107","","","","","<p style=""color:darkgreen;font-size:24px;"">Correct :)</p>","",""
"2647","key","v","v","16.665377358490097","500","250","psychophysics","334","1076698","0.0-334.0","612bb0204ad8e7e8bed041eb","6213d93231fc0cacf4f69107","6","","","","","1","4"
"null","","","null","","","","html-keyboard-response","335","1077209","0.0-335.0","612bb0204ad8e7e8bed041eb","6213d93231fc0cacf4f69107","","","","","<p style=""color:darkgreen;font-size:24px;"">Correct :)</p>","",""
"2413","key","v","v","16.665675862069275","500","250","psychophysics","336","1079626","0.0-336.0","612bb0204ad8e7e8bed041eb","6213d93231fc0cacf4f69107","6","","","","","1","3"
"null","","","null","","","","html-keyboard-response","337","1080129","0.0-337.0","612bb0204ad8e7e8bed041eb","6213d93231fc0cacf4f69107","","","","","<p style=""color:darkgreen;font-size:24px;"">Correct :)</p>","",""
"2437","key","v","v","16.665816326530614","500","250","psychophysics","338","1082571","0.0-338.0","612bb0204ad8e7e8bed041eb","6213d93231fc0cacf4f69107","6","","","","","0","3"
"null","","","null","","","","html-keyboard-response","339","1083073","0.0-339.0","612bb0204ad8e7e8bed041eb","6213d93231fc0cacf4f69107","","","","","<p style=""color:darkgreen;font-size:24px;"">Correct :)</p>","",""
"2438","key","n","n","16.66497945205519","500","250","psychophysics","340","1085515","0.0-340.0","612bb0204ad8e7e8bed041eb","6213d93231fc0cacf4f69107","6","","","","","0","6"
"null","","","null","","","","html-keyboard-response","341","1086016","0.0-341.0","612bb0204ad8e7e8bed041eb","6213d93231fc0cacf4f69107","","","","","<p style=""color:darkgreen;font-size:24px;"">Correct :)</p>","",""
"2422","key","n","n","16.780179310345957","500","250","psychophysics","342","1088442","0.0-342.0","612bb0204ad8e7e8bed041eb","6213d93231fc0cacf4f69107","6","","","","","0","6"
"null","","","null","","","","html-keyboard-response","343","1088944","0.0-343.0","612bb0204ad8e7e8bed041eb","6213d93231fc0cacf4f69107","","","","","<p style=""color:darkgreen;font-size:24px;"">Correct :)</p>","",""
"2519","key","v","v","16.666880794702134","500","250","psychophysics","344","1091466","0.0-344.0","612bb0204ad8e7e8bed041eb","6213d93231fc0cacf4f69107","6","","","","","1","3"
"null","","","null","","","","html-keyboard-response","345","1091967","0.0-345.0","612bb0204ad8e7e8bed041eb","6213d93231fc0cacf4f69107","","","","","<p style=""color:darkgreen;font-size:24px;"">Correct :)</p>","",""
"2519","key","v","v","16.66637086092698","500","250","psychophysics","346","1094490","0.0-346.0","612bb0204ad8e7e8bed041eb","6213d93231fc0cacf4f69107","6","","","","","1","4"
"null","","","null","","","","html-keyboard-response","347","1094991","0.0-347.0","612bb0204ad8e7e8bed041eb","6213d93231fc0cacf4f69107","","","","","<p style=""color:darkgreen;font-size:24px;"">Correct :)</p>","",""
"2568","key","v","v","16.66485714285737","500","250","psychophysics","348","1097562","0.0-348.0","612bb0204ad8e7e8bed041eb","6213d93231fc0cacf4f69107","6","","","","","0","1"
"null","","","null","","","","html-keyboard-response","349","1098063","0.0-349.0","612bb0204ad8e7e8bed041eb","6213d93231fc0cacf4f69107","","","","","<p style=""color:darkgreen;font-size:24px;"">Correct :)</p>","",""
"2422","key","v","v","16.66663013698616","500","250","psychophysics","350","1100490","0.0-350.0","612bb0204ad8e7e8bed041eb","6213d93231fc0cacf4f69107","6","","","","","0","3"
"null","","","null","","","","html-keyboard-response","351","1100992","0.0-351.0","612bb0204ad8e7e8bed041eb","6213d93231fc0cacf4f69107","","","","","<p style=""color:darkgreen;font-size:24px;"">Correct :)</p>","",""
"2469","key","n","n","16.665885135134985","500","250","psychophysics","352","1103466","0.0-352.0","612bb0204ad8e7e8bed041eb","6213d93231fc0cacf4f69107","6","","","","","0","2"
"null","","","null","","","","html-keyboard-response","353","1103969","0.0-353.0","612bb0204ad8e7e8bed041eb","6213d93231fc0cacf4f69107","","","","","<p style=""color:darkgreen;font-size:24px;"">Correct :)</p>","",""
"2421","key","n","n","16.667096551724484","500","250","psychophysics","354","1106394","0.0-354.0","612bb0204ad8e7e8bed041eb","6213d93231fc0cacf4f69107","6","","","","","0","6"
"null","","","null","","","","html-keyboard-response","355","1106895","0.0-355.0","612bb0204ad8e7e8bed041eb","6213d93231fc0cacf4f69107","","","","","<p style=""color:darkgreen;font-size:24px;"">Correct :)</p>","",""
"2583","key","v","v","16.665290322581367","500","250","psychophysics","356","1109482","0.0-356.0","612bb0204ad8e7e8bed041eb","6213d93231fc0cacf4f69107","6","","","","","0","7"
"null","","","null","","","","html-keyboard-response","357","1109983","0.0-357.0","612bb0204ad8e7e8bed041eb","6213d93231fc0cacf4f69107","","","","","<p style=""color:darkgreen;font-size:24px;"">Correct :)</p>","",""
"2520","key","v","v","16.66678666666771","500","250","psychophysics","358","1112506","0.0-358.0","612bb0204ad8e7e8bed041eb","6213d93231fc0cacf4f69107","6","","","","","0","7"
"null","","","null","","","","html-keyboard-response","359","1113008","0.0-359.0","612bb0204ad8e7e8bed041eb","6213d93231fc0cacf4f69107","","","","","<p style=""color:darkgreen;font-size:24px;"">Correct :)</p>","",""
"2502","key","n","n","16.665819999999368","500","250","psychophysics","360","1115514","0.0-360.0","612bb0204ad8e7e8bed041eb","6213d93231fc0cacf4f69107","6","","","","","0","6"
"null","","","null","","","","html-keyboard-response","361","1116016","0.0-361.0","612bb0204ad8e7e8bed041eb","6213d93231fc0cacf4f69107","","","","","<p style=""color:darkgreen;font-size:24px;"">Correct :)</p>","",""
"2486","key","n","n","16.780020134228174","500","250","psychophysics","362","1118506","0.0-362.0","612bb0204ad8e7e8bed041eb","6213d93231fc0cacf4f69107","6","","","","","1","8"
"null","","","null","","","","html-keyboard-response","363","1119008","0.0-363.0","612bb0204ad8e7e8bed041eb","6213d93231fc0cacf4f69107","","","","","<p style=""color:darkgreen;font-size:24px;"">Correct :)</p>","",""
"2662","key","v","v","16.667262500000653","500","250","psychophysics","364","1121674","0.0-364.0","612bb0204ad8e7e8bed041eb","6213d93231fc0cacf4f69107","6","","","","","1","9"
"null","","","null","","","","html-keyboard-response","365","1122175","0.0-365.0","612bb0204ad8e7e8bed041eb","6213d93231fc0cacf4f69107","","","","","<p style=""color:red;font-size:24px;"">Error :(</p>","",""
"3031","key","n","n","16.665225274725255","500","250","psychophysics","366","1125210","0.0-366.0","612bb0204ad8e7e8bed041eb","6213d93231fc0cacf4f69107","6","","","","","1","6"
"null","","","null","","","","html-keyboard-response","367","1125711","0.0-367.0","612bb0204ad8e7e8bed041eb","6213d93231fc0cacf4f69107","","","","","<p style=""color:darkgreen;font-size:24px;"">Correct :)</p>","",""
"2438","key","n","n","16.665394557822104","500","250","psychophysics","368","1128154","0.0-368.0","612bb0204ad8e7e8bed041eb","6213d93231fc0cacf4f69107","6","","","","","0","2"
"null","","","null","","","","html-keyboard-response","369","1128656","0.0-369.0","612bb0204ad8e7e8bed041eb","6213d93231fc0cacf4f69107","","","","","<p style=""color:darkgreen;font-size:24px;"">Correct :)</p>","",""
"2375","key","n","n","16.667041958042688","500","250","psychophysics","370","1131036","0.0-370.0","612bb0204ad8e7e8bed041eb","6213d93231fc0cacf4f69107","6","","","","","1","9"
"null","","","null","","","","html-keyboard-response","371","1131539","0.0-371.0","612bb0204ad8e7e8bed041eb","6213d93231fc0cacf4f69107","","","","","<p style=""color:darkgreen;font-size:24px;"">Correct :)</p>","",""
"2452","key","v","v","16.666469387756027","500","250","psychophysics","372","1133995","0.0-372.0","612bb0204ad8e7e8bed041eb","6213d93231fc0cacf4f69107","6","","","","","1","3"
"null","","","null","","","","html-keyboard-response","373","1134497","0.0-373.0","612bb0204ad8e7e8bed041eb","6213d93231fc0cacf4f69107","","","","","<p style=""color:darkgreen;font-size:24px;"">Correct :)</p>","",""
"2374","key","v","v","16.665139860139796","500","250","psychophysics","374","1136875","0.0-374.0","612bb0204ad8e7e8bed041eb","6213d93231fc0cacf4f69107","6","","","","","0","3"
"null","","","null","","","","html-keyboard-response","375","1137377","0.0-375.0","612bb0204ad8e7e8bed041eb","6213d93231fc0cacf4f69107","","","","","<p style=""color:darkgreen;font-size:24px;"">Correct :)</p>","",""
"2487","key","v","v","16.665120805368364","500","250","psychophysics","376","1139868","0.0-376.0","612bb0204ad8e7e8bed041eb","6213d93231fc0cacf4f69107","6","","","","","1","1"
"null","","","null","","","","html-keyboard-response","377","1140370","0.0-377.0","612bb0204ad8e7e8bed041eb","6213d93231fc0cacf4f69107","","","","","<p style=""color:darkgreen;font-size:24px;"">Correct :)</p>","",""
"2373","key","v","v","16.66776056337977","500","250","psychophysics","378","1142747","0.0-378.0","612bb0204ad8e7e8bed041eb","6213d93231fc0cacf4f69107","6","","","","","0","3"
"null","","","null","","","","html-keyboard-response","379","1143248","0.0-379.0","612bb0204ad8e7e8bed041eb","6213d93231fc0cacf4f69107","","","","","<p style=""color:darkgreen;font-size:24px;"">Correct :)</p>","",""
"2375","key","v","v","16.66562237762325","500","250","psychophysics","380","1145627","0.0-380.0","612bb0204ad8e7e8bed041eb","6213d93231fc0cacf4f69107","6","","","","","1","3"
"null","","","null","","","","html-keyboard-response","381","1146129","0.0-381.0","612bb0204ad8e7e8bed041eb","6213d93231fc0cacf4f69107","","","","","<p style=""color:darkgreen;font-size:24px;"">Correct :)</p>","",""
"2453","key","v","v","16.6644797297289","500","250","psychophysics","382","1148586","0.0-382.0","612bb0204ad8e7e8bed041eb","6213d93231fc0cacf4f69107","6","","","","","0","3"
"null","","","null","","","","html-keyboard-response","383","1149087","0.0-383.0","612bb0204ad8e7e8bed041eb","6213d93231fc0cacf4f69107","","","","","<p style=""color:darkgreen;font-size:24px;"">Correct :)</p>","",""
"2505","key","v","v","16.66677333333219","500","250","psychophysics","384","1151595","0.0-384.0","612bb0204ad8e7e8bed041eb","6213d93231fc0cacf4f69107","6","","","","","1","4"
"null","","","null","","","","html-keyboard-response","385","1152097","0.0-385.0","612bb0204ad8e7e8bed041eb","6213d93231fc0cacf4f69107","","","","","<p style=""color:darkgreen;font-size:24px;"">Correct :)</p>","",""
"2470","key","n","n","16.665402684563883","500","250","psychophysics","386","1154571","0.0-386.0","612bb0204ad8e7e8bed041eb","6213d93231fc0cacf4f69107","6","","","","","0","4"
"null","","","null","","","","html-keyboard-response","387","1155085","0.0-387.0","612bb0204ad8e7e8bed041eb","6213d93231fc0cacf4f69107","","","","","<p style=""color:darkgreen;font-size:24px;"">Correct :)</p>","",""
"2588","key","v","v","16.66676129032257","500","250","psychophysics","388","1157675","0.0-388.0","612bb0204ad8e7e8bed041eb","6213d93231fc0cacf4f69107","6","","","","","1","2"
"null","","","null","","","","html-keyboard-response","389","1158177","0.0-389.0","612bb0204ad8e7e8bed041eb","6213d93231fc0cacf4f69107","","","","","<p style=""color:darkgreen;font-size:24px;"">Correct :)</p>","",""
"2405","key","v","v","16.6673172413789","500","250","psychophysics","390","1160587","0.0-390.0","612bb0204ad8e7e8bed041eb","6213d93231fc0cacf4f69107","6","","","","","0","3"
"null","","","null","","","","html-keyboard-response","391","1161089","0.0-391.0","612bb0204ad8e7e8bed041eb","6213d93231fc0cacf4f69107","","","","","<p style=""color:darkgreen;font-size:24px;"">Correct :)</p>","",""
"2456","key","v","v","16.666312925169105","500","250","psychophysics","392","1163547","0.0-392.0","612bb0204ad8e7e8bed041eb","6213d93231fc0cacf4f69107","6","","","","","0","3"
"null","","","null","","","","html-keyboard-response","393","1164049","0.0-393.0","612bb0204ad8e7e8bed041eb","6213d93231fc0cacf4f69107","","","","","<p style=""color:darkgreen;font-size:24px;"">Correct :)</p>","",""
"2584","key","n","n","16.666160256409338","500","250","psychophysics","394","1166636","0.0-394.0","612bb0204ad8e7e8bed041eb","6213d93231fc0cacf4f69107","6","","","","","1","6"
"null","","","null","","","","html-keyboard-response","395","1167138","0.0-395.0","612bb0204ad8e7e8bed041eb","6213d93231fc0cacf4f69107","","","","","<p style=""color:darkgreen;font-size:24px;"">Correct :)</p>","",""
"2504","","","n","","","","html-keyboard-response","396","1169643","0.0-396.0","612bb0204ad8e7e8bed041eb","6213d93231fc0cacf4f69107","","","","","<p> Last set of trials.  Here, the tasks are going to switch once again.  We are going to do 50 of these.  And then you are done with the experiment.  </p>  <br><br>  Ready? (press v or n)","",""
"3052","key","v","v","16.66834972677574","500","250","psychophysics","397","1172699","0.0-397.0","612bb0204ad8e7e8bed041eb","6213d93231fc0cacf4f69107","7","","","","","0","3"
"null","","","null","","","","html-keyboard-response","398","1173200","0.0-398.0","612bb0204ad8e7e8bed041eb","6213d93231fc0cacf4f69107","","","","","<p style=""color:darkgreen;font-size:24px;"">Correct :)</p>","",""
"2457","key","v","v","16.779312925170917","500","250","psychophysics","399","1175659","0.0-399.0","612bb0204ad8e7e8bed041eb","6213d93231fc0cacf4f69107","7","","","","","1","1"
"null","","","null","","","","html-keyboard-response","400","1176161","0.0-400.0","612bb0204ad8e7e8bed041eb","6213d93231fc0cacf4f69107","","","","","<p style=""color:darkgreen;font-size:24px;"">Correct :)</p>","",""
"2408","key","v","v","16.666986206896475","500","250","psychophysics","401","1178571","0.0-401.0","612bb0204ad8e7e8bed041eb","6213d93231fc0cacf4f69107","7","","","","","1","3"
"null","","","null","","","","html-keyboard-response","402","1179073","0.0-402.0","612bb0204ad8e7e8bed041eb","6213d93231fc0cacf4f69107","","","","","<p style=""color:darkgreen;font-size:24px;"">Correct :)</p>","",""
"2406","key","n","n","16.665027777777546","500","250","psychophysics","403","1181483","0.0-403.0","612bb0204ad8e7e8bed041eb","6213d93231fc0cacf4f69107","7","","","","","0","6"
"null","","","null","","","","html-keyboard-response","404","1181985","0.0-404.0","612bb0204ad8e7e8bed041eb","6213d93231fc0cacf4f69107","","","","","<p style=""color:darkgreen;font-size:24px;"">Correct :)</p>","",""
"2470","key","n","n","16.66766891891854","500","250","psychophysics","405","1184459","0.0-405.0","612bb0204ad8e7e8bed041eb","6213d93231fc0cacf4f69107","7","","","","","0","6"
"null","","","null","","","","html-keyboard-response","406","1184961","0.0-406.0","612bb0204ad8e7e8bed041eb","6213d93231fc0cacf4f69107","","","","","<p style=""color:darkgreen;font-size:24px;"">Correct :)</p>","",""
"2565","key","n","n","16.664603896103436","500","250","psychophysics","407","1187532","0.0-407.0","612bb0204ad8e7e8bed041eb","6213d93231fc0cacf4f69107","7","","","","","1","7"
"null","","","null","","","","html-keyboard-response","408","1188034","0.0-408.0","612bb0204ad8e7e8bed041eb","6213d93231fc0cacf4f69107","","","","","<p style=""color:darkgreen;font-size:24px;"">Correct :)</p>","",""
"2406","key","v","v","16.782222222223126","500","250","psychophysics","409","1190444","0.0-409.0","612bb0204ad8e7e8bed041eb","6213d93231fc0cacf4f69107","7","","","","","1","4"
"null","","","null","","","","html-keyboard-response","410","1190946","0.0-410.0","612bb0204ad8e7e8bed041eb","6213d93231fc0cacf4f69107","","","","","<p style=""color:darkgreen;font-size:24px;"">Correct :)</p>","",""
"2454","key","v","v","16.666385135135137","500","250","psychophysics","411","1193403","0.0-411.0","612bb0204ad8e7e8bed041eb","6213d93231fc0cacf4f69107","7","","","","","1","2"
"null","","","null","","","","html-keyboard-response","412","1193905","0.0-412.0","612bb0204ad8e7e8bed041eb","6213d93231fc0cacf4f69107","","","","","<p style=""color:darkgreen;font-size:24px;"">Correct :)</p>","",""
"2647","key","n","n","16.66635220125757","500","250","psychophysics","413","1196556","0.0-413.0","612bb0204ad8e7e8bed041eb","6213d93231fc0cacf4f69107","7","","","","","0","4"
"null","","","null","","","","html-keyboard-response","414","1197057","0.0-414.0","612bb0204ad8e7e8bed041eb","6213d93231fc0cacf4f69107","","","","","<p style=""color:darkgreen;font-size:24px;"">Correct :)</p>","",""
"3095","key","n","n","16.666456989247994","500","250","psychophysics","415","1200156","0.0-415.0","612bb0204ad8e7e8bed041eb","6213d93231fc0cacf4f69107","7","","","","","1","6"
"null","","","null","","","","html-keyboard-response","416","1200657","0.0-416.0","612bb0204ad8e7e8bed041eb","6213d93231fc0cacf4f69107","","","","","<p style=""color:darkgreen;font-size:24px;"">Correct :)</p>","",""
"2615","key","v","v","16.66650318471377","500","250","psychophysics","417","1203276","0.0-417.0","612bb0204ad8e7e8bed041eb","6213d93231fc0cacf4f69107","7","","","","","0","1"
"null","","","null","","","","html-keyboard-response","418","1203777","0.0-418.0","612bb0204ad8e7e8bed041eb","6213d93231fc0cacf4f69107","","","","","<p style=""color:darkgreen;font-size:24px;"">Correct :)</p>","",""
"2566","key","v","v","16.666636363636435","500","250","psychophysics","419","1206348","0.0-419.0","612bb0204ad8e7e8bed041eb","6213d93231fc0cacf4f69107","7","","","","","1","4"
"null","","","null","","","","html-keyboard-response","420","1206850","0.0-420.0","612bb0204ad8e7e8bed041eb","6213d93231fc0cacf4f69107","","","","","<p style=""color:darkgreen;font-size:24px;"">Correct :)</p>","",""
"2518","key","n","n","16.77833774834347","500","250","psychophysics","421","1209371","0.0-421.0","612bb0204ad8e7e8bed041eb","6213d93231fc0cacf4f69107","7","","","","","0","4"
"null","","","null","","","","html-keyboard-response","422","1209874","0.0-422.0","612bb0204ad8e7e8bed041eb","6213d93231fc0cacf4f69107","","","","","<p style=""color:darkgreen;font-size:24px;"">Correct :)</p>","",""
"2917","key","v","v","16.667908571429017","500","250","psychophysics","423","1212796","0.0-423.0","612bb0204ad8e7e8bed041eb","6213d93231fc0cacf4f69107","7","","","","","1","4"
"null","","","null","","","","html-keyboard-response","424","1213298","0.0-424.0","612bb0204ad8e7e8bed041eb","6213d93231fc0cacf4f69107","","","","","<p style=""color:darkgreen;font-size:24px;"">Correct :)</p>","",""
"2550","key","n","n","16.664701298701686","500","250","psychophysics","425","1215853","0.0-425.0","612bb0204ad8e7e8bed041eb","6213d93231fc0cacf4f69107","7","","","","","0","2"
"null","","","null","","","","html-keyboard-response","426","1216355","0.0-426.0","612bb0204ad8e7e8bed041eb","6213d93231fc0cacf4f69107","","","","","<p style=""color:darkgreen;font-size:24px;"">Correct :)</p>","",""
"3221","key","n","n","16.666476683937244","500","250","psychophysics","427","1219580","0.0-427.0","612bb0204ad8e7e8bed041eb","6213d93231fc0cacf4f69107","7","","","","","0","7"
"null","","","null","","","","html-keyboard-response","428","1220082","0.0-428.0","612bb0204ad8e7e8bed041eb","6213d93231fc0cacf4f69107","","","","","<p style=""color:red;font-size:24px;"">Error :(</p>","",""
"3206","key","n","n","16.666585492228347","500","250","psychophysics","429","1223292","0.0-429.0","612bb0204ad8e7e8bed041eb","6213d93231fc0cacf4f69107","7","","","","","0","2"
"null","","","null","","","","html-keyboard-response","430","1223793","0.0-430.0","612bb0204ad8e7e8bed041eb","6213d93231fc0cacf4f69107","","","","","<p style=""color:darkgreen;font-size:24px;"">Correct :)</p>","",""
"3591","key","n","n","16.665888888888595","500","250","psychophysics","431","1227388","0.0-431.0","612bb0204ad8e7e8bed041eb","6213d93231fc0cacf4f69107","7","","","","","0","6"
"null","","","null","","","","html-keyboard-response","432","1227889","0.0-432.0","612bb0204ad8e7e8bed041eb","6213d93231fc0cacf4f69107","","","","","<p style=""color:darkgreen;font-size:24px;"">Correct :)</p>","",""
"2454","key","v","v","16.665061224489566","500","250","psychophysics","433","1230348","0.0-433.0","612bb0204ad8e7e8bed041eb","6213d93231fc0cacf4f69107","7","","","","","1","1"
"null","","","null","","","","html-keyboard-response","434","1230849","0.0-434.0","612bb0204ad8e7e8bed041eb","6213d93231fc0cacf4f69107","","","","","<p style=""color:darkgreen;font-size:24px;"">Correct :)</p>","",""
"2823","key","n","n","16.764952662721903","500","250","psychophysics","435","1233676","0.0-435.0","612bb0204ad8e7e8bed041eb","6213d93231fc0cacf4f69107","7","","","","","1","2"
"null","","","null","","","","html-keyboard-response","436","1234178","0.0-436.0","612bb0204ad8e7e8bed041eb","6213d93231fc0cacf4f69107","","","","","<p style=""color:red;font-size:24px;"">Error :(</p>","",""
"2502","key","v","v","16.667300000001365","500","250","psychophysics","437","1236684","0.0-437.0","612bb0204ad8e7e8bed041eb","6213d93231fc0cacf4f69107","7","","","","","1","2"
"null","","","null","","","","html-keyboard-response","438","1237200","0.0-438.0","612bb0204ad8e7e8bed041eb","6213d93231fc0cacf4f69107","","","","","<p style=""color:darkgreen;font-size:24px;"">Correct :)</p>","",""
"2472","key","n","n","16.77848648648659","500","250","psychophysics","439","1239675","0.0-439.0","612bb0204ad8e7e8bed041eb","6213d93231fc0cacf4f69107","7","","","","","1","7"
"null","","","null","","","","html-keyboard-response","440","1240177","0.0-440.0","612bb0204ad8e7e8bed041eb","6213d93231fc0cacf4f69107","","","","","<p style=""color:darkgreen;font-size:24px;"">Correct :)</p>","",""
"2614","key","v","v","16.665828025477172","500","250","psychophysics","441","1242796","0.0-441.0","612bb0204ad8e7e8bed041eb","6213d93231fc0cacf4f69107","7","","","","","0","1"
"null","","","null","","","","html-keyboard-response","442","1243299","0.0-442.0","612bb0204ad8e7e8bed041eb","6213d93231fc0cacf4f69107","","","","","<p style=""color:darkgreen;font-size:24px;"">Correct :)</p>","",""
"2436","key","v","v","16.78263698630067","500","250","psychophysics","443","1245740","0.0-443.0","612bb0204ad8e7e8bed041eb","6213d93231fc0cacf4f69107","7","","","","","0","1"
"null","","","null","","","","html-keyboard-response","444","1246242","0.0-444.0","612bb0204ad8e7e8bed041eb","6213d93231fc0cacf4f69107","","","","","<p style=""color:darkgreen;font-size:24px;"">Correct :)</p>","",""
"3063","key","n","n","16.666869565216906","500","250","psychophysics","445","1249308","0.0-445.0","612bb0204ad8e7e8bed041eb","6213d93231fc0cacf4f69107","7","","","","","0","4"
"null","","","null","","","","html-keyboard-response","446","1249810","0.0-446.0","612bb0204ad8e7e8bed041eb","6213d93231fc0cacf4f69107","","","","","<p style=""color:darkgreen;font-size:24px;"">Correct :)</p>","",""
"2422","key","n","n","16.666226027397858","500","250","psychophysics","447","1252235","0.0-447.0","612bb0204ad8e7e8bed041eb","6213d93231fc0cacf4f69107","7","","","","","1","7"
"null","","","null","","","","html-keyboard-response","448","1252737","0.0-448.0","612bb0204ad8e7e8bed041eb","6213d93231fc0cacf4f69107","","","","","<p style=""color:darkgreen;font-size:24px;"">Correct :)</p>","",""
"2921","key","n","n","16.666708571429233","500","250","psychophysics","449","1255660","0.0-449.0","612bb0204ad8e7e8bed041eb","6213d93231fc0cacf4f69107","7","","","","","0","6"
"null","","","null","","","","html-keyboard-response","450","1256162","0.0-450.0","612bb0204ad8e7e8bed041eb","6213d93231fc0cacf4f69107","","","","","<p style=""color:darkgreen;font-size:24px;"">Correct :)</p>","",""
"2808","key","v","v","16.665621301775094","500","250","psychophysics","451","1258972","0.0-451.0","612bb0204ad8e7e8bed041eb","6213d93231fc0cacf4f69107","7","","","","","1","1"
"null","","","null","","","","html-keyboard-response","452","1259474","0.0-452.0","612bb0204ad8e7e8bed041eb","6213d93231fc0cacf4f69107","","","","","<p style=""color:darkgreen;font-size:24px;"">Correct :)</p>","",""
"2455","key","v","v","16.665727891156223","500","250","psychophysics","453","1261932","0.0-453.0","612bb0204ad8e7e8bed041eb","6213d93231fc0cacf4f69107","7","","","","","1","4"
"null","","","null","","","","html-keyboard-response","454","1262434","0.0-454.0","612bb0204ad8e7e8bed041eb","6213d93231fc0cacf4f69107","","","","","<p style=""color:darkgreen;font-size:24px;"">Correct :)</p>","",""
"2422","key","n","n","16.666041379311153","500","250","psychophysics","455","1264859","0.0-455.0","612bb0204ad8e7e8bed041eb","6213d93231fc0cacf4f69107","7","","","","","0","6"
"null","","","null","","","","html-keyboard-response","456","1265360","0.0-456.0","612bb0204ad8e7e8bed041eb","6213d93231fc0cacf4f69107","","","","","<p style=""color:darkgreen;font-size:24px;"">Correct :)</p>","",""
"2551","key","n","n","16.6657058823522","500","250","psychophysics","457","1267916","0.0-457.0","612bb0204ad8e7e8bed041eb","6213d93231fc0cacf4f69107","7","","","","","1","7"
"null","","","null","","","","html-keyboard-response","458","1268418","0.0-458.0","612bb0204ad8e7e8bed041eb","6213d93231fc0cacf4f69107","","","","","<p style=""color:darkgreen;font-size:24px;"">Correct :)</p>","",""
"2518","key","v","v","16.66652317880807","500","250","psychophysics","459","1270941","0.0-459.0","612bb0204ad8e7e8bed041eb","6213d93231fc0cacf4f69107","7","","","","","1","1"
"null","","","null","","","","html-keyboard-response","460","1271443","0.0-460.0","612bb0204ad8e7e8bed041eb","6213d93231fc0cacf4f69107","","","","","<p style=""color:darkgreen;font-size:24px;"">Correct :)</p>","",""
"3062","key","v","v","16.66603804347814","500","250","psychophysics","461","1274508","0.0-461.0","612bb0204ad8e7e8bed041eb","6213d93231fc0cacf4f69107","7","","","","","1","4"
"null","","","null","","","","html-keyboard-response","462","1275010","0.0-462.0","612bb0204ad8e7e8bed041eb","6213d93231fc0cacf4f69107","","","","","<p style=""color:darkgreen;font-size:24px;"">Correct :)</p>","",""
"3222","key","v","v","16.665742268041736","500","250","psychophysics","463","1278236","0.0-463.0","612bb0204ad8e7e8bed041eb","6213d93231fc0cacf4f69107","7","","","","","1","1"
"null","","","null","","","","html-keyboard-response","464","1278739","0.0-464.0","612bb0204ad8e7e8bed041eb","6213d93231fc0cacf4f69107","","","","","<p style=""color:darkgreen;font-size:24px;"">Correct :)</p>","",""
"3094","key","v","v","16.666263440859215","500","250","psychophysics","465","1281836","0.0-465.0","612bb0204ad8e7e8bed041eb","6213d93231fc0cacf4f69107","7","","","","","0","1"
"null","","","null","","","","html-keyboard-response","466","1282339","0.0-466.0","612bb0204ad8e7e8bed041eb","6213d93231fc0cacf4f69107","","","","","<p style=""color:darkgreen;font-size:24px;"">Correct :)</p>","",""
"2726","key","n","n","16.666292682927523","500","250","psychophysics","467","1285069","0.0-467.0","612bb0204ad8e7e8bed041eb","6213d93231fc0cacf4f69107","7","","","","","0","6"
"null","","","null","","","","html-keyboard-response","468","1285570","0.0-468.0","612bb0204ad8e7e8bed041eb","6213d93231fc0cacf4f69107","","","","","<p style=""color:darkgreen;font-size:24px;"">Correct :)</p>","",""
"2662","key","v","v","16.665743750000548","500","250","psychophysics","469","1288236","0.0-469.0","612bb0204ad8e7e8bed041eb","6213d93231fc0cacf4f69107","7","","","","","1","2"
"null","","","null","","","","html-keyboard-response","470","1288740","0.0-470.0","612bb0204ad8e7e8bed041eb","6213d93231fc0cacf4f69107","","","","","<p style=""color:darkgreen;font-size:24px;"">Correct :)</p>","",""
"3445","key","v","v","16.666207729468734","500","250","psychophysics","471","1292188","0.0-471.0","612bb0204ad8e7e8bed041eb","6213d93231fc0cacf4f69107","7","","","","","1","2"
"null","","","null","","","","html-keyboard-response","472","1292690","0.0-472.0","612bb0204ad8e7e8bed041eb","6213d93231fc0cacf4f69107","","","","","<p style=""color:darkgreen;font-size:24px;"">Correct :)</p>","",""
"3909","key","n","n","16.666412765957773","500","250","psychophysics","473","1296604","0.0-473.0","612bb0204ad8e7e8bed041eb","6213d93231fc0cacf4f69107","7","","","","","0","4"
"null","","","null","","","","html-keyboard-response","474","1297107","0.0-474.0","612bb0204ad8e7e8bed041eb","6213d93231fc0cacf4f69107","","","","","<p style=""color:darkgreen;font-size:24px;"">Correct :)</p>","",""
"3111","key","v","v","16.66687165775441","500","250","psychophysics","475","1300220","0.0-475.0","612bb0204ad8e7e8bed041eb","6213d93231fc0cacf4f69107","7","","","","","1","2"
"null","","","null","","","","html-keyboard-response","476","1300721","0.0-476.0","612bb0204ad8e7e8bed041eb","6213d93231fc0cacf4f69107","","","","","<p style=""color:darkgreen;font-size:24px;"">Correct :)</p>","",""
"3463","key","v","v","16.66660096153926","500","250","psychophysics","477","1304188","0.0-477.0","612bb0204ad8e7e8bed041eb","6213d93231fc0cacf4f69107","7","","","","","0","3"
"null","","","null","","","","html-keyboard-response","478","1304690","0.0-478.0","612bb0204ad8e7e8bed041eb","6213d93231fc0cacf4f69107","","","","","<p style=""color:darkgreen;font-size:24px;"">Correct :)</p>","",""
"2886","key","v","v","16.666479768785997","500","250","psychophysics","479","1307581","0.0-479.0","612bb0204ad8e7e8bed041eb","6213d93231fc0cacf4f69107","7","","","","","0","7"
"null","","","null","","","","html-keyboard-response","480","1308082","0.0-480.0","612bb0204ad8e7e8bed041eb","6213d93231fc0cacf4f69107","","","","","<p style=""color:darkgreen;font-size:24px;"">Correct :)</p>","",""
"4969","key","v","v","16.722953020134042","500","250","psychophysics","481","1313053","0.0-481.0","612bb0204ad8e7e8bed041eb","6213d93231fc0cacf4f69107","7","","","","","1","4"
"null","","","null","","","","html-keyboard-response","482","1313557","0.0-482.0","612bb0204ad8e7e8bed041eb","6213d93231fc0cacf4f69107","","","","","<p style=""color:darkgreen;font-size:24px;"">Correct :)</p>","",""
"2404","key","n","n","16.667326388888696","500","250","psychophysics","483","1315965","0.0-483.0","612bb0204ad8e7e8bed041eb","6213d93231fc0cacf4f69107","7","","","","","0","2"
"null","","","null","","","","html-keyboard-response","484","1316466","0.0-484.0","612bb0204ad8e7e8bed041eb","6213d93231fc0cacf4f69107","","","","","<p style=""color:darkgreen;font-size:24px;"">Correct :)</p>","",""
"2456","key","n","n","16.666520547944643","500","250","psychophysics","485","1318925","0.0-485.0","612bb0204ad8e7e8bed041eb","6213d93231fc0cacf4f69107","7","","","","","0","4"
"null","","","null","","","","html-keyboard-response","486","1319427","0.0-486.0","612bb0204ad8e7e8bed041eb","6213d93231fc0cacf4f69107","","","","","<p style=""color:darkgreen;font-size:24px;"">Correct :)</p>","",""
"2471","key","v","v","16.664832214765475","500","250","psychophysics","487","1321902","0.0-487.0","612bb0204ad8e7e8bed041eb","6213d93231fc0cacf4f69107","7","","","","","0","1"
"null","","","null","","","","html-keyboard-response","488","1322405","0.0-488.0","612bb0204ad8e7e8bed041eb","6213d93231fc0cacf4f69107","","","","","<p style=""color:darkgreen;font-size:24px;"">Correct :)</p>","",""
"2851","key","v","v","16.665912280702006","500","250","psychophysics","489","1325260","0.0-489.0","612bb0204ad8e7e8bed041eb","6213d93231fc0cacf4f69107","7","","","","","1","4"
"null","","","null","","","","html-keyboard-response","490","1325763","0.0-490.0","612bb0204ad8e7e8bed041eb","6213d93231fc0cacf4f69107","","","","","<p style=""color:darkgreen;font-size:24px;"">Correct :)</p>","",""
"2389","key","v","v","16.665534722222624","500","250","psychophysics","491","1328157","0.0-491.0","612bb0204ad8e7e8bed041eb","6213d93231fc0cacf4f69107","7","","","","","1","1"
"null","","","null","","","","html-keyboard-response","492","1328658","0.0-492.0","612bb0204ad8e7e8bed041eb","6213d93231fc0cacf4f69107","","","","","<p style=""color:darkgreen;font-size:24px;"">Correct :)</p>","",""
"2390","key","n","n","16.66634722222322","500","250","psychophysics","493","1331053","0.0-493.0","612bb0204ad8e7e8bed041eb","6213d93231fc0cacf4f69107","7","","","","","1","7"
"null","","","null","","","","html-keyboard-response","494","1331554","0.0-494.0","612bb0204ad8e7e8bed041eb","6213d93231fc0cacf4f69107","","","","","<p style=""color:darkgreen;font-size:24px;"">Correct :)</p>","",""
"2374","key","v","v","16.66627464788756","500","250","psychophysics","495","1333933","0.0-495.0","612bb0204ad8e7e8bed041eb","6213d93231fc0cacf4f69107","7","","","","","1","2"
"null","","","null","","","","html-keyboard-response","496","1334434","0.0-496.0","612bb0204ad8e7e8bed041eb","6213d93231fc0cacf4f69107","","","","","<p style=""color:darkgreen;font-size:24px;"">Correct :)</p>","",""
