"rt","response_type","key_press","response","avg_frame_time","center_x","center_y","trial_type","trial_index","time_elapsed","internal_node_id","pid","sid","phase","guide","targ","resp","stimulus","is5","stim"
"19167","key"," "," ","16.6603","500","250","psychophysics","0","19188","0.0-0.0","60f6e8201abc0ee65fa0fd64","6213c7893f870b7309947713","","","","","","",""
"4456","key"," "," ","16.66005970149254","500","250","psychophysics","1","23654","0.0-1.0","60f6e8201abc0ee65fa0fd64","6213c7893f870b7309947713","","","","","","",""
"2822","key"," "," ","16.660630952380956","500","250","psychophysics","2","26481","0.0-2.0","60f6e8201abc0ee65fa0fd64","6213c7893f870b7309947713","","","","","","",""
"1758","key"," "," ","16.66023584905661","500","250","psychophysics","3","28250","0.0-3.0","60f6e8201abc0ee65fa0fd64","6213c7893f870b7309947713","","","","","","",""
"6868","key"," "," ","16.660009732360095","500","250","psychophysics","4","35123","0.0-4.0","60f6e8201abc0ee65fa0fd64","6213c7893f870b7309947713","","","","","","",""
"12900","key"," "," ","16.659958656330748","500","250","psychophysics","5","48035","0.0-5.0","60f6e8201abc0ee65fa0fd64","6213c7893f870b7309947713","","","","","","",""
"6293","key"," "," ","16.65989153439153","500","250","psychophysics","6","54341","0.0-6.0","60f6e8201abc0ee65fa0fd64","6213c7893f870b7309947713","","","","","","",""
"4879","key"," "," ","16.659345890410943","500","250","psychophysics","7","59227","0.0-7.0","60f6e8201abc0ee65fa0fd64","6213c7893f870b7309947713","","","","","","",""
"5655","key"," "," ","16.66002064896756","500","250","psychophysics","8","64891","0.0-8.0","60f6e8201abc0ee65fa0fd64","6213c7893f870b7309947713","0","0","54","57","","",""
"3133","key"," "," ","16.660727272727257","500","250","psychophysics","9","68031","0.0-9.0","60f6e8201abc0ee65fa0fd64","6213c7893f870b7309947713","","","","","","",""
"3988","key"," "," ","16.65992083333331","500","250","psychophysics","10","72034","0.0-10.0","60f6e8201abc0ee65fa0fd64","6213c7893f870b7309947713","","","","","","",""
"4141","key"," "," ","16.660407258064527","500","250","psychophysics","11","76183","0.0-11.0","60f6e8201abc0ee65fa0fd64","6213c7893f870b7309947713","","","","","","",""
"2679","key"," "," ","16.660012499999993","500","250","psychophysics","12","78871","0.0-12.0","60f6e8201abc0ee65fa0fd64","6213c7893f870b7309947713","","","","","","",""
"3215","key"," "," ","16.66016062176162","500","250","psychophysics","13","82098","0.0-13.0","60f6e8201abc0ee65fa0fd64","6213c7893f870b7309947713","","","","","","",""
"5221","key"," "," ","16.660329073482444","500","250","psychophysics","14","87328","0.0-14.0","60f6e8201abc0ee65fa0fd64","6213c7893f870b7309947713","","","","","","",""
"3992","key"," "," ","16.65987029288704","500","250","psychophysics","15","91328","0.0-15.0","60f6e8201abc0ee65fa0fd64","6213c7893f870b7309947713","","","","","","",""
"3632","key"," "," ","16.66085714285709","500","250","psychophysics","16","94968","0.0-16.0","60f6e8201abc0ee65fa0fd64","6213c7893f870b7309947713","","","","","","",""
"5426","key"," "," ","16.66044171779138","500","250","psychophysics","17","100406","0.0-17.0","60f6e8201abc0ee65fa0fd64","6213c7893f870b7309947713","1","0","20","21","","",""
"8966","key"," "," ","16.66003538175046","500","250","psychophysics","18","109379","0.0-18.0","60f6e8201abc0ee65fa0fd64","6213c7893f870b7309947713","1","5","46","50","","",""
"6910","key"," "," ","16.659985542168677","500","250","psychophysics","19","116302","0.0-19.0","60f6e8201abc0ee65fa0fd64","6213c7893f870b7309947713","1","0","31","31","","",""
"9529","key"," "," ","16.659908931698755","500","250","psychophysics","20","125839","0.0-20.0","60f6e8201abc0ee65fa0fd64","6213c7893f870b7309947713","1","5","43","52","","",""
"4825","key"," "," ","16.659893103448297","500","250","psychophysics","21","130676","0.0-21.0","60f6e8201abc0ee65fa0fd64","6213c7893f870b7309947713","1","0","36","44","","",""
"9557","key"," "," ","16.659972076788865","500","250","psychophysics","22","140242","0.0-22.0","60f6e8201abc0ee65fa0fd64","6213c7893f870b7309947713","1","5","44","55","","",""
"5921","key"," "," ","16.66079718309855","500","250","psychophysics","23","146171","0.0-23.0","60f6e8201abc0ee65fa0fd64","6213c7893f870b7309947713","1","0","42","53","","",""
"4759","key"," "," ","16.660189473684245","500","250","psychophysics","24","150938","0.0-24.0","60f6e8201abc0ee65fa0fd64","6213c7893f870b7309947713","1","5","24","34","","",""
"4066","key"," "," ","16.659942386831315","500","250","psychophysics","25","155012","0.0-25.0","60f6e8201abc0ee65fa0fd64","6213c7893f870b7309947713","1","0","30","37","","",""
"6008","key"," "," ","16.660681440443195","500","250","psychophysics","26","161033","0.0-26.0","60f6e8201abc0ee65fa0fd64","6213c7893f870b7309947713","1","5","44","60","","",""
"7825","key"," "," ","16.66061833688703","500","250","psychophysics","27","168866","0.0-27.0","60f6e8201abc0ee65fa0fd64","6213c7893f870b7309947713","1","0","30","69","","",""
"5448","key"," "," ","16.660607361963212","500","250","psychophysics","28","174323","0.0-28.0","60f6e8201abc0ee65fa0fd64","6213c7893f870b7309947713","1","5","57","81","","",""
"7856","key"," "," ","16.660243644067815","500","250","psychophysics","29","182190","0.0-29.0","60f6e8201abc0ee65fa0fd64","6213c7893f870b7309947713","1","0","31","49","","",""
"5755","key"," "," ","16.66082028985501","500","250","psychophysics","30","187955","0.0-30.0","60f6e8201abc0ee65fa0fd64","6213c7893f870b7309947713","1","5","40","62","","",""
"5319","key"," "," ","16.660062893081744","500","250","psychophysics","31","193281","0.0-31.0","60f6e8201abc0ee65fa0fd64","6213c7893f870b7309947713","1","0","26","41","","",""
"5575","key"," "," ","16.660844776119323","500","250","psychophysics","32","198869","0.0-32.0","60f6e8201abc0ee65fa0fd64","6213c7893f870b7309947713","1","5","54","66","","",""
"5408","key"," "," ","16.66000617283952","500","250","psychophysics","33","204285","0.0-33.0","60f6e8201abc0ee65fa0fd64","6213c7893f870b7309947713","1","0","31","48","","",""
"5148","key"," "," ","16.66028246753246","500","250","psychophysics","34","209440","0.0-34.0","60f6e8201abc0ee65fa0fd64","6213c7893f870b7309947713","1","5","46","61","","",""
"5488","key"," "," ","16.659948328267543","500","250","psychophysics","35","214939","0.0-35.0","60f6e8201abc0ee65fa0fd64","6213c7893f870b7309947713","1","0","44","64","","",""
"4170","key"," "," ","16.660380000000004","500","250","psychophysics","36","219120","0.0-36.0","60f6e8201abc0ee65fa0fd64","6213c7893f870b7309947713","1","5","21","47","","",""
"2518","key"," "," ","16.661152317880813","500","250","psychophysics","37","221650","0.0-37.0","60f6e8201abc0ee65fa0fd64","6213c7893f870b7309947713","","","","","","",""
"2804","key"," "," ","16.660821428571495","500","250","psychophysics","38","224466","0.0-38.0","60f6e8201abc0ee65fa0fd64","6213c7893f870b7309947713","","","","","","",""
"1544","key"," "," ","16.661602150537735","500","250","psychophysics","39","226023","0.0-39.0","60f6e8201abc0ee65fa0fd64","6213c7893f870b7309947713","","","","","","",""
"4577","key"," "," ","16.66058394160584","500","250","psychophysics","40","230608","0.0-40.0","60f6e8201abc0ee65fa0fd64","6213c7893f870b7309947713","2","0","20","38","","",""
"3693","key"," "," ","16.65980180180178","500","250","psychophysics","41","234318","0.0-41.0","60f6e8201abc0ee65fa0fd64","6213c7893f870b7309947713","","","","","","",""
"7539","key"," "," ","16.659938053097317","500","250","psychophysics","42","241866","0.0-42.0","60f6e8201abc0ee65fa0fd64","6213c7893f870b7309947713","2","0","54","68","","",""
"1899","key"," "," ","16.6596637168143","500","250","psychophysics","43","243772","0.0-43.0","60f6e8201abc0ee65fa0fd64","6213c7893f870b7309947713","","","","","","",""
"3921","key"," "," ","16.660531914893642","500","250","psychophysics","44","247705","0.0-44.0","60f6e8201abc0ee65fa0fd64","6213c7893f870b7309947713","2","0","28","42","","",""
"1522","key"," "," ","16.66199999999998","500","250","psychophysics","45","249236","0.0-45.0","60f6e8201abc0ee65fa0fd64","6213c7893f870b7309947713","","","","","","",""
"4725","key"," "," ","16.660371024735014","500","250","psychophysics","46","253970","0.0-46.0","60f6e8201abc0ee65fa0fd64","6213c7893f870b7309947713","2","0","35","22","","",""
"1233","key"," "," ","16.658310810810764","500","250","psychophysics","47","255213","0.0-47.0","60f6e8201abc0ee65fa0fd64","6213c7893f870b7309947713","","","","","","",""
"4144","key"," "," ","16.66124596774194","500","250","psychophysics","48","259360","0.0-48.0","60f6e8201abc0ee65fa0fd64","6213c7893f870b7309947713","2","0","49","54","","",""
"1381","key"," "," ","16.65982926829268","500","250","psychophysics","49","260749","0.0-49.0","60f6e8201abc0ee65fa0fd64","6213c7893f870b7309947713","","","","","","",""
"2903","key"," "," ","16.66117241379307","500","250","psychophysics","50","263664","0.0-50.0","60f6e8201abc0ee65fa0fd64","6213c7893f870b7309947713","2","0","32","41","","",""
"1065","key"," "," ","16.662437500000124","500","250","psychophysics","51","264740","0.0-51.0","60f6e8201abc0ee65fa0fd64","6213c7893f870b7309947713","","","","","","",""
"5931","key"," "," ","16.659918309859176","500","250","psychophysics","52","270679","0.0-52.0","60f6e8201abc0ee65fa0fd64","6213c7893f870b7309947713","2","0","58","45","","",""
"1172","key"," "," ","16.661999999999534","500","250","psychophysics","53","271862","0.0-53.0","60f6e8201abc0ee65fa0fd64","6213c7893f870b7309947713","","","","","","",""
"3922","key"," "," ","16.66088510638306","500","250","psychophysics","54","275795","0.0-54.0","60f6e8201abc0ee65fa0fd64","6213c7893f870b7309947713","2","0","30","47","","",""
"1066","key"," "," ","16.65985937500045","500","250","psychophysics","55","276873","0.0-55.0","60f6e8201abc0ee65fa0fd64","6213c7893f870b7309947713","","","","","","",""
"2624","key"," "," ","16.661662420382125","500","250","psychophysics","56","279502","0.0-56.0","60f6e8201abc0ee65fa0fd64","6213c7893f870b7309947713","2","0","40","26","","",""
"1017","key"," "," ","16.659133333332527","500","250","psychophysics","57","280527","0.0-57.0","60f6e8201abc0ee65fa0fd64","6213c7893f870b7309947713","","","","","","",""
"4066","key"," "," ","16.660864754098316","500","250","psychophysics","58","284603","0.0-58.0","60f6e8201abc0ee65fa0fd64","6213c7893f870b7309947713","2","0","28","37","","",""
"1113","key"," "," ","16.658954545455124","500","250","psychophysics","59","285723","0.0-59.0","60f6e8201abc0ee65fa0fd64","6213c7893f870b7309947713","","","","","","",""
"3691","key"," "," ","16.65930769230767","500","250","psychophysics","60","289424","0.0-60.0","60f6e8201abc0ee65fa0fd64","6213c7893f870b7309947713","2","0","26","34","","",""
"904","key"," "," ","16.660388888888217","500","250","psychophysics","61","290329","0.0-61.0","60f6e8201abc0ee65fa0fd64","6213c7893f870b7309947713","","","","","","",""
"5392","key"," "," ","16.66091925465836","500","250","psychophysics","62","295723","0.0-62.0","60f6e8201abc0ee65fa0fd64","6213c7893f870b7309947713","2","0","59","54","","",""
"1278","key"," "," ","16.66262337662334","500","250","psychophysics","63","297013","0.0-63.0","60f6e8201abc0ee65fa0fd64","6213c7893f870b7309947713","","","","","","",""
"3325","key"," "," ","16.66050753768869","500","250","psychophysics","64","300345","0.0-64.0","60f6e8201abc0ee65fa0fd64","6213c7893f870b7309947713","2","0","29","33","","",""
"950","key"," "," ","16.657249999999685","500","250","psychophysics","65","301302","0.0-65.0","60f6e8201abc0ee65fa0fd64","6213c7893f870b7309947713","","","","","","",""
"2799","key"," "," ","16.660815476190432","500","250","psychophysics","66","304113","0.0-66.0","60f6e8201abc0ee65fa0fd64","6213c7893f870b7309947713","2","0","35","32","","",""
"873","key"," "," ","16.66153846153779","500","250","psychophysics","67","304994","0.0-67.0","60f6e8201abc0ee65fa0fd64","6213c7893f870b7309947713","","","","","","",""
"2706","key"," "," ","16.66023456790114","500","250","psychophysics","68","307708","0.0-68.0","60f6e8201abc0ee65fa0fd64","6213c7893f870b7309947713","2","0","20","23","","",""
"867","key"," "," ","16.659549019607606","500","250","psychophysics","69","308583","0.0-69.0","60f6e8201abc0ee65fa0fd64","6213c7893f870b7309947713","","","","","","",""
"2268","key"," "," ","16.661227941176655","500","250","psychophysics","70","310863","0.0-70.0","60f6e8201abc0ee65fa0fd64","6213c7893f870b7309947713","","","","","","",""
"2208","key"," "," ","16.66075000000031","500","250","psychophysics","71","313082","0.0-71.0","60f6e8201abc0ee65fa0fd64","6213c7893f870b7309947713","","","","","","",""
"5395","key"," "," ","16.660246913580377","500","250","psychophysics","72","318484","0.0-72.0","60f6e8201abc0ee65fa0fd64","6213c7893f870b7309947713","3","5","27","25","","",""
"4595","key"," "," ","16.659912727272815","500","250","psychophysics","73","323087","0.0-73.0","60f6e8201abc0ee65fa0fd64","6213c7893f870b7309947713","3","0","40","32","","",""
"4873","key"," "," ","16.660589041095864","500","250","psychophysics","74","327969","0.0-74.0","60f6e8201abc0ee65fa0fd64","6213c7893f870b7309947713","3","5","41","29","","",""
"5138","key"," "," ","16.66068831168821","500","250","psychophysics","75","333114","0.0-75.0","60f6e8201abc0ee65fa0fd64","6213c7893f870b7309947713","3","0","60","43","","",""
"3418","key"," "," ","16.660470588235174","500","250","psychophysics","76","336539","0.0-76.0","60f6e8201abc0ee65fa0fd64","6213c7893f870b7309947713","3","5","31","27","","",""
"3931","key"," "," ","16.660940677966178","500","250","psychophysics","77","340481","0.0-77.0","60f6e8201abc0ee65fa0fd64","6213c7893f870b7309947713","3","0","50","45","","",""
"3028","key"," "," ","16.660243093922738","500","250","psychophysics","78","343516","0.0-78.0","60f6e8201abc0ee65fa0fd64","6213c7893f870b7309947713","3","5","38","31","","",""
"1796","key"," "," ","16.662342592592555","500","250","psychophysics","79","345324","0.0-79.0","60f6e8201abc0ee65fa0fd64","6213c7893f870b7309947713","3","0","22","18","","",""
"4017","key"," "," ","16.65992916666655","500","250","psychophysics","80","349349","0.0-80.0","60f6e8201abc0ee65fa0fd64","6213c7893f870b7309947713","3","5","48","24","","",""
"4470","key"," "," ","16.660757462686508","500","250","psychophysics","81","353829","0.0-81.0","60f6e8201abc0ee65fa0fd64","6213c7893f870b7309947713","3","0","44","42","","",""
"2418","key"," "," ","16.661158620689772","500","250","psychophysics","82","356257","0.0-82.0","60f6e8201abc0ee65fa0fd64","6213c7893f870b7309947713","3","5","28","22","","",""
"3173","key"," "," ","16.660610526315807","500","250","psychophysics","83","359438","0.0-83.0","60f6e8201abc0ee65fa0fd64","6213c7893f870b7309947713","3","0","48","38","","",""
"2022","key"," "," ","16.6598677685949","500","250","psychophysics","84","361468","0.0-84.0","60f6e8201abc0ee65fa0fd64","6213c7893f870b7309947713","3","5","48","25","","",""
"2610","key"," "," ","16.661102564102457","500","250","psychophysics","85","364085","0.0-85.0","60f6e8201abc0ee65fa0fd64","6213c7893f870b7309947713","3","0","43","24","","",""
"2308","key"," "," ","16.660536231883917","500","250","psychophysics","86","366401","0.0-86.0","60f6e8201abc0ee65fa0fd64","6213c7893f870b7309947713","3","5","43","17","","",""
"3740","key"," "," ","16.659772321428527","500","250","psychophysics","87","370148","0.0-87.0","60f6e8201abc0ee65fa0fd64","6213c7893f870b7309947713","3","0","28","18","","",""
"2307","key"," "," ","16.660623188405566","500","250","psychophysics","88","372463","0.0-88.0","60f6e8201abc0ee65fa0fd64","6213c7893f870b7309947713","3","5","30","14","","",""
"2329","key"," "," ","16.660064748201098","500","250","psychophysics","89","374801","0.0-89.0","60f6e8201abc0ee65fa0fd64","6213c7893f870b7309947713","3","0","42","25","","",""
"1839","key"," "," ","16.66101818181818","500","250","psychophysics","90","376648","0.0-90.0","60f6e8201abc0ee65fa0fd64","6213c7893f870b7309947713","3","5","21","17","","",""
"3250","key"," "," ","16.66065979381446","500","250","psychophysics","91","379903","0.0-91.0","60f6e8201abc0ee65fa0fd64","6213c7893f870b7309947713","3","0","53","27","","",""
"1697","key"," "," ","16.661745098039425","500","250","psychophysics","92","381610","0.0-92.0","60f6e8201abc0ee65fa0fd64","6213c7893f870b7309947713","","","","","","",""
"28994","","","v","","","","html-keyboard-response","93","410608","0.0-93.0","60f6e8201abc0ee65fa0fd64","6213c7893f870b7309947713","","","","","<p> In this part of the experiment, we are going present digits 1, 2, 3, 4, 6, 7, 8, and 9.  Notice that 5 is missing.  Your job is to say whether the presented digit is less than or greater than 5.  For example, 3 is less than 5 and 7 is greater than 5.  If the digit is less than 5, press the v key; if it is greater than 5, press the n key. We are going to do 200 of these in total, but only 50 righ now. They go real fast.</p>  <br><br>  Ready? (press v or n)","",""
"3017","key","n","n","16.660192307692142","500","250","psychophysics","94","413632","0.0-94.0","60f6e8201abc0ee65fa0fd64","6213c7893f870b7309947713","4","","","","","1","6"
"null","","","null","","","","html-keyboard-response","95","414136","0.0-95.0","60f6e8201abc0ee65fa0fd64","6213c7893f870b7309947713","","","","","<p style=""color:darkgreen;font-size:24px;"">Correct :)</p>","",""
"2612","key","v","v","16.661585987260814","500","250","psychophysics","96","416754","0.0-96.0","60f6e8201abc0ee65fa0fd64","6213c7893f870b7309947713","4","","","","","1","1"
"null","","","null","","","","html-keyboard-response","97","417257","0.0-97.0","60f6e8201abc0ee65fa0fd64","6213c7893f870b7309947713","","","","","<p style=""color:darkgreen;font-size:24px;"">Correct :)</p>","",""
"2593","key","v","v","16.658341935483527","500","250","psychophysics","98","419855","0.0-98.0","60f6e8201abc0ee65fa0fd64","6213c7893f870b7309947713","4","","","","","1","4"
"null","","","null","","","","html-keyboard-response","99","420358","0.0-99.0","60f6e8201abc0ee65fa0fd64","6213c7893f870b7309947713","","","","","<p style=""color:darkgreen;font-size:24px;"">Correct :)</p>","",""
"2554","key","v","v","16.658366013071774","500","250","psychophysics","100","422918","0.0-100.0","60f6e8201abc0ee65fa0fd64","6213c7893f870b7309947713","4","","","","","1","4"
"null","","","null","","","","html-keyboard-response","101","423419","0.0-101.0","60f6e8201abc0ee65fa0fd64","6213c7893f870b7309947713","","","","","<p style=""color:darkgreen;font-size:24px;"">Correct :)</p>","",""
"2444","key","n","n","16.661714285714268","500","250","psychophysics","102","425867","0.0-102.0","60f6e8201abc0ee65fa0fd64","6213c7893f870b7309947713","4","","","","","1","7"
"null","","","null","","","","html-keyboard-response","103","426370","0.0-103.0","60f6e8201abc0ee65fa0fd64","6213c7893f870b7309947713","","","","","<p style=""color:darkgreen;font-size:24px;"">Correct :)</p>","",""
"2496","key","v","v","16.658706666666937","500","250","psychophysics","104","428874","0.0-104.0","60f6e8201abc0ee65fa0fd64","6213c7893f870b7309947713","4","","","","","1","1"
"null","","","null","","","","html-keyboard-response","105","429378","0.0-105.0","60f6e8201abc0ee65fa0fd64","6213c7893f870b7309947713","","","","","<p style=""color:darkgreen;font-size:24px;"">Correct :)</p>","",""
"2486","key","v","v","16.659389261745037","500","250","psychophysics","106","431869","0.0-106.0","60f6e8201abc0ee65fa0fd64","6213c7893f870b7309947713","4","","","","","1","1"
"null","","","null","","","","html-keyboard-response","107","432374","0.0-107.0","60f6e8201abc0ee65fa0fd64","6213c7893f870b7309947713","","","","","<p style=""color:darkgreen;font-size:24px;"">Correct :)</p>","",""
"2482","key","v","v","16.66017449664416","500","250","psychophysics","108","434862","0.0-108.0","60f6e8201abc0ee65fa0fd64","6213c7893f870b7309947713","4","","","","","1","1"
"null","","","null","","","","html-keyboard-response","109","435372","0.0-109.0","60f6e8201abc0ee65fa0fd64","6213c7893f870b7309947713","","","","","<p style=""color:darkgreen;font-size:24px;"">Correct :)</p>","",""
"2554","key","n","n","16.661307189542818","500","250","psychophysics","110","437932","0.0-110.0","60f6e8201abc0ee65fa0fd64","6213c7893f870b7309947713","4","","","","","1","2"
"null","","","null","","","","html-keyboard-response","111","438436","0.0-111.0","60f6e8201abc0ee65fa0fd64","6213c7893f870b7309947713","","","","","<p style=""color:red;font-size:24px;"">Error :(</p>","",""
"2602","key","n","n","16.660506410256346","500","250","psychophysics","112","441043","0.0-112.0","60f6e8201abc0ee65fa0fd64","6213c7893f870b7309947713","4","","","","","1","7"
"null","","","null","","","","html-keyboard-response","113","441547","0.0-113.0","60f6e8201abc0ee65fa0fd64","6213c7893f870b7309947713","","","","","<p style=""color:darkgreen;font-size:24px;"">Correct :)</p>","",""
"2622","key","n","n","16.765808917197567","500","250","psychophysics","114","444173","0.0-114.0","60f6e8201abc0ee65fa0fd64","6213c7893f870b7309947713","4","","","","","1","9"
"null","","","null","","","","html-keyboard-response","115","444676","0.0-115.0","60f6e8201abc0ee65fa0fd64","6213c7893f870b7309947713","","","","","<p style=""color:darkgreen;font-size:24px;"">Correct :)</p>","",""
"2527","key","n","n","16.65997368421047","500","250","psychophysics","116","447211","0.0-116.0","60f6e8201abc0ee65fa0fd64","6213c7893f870b7309947713","4","","","","","1","7"
"null","","","null","","","","html-keyboard-response","117","447714","0.0-117.0","60f6e8201abc0ee65fa0fd64","6213c7893f870b7309947713","","","","","<p style=""color:darkgreen;font-size:24px;"">Correct :)</p>","",""
"2700","key","n","n","16.65979629629622","500","250","psychophysics","118","450420","0.0-118.0","60f6e8201abc0ee65fa0fd64","6213c7893f870b7309947713","4","","","","","1","6"
"null","","","null","","","","html-keyboard-response","119","450924","0.0-119.0","60f6e8201abc0ee65fa0fd64","6213c7893f870b7309947713","","","","","<p style=""color:darkgreen;font-size:24px;"">Correct :)</p>","",""
"2600","key","n","n","16.65858598726106","500","250","psychophysics","120","453530","0.0-120.0","60f6e8201abc0ee65fa0fd64","6213c7893f870b7309947713","4","","","","","1","9"
"null","","","null","","","","html-keyboard-response","121","454034","0.0-121.0","60f6e8201abc0ee65fa0fd64","6213c7893f870b7309947713","","","","","<p style=""color:darkgreen;font-size:24px;"">Correct :)</p>","",""
"2575","key","n","n","16.659406451613176","500","250","psychophysics","122","456616","0.0-122.0","60f6e8201abc0ee65fa0fd64","6213c7893f870b7309947713","4","","","","","1","8"
"null","","","null","","","","html-keyboard-response","123","457119","0.0-123.0","60f6e8201abc0ee65fa0fd64","6213c7893f870b7309947713","","","","","<p style=""color:darkgreen;font-size:24px;"">Correct :)</p>","",""
"2539","key","n","n","16.659418300653616","500","250","psychophysics","124","459663","0.0-124.0","60f6e8201abc0ee65fa0fd64","6213c7893f870b7309947713","4","","","","","1","6"
"null","","","null","","","","html-keyboard-response","125","460167","0.0-125.0","60f6e8201abc0ee65fa0fd64","6213c7893f870b7309947713","","","","","<p style=""color:darkgreen;font-size:24px;"">Correct :)</p>","",""
"2547","key","v","v","16.6586405228758","500","250","psychophysics","126","462719","0.0-126.0","60f6e8201abc0ee65fa0fd64","6213c7893f870b7309947713","4","","","","","1","4"
"null","","","null","","","","html-keyboard-response","127","463222","0.0-127.0","60f6e8201abc0ee65fa0fd64","6213c7893f870b7309947713","","","","","<p style=""color:darkgreen;font-size:24px;"">Correct :)</p>","",""
"2632","key","v","v","16.660936708860852","500","250","psychophysics","128","465859","0.0-128.0","60f6e8201abc0ee65fa0fd64","6213c7893f870b7309947713","4","","","","","1","1"
"null","","","null","","","","html-keyboard-response","129","466363","0.0-129.0","60f6e8201abc0ee65fa0fd64","6213c7893f870b7309947713","","","","","<p style=""color:darkgreen;font-size:24px;"">Correct :)</p>","",""
"2504","key","v","v","16.65982781456967","500","250","psychophysics","130","468873","0.0-130.0","60f6e8201abc0ee65fa0fd64","6213c7893f870b7309947713","4","","","","","1","1"
"null","","","null","","","","html-keyboard-response","131","469377","0.0-131.0","60f6e8201abc0ee65fa0fd64","6213c7893f870b7309947713","","","","","<p style=""color:darkgreen;font-size:24px;"">Correct :)</p>","",""
"2643","key","n","n","16.658496855345916","500","250","psychophysics","132","472027","0.0-132.0","60f6e8201abc0ee65fa0fd64","6213c7893f870b7309947713","4","","","","","1","8"
"null","","","null","","","","html-keyboard-response","133","472529","0.0-133.0","60f6e8201abc0ee65fa0fd64","6213c7893f870b7309947713","","","","","<p style=""color:darkgreen;font-size:24px;"">Correct :)</p>","",""
"2573","key","n","n","16.659696774193343","500","250","psychophysics","134","475107","0.0-134.0","60f6e8201abc0ee65fa0fd64","6213c7893f870b7309947713","4","","","","","1","8"
"null","","","null","","","","html-keyboard-response","135","475611","0.0-135.0","60f6e8201abc0ee65fa0fd64","6213c7893f870b7309947713","","","","","<p style=""color:darkgreen;font-size:24px;"">Correct :)</p>","",""
"2574","key","v","v","16.65960000000008","500","250","psychophysics","136","478195","0.0-136.0","60f6e8201abc0ee65fa0fd64","6213c7893f870b7309947713","4","","","","","1","1"
"null","","","null","","","","html-keyboard-response","137","478699","0.0-137.0","60f6e8201abc0ee65fa0fd64","6213c7893f870b7309947713","","","","","<p style=""color:darkgreen;font-size:24px;"">Correct :)</p>","",""
"2583","key","n","n","16.766432258064274","500","250","psychophysics","138","481290","0.0-138.0","60f6e8201abc0ee65fa0fd64","6213c7893f870b7309947713","4","","","","","1","8"
"null","","","null","","","","html-keyboard-response","139","481794","0.0-139.0","60f6e8201abc0ee65fa0fd64","6213c7893f870b7309947713","","","","","<p style=""color:darkgreen;font-size:24px;"">Correct :)</p>","",""
"2702","key","n","n","16.659926380368272","500","250","psychophysics","140","484502","0.0-140.0","60f6e8201abc0ee65fa0fd64","6213c7893f870b7309947713","4","","","","","1","7"
"null","","","null","","","","html-keyboard-response","141","485006","0.0-141.0","60f6e8201abc0ee65fa0fd64","6213c7893f870b7309947713","","","","","<p style=""color:darkgreen;font-size:24px;"">Correct :)</p>","",""
"2500","key","v","v","16.659100000000326","500","250","psychophysics","142","487512","0.0-142.0","60f6e8201abc0ee65fa0fd64","6213c7893f870b7309947713","4","","","","","1","2"
"null","","","null","","","","html-keyboard-response","143","488016","0.0-143.0","60f6e8201abc0ee65fa0fd64","6213c7893f870b7309947713","","","","","<p style=""color:darkgreen;font-size:24px;"">Correct :)</p>","",""
"2545","key","v","v","16.660196078431053","500","250","psychophysics","144","490567","0.0-144.0","60f6e8201abc0ee65fa0fd64","6213c7893f870b7309947713","4","","","","","1","1"
"null","","","null","","","","html-keyboard-response","145","491071","0.0-145.0","60f6e8201abc0ee65fa0fd64","6213c7893f870b7309947713","","","","","<p style=""color:darkgreen;font-size:24px;"">Correct :)</p>","",""
"2727","key","v","v","16.6595670731707","500","250","psychophysics","146","493803","0.0-146.0","60f6e8201abc0ee65fa0fd64","6213c7893f870b7309947713","4","","","","","1","4"
"null","","","null","","","","html-keyboard-response","147","494308","0.0-147.0","60f6e8201abc0ee65fa0fd64","6213c7893f870b7309947713","","","","","<p style=""color:darkgreen;font-size:24px;"">Correct :)</p>","",""
"2499","key","n","n","16.658549668874116","500","250","psychophysics","148","496813","0.0-148.0","60f6e8201abc0ee65fa0fd64","6213c7893f870b7309947713","4","","","","","1","9"
"null","","","null","","","","html-keyboard-response","149","497315","0.0-149.0","60f6e8201abc0ee65fa0fd64","6213c7893f870b7309947713","","","","","<p style=""color:darkgreen;font-size:24px;"">Correct :)</p>","",""
"2574","key","n","n","16.66106451612882","500","250","psychophysics","150","499895","0.0-150.0","60f6e8201abc0ee65fa0fd64","6213c7893f870b7309947713","4","","","","","1","8"
"null","","","null","","","","html-keyboard-response","151","500399","0.0-151.0","60f6e8201abc0ee65fa0fd64","6213c7893f870b7309947713","","","","","<p style=""color:darkgreen;font-size:24px;"">Correct :)</p>","",""
"2560","key","v","v","16.65748051948038","500","250","psychophysics","152","502964","0.0-152.0","60f6e8201abc0ee65fa0fd64","6213c7893f870b7309947713","4","","","","","1","3"
"null","","","null","","","","html-keyboard-response","153","503466","0.0-153.0","60f6e8201abc0ee65fa0fd64","6213c7893f870b7309947713","","","","","<p style=""color:darkgreen;font-size:24px;"">Correct :)</p>","",""
"2540","key","n","n","16.660980392156894","500","250","psychophysics","154","506009","0.0-154.0","60f6e8201abc0ee65fa0fd64","6213c7893f870b7309947713","4","","","","","1","8"
"null","","","null","","","","html-keyboard-response","155","506512","0.0-155.0","60f6e8201abc0ee65fa0fd64","6213c7893f870b7309947713","","","","","<p style=""color:darkgreen;font-size:24px;"">Correct :)</p>","",""
"2597","key","n","n","16.660064102564295","500","250","psychophysics","156","509114","0.0-156.0","60f6e8201abc0ee65fa0fd64","6213c7893f870b7309947713","4","","","","","1","8"
"null","","","null","","","","html-keyboard-response","157","509617","0.0-157.0","60f6e8201abc0ee65fa0fd64","6213c7893f870b7309947713","","","","","<p style=""color:darkgreen;font-size:24px;"">Correct :)</p>","",""
"2629","key","n","n","16.660208860759646","500","250","psychophysics","158","512253","0.0-158.0","60f6e8201abc0ee65fa0fd64","6213c7893f870b7309947713","4","","","","","1","7"
"null","","","null","","","","html-keyboard-response","159","512758","0.0-159.0","60f6e8201abc0ee65fa0fd64","6213c7893f870b7309947713","","","","","<p style=""color:darkgreen;font-size:24px;"">Correct :)</p>","",""
"2644","key","v","v","16.660157232704197","500","250","psychophysics","160","515410","0.0-160.0","60f6e8201abc0ee65fa0fd64","6213c7893f870b7309947713","4","","","","","1","4"
"null","","","null","","","","html-keyboard-response","161","515913","0.0-161.0","60f6e8201abc0ee65fa0fd64","6213c7893f870b7309947713","","","","","<p style=""color:darkgreen;font-size:24px;"">Correct :)</p>","",""
"2627","key","v","v","16.659588607595097","500","250","psychophysics","162","518546","0.0-162.0","60f6e8201abc0ee65fa0fd64","6213c7893f870b7309947713","4","","","","","1","3"
"null","","","null","","","","html-keyboard-response","163","519050","0.0-163.0","60f6e8201abc0ee65fa0fd64","6213c7893f870b7309947713","","","","","<p style=""color:darkgreen;font-size:24px;"">Correct :)</p>","",""
"2567","key","v","v","16.65934415584409","500","250","psychophysics","164","521625","0.0-164.0","60f6e8201abc0ee65fa0fd64","6213c7893f870b7309947713","4","","","","","1","4"
"null","","","null","","","","html-keyboard-response","165","522127","0.0-165.0","60f6e8201abc0ee65fa0fd64","6213c7893f870b7309947713","","","","","<p style=""color:darkgreen;font-size:24px;"">Correct :)</p>","",""
"3506","key","n","n","16.660559241706007","500","250","psychophysics","166","525642","0.0-166.0","60f6e8201abc0ee65fa0fd64","6213c7893f870b7309947713","4","","","","","1","7"
"null","","","null","","","","html-keyboard-response","167","526148","0.0-167.0","60f6e8201abc0ee65fa0fd64","6213c7893f870b7309947713","","","","","<p style=""color:darkgreen;font-size:24px;"">Correct :)</p>","",""
"2535","key","v","v","16.658960784313702","500","250","psychophysics","168","528700","0.0-168.0","60f6e8201abc0ee65fa0fd64","6213c7893f870b7309947713","4","","","","","1","1"
"null","","","null","","","","html-keyboard-response","169","529204","0.0-169.0","60f6e8201abc0ee65fa0fd64","6213c7893f870b7309947713","","","","","<p style=""color:darkgreen;font-size:24px;"">Correct :)</p>","",""
"3940","key","v","v","16.660151898734203","500","250","psychophysics","170","533154","0.0-170.0","60f6e8201abc0ee65fa0fd64","6213c7893f870b7309947713","4","","","","","1","4"
"null","","","null","","","","html-keyboard-response","171","533657","0.0-171.0","60f6e8201abc0ee65fa0fd64","6213c7893f870b7309947713","","","","","<p style=""color:darkgreen;font-size:24px;"">Correct :)</p>","",""
"2630","key","v","v","16.659867088607353","500","250","psychophysics","172","536294","0.0-172.0","60f6e8201abc0ee65fa0fd64","6213c7893f870b7309947713","4","","","","","1","2"
"null","","","null","","","","html-keyboard-response","173","536797","0.0-173.0","60f6e8201abc0ee65fa0fd64","6213c7893f870b7309947713","","","","","<p style=""color:darkgreen;font-size:24px;"">Correct :)</p>","",""
"3762","key","v","v","16.660141592920528","500","250","psychophysics","174","540564","0.0-174.0","60f6e8201abc0ee65fa0fd64","6213c7893f870b7309947713","4","","","","","1","3"
"null","","","null","","","","html-keyboard-response","175","541067","0.0-175.0","60f6e8201abc0ee65fa0fd64","6213c7893f870b7309947713","","","","","<p style=""color:darkgreen;font-size:24px;"">Correct :)</p>","",""
"2528","key","v","v","16.660164473684027","500","250","psychophysics","176","543601","0.0-176.0","60f6e8201abc0ee65fa0fd64","6213c7893f870b7309947713","4","","","","","1","1"
"null","","","null","","","","html-keyboard-response","177","544117","0.0-177.0","60f6e8201abc0ee65fa0fd64","6213c7893f870b7309947713","","","","","<p style=""color:darkgreen;font-size:24px;"">Correct :)</p>","",""
"3679","key","n","n","16.65996832579187","500","250","psychophysics","178","547801","0.0-178.0","60f6e8201abc0ee65fa0fd64","6213c7893f870b7309947713","4","","","","","1","6"
"null","","","null","","","","html-keyboard-response","179","548305","0.0-179.0","60f6e8201abc0ee65fa0fd64","6213c7893f870b7309947713","","","","","<p style=""color:darkgreen;font-size:24px;"">Correct :)</p>","",""
"2853","key","n","n","16.658690058479863","500","250","psychophysics","180","551166","0.0-180.0","60f6e8201abc0ee65fa0fd64","6213c7893f870b7309947713","4","","","","","1","6"
"null","","","null","","","","html-keyboard-response","181","551668","0.0-181.0","60f6e8201abc0ee65fa0fd64","6213c7893f870b7309947713","","","","","<p style=""color:darkgreen;font-size:24px;"">Correct :)</p>","",""
"2606","key","n","n","16.767160256410417","500","250","psychophysics","182","554283","0.0-182.0","60f6e8201abc0ee65fa0fd64","6213c7893f870b7309947713","4","","","","","1","9"
"null","","","null","","","","html-keyboard-response","183","554798","0.0-183.0","60f6e8201abc0ee65fa0fd64","6213c7893f870b7309947713","","","","","<p style=""color:darkgreen;font-size:24px;"">Correct :)</p>","",""
"2673","key","v","v","16.661018633540365","500","250","psychophysics","184","557476","0.0-184.0","60f6e8201abc0ee65fa0fd64","6213c7893f870b7309947713","4","","","","","1","2"
"null","","","null","","","","html-keyboard-response","185","557979","0.0-185.0","60f6e8201abc0ee65fa0fd64","6213c7893f870b7309947713","","","","","<p style=""color:darkgreen;font-size:24px;"">Correct :)</p>","",""
"2750","key","v","v","16.65965662650618","500","250","psychophysics","186","560737","0.0-186.0","60f6e8201abc0ee65fa0fd64","6213c7893f870b7309947713","4","","","","","1","4"
"null","","","null","","","","html-keyboard-response","187","561241","0.0-187.0","60f6e8201abc0ee65fa0fd64","6213c7893f870b7309947713","","","","","<p style=""color:darkgreen;font-size:24px;"">Correct :)</p>","",""
"2523","key","n","n","16.65869736842088","500","250","psychophysics","188","563768","0.0-188.0","60f6e8201abc0ee65fa0fd64","6213c7893f870b7309947713","4","","","","","1","8"
"null","","","null","","","","html-keyboard-response","189","564271","0.0-189.0","60f6e8201abc0ee65fa0fd64","6213c7893f870b7309947713","","","","","<p style=""color:darkgreen;font-size:24px;"">Correct :)</p>","",""
"2644","key","n","n","16.659069182390038","500","250","psychophysics","190","566924","0.0-190.0","60f6e8201abc0ee65fa0fd64","6213c7893f870b7309947713","4","","","","","1","9"
"null","","","null","","","","html-keyboard-response","191","567427","0.0-191.0","60f6e8201abc0ee65fa0fd64","6213c7893f870b7309947713","","","","","<p style=""color:darkgreen;font-size:24px;"">Correct :)</p>","",""
"2582","key","v","v","16.660070967741852","500","250","psychophysics","192","570014","0.0-192.0","60f6e8201abc0ee65fa0fd64","6213c7893f870b7309947713","4","","","","","1","4"
"null","","","null","","","","html-keyboard-response","193","570520","0.0-193.0","60f6e8201abc0ee65fa0fd64","6213c7893f870b7309947713","","","","","<p style=""color:darkgreen;font-size:24px;"">Correct :)</p>","",""
"14947","","","v","","","","html-keyboard-response","194","585469","0.0-194.0","60f6e8201abc0ee65fa0fd64","6213c7893f870b7309947713","","","","","<p> Ok, now we are going present the same digits as before.  Your job is to say whether the digit is even or odd  If the digit is odd, press to v key; if it is even, press the n key. We are going to do 50 of these.  </p>  <br><br>  Ready? (press v or n)","",""
"2652","key","n","n","16.66099374999976","500","250","psychophysics","195","588126","0.0-195.0","60f6e8201abc0ee65fa0fd64","6213c7893f870b7309947713","5","","","","","0","4"
"null","","","null","","","","html-keyboard-response","196","588629","0.0-196.0","60f6e8201abc0ee65fa0fd64","6213c7893f870b7309947713","","","","","<p style=""color:darkgreen;font-size:24px;"">Correct :)</p>","",""
"3573","key","n","n","16.659297674418383","500","250","psychophysics","197","592207","0.0-197.0","60f6e8201abc0ee65fa0fd64","6213c7893f870b7309947713","5","","","","","0","2"
"null","","","null","","","","html-keyboard-response","198","592711","0.0-198.0","60f6e8201abc0ee65fa0fd64","6213c7893f870b7309947713","","","","","<p style=""color:darkgreen;font-size:24px;"">Correct :)</p>","",""
"2655","key","n","n","16.65971875000032","500","250","psychophysics","199","595372","0.0-199.0","60f6e8201abc0ee65fa0fd64","6213c7893f870b7309947713","5","","","","","0","8"
"null","","","null","","","","html-keyboard-response","200","595878","0.0-200.0","60f6e8201abc0ee65fa0fd64","6213c7893f870b7309947713","","","","","<p style=""color:darkgreen;font-size:24px;"">Correct :)</p>","",""
"2766","key","v","v","16.659951807229067","500","250","psychophysics","201","598652","0.0-201.0","60f6e8201abc0ee65fa0fd64","6213c7893f870b7309947713","5","","","","","0","7"
"null","","","null","","","","html-keyboard-response","202","599168","0.0-202.0","60f6e8201abc0ee65fa0fd64","6213c7893f870b7309947713","","","","","<p style=""color:darkgreen;font-size:24px;"">Correct :)</p>","",""
"2598","key","v","v","16.659147435897","500","250","psychophysics","203","601772","0.0-203.0","60f6e8201abc0ee65fa0fd64","6213c7893f870b7309947713","5","","","","","0","9"
"null","","","null","","","","html-keyboard-response","204","602276","0.0-204.0","60f6e8201abc0ee65fa0fd64","6213c7893f870b7309947713","","","","","<p style=""color:darkgreen;font-size:24px;"">Correct :)</p>","",""
"2747","key","n","n","16.659824242423795","500","250","psychophysics","205","605028","0.0-205.0","60f6e8201abc0ee65fa0fd64","6213c7893f870b7309947713","5","","","","","0","6"
"null","","","null","","","","html-keyboard-response","206","605531","0.0-206.0","60f6e8201abc0ee65fa0fd64","6213c7893f870b7309947713","","","","","<p style=""color:darkgreen;font-size:24px;"">Correct :)</p>","",""
"2608","key","n","n","16.661339743590453","500","250","psychophysics","207","608145","0.0-207.0","60f6e8201abc0ee65fa0fd64","6213c7893f870b7309947713","5","","","","","0","8"
"null","","","null","","","","html-keyboard-response","208","608648","0.0-208.0","60f6e8201abc0ee65fa0fd64","6213c7893f870b7309947713","","","","","<p style=""color:darkgreen;font-size:24px;"">Correct :)</p>","",""
"2638","key","n","n","16.661810126582225","500","250","psychophysics","209","611291","0.0-209.0","60f6e8201abc0ee65fa0fd64","6213c7893f870b7309947713","5","","","","","0","4"
"null","","","null","","","","html-keyboard-response","210","611794","0.0-210.0","60f6e8201abc0ee65fa0fd64","6213c7893f870b7309947713","","","","","<p style=""color:darkgreen;font-size:24px;"">Correct :)</p>","",""
"2582","key","v","v","16.768541935483565","500","250","psychophysics","211","614382","0.0-211.0","60f6e8201abc0ee65fa0fd64","6213c7893f870b7309947713","5","","","","","0","1"
"null","","","null","","","","html-keyboard-response","212","614896","0.0-212.0","60f6e8201abc0ee65fa0fd64","6213c7893f870b7309947713","","","","","<p style=""color:darkgreen;font-size:24px;"">Correct :)</p>","",""
"2896","key","n","n","16.66032183908084","500","250","psychophysics","213","617797","0.0-213.0","60f6e8201abc0ee65fa0fd64","6213c7893f870b7309947713","5","","","","","0","4"
"null","","","null","","","","html-keyboard-response","214","618300","0.0-214.0","60f6e8201abc0ee65fa0fd64","6213c7893f870b7309947713","","","","","<p style=""color:darkgreen;font-size:24px;"">Correct :)</p>","",""
"2567","key","n","n","16.65864285714274","500","250","psychophysics","215","620872","0.0-215.0","60f6e8201abc0ee65fa0fd64","6213c7893f870b7309947713","5","","","","","0","4"
"null","","","null","","","","html-keyboard-response","216","621374","0.0-216.0","60f6e8201abc0ee65fa0fd64","6213c7893f870b7309947713","","","","","<p style=""color:darkgreen;font-size:24px;"">Correct :)</p>","",""
"2617","key","v","v","16.76541401273838","500","250","psychophysics","217","623995","0.0-217.0","60f6e8201abc0ee65fa0fd64","6213c7893f870b7309947713","5","","","","","0","9"
"null","","","null","","","","html-keyboard-response","218","624500","0.0-218.0","60f6e8201abc0ee65fa0fd64","6213c7893f870b7309947713","","","","","<p style=""color:darkgreen;font-size:24px;"">Correct :)</p>","",""
"2798","key","n","n","16.660041666666594","500","250","psychophysics","219","627304","0.0-219.0","60f6e8201abc0ee65fa0fd64","6213c7893f870b7309947713","5","","","","","0","6"
"null","","","null","","","","html-keyboard-response","220","627807","0.0-220.0","60f6e8201abc0ee65fa0fd64","6213c7893f870b7309947713","","","","","<p style=""color:darkgreen;font-size:24px;"">Correct :)</p>","",""
"2721","key","n","n","16.660736196318734","500","250","psychophysics","221","630533","0.0-221.0","60f6e8201abc0ee65fa0fd64","6213c7893f870b7309947713","5","","","","","0","8"
"null","","","null","","","","html-keyboard-response","222","631036","0.0-222.0","60f6e8201abc0ee65fa0fd64","6213c7893f870b7309947713","","","","","<p style=""color:darkgreen;font-size:24px;"">Correct :)</p>","",""
"2747","key","v","v","16.66108433734934","500","250","psychophysics","223","633793","0.0-223.0","60f6e8201abc0ee65fa0fd64","6213c7893f870b7309947713","5","","","","","0","7"
"null","","","null","","","","html-keyboard-response","224","634297","0.0-224.0","60f6e8201abc0ee65fa0fd64","6213c7893f870b7309947713","","","","","<p style=""color:darkgreen;font-size:24px;"">Correct :)</p>","",""
"2627","key","n","n","16.66026582278435","500","250","psychophysics","225","636929","0.0-225.0","60f6e8201abc0ee65fa0fd64","6213c7893f870b7309947713","5","","","","","0","6"
"null","","","null","","","","html-keyboard-response","226","637432","0.0-226.0","60f6e8201abc0ee65fa0fd64","6213c7893f870b7309947713","","","","","<p style=""color:darkgreen;font-size:24px;"">Correct :)</p>","",""
"3488","key","n","n","16.660042857142564","500","250","psychophysics","227","640925","0.0-227.0","60f6e8201abc0ee65fa0fd64","6213c7893f870b7309947713","5","","","","","0","4"
"null","","","null","","","","html-keyboard-response","228","641429","0.0-228.0","60f6e8201abc0ee65fa0fd64","6213c7893f870b7309947713","","","","","<p style=""color:darkgreen;font-size:24px;"">Correct :)</p>","",""
"2569","key","n","n","16.6607354838709","500","250","psychophysics","229","644003","0.0-229.0","60f6e8201abc0ee65fa0fd64","6213c7893f870b7309947713","5","","","","","0","4"
"null","","","null","","","","html-keyboard-response","230","644507","0.0-230.0","60f6e8201abc0ee65fa0fd64","6213c7893f870b7309947713","","","","","<p style=""color:darkgreen;font-size:24px;"">Correct :)</p>","",""
"2577","key","n","n","16.659793548387356","500","250","psychophysics","231","647089","0.0-231.0","60f6e8201abc0ee65fa0fd64","6213c7893f870b7309947713","5","","","","","0","8"
"null","","","null","","","","html-keyboard-response","232","647592","0.0-232.0","60f6e8201abc0ee65fa0fd64","6213c7893f870b7309947713","","","","","<p style=""color:darkgreen;font-size:24px;"">Correct :)</p>","",""
"2521","key","n","n","16.660309210526112","500","250","psychophysics","233","650118","0.0-233.0","60f6e8201abc0ee65fa0fd64","6213c7893f870b7309947713","5","","","","","0","6"
"null","","","null","","","","html-keyboard-response","234","650621","0.0-234.0","60f6e8201abc0ee65fa0fd64","6213c7893f870b7309947713","","","","","<p style=""color:darkgreen;font-size:24px;"">Correct :)</p>","",""
"2745","key","v","v","16.658836363636972","500","250","psychophysics","235","653374","0.0-235.0","60f6e8201abc0ee65fa0fd64","6213c7893f870b7309947713","5","","","","","0","3"
"null","","","null","","","","html-keyboard-response","236","653877","0.0-236.0","60f6e8201abc0ee65fa0fd64","6213c7893f870b7309947713","","","","","<p style=""color:darkgreen;font-size:24px;"">Correct :)</p>","",""
"2587","key","v","v","16.659063694267505","500","250","psychophysics","237","656481","0.0-237.0","60f6e8201abc0ee65fa0fd64","6213c7893f870b7309947713","5","","","","","0","1"
"null","","","null","","","","html-keyboard-response","238","656998","0.0-238.0","60f6e8201abc0ee65fa0fd64","6213c7893f870b7309947713","","","","","<p style=""color:darkgreen;font-size:24px;"">Correct :)</p>","",""
"2560","key","v","v","16.66107792207781","500","250","psychophysics","239","659567","0.0-239.0","60f6e8201abc0ee65fa0fd64","6213c7893f870b7309947713","5","","","","","0","9"
"null","","","null","","","","html-keyboard-response","240","660071","0.0-240.0","60f6e8201abc0ee65fa0fd64","6213c7893f870b7309947713","","","","","<p style=""color:darkgreen;font-size:24px;"">Correct :)</p>","",""
"2643","key","v","v","16.658981132075784","500","250","psychophysics","241","662721","0.0-241.0","60f6e8201abc0ee65fa0fd64","6213c7893f870b7309947713","5","","","","","0","9"
"null","","","null","","","","html-keyboard-response","242","663225","0.0-242.0","60f6e8201abc0ee65fa0fd64","6213c7893f870b7309947713","","","","","<p style=""color:darkgreen;font-size:24px;"">Correct :)</p>","",""
"2583","key","v","v","16.662266233765866","500","250","psychophysics","243","665812","0.0-243.0","60f6e8201abc0ee65fa0fd64","6213c7893f870b7309947713","5","","","","","0","7"
"null","","","null","","","","html-keyboard-response","244","666324","0.0-244.0","60f6e8201abc0ee65fa0fd64","6213c7893f870b7309947713","","","","","<p style=""color:darkgreen;font-size:24px;"">Correct :)</p>","",""
"2595","key","n","n","16.6589870967737","500","250","psychophysics","245","668925","0.0-245.0","60f6e8201abc0ee65fa0fd64","6213c7893f870b7309947713","5","","","","","0","8"
"null","","","null","","","","html-keyboard-response","246","669428","0.0-246.0","60f6e8201abc0ee65fa0fd64","6213c7893f870b7309947713","","","","","<p style=""color:darkgreen;font-size:24px;"">Correct :)</p>","",""
"2597","key","n","n","16.660403846154132","500","250","psychophysics","247","672030","0.0-247.0","60f6e8201abc0ee65fa0fd64","6213c7893f870b7309947713","5","","","","","0","8"
"null","","","null","","","","html-keyboard-response","248","672533","0.0-248.0","60f6e8201abc0ee65fa0fd64","6213c7893f870b7309947713","","","","","<p style=""color:darkgreen;font-size:24px;"">Correct :)</p>","",""
"2540","key","v","v","16.660019607843186","500","250","psychophysics","249","675080","0.0-249.0","60f6e8201abc0ee65fa0fd64","6213c7893f870b7309947713","5","","","","","0","7"
"null","","","null","","","","html-keyboard-response","250","675584","0.0-250.0","60f6e8201abc0ee65fa0fd64","6213c7893f870b7309947713","","","","","<p style=""color:darkgreen;font-size:24px;"">Correct :)</p>","",""
"2625","key","n","n","16.65779113924113","500","250","psychophysics","251","678215","0.0-251.0","60f6e8201abc0ee65fa0fd64","6213c7893f870b7309947713","5","","","","","0","4"
"null","","","null","","","","html-keyboard-response","252","678717","0.0-252.0","60f6e8201abc0ee65fa0fd64","6213c7893f870b7309947713","","","","","<p style=""color:darkgreen;font-size:24px;"">Correct :)</p>","",""
"2642","key","n","n","16.66185534591186","500","250","psychophysics","253","681363","0.0-253.0","60f6e8201abc0ee65fa0fd64","6213c7893f870b7309947713","5","","","","","0","6"
"null","","","null","","","","html-keyboard-response","254","681869","0.0-254.0","60f6e8201abc0ee65fa0fd64","6213c7893f870b7309947713","","","","","<p style=""color:darkgreen;font-size:24px;"">Correct :)</p>","",""
"2522","key","v","v","16.659874172185837","500","250","psychophysics","255","684399","0.0-255.0","60f6e8201abc0ee65fa0fd64","6213c7893f870b7309947713","5","","","","","0","7"
"null","","","null","","","","html-keyboard-response","256","684904","0.0-256.0","60f6e8201abc0ee65fa0fd64","6213c7893f870b7309947713","","","","","<p style=""color:darkgreen;font-size:24px;"">Correct :)</p>","",""
"2739","key","v","v","16.66004848484881","500","250","psychophysics","257","687651","0.0-257.0","60f6e8201abc0ee65fa0fd64","6213c7893f870b7309947713","5","","","","","0","3"
"null","","","null","","","","html-keyboard-response","258","688153","0.0-258.0","60f6e8201abc0ee65fa0fd64","6213c7893f870b7309947713","","","","","<p style=""color:darkgreen;font-size:24px;"">Correct :)</p>","",""
"2524","key","v","v","16.66048026315816","500","250","psychophysics","259","690686","0.0-259.0","60f6e8201abc0ee65fa0fd64","6213c7893f870b7309947713","5","","","","","0","3"
"null","","","null","","","","html-keyboard-response","260","691189","0.0-260.0","60f6e8201abc0ee65fa0fd64","6213c7893f870b7309947713","","","","","<p style=""color:darkgreen;font-size:24px;"">Correct :)</p>","",""
"2423","key","v","v","16.65999315068531","500","250","psychophysics","261","693621","0.0-261.0","60f6e8201abc0ee65fa0fd64","6213c7893f870b7309947713","5","","","","","0","3"
"null","","","null","","","","html-keyboard-response","262","694125","0.0-262.0","60f6e8201abc0ee65fa0fd64","6213c7893f870b7309947713","","","","","<p style=""color:darkgreen;font-size:24px;"">Correct :)</p>","",""
"2593","key","n","n","16.660384615384736","500","250","psychophysics","263","696723","0.0-263.0","60f6e8201abc0ee65fa0fd64","6213c7893f870b7309947713","5","","","","","0","2"
"null","","","null","","","","html-keyboard-response","264","697229","0.0-264.0","60f6e8201abc0ee65fa0fd64","6213c7893f870b7309947713","","","","","<p style=""color:darkgreen;font-size:24px;"">Correct :)</p>","",""
"2613","key","n","n","16.658700636943216","500","250","psychophysics","265","699848","0.0-265.0","60f6e8201abc0ee65fa0fd64","6213c7893f870b7309947713","5","","","","","0","8"
"null","","","null","","","","html-keyboard-response","266","700351","0.0-266.0","60f6e8201abc0ee65fa0fd64","6213c7893f870b7309947713","","","","","<p style=""color:darkgreen;font-size:24px;"">Correct :)</p>","",""
"2562","key","n","n","16.658779220779536","500","250","psychophysics","267","702919","0.0-267.0","60f6e8201abc0ee65fa0fd64","6213c7893f870b7309947713","5","","","","","0","4"
"null","","","null","","","","html-keyboard-response","268","703423","0.0-268.0","60f6e8201abc0ee65fa0fd64","6213c7893f870b7309947713","","","","","<p style=""color:darkgreen;font-size:24px;"">Correct :)</p>","",""
"2532","key","v","v","16.658627450980514","500","250","psychophysics","269","705962","0.0-269.0","60f6e8201abc0ee65fa0fd64","6213c7893f870b7309947713","5","","","","","0","3"
"null","","","null","","","","html-keyboard-response","270","706481","0.0-270.0","60f6e8201abc0ee65fa0fd64","6213c7893f870b7309947713","","","","","<p style=""color:darkgreen;font-size:24px;"">Correct :)</p>","",""
"2486","key","v","v","16.660073825502735","500","250","psychophysics","271","708973","0.0-271.0","60f6e8201abc0ee65fa0fd64","6213c7893f870b7309947713","5","","","","","0","1"
"null","","","null","","","","html-keyboard-response","272","709477","0.0-272.0","60f6e8201abc0ee65fa0fd64","6213c7893f870b7309947713","","","","","<p style=""color:darkgreen;font-size:24px;"">Correct :)</p>","",""
"2580","key","n","n","16.66030967741934","500","250","psychophysics","273","712062","0.0-273.0","60f6e8201abc0ee65fa0fd64","6213c7893f870b7309947713","5","","","","","0","6"
"null","","","null","","","","html-keyboard-response","274","712566","0.0-274.0","60f6e8201abc0ee65fa0fd64","6213c7893f870b7309947713","","","","","<p style=""color:darkgreen;font-size:24px;"">Correct :)</p>","",""
"2496","key","v","v","16.65992000000008","500","250","psychophysics","275","715069","0.0-275.0","60f6e8201abc0ee65fa0fd64","6213c7893f870b7309947713","5","","","","","0","3"
"null","","","null","","","","html-keyboard-response","276","715572","0.0-276.0","60f6e8201abc0ee65fa0fd64","6213c7893f870b7309947713","","","","","<p style=""color:darkgreen;font-size:24px;"">Correct :)</p>","",""
"2581","key","v","v","16.65874193548375","500","250","psychophysics","277","718157","0.0-277.0","60f6e8201abc0ee65fa0fd64","6213c7893f870b7309947713","5","","","","","0","4"
"null","","","null","","","","html-keyboard-response","278","718659","0.0-278.0","60f6e8201abc0ee65fa0fd64","6213c7893f870b7309947713","","","","","<p style=""color:red;font-size:24px;"">Error :(</p>","",""
"2899","key","n","n","16.66150000000014","500","250","psychophysics","279","721565","0.0-279.0","60f6e8201abc0ee65fa0fd64","6213c7893f870b7309947713","5","","","","","0","2"
"null","","","null","","","","html-keyboard-response","280","722068","0.0-280.0","60f6e8201abc0ee65fa0fd64","6213c7893f870b7309947713","","","","","<p style=""color:darkgreen;font-size:24px;"">Correct :)</p>","",""
"2752","key","v","v","16.659169696969204","500","250","psychophysics","281","724829","0.0-281.0","60f6e8201abc0ee65fa0fd64","6213c7893f870b7309947713","5","","","","","0","9"
"null","","","null","","","","html-keyboard-response","282","725334","0.0-282.0","60f6e8201abc0ee65fa0fd64","6213c7893f870b7309947713","","","","","<p style=""color:darkgreen;font-size:24px;"">Correct :)</p>","",""
"2500","key","n","n","16.66063333333315","500","250","psychophysics","283","727839","0.0-283.0","60f6e8201abc0ee65fa0fd64","6213c7893f870b7309947713","5","","","","","0","4"
"null","","","null","","","","html-keyboard-response","284","728342","0.0-284.0","60f6e8201abc0ee65fa0fd64","6213c7893f870b7309947713","","","","","<p style=""color:darkgreen;font-size:24px;"">Correct :)</p>","",""
"2630","key","v","v","16.6604240506326","500","250","psychophysics","285","730976","0.0-285.0","60f6e8201abc0ee65fa0fd64","6213c7893f870b7309947713","5","","","","","0","7"
"null","","","null","","","","html-keyboard-response","286","731480","0.0-286.0","60f6e8201abc0ee65fa0fd64","6213c7893f870b7309947713","","","","","<p style=""color:darkgreen;font-size:24px;"">Correct :)</p>","",""
"2713","key","n","n","16.659920245399015","500","250","psychophysics","287","734199","0.0-287.0","60f6e8201abc0ee65fa0fd64","6213c7893f870b7309947713","5","","","","","0","2"
"null","","","null","","","","html-keyboard-response","288","734703","0.0-288.0","60f6e8201abc0ee65fa0fd64","6213c7893f870b7309947713","","","","","<p style=""color:darkgreen;font-size:24px;"">Correct :)</p>","",""
"2684","key","n","n","16.659981366459522","500","250","psychophysics","289","737397","0.0-289.0","60f6e8201abc0ee65fa0fd64","6213c7893f870b7309947713","5","","","","","0","2"
"null","","","null","","","","html-keyboard-response","290","737900","0.0-290.0","60f6e8201abc0ee65fa0fd64","6213c7893f870b7309947713","","","","","<p style=""color:darkgreen;font-size:24px;"">Correct :)</p>","",""
"2610","key","n","n","16.66029299363037","500","250","psychophysics","291","740516","0.0-291.0","60f6e8201abc0ee65fa0fd64","6213c7893f870b7309947713","5","","","","","0","6"
"null","","","null","","","","html-keyboard-response","292","741020","0.0-292.0","60f6e8201abc0ee65fa0fd64","6213c7893f870b7309947713","","","","","<p style=""color:darkgreen;font-size:24px;"">Correct :)</p>","",""
"2611","key","n","n","16.658375796178284","500","250","psychophysics","293","743638","0.0-293.0","60f6e8201abc0ee65fa0fd64","6213c7893f870b7309947713","5","","","","","0","8"
"null","","","null","","","","html-keyboard-response","294","744141","0.0-294.0","60f6e8201abc0ee65fa0fd64","6213c7893f870b7309947713","","","","","<p style=""color:darkgreen;font-size:24px;"">Correct :)</p>","",""
"12780","","","n","","","","html-keyboard-response","295","756923","0.0-295.0","60f6e8201abc0ee65fa0fd64","6213c7893f870b7309947713","","","","","<p> Here, the tasks are going to switch.  For some trials, your job is to decide if the digit is less than or greater than 5.  For others, it is to decide if the digit is even or odd.  You will be told which type of trial the current one is.  But, pay attention, the type of trial changes too.  We are going to do 50 of these.  </p>  <br><br>  Ready? (press v or n)","",""
"2970","key","n","n","16.6604157303371","500","250","psychophysics","296","759899","0.0-296.0","60f6e8201abc0ee65fa0fd64","6213c7893f870b7309947713","6","","","","","0","4"
"null","","","null","","","","html-keyboard-response","297","760401","0.0-297.0","60f6e8201abc0ee65fa0fd64","6213c7893f870b7309947713","","","","","<p style=""color:darkgreen;font-size:24px;"">Correct :)</p>","",""
"3349","key","n","n","16.74361194029858","500","250","psychophysics","298","763757","0.0-298.0","60f6e8201abc0ee65fa0fd64","6213c7893f870b7309947713","6","","","","","1","7"
"null","","","null","","","","html-keyboard-response","299","764259","0.0-299.0","60f6e8201abc0ee65fa0fd64","6213c7893f870b7309947713","","","","","<p style=""color:darkgreen;font-size:24px;"">Correct :)</p>","",""
"2693","key","v","v","16.660919753086528","500","250","psychophysics","300","766959","0.0-300.0","60f6e8201abc0ee65fa0fd64","6213c7893f870b7309947713","6","","","","","0","9"
"null","","","null","","","","html-keyboard-response","301","767462","0.0-301.0","60f6e8201abc0ee65fa0fd64","6213c7893f870b7309947713","","","","","<p style=""color:darkgreen;font-size:24px;"">Correct :)</p>","",""
"3069","key","n","n","16.659718918918657","500","250","psychophysics","302","770536","0.0-302.0","60f6e8201abc0ee65fa0fd64","6213c7893f870b7309947713","6","","","","","1","7"
"null","","","null","","","","html-keyboard-response","303","771039","0.0-303.0","60f6e8201abc0ee65fa0fd64","6213c7893f870b7309947713","","","","","<p style=""color:darkgreen;font-size:24px;"">Correct :)</p>","",""
"2958","key","v","v","16.65923595505641","500","250","psychophysics","304","774005","0.0-304.0","60f6e8201abc0ee65fa0fd64","6213c7893f870b7309947713","6","","","","","0","9"
"null","","","null","","","","html-keyboard-response","305","774507","0.0-305.0","60f6e8201abc0ee65fa0fd64","6213c7893f870b7309947713","","","","","<p style=""color:darkgreen;font-size:24px;"">Correct :)</p>","",""
"2914","key","v","v","16.659625000000233","500","250","psychophysics","306","777431","0.0-306.0","60f6e8201abc0ee65fa0fd64","6213c7893f870b7309947713","6","","","","","1","3"
"null","","","null","","","","html-keyboard-response","307","777933","0.0-307.0","60f6e8201abc0ee65fa0fd64","6213c7893f870b7309947713","","","","","<p style=""color:darkgreen;font-size:24px;"">Correct :)</p>","",""
"4094","key","v","v","16.660669387755345","500","250","psychophysics","308","782030","0.0-308.0","60f6e8201abc0ee65fa0fd64","6213c7893f870b7309947713","6","","","","","0","3"
"null","","","null","","","","html-keyboard-response","309","782534","0.0-309.0","60f6e8201abc0ee65fa0fd64","6213c7893f870b7309947713","","","","","<p style=""color:darkgreen;font-size:24px;"">Correct :)</p>","",""
"2759","key","v","v","16.65996987951768","500","250","psychophysics","310","785299","0.0-310.0","60f6e8201abc0ee65fa0fd64","6213c7893f870b7309947713","6","","","","","0","9"
"null","","","null","","","","html-keyboard-response","311","785802","0.0-311.0","60f6e8201abc0ee65fa0fd64","6213c7893f870b7309947713","","","","","<p style=""color:darkgreen;font-size:24px;"">Correct :)</p>","",""
"2562","key","n","n","16.66072077922033","500","250","psychophysics","312","788371","0.0-312.0","60f6e8201abc0ee65fa0fd64","6213c7893f870b7309947713","6","","","","","0","6"
"null","","","null","","","","html-keyboard-response","313","788875","0.0-313.0","60f6e8201abc0ee65fa0fd64","6213c7893f870b7309947713","","","","","<p style=""color:darkgreen;font-size:24px;"">Correct :)</p>","",""
"2985","key","n","n","16.659519553072645","500","250","psychophysics","314","791868","0.0-314.0","60f6e8201abc0ee65fa0fd64","6213c7893f870b7309947713","6","","","","","1","9"
"null","","","null","","","","html-keyboard-response","315","792370","0.0-315.0","60f6e8201abc0ee65fa0fd64","6213c7893f870b7309947713","","","","","<p style=""color:darkgreen;font-size:24px;"">Correct :)</p>","",""
"2933","key","v","v","16.660604519774154","500","250","psychophysics","316","795310","0.0-316.0","60f6e8201abc0ee65fa0fd64","6213c7893f870b7309947713","6","","","","","1","4"
"null","","","null","","","","html-keyboard-response","317","795812","0.0-317.0","60f6e8201abc0ee65fa0fd64","6213c7893f870b7309947713","","","","","<p style=""color:darkgreen;font-size:24px;"">Correct :)</p>","",""
"2531","key","v","v","16.659296052631504","500","250","psychophysics","318","798350","0.0-318.0","60f6e8201abc0ee65fa0fd64","6213c7893f870b7309947713","6","","","","","1","4"
"null","","","null","","","","html-keyboard-response","319","798853","0.0-319.0","60f6e8201abc0ee65fa0fd64","6213c7893f870b7309947713","","","","","<p style=""color:darkgreen;font-size:24px;"">Correct :)</p>","",""
"2569","key","v","v","16.76970394736839","500","250","psychophysics","320","801427","0.0-320.0","60f6e8201abc0ee65fa0fd64","6213c7893f870b7309947713","6","","","","","1","1"
"null","","","null","","","","html-keyboard-response","321","801930","0.0-321.0","60f6e8201abc0ee65fa0fd64","6213c7893f870b7309947713","","","","","<p style=""color:darkgreen;font-size:24px;"">Correct :)</p>","",""
"2603","key","n","n","16.662286624204143","500","250","psychophysics","322","804539","0.0-322.0","60f6e8201abc0ee65fa0fd64","6213c7893f870b7309947713","6","","","","","1","6"
"null","","","null","","","","html-keyboard-response","323","805044","0.0-323.0","60f6e8201abc0ee65fa0fd64","6213c7893f870b7309947713","","","","","<p style=""color:darkgreen;font-size:24px;"">Correct :)</p>","",""
"2956","key","n","n","16.65980337078623","500","250","psychophysics","324","808006","0.0-324.0","60f6e8201abc0ee65fa0fd64","6213c7893f870b7309947713","6","","","","","0","4"
"null","","","null","","","","html-keyboard-response","325","808509","0.0-325.0","60f6e8201abc0ee65fa0fd64","6213c7893f870b7309947713","","","","","<p style=""color:darkgreen;font-size:24px;"">Correct :)</p>","",""
"2830","key","n","n","16.65978823529406","500","250","psychophysics","326","811346","0.0-326.0","60f6e8201abc0ee65fa0fd64","6213c7893f870b7309947713","6","","","","","1","8"
"null","","","null","","","","html-keyboard-response","327","811849","0.0-327.0","60f6e8201abc0ee65fa0fd64","6213c7893f870b7309947713","","","","","<p style=""color:darkgreen;font-size:24px;"">Correct :)</p>","",""
"3240","key","v","v","16.659288659793823","500","250","psychophysics","328","815096","0.0-328.0","60f6e8201abc0ee65fa0fd64","6213c7893f870b7309947713","6","","","","","0","9"
"null","","","null","","","","html-keyboard-response","329","815599","0.0-329.0","60f6e8201abc0ee65fa0fd64","6213c7893f870b7309947713","","","","","<p style=""color:darkgreen;font-size:24px;"">Correct :)</p>","",""
"2512","key","v","v","16.658788079470675","500","250","psychophysics","330","818117","0.0-330.0","60f6e8201abc0ee65fa0fd64","6213c7893f870b7309947713","6","","","","","1","2"
"null","","","null","","","","html-keyboard-response","331","818619","0.0-331.0","60f6e8201abc0ee65fa0fd64","6213c7893f870b7309947713","","","","","<p style=""color:darkgreen;font-size:24px;"">Correct :)</p>","",""
"2811","key","n","n","16.659958579881977","500","250","psychophysics","332","821434","0.0-332.0","60f6e8201abc0ee65fa0fd64","6213c7893f870b7309947713","6","","","","","0","7"
"null","","","null","","","","html-keyboard-response","333","821938","0.0-333.0","60f6e8201abc0ee65fa0fd64","6213c7893f870b7309947713","","","","","<p style=""color:red;font-size:24px;"">Error :(</p>","",""
"4069","key","n","n","16.66014693877517","500","250","psychophysics","334","826016","0.0-334.0","60f6e8201abc0ee65fa0fd64","6213c7893f870b7309947713","6","","","","","0","8"
"null","","","null","","","","html-keyboard-response","335","826518","0.0-335.0","60f6e8201abc0ee65fa0fd64","6213c7893f870b7309947713","","","","","<p style=""color:darkgreen;font-size:24px;"">Correct :)</p>","",""
"3645","key","n","n","16.659968036529396","500","250","psychophysics","336","830171","0.0-336.0","60f6e8201abc0ee65fa0fd64","6213c7893f870b7309947713","6","","","","","0","4"
"null","","","null","","","","html-keyboard-response","337","830675","0.0-337.0","60f6e8201abc0ee65fa0fd64","6213c7893f870b7309947713","","","","","<p style=""color:darkgreen;font-size:24px;"">Correct :)</p>","",""
"3392","key","n","n","16.660522167487734","500","250","psychophysics","338","834073","0.0-338.0","60f6e8201abc0ee65fa0fd64","6213c7893f870b7309947713","6","","","","","1","6"
"null","","","null","","","","html-keyboard-response","339","834586","0.0-339.0","60f6e8201abc0ee65fa0fd64","6213c7893f870b7309947713","","","","","<p style=""color:darkgreen;font-size:24px;"">Correct :)</p>","",""
"2563","key","v","v","16.65867532467524","500","250","psychophysics","340","837156","0.0-340.0","60f6e8201abc0ee65fa0fd64","6213c7893f870b7309947713","6","","","","","0","9"
"null","","","null","","","","html-keyboard-response","341","837660","0.0-341.0","60f6e8201abc0ee65fa0fd64","6213c7893f870b7309947713","","","","","<p style=""color:darkgreen;font-size:24px;"">Correct :)</p>","",""
"2821","key","n","n","16.659538461538805","500","250","psychophysics","342","840488","0.0-342.0","60f6e8201abc0ee65fa0fd64","6213c7893f870b7309947713","6","","","","","1","9"
"null","","","null","","","","html-keyboard-response","343","840991","0.0-343.0","60f6e8201abc0ee65fa0fd64","6213c7893f870b7309947713","","","","","<p style=""color:darkgreen;font-size:24px;"">Correct :)</p>","",""
"3404","key","v","v","16.65957352941155","500","250","psychophysics","344","844402","0.0-344.0","60f6e8201abc0ee65fa0fd64","6213c7893f870b7309947713","6","","","","","0","9"
"null","","","null","","","","html-keyboard-response","345","844905","0.0-345.0","60f6e8201abc0ee65fa0fd64","6213c7893f870b7309947713","","","","","<p style=""color:darkgreen;font-size:24px;"">Correct :)</p>","",""
"3418","key","n","n","16.659195121951264","500","250","psychophysics","346","848329","0.0-346.0","60f6e8201abc0ee65fa0fd64","6213c7893f870b7309947713","6","","","","","0","4"
"null","","","null","","","","html-keyboard-response","347","848833","0.0-347.0","60f6e8201abc0ee65fa0fd64","6213c7893f870b7309947713","","","","","<p style=""color:darkgreen;font-size:24px;"">Correct :)</p>","",""
"2810","key","v","v","16.7580714285716","500","250","psychophysics","348","851648","0.0-348.0","60f6e8201abc0ee65fa0fd64","6213c7893f870b7309947713","6","","","","","0","7"
"null","","","null","","","","html-keyboard-response","349","852151","0.0-349.0","60f6e8201abc0ee65fa0fd64","6213c7893f870b7309947713","","","","","<p style=""color:darkgreen;font-size:24px;"">Correct :)</p>","",""
"2746","key","v","v","16.659848484848485","500","250","psychophysics","350","854903","0.0-350.0","60f6e8201abc0ee65fa0fd64","6213c7893f870b7309947713","6","","","","","1","1"
"null","","","null","","","","html-keyboard-response","351","855407","0.0-351.0","60f6e8201abc0ee65fa0fd64","6213c7893f870b7309947713","","","","","<p style=""color:darkgreen;font-size:24px;"">Correct :)</p>","",""
"2523","key","v","v","16.659519736841933","500","250","psychophysics","352","857935","0.0-352.0","60f6e8201abc0ee65fa0fd64","6213c7893f870b7309947713","6","","","","","1","4"
"null","","","null","","","","html-keyboard-response","353","858437","0.0-353.0","60f6e8201abc0ee65fa0fd64","6213c7893f870b7309947713","","","","","<p style=""color:darkgreen;font-size:24px;"">Correct :)</p>","",""
"2494","key","v","v","16.660152317880534","500","250","psychophysics","354","860951","0.0-354.0","60f6e8201abc0ee65fa0fd64","6213c7893f870b7309947713","6","","","","","1","2"
"null","","","null","","","","html-keyboard-response","355","861456","0.0-355.0","60f6e8201abc0ee65fa0fd64","6213c7893f870b7309947713","","","","","<p style=""color:darkgreen;font-size:24px;"">Correct :)</p>","",""
"2576","key","n","n","16.66036129032277","500","250","psychophysics","356","864038","0.0-356.0","60f6e8201abc0ee65fa0fd64","6213c7893f870b7309947713","6","","","","","0","8"
"null","","","null","","","","html-keyboard-response","357","864541","0.0-357.0","60f6e8201abc0ee65fa0fd64","6213c7893f870b7309947713","","","","","<p style=""color:darkgreen;font-size:24px;"">Correct :)</p>","",""
"2739","key","n","n","16.659206060606593","500","250","psychophysics","358","867286","0.0-358.0","60f6e8201abc0ee65fa0fd64","6213c7893f870b7309947713","6","","","","","0","2"
"null","","","null","","","","html-keyboard-response","359","867790","0.0-359.0","60f6e8201abc0ee65fa0fd64","6213c7893f870b7309947713","","","","","<p style=""color:darkgreen;font-size:24px;"">Correct :)</p>","",""
"2572","key","n","n","16.66083225806454","500","250","psychophysics","360","870368","0.0-360.0","60f6e8201abc0ee65fa0fd64","6213c7893f870b7309947713","6","","","","","0","4"
"null","","","null","","","","html-keyboard-response","361","870871","0.0-361.0","60f6e8201abc0ee65fa0fd64","6213c7893f870b7309947713","","","","","<p style=""color:darkgreen;font-size:24px;"">Correct :)</p>","",""
"2526","key","v","v","16.661440789473616","500","250","psychophysics","362","873405","0.0-362.0","60f6e8201abc0ee65fa0fd64","6213c7893f870b7309947713","6","","","","","1","1"
"null","","","null","","","","html-keyboard-response","363","873908","0.0-363.0","60f6e8201abc0ee65fa0fd64","6213c7893f870b7309947713","","","","","<p style=""color:darkgreen;font-size:24px;"">Correct :)</p>","",""
"2574","key","n","n","16.658058441558538","500","250","psychophysics","364","876490","0.0-364.0","60f6e8201abc0ee65fa0fd64","6213c7893f870b7309947713","6","","","","","1","6"
"null","","","null","","","","html-keyboard-response","365","876994","0.0-365.0","60f6e8201abc0ee65fa0fd64","6213c7893f870b7309947713","","","","","<p style=""color:darkgreen;font-size:24px;"">Correct :)</p>","",""
"2569","key","v","v","16.6598701298701","500","250","psychophysics","366","879571","0.0-366.0","60f6e8201abc0ee65fa0fd64","6213c7893f870b7309947713","6","","","","","0","3"
"null","","","null","","","","html-keyboard-response","367","880075","0.0-367.0","60f6e8201abc0ee65fa0fd64","6213c7893f870b7309947713","","","","","<p style=""color:darkgreen;font-size:24px;"">Correct :)</p>","",""
"3232","key","v","v","16.658582474226876","500","250","psychophysics","368","883315","0.0-368.0","60f6e8201abc0ee65fa0fd64","6213c7893f870b7309947713","6","","","","","1","3"
"null","","","null","","","","html-keyboard-response","369","883818","0.0-369.0","60f6e8201abc0ee65fa0fd64","6213c7893f870b7309947713","","","","","<p style=""color:darkgreen;font-size:24px;"">Correct :)</p>","",""
"2965","key","n","n","16.75325842696671","500","250","psychophysics","370","886790","0.0-370.0","60f6e8201abc0ee65fa0fd64","6213c7893f870b7309947713","6","","","","","0","8"
"null","","","null","","","","html-keyboard-response","371","887294","0.0-371.0","60f6e8201abc0ee65fa0fd64","6213c7893f870b7309947713","","","","","<p style=""color:darkgreen;font-size:24px;"">Correct :)</p>","",""
"3337","key","n","n","16.660432835820767","500","250","psychophysics","372","890637","0.0-372.0","60f6e8201abc0ee65fa0fd64","6213c7893f870b7309947713","6","","","","","1","6"
"null","","","null","","","","html-keyboard-response","373","891142","0.0-373.0","60f6e8201abc0ee65fa0fd64","6213c7893f870b7309947713","","","","","<p style=""color:darkgreen;font-size:24px;"">Correct :)</p>","",""
"3418","key","v","v","16.65885922330086","500","250","psychophysics","374","894567","0.0-374.0","60f6e8201abc0ee65fa0fd64","6213c7893f870b7309947713","6","","","","","0","3"
"null","","","null","","","","html-keyboard-response","375","895068","0.0-375.0","60f6e8201abc0ee65fa0fd64","6213c7893f870b7309947713","","","","","<p style=""color:darkgreen;font-size:24px;"">Correct :)</p>","",""
"3119","key","n","n","16.661229946524188","500","250","psychophysics","376","898192","0.0-376.0","60f6e8201abc0ee65fa0fd64","6213c7893f870b7309947713","6","","","","","1","9"
"null","","","null","","","","html-keyboard-response","377","898696","0.0-377.0","60f6e8201abc0ee65fa0fd64","6213c7893f870b7309947713","","","","","<p style=""color:darkgreen;font-size:24px;"">Correct :)</p>","",""
"2617","key","n","n","16.766745222929664","500","250","psychophysics","378","901318","0.0-378.0","60f6e8201abc0ee65fa0fd64","6213c7893f870b7309947713","6","","","","","0","4"
"null","","","null","","","","html-keyboard-response","379","901821","0.0-379.0","60f6e8201abc0ee65fa0fd64","6213c7893f870b7309947713","","","","","<p style=""color:darkgreen;font-size:24px;"">Correct :)</p>","",""
"2926","key","v","v","16.658982954545618","500","250","psychophysics","380","904752","0.0-380.0","60f6e8201abc0ee65fa0fd64","6213c7893f870b7309947713","6","","","","","0","9"
"null","","","null","","","","html-keyboard-response","381","905264","0.0-381.0","60f6e8201abc0ee65fa0fd64","6213c7893f870b7309947713","","","","","<p style=""color:darkgreen;font-size:24px;"">Correct :)</p>","",""
"2507","key","v","v","16.658926666666908","500","250","psychophysics","382","907777","0.0-382.0","60f6e8201abc0ee65fa0fd64","6213c7893f870b7309947713","6","","","","","1","3"
"null","","","null","","","","html-keyboard-response","383","908279","0.0-383.0","60f6e8201abc0ee65fa0fd64","6213c7893f870b7309947713","","","","","<p style=""color:darkgreen;font-size:24px;"">Correct :)</p>","",""
"3725","key","v","v","16.659383928571124","500","250","psychophysics","384","912012","0.0-384.0","60f6e8201abc0ee65fa0fd64","6213c7893f870b7309947713","6","","","","","0","1"
"null","","","null","","","","html-keyboard-response","385","912516","0.0-385.0","60f6e8201abc0ee65fa0fd64","6213c7893f870b7309947713","","","","","<p style=""color:darkgreen;font-size:24px;"">Correct :)</p>","",""
"2802","key","n","n","16.65967857142858","500","250","psychophysics","386","915324","0.0-386.0","60f6e8201abc0ee65fa0fd64","6213c7893f870b7309947713","6","","","","","0","7"
"null","","","null","","","","html-keyboard-response","387","915828","0.0-387.0","60f6e8201abc0ee65fa0fd64","6213c7893f870b7309947713","","","","","<p style=""color:red;font-size:24px;"">Error :(</p>","",""
"3037","key","v","v","16.66005494505497","500","250","psychophysics","388","918873","0.0-388.0","60f6e8201abc0ee65fa0fd64","6213c7893f870b7309947713","6","","","","","1","2"
"null","","","null","","","","html-keyboard-response","389","919377","0.0-389.0","60f6e8201abc0ee65fa0fd64","6213c7893f870b7309947713","","","","","<p style=""color:darkgreen;font-size:24px;"">Correct :)</p>","",""
"3699","key","n","n","16.660108108108084","500","250","psychophysics","390","923079","0.0-390.0","60f6e8201abc0ee65fa0fd64","6213c7893f870b7309947713","6","","","","","1","6"
"null","","","null","","","","html-keyboard-response","391","923584","0.0-391.0","60f6e8201abc0ee65fa0fd64","6213c7893f870b7309947713","","","","","<p style=""color:darkgreen;font-size:24px;"">Correct :)</p>","",""
"3784","key","v","v","16.660407894737244","500","250","psychophysics","392","927374","0.0-392.0","60f6e8201abc0ee65fa0fd64","6213c7893f870b7309947713","6","","","","","0","3"
"null","","","null","","","","html-keyboard-response","393","927878","0.0-393.0","60f6e8201abc0ee65fa0fd64","6213c7893f870b7309947713","","","","","<p style=""color:darkgreen;font-size:24px;"">Correct :)</p>","",""
"2809","key","v","v","16.65992307692309","500","250","psychophysics","394","930694","0.0-394.0","60f6e8201abc0ee65fa0fd64","6213c7893f870b7309947713","6","","","","","1","1"
"null","","","null","","","","html-keyboard-response","395","931197","0.0-395.0","60f6e8201abc0ee65fa0fd64","6213c7893f870b7309947713","","","","","<p style=""color:darkgreen;font-size:24px;"">Correct :)</p>","",""
"6981","","","n","","","","html-keyboard-response","396","938181","0.0-396.0","60f6e8201abc0ee65fa0fd64","6213c7893f870b7309947713","","","","","<p> Last set of trials.  Here, the tasks are going to switch once again.  We are going to do 50 of these.  And then you are done with the experiment.  </p>  <br><br>  Ready? (press v or n)","",""
"2799","key","v","v","16.66026347305439","500","250","psychophysics","397","940983","0.0-397.0","60f6e8201abc0ee65fa0fd64","6213c7893f870b7309947713","7","","","","","0","7"
"null","","","null","","","","html-keyboard-response","398","941486","0.0-398.0","60f6e8201abc0ee65fa0fd64","6213c7893f870b7309947713","","","","","<p style=""color:darkgreen;font-size:24px;"">Correct :)</p>","",""
"2679","key","n","n","16.660757763975774","500","250","psychophysics","399","944168","0.0-399.0","60f6e8201abc0ee65fa0fd64","6213c7893f870b7309947713","7","","","","","1","6"
"null","","","null","","","","html-keyboard-response","400","944672","0.0-400.0","60f6e8201abc0ee65fa0fd64","6213c7893f870b7309947713","","","","","<p style=""color:darkgreen;font-size:24px;"">Correct :)</p>","",""
"2705","key","v","v","16.660773006135003","500","250","psychophysics","401","947382","0.0-401.0","60f6e8201abc0ee65fa0fd64","6213c7893f870b7309947713","7","","","","","1","2"
"null","","","null","","","","html-keyboard-response","402","947886","0.0-402.0","60f6e8201abc0ee65fa0fd64","6213c7893f870b7309947713","","","","","<p style=""color:darkgreen;font-size:24px;"">Correct :)</p>","",""
"2637","key","v","v","16.660553459119807","500","250","psychophysics","403","950530","0.0-403.0","60f6e8201abc0ee65fa0fd64","6213c7893f870b7309947713","7","","","","","0","1"
"null","","","null","","","","html-keyboard-response","404","951033","0.0-404.0","60f6e8201abc0ee65fa0fd64","6213c7893f870b7309947713","","","","","<p style=""color:darkgreen;font-size:24px;"">Correct :)</p>","",""
"2681","key","n","n","16.661180124224035","500","250","psychophysics","405","953720","0.0-405.0","60f6e8201abc0ee65fa0fd64","6213c7893f870b7309947713","7","","","","","0","6"
"null","","","null","","","","html-keyboard-response","406","954224","0.0-406.0","60f6e8201abc0ee65fa0fd64","6213c7893f870b7309947713","","","","","<p style=""color:darkgreen;font-size:24px;"">Correct :)</p>","",""
"2874","key","v","v","16.659122807018008","500","250","psychophysics","407","957104","0.0-407.0","60f6e8201abc0ee65fa0fd64","6213c7893f870b7309947713","7","","","","","0","3"
"null","","","null","","","","html-keyboard-response","408","957608","0.0-408.0","60f6e8201abc0ee65fa0fd64","6213c7893f870b7309947713","","","","","<p style=""color:darkgreen;font-size:24px;"">Correct :)</p>","",""
"3341","key","v","v","16.65885500000033","500","250","psychophysics","409","960954","0.0-409.0","60f6e8201abc0ee65fa0fd64","6213c7893f870b7309947713","7","","","","","1","3"
"null","","","null","","","","html-keyboard-response","410","961458","0.0-410.0","60f6e8201abc0ee65fa0fd64","6213c7893f870b7309947713","","","","","<p style=""color:darkgreen;font-size:24px;"">Correct :)</p>","",""
"3394","key","n","n","16.660377450980697","500","250","psychophysics","411","964858","0.0-411.0","60f6e8201abc0ee65fa0fd64","6213c7893f870b7309947713","7","","","","","0","2"
"null","","","null","","","","html-keyboard-response","412","965360","0.0-412.0","60f6e8201abc0ee65fa0fd64","6213c7893f870b7309947713","","","","","<p style=""color:darkgreen;font-size:24px;"">Correct :)</p>","",""
"3499","key","n","n","16.659295238095467","500","250","psychophysics","413","968865","0.0-413.0","60f6e8201abc0ee65fa0fd64","6213c7893f870b7309947713","7","","","","","0","4"
"null","","","null","","","","html-keyboard-response","414","969369","0.0-414.0","60f6e8201abc0ee65fa0fd64","6213c7893f870b7309947713","","","","","<p style=""color:darkgreen;font-size:24px;"">Correct :)</p>","",""
"2849","key","v","v","16.659964912280316","500","250","psychophysics","415","972222","0.0-415.0","60f6e8201abc0ee65fa0fd64","6213c7893f870b7309947713","7","","","","","1","3"
"null","","","null","","","","html-keyboard-response","416","972726","0.0-416.0","60f6e8201abc0ee65fa0fd64","6213c7893f870b7309947713","","","","","<p style=""color:darkgreen;font-size:24px;"">Correct :)</p>","",""
"2597","key","v","v","16.66014102564077","500","250","psychophysics","417","975327","0.0-417.0","60f6e8201abc0ee65fa0fd64","6213c7893f870b7309947713","7","","","","","1","4"
"null","","","null","","","","html-keyboard-response","418","975830","0.0-418.0","60f6e8201abc0ee65fa0fd64","6213c7893f870b7309947713","","","","","<p style=""color:darkgreen;font-size:24px;"">Correct :)</p>","",""
"2806","key","n","n","16.660331360946863","500","250","psychophysics","419","978641","0.0-419.0","60f6e8201abc0ee65fa0fd64","6213c7893f870b7309947713","7","","","","","1","7"
"null","","","null","","","","html-keyboard-response","420","979152","0.0-420.0","60f6e8201abc0ee65fa0fd64","6213c7893f870b7309947713","","","","","<p style=""color:darkgreen;font-size:24px;"">Correct :)</p>","",""
"2494","key","v","v","16.660113333333285","500","250","psychophysics","421","981652","0.0-421.0","60f6e8201abc0ee65fa0fd64","6213c7893f870b7309947713","7","","","","","1","3"
"null","","","null","","","","html-keyboard-response","422","982160","0.0-422.0","60f6e8201abc0ee65fa0fd64","6213c7893f870b7309947713","","","","","<p style=""color:darkgreen;font-size:24px;"">Correct :)</p>","",""
"2673","key","n","n","16.66005590062094","500","250","psychophysics","423","984840","0.0-423.0","60f6e8201abc0ee65fa0fd64","6213c7893f870b7309947713","7","","","","","0","6"
"null","","","null","","","","html-keyboard-response","424","985344","0.0-424.0","60f6e8201abc0ee65fa0fd64","6213c7893f870b7309947713","","","","","<p style=""color:darkgreen;font-size:24px;"">Correct :)</p>","",""
"2764","key","v","v","16.76159638554245","500","250","psychophysics","425","988114","0.0-425.0","60f6e8201abc0ee65fa0fd64","6213c7893f870b7309947713","7","","","","","1","3"
"null","","","null","","","","html-keyboard-response","426","988619","0.0-426.0","60f6e8201abc0ee65fa0fd64","6213c7893f870b7309947713","","","","","<p style=""color:darkgreen;font-size:24px;"">Correct :)</p>","",""
"2528","key","v","v","16.6592631578954","500","250","psychophysics","427","991155","0.0-427.0","60f6e8201abc0ee65fa0fd64","6213c7893f870b7309947713","7","","","","","1","1"
"null","","","null","","","","html-keyboard-response","428","991658","0.0-428.0","60f6e8201abc0ee65fa0fd64","6213c7893f870b7309947713","","","","","<p style=""color:darkgreen;font-size:24px;"">Correct :)</p>","",""
"2762","key","v","v","16.66084756097535","500","250","psychophysics","429","994425","0.0-429.0","60f6e8201abc0ee65fa0fd64","6213c7893f870b7309947713","7","","","","","1","4"
"null","","","null","","","","html-keyboard-response","430","994928","0.0-430.0","60f6e8201abc0ee65fa0fd64","6213c7893f870b7309947713","","","","","<p style=""color:darkgreen;font-size:24px;"">Correct :)</p>","",""
"2517","key","v","v","16.661046357615696","500","250","psychophysics","431","997454","0.0-431.0","60f6e8201abc0ee65fa0fd64","6213c7893f870b7309947713","7","","","","","1","2"
"null","","","null","","","","html-keyboard-response","432","997956","0.0-432.0","60f6e8201abc0ee65fa0fd64","6213c7893f870b7309947713","","","","","<p style=""color:darkgreen;font-size:24px;"">Correct :)</p>","",""
"2933","key","v","v","16.65986363636396","500","250","psychophysics","433","1000895","0.0-433.0","60f6e8201abc0ee65fa0fd64","6213c7893f870b7309947713","7","","","","","0","7"
"null","","","null","","","","html-keyboard-response","434","1001398","0.0-434.0","60f6e8201abc0ee65fa0fd64","6213c7893f870b7309947713","","","","","<p style=""color:darkgreen;font-size:24px;"">Correct :)</p>","",""
"2554","key","n","n","16.659857142857252","500","250","psychophysics","435","1003961","0.0-435.0","60f6e8201abc0ee65fa0fd64","6213c7893f870b7309947713","7","","","","","0","6"
"null","","","null","","","","html-keyboard-response","436","1004465","0.0-436.0","60f6e8201abc0ee65fa0fd64","6213c7893f870b7309947713","","","","","<p style=""color:darkgreen;font-size:24px;"">Correct :)</p>","",""
"2837","key","n","n","16.660269005847713","500","250","psychophysics","437","1007311","0.0-437.0","60f6e8201abc0ee65fa0fd64","6213c7893f870b7309947713","7","","","","","1","7"
"null","","","null","","","","html-keyboard-response","438","1007815","0.0-438.0","60f6e8201abc0ee65fa0fd64","6213c7893f870b7309947713","","","","","<p style=""color:darkgreen;font-size:24px;"">Correct :)</p>","",""
"2705","key","n","n","16.66009815950932","500","250","psychophysics","439","1010528","0.0-439.0","60f6e8201abc0ee65fa0fd64","6213c7893f870b7309947713","7","","","","","1","7"
"null","","","null","","","","html-keyboard-response","440","1011032","0.0-440.0","60f6e8201abc0ee65fa0fd64","6213c7893f870b7309947713","","","","","<p style=""color:darkgreen;font-size:24px;"">Correct :)</p>","",""
"3075","key","n","n","16.65998918918918","500","250","psychophysics","441","1014111","0.0-441.0","60f6e8201abc0ee65fa0fd64","6213c7893f870b7309947713","7","","","","","1","7"
"null","","","null","","","","html-keyboard-response","442","1014615","0.0-442.0","60f6e8201abc0ee65fa0fd64","6213c7893f870b7309947713","","","","","<p style=""color:darkgreen;font-size:24px;"">Correct :)</p>","",""
"2616","key","v","v","16.766280254777698","500","250","psychophysics","443","1017237","0.0-443.0","60f6e8201abc0ee65fa0fd64","6213c7893f870b7309947713","7","","","","","0","7"
"null","","","null","","","","html-keyboard-response","444","1017742","0.0-444.0","60f6e8201abc0ee65fa0fd64","6213c7893f870b7309947713","","","","","<p style=""color:darkgreen;font-size:24px;"">Correct :)</p>","",""
"2688","key","v","v","16.660111111110897","500","250","psychophysics","445","1020436","0.0-445.0","60f6e8201abc0ee65fa0fd64","6213c7893f870b7309947713","7","","","","","1","1"
"null","","","null","","","","html-keyboard-response","446","1020940","0.0-446.0","60f6e8201abc0ee65fa0fd64","6213c7893f870b7309947713","","","","","<p style=""color:darkgreen;font-size:24px;"">Correct :)</p>","",""
"2916","key","n","n","16.660165714285604","500","250","psychophysics","447","1023865","0.0-447.0","60f6e8201abc0ee65fa0fd64","6213c7893f870b7309947713","7","","","","","0","7"
"null","","","null","","","","html-keyboard-response","448","1024368","0.0-448.0","60f6e8201abc0ee65fa0fd64","6213c7893f870b7309947713","","","","","<p style=""color:red;font-size:24px;"">Error :(</p>","",""
"3513","key","n","n","16.660175355450335","500","250","psychophysics","449","1027890","0.0-449.0","60f6e8201abc0ee65fa0fd64","6213c7893f870b7309947713","7","","","","","0","4"
"null","","","null","","","","html-keyboard-response","450","1028394","0.0-450.0","60f6e8201abc0ee65fa0fd64","6213c7893f870b7309947713","","","","","<p style=""color:darkgreen;font-size:24px;"">Correct :)</p>","",""
"2749","key","n","n","16.760527272727057","500","250","psychophysics","451","1031149","0.0-451.0","60f6e8201abc0ee65fa0fd64","6213c7893f870b7309947713","7","","","","","0","2"
"null","","","null","","","","html-keyboard-response","452","1031654","0.0-452.0","60f6e8201abc0ee65fa0fd64","6213c7893f870b7309947713","","","","","<p style=""color:darkgreen;font-size:24px;"">Correct :)</p>","",""
"3019","key","v","v","16.65920329670317","500","250","psychophysics","453","1034680","0.0-453.0","60f6e8201abc0ee65fa0fd64","6213c7893f870b7309947713","7","","","","","1","1"
"null","","","null","","","","html-keyboard-response","454","1035182","0.0-454.0","60f6e8201abc0ee65fa0fd64","6213c7893f870b7309947713","","","","","<p style=""color:darkgreen;font-size:24px;"">Correct :)</p>","",""
"3403","key","v","v","16.66090686274487","500","250","psychophysics","455","1038591","0.0-455.0","60f6e8201abc0ee65fa0fd64","6213c7893f870b7309947713","7","","","","","0","3"
"null","","","null","","","","html-keyboard-response","456","1039095","0.0-456.0","60f6e8201abc0ee65fa0fd64","6213c7893f870b7309947713","","","","","<p style=""color:darkgreen;font-size:24px;"">Correct :)</p>","",""
"3103","key","v","v","16.65998387096765","500","250","psychophysics","457","1042204","0.0-457.0","60f6e8201abc0ee65fa0fd64","6213c7893f870b7309947713","7","","","","","0","7"
"null","","","null","","","","html-keyboard-response","458","1042708","0.0-458.0","60f6e8201abc0ee65fa0fd64","6213c7893f870b7309947713","","","","","<p style=""color:darkgreen;font-size:24px;"">Correct :)</p>","",""
"2651","key","n","n","16.659817610062664","500","250","psychophysics","459","1045365","0.0-459.0","60f6e8201abc0ee65fa0fd64","6213c7893f870b7309947713","7","","","","","1","7"
"null","","","null","","","","html-keyboard-response","460","1045869","0.0-460.0","60f6e8201abc0ee65fa0fd64","6213c7893f870b7309947713","","","","","<p style=""color:darkgreen;font-size:24px;"">Correct :)</p>","",""
"3193","key","n","n","16.658989583333096","500","250","psychophysics","461","1049069","0.0-461.0","60f6e8201abc0ee65fa0fd64","6213c7893f870b7309947713","7","","","","","0","4"
"null","","","null","","","","html-keyboard-response","462","1049573","0.0-462.0","60f6e8201abc0ee65fa0fd64","6213c7893f870b7309947713","","","","","<p style=""color:darkgreen;font-size:24px;"">Correct :)</p>","",""
"3402","key","n","n","16.66089215686239","500","250","psychophysics","463","1052981","0.0-463.0","60f6e8201abc0ee65fa0fd64","6213c7893f870b7309947713","7","","","","","0","2"
"null","","","null","","","","html-keyboard-response","464","1053485","0.0-464.0","60f6e8201abc0ee65fa0fd64","6213c7893f870b7309947713","","","","","<p style=""color:darkgreen;font-size:24px;"">Correct :)</p>","",""
"2581","key","v","v","16.66166451612878","500","250","psychophysics","465","1056072","0.0-465.0","60f6e8201abc0ee65fa0fd64","6213c7893f870b7309947713","7","","","","","1","1"
"null","","","null","","","","html-keyboard-response","466","1056589","0.0-466.0","60f6e8201abc0ee65fa0fd64","6213c7893f870b7309947713","","","","","<p style=""color:darkgreen;font-size:24px;"">Correct :)</p>","",""
"2557","key","v","v","16.661435064935283","500","250","psychophysics","467","1059153","0.0-467.0","60f6e8201abc0ee65fa0fd64","6213c7893f870b7309947713","7","","","","","1","4"
"null","","","null","","","","html-keyboard-response","468","1059656","0.0-468.0","60f6e8201abc0ee65fa0fd64","6213c7893f870b7309947713","","","","","<p style=""color:darkgreen;font-size:24px;"">Correct :)</p>","",""
"2636","key","v","v","16.658873417721235","500","250","psychophysics","469","1062297","0.0-469.0","60f6e8201abc0ee65fa0fd64","6213c7893f870b7309947713","7","","","","","1","1"
"null","","","null","","","","html-keyboard-response","470","1062799","0.0-470.0","60f6e8201abc0ee65fa0fd64","6213c7893f870b7309947713","","","","","<p style=""color:darkgreen;font-size:24px;"">Correct :)</p>","",""
"2546","key","n","n","16.659967320262048","500","250","psychophysics","471","1065350","0.0-471.0","60f6e8201abc0ee65fa0fd64","6213c7893f870b7309947713","7","","","","","1","6"
"null","","","null","","","","html-keyboard-response","472","1065854","0.0-472.0","60f6e8201abc0ee65fa0fd64","6213c7893f870b7309947713","","","","","<p style=""color:darkgreen;font-size:24px;"">Correct :)</p>","",""
"2550","key","v","v","16.659954248366002","500","250","psychophysics","473","1068413","0.0-473.0","60f6e8201abc0ee65fa0fd64","6213c7893f870b7309947713","7","","","","","0","1"
"null","","","null","","","","html-keyboard-response","474","1068918","0.0-474.0","60f6e8201abc0ee65fa0fd64","6213c7893f870b7309947713","","","","","<p style=""color:darkgreen;font-size:24px;"">Correct :)</p>","",""
"2457","key","v","v","16.65989189189261","500","250","psychophysics","475","1071382","0.0-475.0","60f6e8201abc0ee65fa0fd64","6213c7893f870b7309947713","7","","","","","1","1"
"null","","","null","","","","html-keyboard-response","476","1071886","0.0-476.0","60f6e8201abc0ee65fa0fd64","6213c7893f870b7309947713","","","","","<p style=""color:darkgreen;font-size:24px;"">Correct :)</p>","",""
"2697","key","v","v","16.66109259259157","500","250","psychophysics","477","1074592","0.0-477.0","60f6e8201abc0ee65fa0fd64","6213c7893f870b7309947713","7","","","","","0","7"
"null","","","null","","","","html-keyboard-response","478","1075097","0.0-478.0","60f6e8201abc0ee65fa0fd64","6213c7893f870b7309947713","","","","","<p style=""color:darkgreen;font-size:24px;"">Correct :)</p>","",""
"2725","key","v","v","16.660310975609562","500","250","psychophysics","479","1077832","0.0-479.0","60f6e8201abc0ee65fa0fd64","6213c7893f870b7309947713","7","","","","","0","1"
"null","","","null","","","","html-keyboard-response","480","1078339","0.0-480.0","60f6e8201abc0ee65fa0fd64","6213c7893f870b7309947713","","","","","<p style=""color:darkgreen;font-size:24px;"">Correct :)</p>","",""
"2665","key","n","n","16.660801242235816","500","250","psychophysics","481","1081011","0.0-481.0","60f6e8201abc0ee65fa0fd64","6213c7893f870b7309947713","7","","","","","0","2"
"null","","","null","","","","html-keyboard-response","482","1081516","0.0-482.0","60f6e8201abc0ee65fa0fd64","6213c7893f870b7309947713","","","","","<p style=""color:darkgreen;font-size:24px;"">Correct :)</p>","",""
"2511","key","v","v","16.659245033111635","500","250","psychophysics","483","1084035","0.0-483.0","60f6e8201abc0ee65fa0fd64","6213c7893f870b7309947713","7","","","","","1","1"
"null","","","null","","","","html-keyboard-response","484","1084539","0.0-484.0","60f6e8201abc0ee65fa0fd64","6213c7893f870b7309947713","","","","","<p style=""color:darkgreen;font-size:24px;"">Correct :)</p>","",""
"2477","key","v","v","16.658939597315637","500","250","psychophysics","485","1087026","0.0-485.0","60f6e8201abc0ee65fa0fd64","6213c7893f870b7309947713","7","","","","","1","3"
"null","","","null","","","","html-keyboard-response","486","1087530","0.0-486.0","60f6e8201abc0ee65fa0fd64","6213c7893f870b7309947713","","","","","<p style=""color:darkgreen;font-size:24px;"">Correct :)</p>","",""
"2731","key","n","n","16.659219512196326","500","250","psychophysics","487","1090265","0.0-487.0","60f6e8201abc0ee65fa0fd64","6213c7893f870b7309947713","7","","","","","0","4"
"null","","","null","","","","html-keyboard-response","488","1090767","0.0-488.0","60f6e8201abc0ee65fa0fd64","6213c7893f870b7309947713","","","","","<p style=""color:darkgreen;font-size:24px;"">Correct :)</p>","",""
"2552","key","v","v","16.661253246752388","500","250","psychophysics","489","1093324","0.0-489.0","60f6e8201abc0ee65fa0fd64","6213c7893f870b7309947713","7","","","","","1","2"
"null","","","null","","","","html-keyboard-response","490","1093827","0.0-490.0","60f6e8201abc0ee65fa0fd64","6213c7893f870b7309947713","","","","","<p style=""color:darkgreen;font-size:24px;"">Correct :)</p>","",""
"2514","key","v","v","16.65990066225178","500","250","psychophysics","491","1096348","0.0-491.0","60f6e8201abc0ee65fa0fd64","6213c7893f870b7309947713","7","","","","","1","1"
"null","","","null","","","","html-keyboard-response","492","1096852","0.0-492.0","60f6e8201abc0ee65fa0fd64","6213c7893f870b7309947713","","","","","<p style=""color:darkgreen;font-size:24px;"">Correct :)</p>","",""
"2630","key","n","n","16.659841772151193","500","250","psychophysics","493","1099489","0.0-493.0","60f6e8201abc0ee65fa0fd64","6213c7893f870b7309947713","7","","","","","1","6"
"null","","","null","","","","html-keyboard-response","494","1099993","0.0-494.0","60f6e8201abc0ee65fa0fd64","6213c7893f870b7309947713","","","","","<p style=""color:darkgreen;font-size:24px;"">Correct :)</p>","",""
"2919","key","v","v","16.657988636362873","500","250","psychophysics","495","1102921","0.0-495.0","60f6e8201abc0ee65fa0fd64","6213c7893f870b7309947713","7","","","","","0","1"
"null","","","null","","","","html-keyboard-response","496","1103427","0.0-496.0","60f6e8201abc0ee65fa0fd64","6213c7893f870b7309947713","","","","","<p style=""color:darkgreen;font-size:24px;"">Correct :)</p>","",""
