"rt","response_type","key_press","response","avg_frame_time","center_x","center_y","trial_type","trial_index","time_elapsed","internal_node_id","pid","sid","phase","guide","targ","resp","stimulus","is5","stim"
"3871","key"," "," ","6.944456989247312","499.9999891627921","249.99999458139604","psychophysics","0","3884","0.0-0.0","5e6982499d7ba9245e58262a","6213d072213869dae5884c10","","","","","","",""
"4150","key"," "," ","6.9444907872696815","499.9999891627921","249.99999458139604","psychophysics","1","8035","0.0-1.0","5e6982499d7ba9245e58262a","6213d072213869dae5884c10","","","","","","",""
"2670","key"," "," ","6.944481770833335","499.9999891627921","249.99999458139604","psychophysics","2","10707","0.0-2.0","5e6982499d7ba9245e58262a","6213d072213869dae5884c10","","","","","","",""
"1462","key"," "," ","6.944452380952385","499.9999891627921","249.99999458139604","psychophysics","3","12172","0.0-3.0","5e6982499d7ba9245e58262a","6213d072213869dae5884c10","","","","","","",""
"29098","key"," "," ","6.9444967772738115","499.9999891627921","249.99999458139604","psychophysics","4","41271","0.0-4.0","5e6982499d7ba9245e58262a","6213d072213869dae5884c10","","","","","","",""
"5118","key"," "," ","6.953937414965987","499.9999891627921","249.99999458139604","psychophysics","5","46392","0.0-5.0","5e6982499d7ba9245e58262a","6213d072213869dae5884c10","","","","","","",""
"5199","key"," "," ","6.944524064171124","499.9999891627921","249.99999458139604","psychophysics","6","51593","0.0-6.0","5e6982499d7ba9245e58262a","6213d072213869dae5884c10","","","","","","",""
"3391","key"," "," ","6.94448770491804","499.9999891627921","249.99999458139604","psychophysics","7","54985","0.0-7.0","5e6982499d7ba9245e58262a","6213d072213869dae5884c10","","","","","","",""
"6102","key"," "," ","6.94448633257403","499.9999891627921","249.99999458139604","psychophysics","8","61090","0.0-8.0","5e6982499d7ba9245e58262a","6213d072213869dae5884c10","0","0","52","55","","",""
"2910","key"," "," ","6.94448564593301","499.9999891627921","249.99999458139604","psychophysics","9","64003","0.0-9.0","5e6982499d7ba9245e58262a","6213d072213869dae5884c10","","","","","","",""
"1678","key"," "," ","6.944460580912825","499.9999891627921","249.99999458139604","psychophysics","10","65683","0.0-10.0","5e6982499d7ba9245e58262a","6213d072213869dae5884c10","","","","","","",""
"2743","key"," "," ","6.944487309644662","499.9999891627921","249.99999458139604","psychophysics","11","68427","0.0-11.0","5e6982499d7ba9245e58262a","6213d072213869dae5884c10","","","","","","",""
"2751","key"," "," ","6.944467171717186","499.9999891627921","249.99999458139604","psychophysics","12","71180","0.0-12.0","5e6982499d7ba9245e58262a","6213d072213869dae5884c10","","","","","","",""
"1894","key"," "," ","6.944470588235269","499.9999891627921","249.99999458139604","psychophysics","13","73076","0.0-13.0","5e6982499d7ba9245e58262a","6213d072213869dae5884c10","","","","","","",""
"3303","key"," "," ","6.944480000000024","499.9999891627921","249.99999458139604","psychophysics","14","76380","0.0-14.0","5e6982499d7ba9245e58262a","6213d072213869dae5884c10","","","","","","",""
"3782","key"," "," ","6.957278084714542","499.9999891627921","249.99999458139604","psychophysics","15","80165","0.0-15.0","5e6982499d7ba9245e58262a","6213d072213869dae5884c10","","","","","","",""
"2534","key"," "," ","6.944461538461537","499.9999891627921","249.99999458139604","psychophysics","16","82701","0.0-16.0","5e6982499d7ba9245e58262a","6213d072213869dae5884c10","","","","","","",""
"9455","key"," "," ","6.949595588235292","499.9999891627921","249.99999458139604","psychophysics","17","92158","0.0-17.0","5e6982499d7ba9245e58262a","6213d072213869dae5884c10","1","0","45","48","","",""
"11696","key"," "," ","6.944493761140819","499.9999891627921","249.99999458139604","psychophysics","18","103856","0.0-18.0","5e6982499d7ba9245e58262a","6213d072213869dae5884c10","1","5","32","33","","",""
"12320","key"," "," ","6.9444940778341735","499.9999891627921","249.99999458139604","psychophysics","19","116177","0.0-19.0","5e6982499d7ba9245e58262a","6213d072213869dae5884c10","1","0","55","64","","",""
"15398","key"," "," ","6.947623646209377","499.9999891627921","249.99999458139604","psychophysics","20","131579","0.0-20.0","5e6982499d7ba9245e58262a","6213d072213869dae5884c10","1","5","60","62","","",""
"7599","key"," "," ","6.944489031078618","499.9999891627921","249.99999458139604","psychophysics","21","139181","0.0-21.0","5e6982499d7ba9245e58262a","6213d072213869dae5884c10","1","0","44","47","","",""
"6471","key"," "," ","6.9444876476906545","499.9999891627921","249.99999458139604","psychophysics","22","145653","0.0-22.0","5e6982499d7ba9245e58262a","6213d072213869dae5884c10","1","5","25","29","","",""
"7503","key"," "," ","6.944490268767387","499.9999891627921","249.99999458139604","psychophysics","23","153158","0.0-23.0","5e6982499d7ba9245e58262a","6213d072213869dae5884c10","1","0","25","29","","",""
"6703","key"," "," ","6.9444994818652654","499.9999891627921","249.99999458139604","psychophysics","24","159863","0.0-24.0","5e6982499d7ba9245e58262a","6213d072213869dae5884c10","1","5","33","37","","",""
"9015","key"," "," ","6.944492675404767","499.9999891627921","249.99999458139604","psychophysics","25","168880","0.0-25.0","5e6982499d7ba9245e58262a","6213d072213869dae5884c10","1","0","60","63","","",""
"6399","key"," "," ","6.94449511400652","499.9999891627921","249.99999458139604","psychophysics","26","175281","0.0-26.0","5e6982499d7ba9245e58262a","6213d072213869dae5884c10","1","5","33","35","","",""
"10831","key"," "," ","6.944483643361118","499.9999891627921","249.99999458139604","psychophysics","27","186114","0.0-27.0","5e6982499d7ba9245e58262a","6213d072213869dae5884c10","1","0","47","52","","",""
"9911","key"," "," ","6.94449824807288","499.9999891627921","249.99999458139604","psychophysics","28","196027","0.0-28.0","5e6982499d7ba9245e58262a","6213d072213869dae5884c10","1","5","52","55","","",""
"9295","key"," "," ","6.944490650710535","499.9999891627921","249.99999458139604","psychophysics","29","205324","0.0-29.0","5e6982499d7ba9245e58262a","6213d072213869dae5884c10","1","0","56","64","","",""
"5327","key"," "," ","6.944490221642763","499.9999891627921","249.99999458139604","psychophysics","30","210653","0.0-30.0","5e6982499d7ba9245e58262a","6213d072213869dae5884c10","1","5","35","37","","",""
"10807","key"," "," ","6.9444964630225146","499.9999891627921","249.99999458139604","psychophysics","31","221463","0.0-31.0","5e6982499d7ba9245e58262a","6213d072213869dae5884c10","1","0","48","58","","",""
"6391","key"," "," ","6.944492391304337","499.9999891627921","249.99999458139604","psychophysics","32","227855","0.0-32.0","5e6982499d7ba9245e58262a","6213d072213869dae5884c10","1","5","33","36","","",""
"7095","key"," "," ","6.9444916748286","499.9999891627921","249.99999458139604","psychophysics","33","234952","0.0-33.0","5e6982499d7ba9245e58262a","6213d072213869dae5884c10","1","0","34","42","","",""
"7056","key"," "," ","6.944492610837442","499.9999891627921","249.99999458139604","psychophysics","34","242009","0.0-34.0","5e6982499d7ba9245e58262a","6213d072213869dae5884c10","1","5","50","56","","",""
"7447","key"," "," ","6.944491604477608","499.9999891627921","249.99999458139604","psychophysics","35","249458","0.0-35.0","5e6982499d7ba9245e58262a","6213d072213869dae5884c10","1","0","50","56","","",""
"6951","key"," "," ","6.944488000000012","499.9999891627921","249.99999458139604","psychophysics","36","256411","0.0-36.0","5e6982499d7ba9245e58262a","6213d072213869dae5884c10","1","5","29","34","","",""
"2598","key"," "," ","6.944482573726506","499.9999891627921","249.99999458139604","psychophysics","37","259011","0.0-37.0","5e6982499d7ba9245e58262a","6213d072213869dae5884c10","","","","","","",""
"4159","key"," "," ","6.944489966555173","499.9999891627921","249.99999458139604","psychophysics","38","263171","0.0-38.0","5e6982499d7ba9245e58262a","6213d072213869dae5884c10","","","","","","",""
"1191","key"," "," ","6.944473684210553","499.9999891627921","249.99999458139604","psychophysics","39","264364","0.0-39.0","5e6982499d7ba9245e58262a","6213d072213869dae5884c10","","","","","","",""
"7799","key"," "," ","6.944491978609601","499.9999891627921","249.99999458139604","psychophysics","40","272165","0.0-40.0","5e6982499d7ba9245e58262a","6213d072213869dae5884c10","2","0","47","55","","",""
"4022","key"," "," ","6.944490500863534","499.9999891627921","249.99999458139604","psychophysics","41","276189","0.0-41.0","5e6982499d7ba9245e58262a","6213d072213869dae5884c10","","","","","","",""
"8647","key"," "," ","6.944491961414771","499.9999891627921","249.99999458139604","psychophysics","42","284838","0.0-42.0","5e6982499d7ba9245e58262a","6213d072213869dae5884c10","2","0","47","50","","",""
"2367","key"," "," ","6.94447647058833","499.9999891627921","249.99999458139604","psychophysics","43","287207","0.0-43.0","5e6982499d7ba9245e58262a","6213d072213869dae5884c10","","","","","","",""
"5310","key"," "," ","6.9444882198953355","499.9999891627921","249.99999458139604","psychophysics","44","292519","0.0-44.0","5e6982499d7ba9245e58262a","6213d072213869dae5884c10","2","0","24","25","","",""
"1871","key"," "," ","6.944475836431275","499.9999891627921","249.99999458139604","psychophysics","45","294392","0.0-45.0","5e6982499d7ba9245e58262a","6213d072213869dae5884c10","","","","","","",""
"3711","key"," "," ","6.9445018726591785","499.9999891627921","249.99999458139604","psychophysics","46","298104","0.0-46.0","5e6982499d7ba9245e58262a","6213d072213869dae5884c10","2","0","38","42","","",""
"1766","key"," "," ","6.944478260869484","499.9999891627921","249.99999458139604","psychophysics","47","299872","0.0-47.0","5e6982499d7ba9245e58262a","6213d072213869dae5884c10","","","","","","",""
"4519","key"," "," ","6.944492307692283","499.9999891627921","249.99999458139604","psychophysics","48","304393","0.0-48.0","5e6982499d7ba9245e58262a","6213d072213869dae5884c10","2","0","51","50","","",""
"1758","key"," "," ","6.9444822134386115","499.9999891627921","249.99999458139604","psychophysics","49","306153","0.0-49.0","5e6982499d7ba9245e58262a","6213d072213869dae5884c10","","","","","","",""
"3694","key"," "," ","6.944476459510343","499.9999891627921","249.99999458139604","psychophysics","50","309850","0.0-50.0","5e6982499d7ba9245e58262a","6213d072213869dae5884c10","2","0","30","31","","",""
"1542","key"," "," ","6.944466063348214","499.9999891627921","249.99999458139604","psychophysics","51","311394","0.0-51.0","5e6982499d7ba9245e58262a","6213d072213869dae5884c10","","","","","","",""
"5343","key"," "," ","6.944494148244463","499.9999891627921","249.99999458139604","psychophysics","52","316738","0.0-52.0","5e6982499d7ba9245e58262a","6213d072213869dae5884c10","2","0","52","54","","",""
"1294","key"," "," ","6.944478494623708","499.9999891627921","249.99999458139604","psychophysics","53","318035","0.0-53.0","5e6982499d7ba9245e58262a","6213d072213869dae5884c10","","","","","","",""
"4718","key"," "," ","6.944477876106237","499.9999891627921","249.99999458139604","psychophysics","54","322755","0.0-54.0","5e6982499d7ba9245e58262a","6213d072213869dae5884c10","2","0","22","26","","",""
"1406","key"," "," ","6.944450495049696","499.9999891627921","249.99999458139604","psychophysics","55","324163","0.0-55.0","5e6982499d7ba9245e58262a","6213d072213869dae5884c10","","","","","","",""
"4158","key"," "," ","6.944483277591936","499.9999891627921","249.99999458139604","psychophysics","56","328324","0.0-56.0","5e6982499d7ba9245e58262a","6213d072213869dae5884c10","2","0","27","26","","",""
"1110","key"," "," ","6.944465408805295","499.9999891627921","249.99999458139604","psychophysics","57","329436","0.0-57.0","5e6982499d7ba9245e58262a","6213d072213869dae5884c10","","","","","","",""
"4911","key"," "," ","6.944480905233329","499.9999891627921","249.99999458139604","psychophysics","58","334349","0.0-58.0","5e6982499d7ba9245e58262a","6213d072213869dae5884c10","2","0","44","50","","",""
"1238","key"," "," ","6.944468926553848","499.9999891627921","249.99999458139604","psychophysics","59","335589","0.0-59.0","5e6982499d7ba9245e58262a","6213d072213869dae5884c10","","","","","","",""
"3054","key"," "," ","6.944471526195948","499.9999891627921","249.99999458139604","psychophysics","60","338645","0.0-60.0","5e6982499d7ba9245e58262a","6213d072213869dae5884c10","2","0","28","29","","",""
"1239","key"," "," ","6.944494382022445","499.9999891627921","249.99999458139604","psychophysics","61","339885","0.0-61.0","5e6982499d7ba9245e58262a","6213d072213869dae5884c10","","","","","","",""
"7023","key"," "," ","6.944492581602358","499.9999891627921","249.99999458139604","psychophysics","62","346910","0.0-62.0","5e6982499d7ba9245e58262a","6213d072213869dae5884c10","2","0","43","49","","",""
"1206","key"," "," ","6.944514450866788","499.9999891627921","249.99999458139604","psychophysics","63","348118","0.0-63.0","5e6982499d7ba9245e58262a","6213d072213869dae5884c10","","","","","","",""
"5551","key"," "," ","6.944478696741804","499.9999891627921","249.99999458139604","psychophysics","64","353671","0.0-64.0","5e6982499d7ba9245e58262a","6213d072213869dae5884c10","2","0","41","40","","",""
"1198","key"," "," ","6.9851286549707305","499.9999891627921","249.99999458139604","psychophysics","65","354871","0.0-65.0","5e6982499d7ba9245e58262a","6213d072213869dae5884c10","","","","","","",""
"11023","key"," "," ","6.944492123503457","499.9999891627921","249.99999458139604","psychophysics","66","365897","0.0-66.0","5e6982499d7ba9245e58262a","6213d072213869dae5884c10","2","0","59","61","","",""
"1654","key"," "," ","6.94446413502105","499.9999891627921","249.99999458139604","psychophysics","67","367553","0.0-67.0","5e6982499d7ba9245e58262a","6213d072213869dae5884c10","","","","","","",""
"4974","key"," "," ","6.944494413407864","499.9999891627921","249.99999458139604","psychophysics","68","372530","0.0-68.0","5e6982499d7ba9245e58262a","6213d072213869dae5884c10","2","0","22","25","","",""
"1118","key"," "," ","6.944450000000143","499.9999891627921","249.99999458139604","psychophysics","69","373650","0.0-69.0","5e6982499d7ba9245e58262a","6213d072213869dae5884c10","","","","","","",""
"2118","key"," "," ","6.944503289473735","499.9999891627921","249.99999458139604","psychophysics","70","375770","0.0-70.0","5e6982499d7ba9245e58262a","6213d072213869dae5884c10","","","","","","",""
"1607","key"," "," ","6.944441558441421","499.9999891627921","249.99999458139604","psychophysics","71","377378","0.0-71.0","5e6982499d7ba9245e58262a","6213d072213869dae5884c10","","","","","","",""
"7367","key"," "," ","6.944486792452847","499.9999891627921","249.99999458139604","psychophysics","72","384747","0.0-72.0","5e6982499d7ba9245e58262a","6213d072213869dae5884c10","3","5","45","50","","",""
"7567","key"," "," ","6.944483930211208","499.9999891627921","249.99999458139604","psychophysics","73","392316","0.0-73.0","5e6982499d7ba9245e58262a","6213d072213869dae5884c10","3","0","35","37","","",""
"4511","key"," "," ","6.944488443759627","499.9999891627921","249.99999458139604","psychophysics","74","396829","0.0-74.0","5e6982499d7ba9245e58262a","6213d072213869dae5884c10","3","5","23","25","","",""
"8903","key"," "," ","6.949916406250031","499.9999891627921","249.99999458139604","psychophysics","75","405734","0.0-75.0","5e6982499d7ba9245e58262a","6213d072213869dae5884c10","3","0","43","47","","",""
"5775","key"," "," ","6.944489771359789","499.9999891627921","249.99999458139604","psychophysics","76","411511","0.0-76.0","5e6982499d7ba9245e58262a","6213d072213869dae5884c10","3","5","44","47","","",""
"4919","key"," "," ","6.944481638418119","499.9999891627921","249.99999458139604","psychophysics","77","416432","0.0-77.0","5e6982499d7ba9245e58262a","6213d072213869dae5884c10","3","0","34","37","","",""
"7031","key"," "," ","6.9444955489614335","499.9999891627921","249.99999458139604","psychophysics","78","423464","0.0-78.0","5e6982499d7ba9245e58262a","6213d072213869dae5884c10","3","5","41","44","","",""
"7584","key"," "," ","6.944494505494484","499.9999891627921","249.99999458139604","psychophysics","79","431049","0.0-79.0","5e6982499d7ba9245e58262a","6213d072213869dae5884c10","3","0","43","49","","",""
"7287","key"," "," ","6.944499045801547","499.9999891627921","249.99999458139604","psychophysics","80","438338","0.0-80.0","5e6982499d7ba9245e58262a","6213d072213869dae5884c10","3","5","48","52","","",""
"7583","key"," "," ","6.944495875343728","499.9999891627921","249.99999458139604","psychophysics","81","445923","0.0-81.0","5e6982499d7ba9245e58262a","6213d072213869dae5884c10","3","0","37","41","","",""
"6151","key"," "," ","6.952345022624459","499.9999891627921","249.99999458139604","psychophysics","82","452076","0.0-82.0","5e6982499d7ba9245e58262a","6213d072213869dae5884c10","3","5","26","31","","",""
"13071","key"," "," ","6.944492561105225","499.9999891627921","249.99999458139604","psychophysics","83","465150","0.0-83.0","5e6982499d7ba9245e58262a","6213d072213869dae5884c10","3","0","30","41","","",""
"5983","key"," "," ","6.944486643437839","499.9999891627921","249.99999458139604","psychophysics","84","471135","0.0-84.0","5e6982499d7ba9245e58262a","6213d072213869dae5884c10","3","5","21","24","","",""
"5822","key"," "," ","6.944487455197089","499.9999891627921","249.99999458139604","psychophysics","85","476959","0.0-85.0","5e6982499d7ba9245e58262a","6213d072213869dae5884c10","3","0","32","38","","",""
"5063","key"," "," ","6.944491083676248","499.9999891627921","249.99999458139604","psychophysics","86","482024","0.0-86.0","5e6982499d7ba9245e58262a","6213d072213869dae5884c10","3","5","34","36","","",""
"4079","key"," "," ","6.944496587030776","499.9999891627921","249.99999458139604","psychophysics","87","486105","0.0-87.0","5e6982499d7ba9245e58262a","6213d072213869dae5884c10","3","0","26","29","","",""
"5887","key"," "," ","6.9527044917257825","499.9999891627921","249.99999458139604","psychophysics","88","491993","0.0-88.0","5e6982499d7ba9245e58262a","6213d072213869dae5884c10","3","5","27","29","","",""
"8456","key"," "," ","6.944498767460983","499.9999891627921","249.99999458139604","psychophysics","89","500450","0.0-89.0","5e6982499d7ba9245e58262a","6213d072213869dae5884c10","3","0","53","60","","",""
"5967","key"," "," ","6.944500582072178","499.9999891627921","249.99999458139604","psychophysics","90","506419","0.0-90.0","5e6982499d7ba9245e58262a","6213d072213869dae5884c10","3","5","29","32","","",""
"5271","key"," "," ","6.944473614775678","499.9999891627921","249.99999458139604","psychophysics","91","511692","0.0-91.0","5e6982499d7ba9245e58262a","6213d072213869dae5884c10","3","0","20","25","","",""
"2262","key"," "," ","6.944461538461395","499.9999891627921","249.99999458139604","psychophysics","92","513956","0.0-92.0","5e6982499d7ba9245e58262a","6213d072213869dae5884c10","","","","","","",""
"38333","","","v","","","","html-keyboard-response","93","552289","0.0-93.0","5e6982499d7ba9245e58262a","6213d072213869dae5884c10","","","","","<p> In this part of the experiment, we are going present digits 1, 2, 3, 4, 6, 7, 8, and 9.  Notice that 5 is missing.  Your job is to say whether the presented digit is less than or greater than 5.  For example, 3 is less than 5 and 7 is greater than 5.  If the digit is less than 5, press the v key; if it is greater than 5, press the n key. We are going to do 200 of these in total, but only 50 righ now. They go real fast.</p>  <br><br>  Ready? (press v or n)","",""
"2957","key","v","v","6.950974178403734","499.9999891627921","249.99999458139604","psychophysics","94","555249","0.0-94.0","5e6982499d7ba9245e58262a","6213d072213869dae5884c10","4","","","","","1","2"
"null","","","null","","","","html-keyboard-response","95","555750","0.0-95.0","5e6982499d7ba9245e58262a","6213d072213869dae5884c10","","","","","<p style=""color:darkgreen;font-size:24px;"">Correct :)</p>","",""
"2466","key","n","n","6.944601123595318","499.9999891627921","249.99999458139604","psychophysics","96","558217","0.0-96.0","5e6982499d7ba9245e58262a","6213d072213869dae5884c10","4","","","","","1","6"
"null","","","null","","","","html-keyboard-response","97","558718","0.0-97.0","5e6982499d7ba9245e58262a","6213d072213869dae5884c10","","","","","<p style=""color:darkgreen;font-size:24px;"">Correct :)</p>","",""
"2401","key","n","n","6.944604046242729","499.9999891627921","249.99999458139604","psychophysics","98","561122","0.0-98.0","5e6982499d7ba9245e58262a","6213d072213869dae5884c10","4","","","","","1","9"
"null","","","null","","","","html-keyboard-response","99","561629","0.0-99.0","5e6982499d7ba9245e58262a","6213d072213869dae5884c10","","","","","<p style=""color:darkgreen;font-size:24px;"">Correct :)</p>","",""
"2435","key","n","n","6.944638176638423","499.9999891627921","249.99999458139604","psychophysics","100","564066","0.0-100.0","5e6982499d7ba9245e58262a","6213d072213869dae5884c10","4","","","","","1","9"
"null","","","null","","","","html-keyboard-response","101","564567","0.0-101.0","5e6982499d7ba9245e58262a","6213d072213869dae5884c10","","","","","<p style=""color:darkgreen;font-size:24px;"">Correct :)</p>","",""
"2474","key","n","n","6.94461235955058","499.9999891627921","249.99999458139604","psychophysics","102","567042","0.0-102.0","5e6982499d7ba9245e58262a","6213d072213869dae5884c10","4","","","","","1","7"
"null","","","null","","","","html-keyboard-response","103","567543","0.0-103.0","5e6982499d7ba9245e58262a","6213d072213869dae5884c10","","","","","<p style=""color:darkgreen;font-size:24px;"">Correct :)</p>","",""
"2666","key","v","v","6.944598958333397","499.9999891627921","249.99999458139604","psychophysics","104","570211","0.0-104.0","5e6982499d7ba9245e58262a","6213d072213869dae5884c10","4","","","","","1","4"
"null","","","null","","","","html-keyboard-response","105","570711","0.0-105.0","5e6982499d7ba9245e58262a","6213d072213869dae5884c10","","","","","<p style=""color:darkgreen;font-size:24px;"">Correct :)</p>","",""
"2482","key","n","n","6.944602240896353","499.9999891627921","249.99999458139604","psychophysics","106","573195","0.0-106.0","5e6982499d7ba9245e58262a","6213d072213869dae5884c10","4","","","","","1","7"
"null","","","null","","","","html-keyboard-response","107","573696","0.0-107.0","5e6982499d7ba9245e58262a","6213d072213869dae5884c10","","","","","<p style=""color:darkgreen;font-size:24px;"">Correct :)</p>","",""
"2530","key","n","n","6.944609890109859","499.9999891627921","249.99999458139604","psychophysics","108","576228","0.0-108.0","5e6982499d7ba9245e58262a","6213d072213869dae5884c10","4","","","","","1","8"
"null","","","null","","","","html-keyboard-response","109","576729","0.0-109.0","5e6982499d7ba9245e58262a","6213d072213869dae5884c10","","","","","<p style=""color:darkgreen;font-size:24px;"">Correct :)</p>","",""
"2450","key","v","v","6.9446232294615635","499.9999891627921","249.99999458139604","psychophysics","110","579180","0.0-110.0","5e6982499d7ba9245e58262a","6213d072213869dae5884c10","4","","","","","1","1"
"null","","","null","","","","html-keyboard-response","111","579694","0.0-111.0","5e6982499d7ba9245e58262a","6213d072213869dae5884c10","","","","","<p style=""color:darkgreen;font-size:24px;"">Correct :)</p>","",""
"2468","key","n","n","6.944623595505516","499.9999891627921","249.99999458139604","psychophysics","112","582164","0.0-112.0","5e6982499d7ba9245e58262a","6213d072213869dae5884c10","4","","","","","1","8"
"null","","","null","","","","html-keyboard-response","113","582665","0.0-113.0","5e6982499d7ba9245e58262a","6213d072213869dae5884c10","","","","","<p style=""color:darkgreen;font-size:24px;"">Correct :)</p>","",""
"2450","key","n","n","6.944617563739245","499.9999891627921","249.99999458139604","psychophysics","114","585117","0.0-114.0","5e6982499d7ba9245e58262a","6213d072213869dae5884c10","4","","","","","1","9"
"null","","","null","","","","html-keyboard-response","115","585618","0.0-115.0","5e6982499d7ba9245e58262a","6213d072213869dae5884c10","","","","","<p style=""color:darkgreen;font-size:24px;"">Correct :)</p>","",""
"2434","key","v","v","6.944621082621181","499.9999891627921","249.99999458139604","psychophysics","116","588053","0.0-116.0","5e6982499d7ba9245e58262a","6213d072213869dae5884c10","4","","","","","1","4"
"null","","","null","","","","html-keyboard-response","117","588554","0.0-117.0","5e6982499d7ba9245e58262a","6213d072213869dae5884c10","","","","","<p style=""color:darkgreen;font-size:24px;"">Correct :)</p>","",""
"2457","key","v","v","6.944593220339144","499.9999891627921","249.99999458139604","psychophysics","118","591013","0.0-118.0","5e6982499d7ba9245e58262a","6213d072213869dae5884c10","4","","","","","1","4"
"null","","","null","","","","html-keyboard-response","119","591514","0.0-119.0","5e6982499d7ba9245e58262a","6213d072213869dae5884c10","","","","","<p style=""color:darkgreen;font-size:24px;"">Correct :)</p>","",""
"2458","key","n","n","6.944612994350396","499.9999891627921","249.99999458139604","psychophysics","120","593974","0.0-120.0","5e6982499d7ba9245e58262a","6213d072213869dae5884c10","4","","","","","1","8"
"null","","","null","","","","html-keyboard-response","121","594475","0.0-121.0","5e6982499d7ba9245e58262a","6213d072213869dae5884c10","","","","","<p style=""color:darkgreen;font-size:24px;"">Correct :)</p>","",""
"2577","key","n","n","6.94464690026964","499.9999891627921","249.99999458139604","psychophysics","122","597054","0.0-122.0","5e6982499d7ba9245e58262a","6213d072213869dae5884c10","4","","","","","1","9"
"null","","","null","","","","html-keyboard-response","123","597555","0.0-123.0","5e6982499d7ba9245e58262a","6213d072213869dae5884c10","","","","","<p style=""color:darkgreen;font-size:24px;"">Correct :)</p>","",""
"2402","key","v","v","6.944624277456553","499.9999891627921","249.99999458139604","psychophysics","124","599959","0.0-124.0","5e6982499d7ba9245e58262a","6213d072213869dae5884c10","4","","","","","1","1"
"null","","","null","","","","html-keyboard-response","125","600459","0.0-125.0","5e6982499d7ba9245e58262a","6213d072213869dae5884c10","","","","","<p style=""color:darkgreen;font-size:24px;"">Correct :)</p>","",""
"2418","key","v","v","6.984622478386473","499.9999891627921","249.99999458139604","psychophysics","126","602879","0.0-126.0","5e6982499d7ba9245e58262a","6213d072213869dae5884c10","4","","","","","1","1"
"null","","","null","","","","html-keyboard-response","127","603382","0.0-127.0","5e6982499d7ba9245e58262a","6213d072213869dae5884c10","","","","","<p style=""color:darkgreen;font-size:24px;"">Correct :)</p>","",""
"2440","key","n","n","6.944605113636168","499.9999891627921","249.99999458139604","psychophysics","128","605823","0.0-128.0","5e6982499d7ba9245e58262a","6213d072213869dae5884c10","4","","","","","1","8"
"null","","","null","","","","html-keyboard-response","129","606325","0.0-129.0","5e6982499d7ba9245e58262a","6213d072213869dae5884c10","","","","","<p style=""color:darkgreen;font-size:24px;"">Correct :)</p>","",""
"2441","key","n","n","6.94461647727274","499.9999891627921","249.99999458139604","psychophysics","130","608768","0.0-130.0","5e6982499d7ba9245e58262a","6213d072213869dae5884c10","4","","","","","1","6"
"null","","","null","","","","html-keyboard-response","131","609268","0.0-131.0","5e6982499d7ba9245e58262a","6213d072213869dae5884c10","","","","","<p style=""color:darkgreen;font-size:24px;"">Correct :)</p>","",""
"2474","key","n","n","6.944651685393183","499.9999891627921","249.99999458139604","psychophysics","132","611744","0.0-132.0","5e6982499d7ba9245e58262a","6213d072213869dae5884c10","4","","","","","1","8"
"null","","","null","","","","html-keyboard-response","133","612245","0.0-133.0","5e6982499d7ba9245e58262a","6213d072213869dae5884c10","","","","","<p style=""color:darkgreen;font-size:24px;"">Correct :)</p>","",""
"2426","key","n","n","6.944613180515546","499.9999891627921","249.99999458139604","psychophysics","134","614672","0.0-134.0","5e6982499d7ba9245e58262a","6213d072213869dae5884c10","4","","","","","1","7"
"null","","","null","","","","html-keyboard-response","135","615174","0.0-135.0","5e6982499d7ba9245e58262a","6213d072213869dae5884c10","","","","","<p style=""color:darkgreen;font-size:24px;"">Correct :)</p>","",""
"2449","key","n","n","6.944617563739245","499.9999891627921","249.99999458139604","psychophysics","136","617625","0.0-136.0","5e6982499d7ba9245e58262a","6213d072213869dae5884c10","4","","","","","1","8"
"null","","","null","","","","html-keyboard-response","137","618125","0.0-137.0","5e6982499d7ba9245e58262a","6213d072213869dae5884c10","","","","","<p style=""color:darkgreen;font-size:24px;"">Correct :)</p>","",""
"2387","key","n","n","6.944622093023121","499.9999891627921","249.99999458139604","psychophysics","138","620513","0.0-138.0","5e6982499d7ba9245e58262a","6213d072213869dae5884c10","4","","","","","1","7"
"null","","","null","","","","html-keyboard-response","139","621014","0.0-139.0","5e6982499d7ba9245e58262a","6213d072213869dae5884c10","","","","","<p style=""color:darkgreen;font-size:24px;"">Correct :)</p>","",""
"2538","key","v","v","6.944587431694101","499.9999891627921","249.99999458139604","psychophysics","140","623554","0.0-140.0","5e6982499d7ba9245e58262a","6213d072213869dae5884c10","4","","","","","1","4"
"null","","","null","","","","html-keyboard-response","141","624055","0.0-141.0","5e6982499d7ba9245e58262a","6213d072213869dae5884c10","","","","","<p style=""color:darkgreen;font-size:24px;"">Correct :)</p>","",""
"2481","key","n","n","6.944617318435944","499.9999891627921","249.99999458139604","psychophysics","142","626538","0.0-142.0","5e6982499d7ba9245e58262a","6213d072213869dae5884c10","4","","","","","1","6"
"null","","","null","","","","html-keyboard-response","143","627038","0.0-143.0","5e6982499d7ba9245e58262a","6213d072213869dae5884c10","","","","","<p style=""color:darkgreen;font-size:24px;"">Correct :)</p>","",""
"2482","key","v","v","6.944610644257771","499.9999891627921","249.99999458139604","psychophysics","144","629522","0.0-144.0","5e6982499d7ba9245e58262a","6213d072213869dae5884c10","4","","","","","1","3"
"null","","","null","","","","html-keyboard-response","145","630023","0.0-145.0","5e6982499d7ba9245e58262a","6213d072213869dae5884c10","","","","","<p style=""color:darkgreen;font-size:24px;"">Correct :)</p>","",""
"2434","key","n","n","6.944611428571267","499.9999891627921","249.99999458139604","psychophysics","146","632459","0.0-146.0","5e6982499d7ba9245e58262a","6213d072213869dae5884c10","4","","","","","1","9"
"null","","","null","","","","html-keyboard-response","147","632960","0.0-147.0","5e6982499d7ba9245e58262a","6213d072213869dae5884c10","","","","","<p style=""color:darkgreen;font-size:24px;"">Correct :)</p>","",""
"2425","key","n","n","7.004639769452409","499.9999891627921","249.99999458139604","psychophysics","148","635387","0.0-148.0","5e6982499d7ba9245e58262a","6213d072213869dae5884c10","4","","","","","1","6"
"null","","","null","","","","html-keyboard-response","149","635888","0.0-149.0","5e6982499d7ba9245e58262a","6213d072213869dae5884c10","","","","","<p style=""color:darkgreen;font-size:24px;"">Correct :)</p>","",""
"2426","key","v","v","6.944617142857252","499.9999891627921","249.99999458139604","psychophysics","150","638315","0.0-150.0","5e6982499d7ba9245e58262a","6213d072213869dae5884c10","4","","","","","1","1"
"null","","","null","","","","html-keyboard-response","151","638816","0.0-151.0","5e6982499d7ba9245e58262a","6213d072213869dae5884c10","","","","","<p style=""color:darkgreen;font-size:24px;"">Correct :)</p>","",""
"2498","key","n","n","6.944619444444348","499.9999891627921","249.99999458139604","psychophysics","152","641316","0.0-152.0","5e6982499d7ba9245e58262a","6213d072213869dae5884c10","4","","","","","1","7"
"null","","","null","","","","html-keyboard-response","153","641817","0.0-153.0","5e6982499d7ba9245e58262a","6213d072213869dae5884c10","","","","","<p style=""color:darkgreen;font-size:24px;"">Correct :)</p>","",""
"2409","key","n","n","6.944634005763523","499.9999891627921","249.99999458139604","psychophysics","154","644228","0.0-154.0","5e6982499d7ba9245e58262a","6213d072213869dae5884c10","4","","","","","1","8"
"null","","","null","","","","html-keyboard-response","155","644729","0.0-155.0","5e6982499d7ba9245e58262a","6213d072213869dae5884c10","","","","","<p style=""color:darkgreen;font-size:24px;"">Correct :)</p>","",""
"2411","key","n","n","6.944610951008726","499.9999891627921","249.99999458139604","psychophysics","156","647141","0.0-156.0","5e6982499d7ba9245e58262a","6213d072213869dae5884c10","4","","","","","1","9"
"null","","","null","","","","html-keyboard-response","157","647641","0.0-157.0","5e6982499d7ba9245e58262a","6213d072213869dae5884c10","","","","","<p style=""color:darkgreen;font-size:24px;"">Correct :)</p>","",""
"2466","key","n","n","6.944605633802712","499.9999891627921","249.99999458139604","psychophysics","158","650109","0.0-158.0","5e6982499d7ba9245e58262a","6213d072213869dae5884c10","4","","","","","1","9"
"null","","","null","","","","html-keyboard-response","159","650610","0.0-159.0","5e6982499d7ba9245e58262a","6213d072213869dae5884c10","","","","","<p style=""color:darkgreen;font-size:24px;"">Correct :)</p>","",""
"2482","key","n","n","6.9446145251393965","499.9999891627921","249.99999458139604","psychophysics","160","653093","0.0-160.0","5e6982499d7ba9245e58262a","6213d072213869dae5884c10","4","","","","","1","7"
"null","","","null","","","","html-keyboard-response","161","653595","0.0-161.0","5e6982499d7ba9245e58262a","6213d072213869dae5884c10","","","","","<p style=""color:darkgreen;font-size:24px;"">Correct :)</p>","",""
"2394","key","n","n","6.9446115942027395","499.9999891627921","249.99999458139604","psychophysics","162","655990","0.0-162.0","5e6982499d7ba9245e58262a","6213d072213869dae5884c10","4","","","","","1","6"
"null","","","null","","","","html-keyboard-response","163","656490","0.0-163.0","5e6982499d7ba9245e58262a","6213d072213869dae5884c10","","","","","<p style=""color:darkgreen;font-size:24px;"">Correct :)</p>","",""
"2482","key","v","v","6.944599439775772","499.9999891627921","249.99999458139604","psychophysics","164","658974","0.0-164.0","5e6982499d7ba9245e58262a","6213d072213869dae5884c10","4","","","","","1","4"
"null","","","null","","","","html-keyboard-response","165","659475","0.0-165.0","5e6982499d7ba9245e58262a","6213d072213869dae5884c10","","","","","<p style=""color:darkgreen;font-size:24px;"">Correct :)</p>","",""
"2530","key","v","v","6.944615384615295","499.9999891627921","249.99999458139604","psychophysics","166","662006","0.0-166.0","5e6982499d7ba9245e58262a","6213d072213869dae5884c10","4","","","","","1","4"
"null","","","null","","","","html-keyboard-response","167","662508","0.0-167.0","5e6982499d7ba9245e58262a","6213d072213869dae5884c10","","","","","<p style=""color:darkgreen;font-size:24px;"">Correct :)</p>","",""
"2418","key","v","v","6.944613180515879","499.9999891627921","249.99999458139604","psychophysics","168","664927","0.0-168.0","5e6982499d7ba9245e58262a","6213d072213869dae5884c10","4","","","","","1","1"
"null","","","null","","","","html-keyboard-response","169","665427","0.0-169.0","5e6982499d7ba9245e58262a","6213d072213869dae5884c10","","","","","<p style=""color:darkgreen;font-size:24px;"">Correct :)</p>","",""
"2426","key","v","v","6.944616045845195","499.9999891627921","249.99999458139604","psychophysics","170","667855","0.0-170.0","5e6982499d7ba9245e58262a","6213d072213869dae5884c10","4","","","","","1","1"
"null","","","null","","","","html-keyboard-response","171","668369","0.0-171.0","5e6982499d7ba9245e58262a","6213d072213869dae5884c10","","","","","<p style=""color:darkgreen;font-size:24px;"">Correct :)</p>","",""
"2437","key","n","n","6.984401146131755","499.9999891627921","249.99999458139604","psychophysics","172","670808","0.0-172.0","5e6982499d7ba9245e58262a","6213d072213869dae5884c10","4","","","","","1","6"
"null","","","null","","","","html-keyboard-response","173","671309","0.0-173.0","5e6982499d7ba9245e58262a","6213d072213869dae5884c10","","","","","<p style=""color:darkgreen;font-size:24px;"">Correct :)</p>","",""
"2442","key","n","n","6.944606837606923","499.9999891627921","249.99999458139604","psychophysics","174","673752","0.0-174.0","5e6982499d7ba9245e58262a","6213d072213869dae5884c10","4","","","","","1","8"
"null","","","null","","","","html-keyboard-response","175","674258","0.0-175.0","5e6982499d7ba9245e58262a","6213d072213869dae5884c10","","","","","<p style=""color:darkgreen;font-size:24px;"">Correct :)</p>","",""
"2389","key","n","n","6.944605797101352","499.9999891627921","249.99999458139604","psychophysics","176","676649","0.0-176.0","5e6982499d7ba9245e58262a","6213d072213869dae5884c10","4","","","","","1","9"
"null","","","null","","","","html-keyboard-response","177","677149","0.0-177.0","5e6982499d7ba9245e58262a","6213d072213869dae5884c10","","","","","<p style=""color:darkgreen;font-size:24px;"">Correct :)</p>","",""
"2410","key","v","v","6.944613832852908","499.9999891627921","249.99999458139604","psychophysics","178","679561","0.0-178.0","5e6982499d7ba9245e58262a","6213d072213869dae5884c10","4","","","","","1","2"
"null","","","null","","","","html-keyboard-response","179","680062","0.0-179.0","5e6982499d7ba9245e58262a","6213d072213869dae5884c10","","","","","<p style=""color:darkgreen;font-size:24px;"">Correct :)</p>","",""
"2465","key","v","v","6.9446281690140665","499.9999891627921","249.99999458139604","psychophysics","180","682529","0.0-180.0","5e6982499d7ba9245e58262a","6213d072213869dae5884c10","4","","","","","1","2"
"null","","","null","","","","html-keyboard-response","181","683031","0.0-181.0","5e6982499d7ba9245e58262a","6213d072213869dae5884c10","","","","","<p style=""color:darkgreen;font-size:24px;"">Correct :)</p>","",""
"2417","key","v","v","6.944629310344576","499.9999891627921","249.99999458139604","psychophysics","182","685450","0.0-182.0","5e6982499d7ba9245e58262a","6213d072213869dae5884c10","4","","","","","1","2"
"null","","","null","","","","html-keyboard-response","183","685950","0.0-183.0","5e6982499d7ba9245e58262a","6213d072213869dae5884c10","","","","","<p style=""color:darkgreen;font-size:24px;"">Correct :)</p>","",""
"2418","key","n","n","6.94460344827572","499.9999891627921","249.99999458139604","psychophysics","184","688370","0.0-184.0","5e6982499d7ba9245e58262a","6213d072213869dae5884c10","4","","","","","1","7"
"null","","","null","","","","html-keyboard-response","185","688871","0.0-185.0","5e6982499d7ba9245e58262a","6213d072213869dae5884c10","","","","","<p style=""color:darkgreen;font-size:24px;"">Correct :)</p>","",""
"2418","key","n","n","6.9446120689654505","499.9999891627921","249.99999458139604","psychophysics","186","691290","0.0-186.0","5e6982499d7ba9245e58262a","6213d072213869dae5884c10","4","","","","","1","6"
"null","","","null","","","","html-keyboard-response","187","691792","0.0-187.0","5e6982499d7ba9245e58262a","6213d072213869dae5884c10","","","","","<p style=""color:darkgreen;font-size:24px;"">Correct :)</p>","",""
"2418","key","n","n","6.944636103152071","499.9999891627921","249.99999458139604","psychophysics","188","694211","0.0-188.0","5e6982499d7ba9245e58262a","6213d072213869dae5884c10","4","","","","","1","8"
"null","","","null","","","","html-keyboard-response","189","694712","0.0-189.0","5e6982499d7ba9245e58262a","6213d072213869dae5884c10","","","","","<p style=""color:darkgreen;font-size:24px;"">Correct :)</p>","",""
"2434","key","n","n","6.944614285714259","499.9999891627921","249.99999458139604","psychophysics","190","697147","0.0-190.0","5e6982499d7ba9245e58262a","6213d072213869dae5884c10","4","","","","","1","8"
"null","","","null","","","","html-keyboard-response","191","697648","0.0-191.0","5e6982499d7ba9245e58262a","6213d072213869dae5884c10","","","","","<p style=""color:darkgreen;font-size:24px;"">Correct :)</p>","",""
"2386","key","v","v","6.985230994152112","499.9999891627921","249.99999458139604","psychophysics","192","700035","0.0-192.0","5e6982499d7ba9245e58262a","6213d072213869dae5884c10","4","","","","","1","2"
"null","","","null","","","","html-keyboard-response","193","700552","0.0-193.0","5e6982499d7ba9245e58262a","6213d072213869dae5884c10","","","","","<p style=""color:darkgreen;font-size:24px;"">Correct :)</p>","",""
"12893","","","v","","","","html-keyboard-response","194","713445","0.0-194.0","5e6982499d7ba9245e58262a","6213d072213869dae5884c10","","","","","<p> Ok, now we are going present the same digits as before.  Your job is to say whether the digit is even or odd  If the digit is odd, press to v key; if it is even, press the n key. We are going to do 50 of these.  </p>  <br><br>  Ready? (press v or n)","",""
"2662","key","n","n","6.946921875000044","499.9999891627921","249.99999458139604","psychophysics","195","716110","0.0-195.0","5e6982499d7ba9245e58262a","6213d072213869dae5884c10","5","","","","","0","8"
"null","","","null","","","","html-keyboard-response","196","716610","0.0-196.0","5e6982499d7ba9245e58262a","6213d072213869dae5884c10","","","","","<p style=""color:darkgreen;font-size:24px;"">Correct :)</p>","",""
"2978","key","n","n","6.9445897435898605","499.9999891627921","249.99999458139604","psychophysics","197","719590","0.0-197.0","5e6982499d7ba9245e58262a","6213d072213869dae5884c10","5","","","","","0","6"
"null","","","null","","","","html-keyboard-response","198","720101","0.0-198.0","5e6982499d7ba9245e58262a","6213d072213869dae5884c10","","","","","<p style=""color:darkgreen;font-size:24px;"">Correct :)</p>","",""
"2423","key","n","n","6.944636103151737","499.9999891627921","249.99999458139604","psychophysics","199","722526","0.0-199.0","5e6982499d7ba9245e58262a","6213d072213869dae5884c10","5","","","","","0","6"
"null","","","null","","","","html-keyboard-response","200","723027","0.0-200.0","5e6982499d7ba9245e58262a","6213d072213869dae5884c10","","","","","<p style=""color:darkgreen;font-size:24px;"">Correct :)</p>","",""
"2610","key","v","v","6.944611702127657","499.9999891627921","249.99999458139604","psychophysics","201","725639","0.0-201.0","5e6982499d7ba9245e58262a","6213d072213869dae5884c10","5","","","","","0","7"
"null","","","null","","","","html-keyboard-response","202","726140","0.0-202.0","5e6982499d7ba9245e58262a","6213d072213869dae5884c10","","","","","<p style=""color:darkgreen;font-size:24px;"">Correct :)</p>","",""
"2585","key","v","v","6.944605898123294","499.9999891627921","249.99999458139604","psychophysics","203","728727","0.0-203.0","5e6982499d7ba9245e58262a","6213d072213869dae5884c10","5","","","","","0","3"
"null","","","null","","","","html-keyboard-response","204","729228","0.0-204.0","5e6982499d7ba9245e58262a","6213d072213869dae5884c10","","","","","<p style=""color:darkgreen;font-size:24px;"">Correct :)</p>","",""
"2650","key","v","v","6.944589005235561","499.9999891627921","249.99999458139604","psychophysics","205","731879","0.0-205.0","5e6982499d7ba9245e58262a","6213d072213869dae5884c10","5","","","","","0","1"
"null","","","null","","","","html-keyboard-response","206","732381","0.0-206.0","5e6982499d7ba9245e58262a","6213d072213869dae5884c10","","","","","<p style=""color:darkgreen;font-size:24px;"">Correct :)</p>","",""
"2530","key","v","v","6.944618131868173","499.9999891627921","249.99999458139604","psychophysics","207","734912","0.0-207.0","5e6982499d7ba9245e58262a","6213d072213869dae5884c10","5","","","","","0","3"
"null","","","null","","","","html-keyboard-response","208","735417","0.0-208.0","5e6982499d7ba9245e58262a","6213d072213869dae5884c10","","","","","<p style=""color:darkgreen;font-size:24px;"">Correct :)</p>","",""
"2399","key","n","n","6.944621387283342","499.9999891627921","249.99999458139604","psychophysics","209","737817","0.0-209.0","5e6982499d7ba9245e58262a","6213d072213869dae5884c10","5","","","","","0","6"
"null","","","null","","","","html-keyboard-response","210","738317","0.0-210.0","5e6982499d7ba9245e58262a","6213d072213869dae5884c10","","","","","<p style=""color:darkgreen;font-size:24px;"">Correct :)</p>","",""
"2450","key","n","n","6.94459490084964","499.9999891627921","249.99999458139604","psychophysics","211","740769","0.0-211.0","5e6982499d7ba9245e58262a","6213d072213869dae5884c10","5","","","","","0","4"
"null","","","null","","","","html-keyboard-response","212","741270","0.0-212.0","5e6982499d7ba9245e58262a","6213d072213869dae5884c10","","","","","<p style=""color:darkgreen;font-size:24px;"">Correct :)</p>","",""
"2465","key","n","n","6.9446197183097675","499.9999891627921","249.99999458139604","psychophysics","213","743737","0.0-213.0","5e6982499d7ba9245e58262a","6213d072213869dae5884c10","5","","","","","0","6"
"null","","","null","","","","html-keyboard-response","214","744239","0.0-214.0","5e6982499d7ba9245e58262a","6213d072213869dae5884c10","","","","","<p style=""color:darkgreen;font-size:24px;"">Correct :)</p>","",""
"2505","key","v","v","7.022420168067107","499.9999891627921","249.99999458139604","psychophysics","215","746746","0.0-215.0","5e6982499d7ba9245e58262a","6213d072213869dae5884c10","5","","","","","0","7"
"null","","","null","","","","html-keyboard-response","216","747246","0.0-216.0","5e6982499d7ba9245e58262a","6213d072213869dae5884c10","","","","","<p style=""color:darkgreen;font-size:24px;"">Correct :)</p>","",""
"2690","key","v","v","6.94460723514203","499.9999891627921","249.99999458139604","psychophysics","217","749938","0.0-217.0","5e6982499d7ba9245e58262a","6213d072213869dae5884c10","5","","","","","0","9"
"null","","","null","","","","html-keyboard-response","218","750439","0.0-218.0","5e6982499d7ba9245e58262a","6213d072213869dae5884c10","","","","","<p style=""color:darkgreen;font-size:24px;"">Correct :)</p>","",""
"2530","key","n","n","6.944610958903938","499.9999891627921","249.99999458139604","psychophysics","219","752970","0.0-219.0","5e6982499d7ba9245e58262a","6213d072213869dae5884c10","5","","","","","0","8"
"null","","","null","","","","html-keyboard-response","220","753471","0.0-220.0","5e6982499d7ba9245e58262a","6213d072213869dae5884c10","","","","","<p style=""color:darkgreen;font-size:24px;"">Correct :)</p>","",""
"2538","key","n","n","6.944603825136548","499.9999891627921","249.99999458139604","psychophysics","221","756011","0.0-221.0","5e6982499d7ba9245e58262a","6213d072213869dae5884c10","5","","","","","0","8"
"null","","","null","","","","html-keyboard-response","222","756511","0.0-222.0","5e6982499d7ba9245e58262a","6213d072213869dae5884c10","","","","","<p style=""color:darkgreen;font-size:24px;"">Correct :)</p>","",""
"2547","key","n","n","6.944591280654053","499.9999891627921","249.99999458139604","psychophysics","223","759059","0.0-223.0","5e6982499d7ba9245e58262a","6213d072213869dae5884c10","5","","","","","0","6"
"null","","","null","","","","html-keyboard-response","224","759560","0.0-224.0","5e6982499d7ba9245e58262a","6213d072213869dae5884c10","","","","","<p style=""color:darkgreen;font-size:24px;"">Correct :)</p>","",""
"2602","key","v","v","6.944602666666731","499.9999891627921","249.99999458139604","psychophysics","225","762164","0.0-225.0","5e6982499d7ba9245e58262a","6213d072213869dae5884c10","5","","","","","0","9"
"null","","","null","","","","html-keyboard-response","226","762665","0.0-226.0","5e6982499d7ba9245e58262a","6213d072213869dae5884c10","","","","","<p style=""color:darkgreen;font-size:24px;"">Correct :)</p>","",""
"2753","key","n","n","6.9446035353534485","499.9999891627921","249.99999458139604","psychophysics","227","765420","0.0-227.0","5e6982499d7ba9245e58262a","6213d072213869dae5884c10","5","","","","","0","2"
"null","","","null","","","","html-keyboard-response","228","765921","0.0-228.0","5e6982499d7ba9245e58262a","6213d072213869dae5884c10","","","","","<p style=""color:darkgreen;font-size:24px;"">Correct :)</p>","",""
"2994","key","n","n","6.944598607888571","499.9999891627921","249.99999458139604","psychophysics","229","768916","0.0-229.0","5e6982499d7ba9245e58262a","6213d072213869dae5884c10","5","","","","","0","6"
"null","","","null","","","","html-keyboard-response","230","769417","0.0-230.0","5e6982499d7ba9245e58262a","6213d072213869dae5884c10","","","","","<p style=""color:darkgreen;font-size:24px;"">Correct :)</p>","",""
"2914","key","n","n","6.944590476190482","499.9999891627921","249.99999458139604","psychophysics","231","772333","0.0-231.0","5e6982499d7ba9245e58262a","6213d072213869dae5884c10","5","","","","","0","4"
"null","","","null","","","","html-keyboard-response","232","772834","0.0-232.0","5e6982499d7ba9245e58262a","6213d072213869dae5884c10","","","","","<p style=""color:darkgreen;font-size:24px;"">Correct :)</p>","",""
"2625","key","v","v","6.94461111111102","499.9999891627921","249.99999458139604","psychophysics","233","775461","0.0-233.0","5e6982499d7ba9245e58262a","6213d072213869dae5884c10","5","","","","","0","9"
"null","","","null","","","","html-keyboard-response","234","775962","0.0-234.0","5e6982499d7ba9245e58262a","6213d072213869dae5884c10","","","","","<p style=""color:darkgreen;font-size:24px;"">Correct :)</p>","",""
"2562","key","v","v","6.944598915989241","499.9999891627921","249.99999458139604","psychophysics","235","778526","0.0-235.0","5e6982499d7ba9245e58262a","6213d072213869dae5884c10","5","","","","","0","9"
"null","","","null","","","","html-keyboard-response","236","779030","0.0-236.0","5e6982499d7ba9245e58262a","6213d072213869dae5884c10","","","","","<p style=""color:darkgreen;font-size:24px;"">Correct :)</p>","",""
"2719","key","v","v","6.94460714285705","499.9999891627921","249.99999458139604","psychophysics","237","781750","0.0-237.0","5e6982499d7ba9245e58262a","6213d072213869dae5884c10","5","","","","","0","3"
"null","","","null","","","","html-keyboard-response","238","782259","0.0-238.0","5e6982499d7ba9245e58262a","6213d072213869dae5884c10","","","","","<p style=""color:darkgreen;font-size:24px;"">Correct :)</p>","",""
"2747","key","n","n","6.9446035353534485","499.9999891627921","249.99999458139604","psychophysics","239","785007","0.0-239.0","5e6982499d7ba9245e58262a","6213d072213869dae5884c10","5","","","","","0","6"
"null","","","null","","","","html-keyboard-response","240","785508","0.0-240.0","5e6982499d7ba9245e58262a","6213d072213869dae5884c10","","","","","<p style=""color:darkgreen;font-size:24px;"">Correct :)</p>","",""
"2626","key","v","v","6.944600529100551","499.9999891627921","249.99999458139604","psychophysics","241","788135","0.0-241.0","5e6982499d7ba9245e58262a","6213d072213869dae5884c10","5","","","","","0","9"
"null","","","null","","","","html-keyboard-response","242","788635","0.0-242.0","5e6982499d7ba9245e58262a","6213d072213869dae5884c10","","","","","<p style=""color:darkgreen;font-size:24px;"">Correct :)</p>","",""
"2586","key","v","v","6.944607526881643","499.9999891627921","249.99999458139604","psychophysics","243","791223","0.0-243.0","5e6982499d7ba9245e58262a","6213d072213869dae5884c10","5","","","","","0","7"
"null","","","null","","","","html-keyboard-response","244","791724","0.0-244.0","5e6982499d7ba9245e58262a","6213d072213869dae5884c10","","","","","<p style=""color:darkgreen;font-size:24px;"">Correct :)</p>","",""
"2682","key","n","n","6.94460723514203","499.9999891627921","249.99999458139604","psychophysics","245","794407","0.0-245.0","5e6982499d7ba9245e58262a","6213d072213869dae5884c10","5","","","","","0","4"
"null","","","null","","","","html-keyboard-response","246","794907","0.0-246.0","5e6982499d7ba9245e58262a","6213d072213869dae5884c10","","","","","<p style=""color:darkgreen;font-size:24px;"">Correct :)</p>","",""
"2690","key","n","n","6.9445839793278745","499.9999891627921","249.99999458139604","psychophysics","247","797600","0.0-247.0","5e6982499d7ba9245e58262a","6213d072213869dae5884c10","5","","","","","0","6"
"null","","","null","","","","html-keyboard-response","248","798100","0.0-248.0","5e6982499d7ba9245e58262a","6213d072213869dae5884c10","","","","","<p style=""color:darkgreen;font-size:24px;"">Correct :)</p>","",""
"2577","key","v","v","6.944603773584838","499.9999891627921","249.99999458139604","psychophysics","249","800680","0.0-249.0","5e6982499d7ba9245e58262a","6213d072213869dae5884c10","5","","","","","0","3"
"null","","","null","","","","html-keyboard-response","250","801180","0.0-250.0","5e6982499d7ba9245e58262a","6213d072213869dae5884c10","","","","","<p style=""color:darkgreen;font-size:24px;"">Correct :)</p>","",""
"2610","key","n","n","6.9446542553190005","499.9999891627921","249.99999458139604","psychophysics","251","803792","0.0-251.0","5e6982499d7ba9245e58262a","6213d072213869dae5884c10","5","","","","","0","8"
"null","","","null","","","","html-keyboard-response","252","804293","0.0-252.0","5e6982499d7ba9245e58262a","6213d072213869dae5884c10","","","","","<p style=""color:darkgreen;font-size:24px;"">Correct :)</p>","",""
"2570","key","v","v","6.944614555256195","499.9999891627921","249.99999458139604","psychophysics","253","806865","0.0-253.0","5e6982499d7ba9245e58262a","6213d072213869dae5884c10","5","","","","","0","7"
"null","","","null","","","","html-keyboard-response","254","807366","0.0-254.0","5e6982499d7ba9245e58262a","6213d072213869dae5884c10","","","","","<p style=""color:darkgreen;font-size:24px;"">Correct :)</p>","",""
"2513","key","v","v","6.94461325966838","499.9999891627921","249.99999458139604","psychophysics","255","809881","0.0-255.0","5e6982499d7ba9245e58262a","6213d072213869dae5884c10","5","","","","","0","3"
"null","","","null","","","","html-keyboard-response","256","810382","0.0-256.0","5e6982499d7ba9245e58262a","6213d072213869dae5884c10","","","","","<p style=""color:darkgreen;font-size:24px;"">Correct :)</p>","",""
"2490","key","n","n","6.944618384401161","499.9999891627921","249.99999458139604","psychophysics","257","812873","0.0-257.0","5e6982499d7ba9245e58262a","6213d072213869dae5884c10","5","","","","","0","2"
"null","","","null","","","","html-keyboard-response","258","813374","0.0-258.0","5e6982499d7ba9245e58262a","6213d072213869dae5884c10","","","","","<p style=""color:darkgreen;font-size:24px;"">Correct :)</p>","",""
"2530","key","v","v","6.944610958904257","499.9999891627921","249.99999458139604","psychophysics","259","815906","0.0-259.0","5e6982499d7ba9245e58262a","6213d072213869dae5884c10","5","","","","","0","7"
"null","","","null","","","","html-keyboard-response","260","816407","0.0-260.0","5e6982499d7ba9245e58262a","6213d072213869dae5884c10","","","","","<p style=""color:darkgreen;font-size:24px;"">Correct :)</p>","",""
"2482","key","n","n","6.94460784313719","499.9999891627921","249.99999458139604","psychophysics","261","818890","0.0-261.0","5e6982499d7ba9245e58262a","6213d072213869dae5884c10","5","","","","","0","4"
"null","","","null","","","","html-keyboard-response","262","819391","0.0-262.0","5e6982499d7ba9245e58262a","6213d072213869dae5884c10","","","","","<p style=""color:darkgreen;font-size:24px;"">Correct :)</p>","",""
"2490","key","v","v","6.98351820728302","499.9999891627921","249.99999458139604","psychophysics","263","821883","0.0-263.0","5e6982499d7ba9245e58262a","6213d072213869dae5884c10","5","","","","","0","1"
"null","","","null","","","","html-keyboard-response","264","822396","0.0-264.0","5e6982499d7ba9245e58262a","6213d072213869dae5884c10","","","","","<p style=""color:darkgreen;font-size:24px;"">Correct :)</p>","",""
"2470","key","v","v","6.944620786516945","499.9999891627921","249.99999458139604","psychophysics","265","824867","0.0-265.0","5e6982499d7ba9245e58262a","6213d072213869dae5884c10","5","","","","","0","7"
"null","","","null","","","","html-keyboard-response","266","825368","0.0-266.0","5e6982499d7ba9245e58262a","6213d072213869dae5884c10","","","","","<p style=""color:darkgreen;font-size:24px;"">Correct :)</p>","",""
"2474","key","n","n","6.944615168539477","499.9999891627921","249.99999458139604","psychophysics","267","827843","0.0-267.0","5e6982499d7ba9245e58262a","6213d072213869dae5884c10","5","","","","","0","6"
"null","","","null","","","","html-keyboard-response","268","828344","0.0-268.0","5e6982499d7ba9245e58262a","6213d072213869dae5884c10","","","","","<p style=""color:darkgreen;font-size:24px;"">Correct :)</p>","",""
"2834","key","n","n","6.944585784313591","499.9999891627921","249.99999458139604","psychophysics","269","831180","0.0-269.0","5e6982499d7ba9245e58262a","6213d072213869dae5884c10","5","","","","","0","8"
"null","","","null","","","","html-keyboard-response","270","831694","0.0-270.0","5e6982499d7ba9245e58262a","6213d072213869dae5884c10","","","","","<p style=""color:darkgreen;font-size:24px;"">Correct :)</p>","",""
"2532","key","v","v","6.944638356164238","499.9999891627921","249.99999458139604","psychophysics","271","834228","0.0-271.0","5e6982499d7ba9245e58262a","6213d072213869dae5884c10","5","","","","","0","7"
"null","","","null","","","","html-keyboard-response","272","834729","0.0-272.0","5e6982499d7ba9245e58262a","6213d072213869dae5884c10","","","","","<p style=""color:darkgreen;font-size:24px;"">Correct :)</p>","",""
"2586","key","v","v","6.944605898123294","499.9999891627921","249.99999458139604","psychophysics","273","837317","0.0-273.0","5e6982499d7ba9245e58262a","6213d072213869dae5884c10","5","","","","","0","7"
"null","","","null","","","","html-keyboard-response","274","837818","0.0-274.0","5e6982499d7ba9245e58262a","6213d072213869dae5884c10","","","","","<p style=""color:darkgreen;font-size:24px;"">Correct :)</p>","",""
"2633","key","v","v","6.9445857519789485","499.9999891627921","249.99999458139604","psychophysics","275","840453","0.0-275.0","5e6982499d7ba9245e58262a","6213d072213869dae5884c10","5","","","","","0","9"
"null","","","null","","","","html-keyboard-response","276","840953","0.0-276.0","5e6982499d7ba9245e58262a","6213d072213869dae5884c10","","","","","<p style=""color:darkgreen;font-size:24px;"">Correct :)</p>","",""
"2634","key","n","n","7.018476063829904","499.9999891627921","249.99999458139604","psychophysics","277","843589","0.0-277.0","5e6982499d7ba9245e58262a","6213d072213869dae5884c10","5","","","","","0","2"
"null","","","null","","","","html-keyboard-response","278","844091","0.0-278.0","5e6982499d7ba9245e58262a","6213d072213869dae5884c10","","","","","<p style=""color:darkgreen;font-size:24px;"">Correct :)</p>","",""
"2617","key","n","n","6.944610079575641","499.9999891627921","249.99999458139604","psychophysics","279","846710","0.0-279.0","5e6982499d7ba9245e58262a","6213d072213869dae5884c10","5","","","","","0","2"
"null","","","null","","","","html-keyboard-response","280","847223","0.0-280.0","5e6982499d7ba9245e58262a","6213d072213869dae5884c10","","","","","<p style=""color:darkgreen;font-size:24px;"">Correct :)</p>","",""
"2501","key","v","v","6.944612188365664","499.9999891627921","249.99999458139604","psychophysics","281","849726","0.0-281.0","5e6982499d7ba9245e58262a","6213d072213869dae5884c10","5","","","","","0","9"
"null","","","null","","","","html-keyboard-response","282","850227","0.0-282.0","5e6982499d7ba9245e58262a","6213d072213869dae5884c10","","","","","<p style=""color:darkgreen;font-size:24px;"">Correct :)</p>","",""
"2474","key","v","v","6.944603932584215","499.9999891627921","249.99999458139604","psychophysics","283","852703","0.0-283.0","5e6982499d7ba9245e58262a","6213d072213869dae5884c10","5","","","","","0","7"
"null","","","null","","","","html-keyboard-response","284","853204","0.0-284.0","5e6982499d7ba9245e58262a","6213d072213869dae5884c10","","","","","<p style=""color:darkgreen;font-size:24px;"">Correct :)</p>","",""
"2433","key","v","v","7.0044942528736005","499.9999891627921","249.99999458139604","psychophysics","285","855639","0.0-285.0","5e6982499d7ba9245e58262a","6213d072213869dae5884c10","5","","","","","0","7"
"null","","","null","","","","html-keyboard-response","286","856139","0.0-286.0","5e6982499d7ba9245e58262a","6213d072213869dae5884c10","","","","","<p style=""color:darkgreen;font-size:24px;"">Correct :)</p>","",""
"2514","key","n","n","6.944585635358962","499.9999891627921","249.99999458139604","psychophysics","287","858656","0.0-287.0","5e6982499d7ba9245e58262a","6213d072213869dae5884c10","5","","","","","0","6"
"null","","","null","","","","html-keyboard-response","288","859156","0.0-288.0","5e6982499d7ba9245e58262a","6213d072213869dae5884c10","","","","","<p style=""color:darkgreen;font-size:24px;"">Correct :)</p>","",""
"2634","key","v","v","6.944606860158449","499.9999891627921","249.99999458139604","psychophysics","289","861792","0.0-289.0","5e6982499d7ba9245e58262a","6213d072213869dae5884c10","5","","","","","0","9"
"null","","","null","","","","html-keyboard-response","290","862293","0.0-290.0","5e6982499d7ba9245e58262a","6213d072213869dae5884c10","","","","","<p style=""color:darkgreen;font-size:24px;"">Correct :)</p>","",""
"2498","key","n","n","6.944616666666763","499.9999891627921","249.99999458139604","psychophysics","291","864792","0.0-291.0","5e6982499d7ba9245e58262a","6213d072213869dae5884c10","5","","","","","0","4"
"null","","","null","","","","html-keyboard-response","292","865293","0.0-292.0","5e6982499d7ba9245e58262a","6213d072213869dae5884c10","","","","","<p style=""color:darkgreen;font-size:24px;"">Correct :)</p>","",""
"2602","key","v","v","6.9446053333335245","499.9999891627921","249.99999458139604","psychophysics","293","867897","0.0-293.0","5e6982499d7ba9245e58262a","6213d072213869dae5884c10","5","","","","","0","7"
"null","","","null","","","","html-keyboard-response","294","868398","0.0-294.0","5e6982499d7ba9245e58262a","6213d072213869dae5884c10","","","","","<p style=""color:darkgreen;font-size:24px;"">Correct :)</p>","",""
"19613","","","v","","","","html-keyboard-response","295","888011","0.0-295.0","5e6982499d7ba9245e58262a","6213d072213869dae5884c10","","","","","<p> Here, the tasks are going to switch.  For some trials, your job is to decide if the digit is less than or greater than 5.  For others, it is to decide if the digit is even or odd.  You will be told which type of trial the current one is.  But, pay attention, the type of trial changes too.  We are going to do 50 of these.  </p>  <br><br>  Ready? (press v or n)","",""
"2903","key","n","n","6.947877990430595","499.9999891627921","249.99999458139604","psychophysics","296","890916","0.0-296.0","5e6982499d7ba9245e58262a","6213d072213869dae5884c10","6","","","","","1","8"
"null","","","null","","","","html-keyboard-response","297","891417","0.0-297.0","5e6982499d7ba9245e58262a","6213d072213869dae5884c10","","","","","<p style=""color:darkgreen;font-size:24px;"">Correct :)</p>","",""
"2482","key","v","v","6.94459776536304","499.9999891627921","249.99999458139604","psychophysics","298","893900","0.0-298.0","5e6982499d7ba9245e58262a","6213d072213869dae5884c10","6","","","","","0","3"
"null","","","null","","","","html-keyboard-response","299","894408","0.0-299.0","5e6982499d7ba9245e58262a","6213d072213869dae5884c10","","","","","<p style=""color:darkgreen;font-size:24px;"">Correct :)</p>","",""
"2467","key","v","v","6.944608450703926","499.9999891627921","249.99999458139604","psychophysics","300","896876","0.0-300.0","5e6982499d7ba9245e58262a","6213d072213869dae5884c10","6","","","","","1","1"
"null","","","null","","","","html-keyboard-response","301","897378","0.0-301.0","5e6982499d7ba9245e58262a","6213d072213869dae5884c10","","","","","<p style=""color:darkgreen;font-size:24px;"">Correct :)</p>","",""
"2402","key","n","n","6.944621387283005","499.9999891627921","249.99999458139604","psychophysics","302","899781","0.0-302.0","5e6982499d7ba9245e58262a","6213d072213869dae5884c10","6","","","","","1","7"
"null","","","null","","","","html-keyboard-response","303","900281","0.0-303.0","5e6982499d7ba9245e58262a","6213d072213869dae5884c10","","","","","<p style=""color:darkgreen;font-size:24px;"">Correct :)</p>","",""
"2498","key","n","n","6.963949860724125","499.9999891627921","249.99999458139604","psychophysics","304","902781","0.0-304.0","5e6982499d7ba9245e58262a","6213d072213869dae5884c10","6","","","","","1","8"
"null","","","null","","","","html-keyboard-response","305","903291","0.0-305.0","5e6982499d7ba9245e58262a","6213d072213869dae5884c10","","","","","<p style=""color:darkgreen;font-size:24px;"">Correct :)</p>","",""
"2409","key","n","n","6.944593659942629","499.9999891627921","249.99999458139604","psychophysics","306","905701","0.0-306.0","5e6982499d7ba9245e58262a","6213d072213869dae5884c10","6","","","","","1","7"
"null","","","null","","","","html-keyboard-response","307","906203","0.0-307.0","5e6982499d7ba9245e58262a","6213d072213869dae5884c10","","","","","<p style=""color:darkgreen;font-size:24px;"">Correct :)</p>","",""
"2458","key","n","n","6.944615819208958","499.9999891627921","249.99999458139604","psychophysics","308","908662","0.0-308.0","5e6982499d7ba9245e58262a","6213d072213869dae5884c10","6","","","","","1","9"
"null","","","null","","","","html-keyboard-response","309","909163","0.0-309.0","5e6982499d7ba9245e58262a","6213d072213869dae5884c10","","","","","<p style=""color:darkgreen;font-size:24px;"">Correct :)</p>","",""
"2489","key","n","n","6.983523809523857","499.9999891627921","249.99999458139604","psychophysics","310","911654","0.0-310.0","5e6982499d7ba9245e58262a","6213d072213869dae5884c10","6","","","","","0","8"
"null","","","null","","","","html-keyboard-response","311","912155","0.0-311.0","5e6982499d7ba9245e58262a","6213d072213869dae5884c10","","","","","<p style=""color:darkgreen;font-size:24px;"">Correct :)</p>","",""
"2522","key","n","n","6.944598901098988","499.9999891627921","249.99999458139604","psychophysics","312","914678","0.0-312.0","5e6982499d7ba9245e58262a","6213d072213869dae5884c10","6","","","","","0","4"
"null","","","null","","","","html-keyboard-response","313","915179","0.0-313.0","5e6982499d7ba9245e58262a","6213d072213869dae5884c10","","","","","<p style=""color:darkgreen;font-size:24px;"">Correct :)</p>","",""
"2610","key","v","v","6.944590425531831","499.9999891627921","249.99999458139604","psychophysics","314","917791","0.0-314.0","5e6982499d7ba9245e58262a","6213d072213869dae5884c10","6","","","","","0","9"
"null","","","null","","","","html-keyboard-response","315","918291","0.0-315.0","5e6982499d7ba9245e58262a","6213d072213869dae5884c10","","","","","<p style=""color:darkgreen;font-size:24px;"">Correct :)</p>","",""
"2794","key","n","n","6.9446019900499945","499.9999891627921","249.99999458139604","psychophysics","316","921087","0.0-316.0","5e6982499d7ba9245e58262a","6213d072213869dae5884c10","6","","","","","1","9"
"null","","","null","","","","html-keyboard-response","317","921588","0.0-317.0","5e6982499d7ba9245e58262a","6213d072213869dae5884c10","","","","","<p style=""color:darkgreen;font-size:24px;"">Correct :)</p>","",""
"2481","key","v","v","6.944610644257771","499.9999891627921","249.99999458139604","psychophysics","318","924072","0.0-318.0","5e6982499d7ba9245e58262a","6213d072213869dae5884c10","6","","","","","0","3"
"null","","","null","","","","html-keyboard-response","319","924573","0.0-319.0","5e6982499d7ba9245e58262a","6213d072213869dae5884c10","","","","","<p style=""color:darkgreen;font-size:24px;"">Correct :)</p>","",""
"2385","key","v","v","7.026299999999773","499.9999891627921","249.99999458139604","psychophysics","320","926960","0.0-320.0","5e6982499d7ba9245e58262a","6213d072213869dae5884c10","6","","","","","1","2"
"null","","","null","","","","html-keyboard-response","321","927461","0.0-321.0","5e6982499d7ba9245e58262a","6213d072213869dae5884c10","","","","","<p style=""color:darkgreen;font-size:24px;"">Correct :)</p>","",""
"2522","key","n","n","6.944609890109859","499.9999891627921","249.99999458139604","psychophysics","322","929984","0.0-322.0","5e6982499d7ba9245e58262a","6213d072213869dae5884c10","6","","","","","0","6"
"null","","","null","","","","html-keyboard-response","323","930485","0.0-323.0","5e6982499d7ba9245e58262a","6213d072213869dae5884c10","","","","","<p style=""color:darkgreen;font-size:24px;"">Correct :)</p>","",""
"2570","key","v","v","6.944605405405604","499.9999891627921","249.99999458139604","psychophysics","324","933057","0.0-324.0","5e6982499d7ba9245e58262a","6213d072213869dae5884c10","6","","","","","0","1"
"null","","","null","","","","html-keyboard-response","325","933557","0.0-325.0","5e6982499d7ba9245e58262a","6213d072213869dae5884c10","","","","","<p style=""color:darkgreen;font-size:24px;"">Correct :)</p>","",""
"2874","key","v","v","6.944601449275509","499.9999891627921","249.99999458139604","psychophysics","326","936433","0.0-326.0","5e6982499d7ba9245e58262a","6213d072213869dae5884c10","6","","","","","0","3"
"null","","","null","","","","html-keyboard-response","327","936934","0.0-327.0","5e6982499d7ba9245e58262a","6213d072213869dae5884c10","","","","","<p style=""color:darkgreen;font-size:24px;"">Correct :)</p>","",""
"2729","key","n","n","6.962264631043068","499.9999891627921","249.99999458139604","psychophysics","328","939665","0.0-328.0","5e6982499d7ba9245e58262a","6213d072213869dae5884c10","6","","","","","1","6"
"null","","","null","","","","html-keyboard-response","329","940172","0.0-329.0","5e6982499d7ba9245e58262a","6213d072213869dae5884c10","","","","","<p style=""color:darkgreen;font-size:24px;"">Correct :)</p>","",""
"2724","key","v","v","6.944602040816289","499.9999891627921","249.99999458139604","psychophysics","330","942898","0.0-330.0","5e6982499d7ba9245e58262a","6213d072213869dae5884c10","6","","","","","0","1"
"null","","","null","","","","html-keyboard-response","331","943399","0.0-331.0","5e6982499d7ba9245e58262a","6213d072213869dae5884c10","","","","","<p style=""color:darkgreen;font-size:24px;"">Correct :)</p>","",""
"2601","key","n","n","6.98184718498673","499.9999891627921","249.99999458139604","psychophysics","332","946002","0.0-332.0","5e6982499d7ba9245e58262a","6213d072213869dae5884c10","6","","","","","0","8"
"null","","","null","","","","html-keyboard-response","333","946503","0.0-333.0","5e6982499d7ba9245e58262a","6213d072213869dae5884c10","","","","","<p style=""color:darkgreen;font-size:24px;"">Correct :)</p>","",""
"2674","key","n","n","6.980755208333297","499.9999891627921","249.99999458139604","psychophysics","334","949179","0.0-334.0","5e6982499d7ba9245e58262a","6213d072213869dae5884c10","6","","","","","0","2"
"null","","","null","","","","html-keyboard-response","335","949680","0.0-335.0","5e6982499d7ba9245e58262a","6213d072213869dae5884c10","","","","","<p style=""color:darkgreen;font-size:24px;"">Correct :)</p>","",""
"2450","key","n","n","6.944620396600569","499.9999891627921","249.99999458139604","psychophysics","336","952131","0.0-336.0","5e6982499d7ba9245e58262a","6213d072213869dae5884c10","6","","","","","1","8"
"null","","","null","","","","html-keyboard-response","337","952635","0.0-337.0","5e6982499d7ba9245e58262a","6213d072213869dae5884c10","","","","","<p style=""color:darkgreen;font-size:24px;"">Correct :)</p>","",""
"2438","key","v","v","6.9843000000000135","499.9999891627921","249.99999458139604","psychophysics","338","955075","0.0-338.0","5e6982499d7ba9245e58262a","6213d072213869dae5884c10","6","","","","","1","3"
"null","","","null","","","","html-keyboard-response","339","955577","0.0-339.0","5e6982499d7ba9245e58262a","6213d072213869dae5884c10","","","","","<p style=""color:darkgreen;font-size:24px;"">Correct :)</p>","",""
"2553","key","n","n","6.963509536784762","499.9999891627921","249.99999458139604","psychophysics","340","958132","0.0-340.0","5e6982499d7ba9245e58262a","6213d072213869dae5884c10","6","","","","","1","6"
"null","","","null","","","","html-keyboard-response","341","958633","0.0-341.0","5e6982499d7ba9245e58262a","6213d072213869dae5884c10","","","","","<p style=""color:darkgreen;font-size:24px;"">Correct :)</p>","",""
"2513","key","n","n","6.94461602209945","499.9999891627921","249.99999458139604","psychophysics","342","961148","0.0-342.0","5e6982499d7ba9245e58262a","6213d072213869dae5884c10","6","","","","","0","4"
"null","","","null","","","","html-keyboard-response","343","961649","0.0-343.0","5e6982499d7ba9245e58262a","6213d072213869dae5884c10","","","","","<p style=""color:darkgreen;font-size:24px;"">Correct :)</p>","",""
"2714","key","n","n","6.944621483376131","499.9999891627921","249.99999458139604","psychophysics","344","964365","0.0-344.0","5e6982499d7ba9245e58262a","6213d072213869dae5884c10","6","","","","","1","2"
"null","","","null","","","","html-keyboard-response","345","964866","0.0-345.0","5e6982499d7ba9245e58262a","6213d072213869dae5884c10","","","","","<p style=""color:red;font-size:24px;"">Error :(</p>","",""
"2506","key","v","v","6.944612188365664","499.9999891627921","249.99999458139604","psychophysics","346","967373","0.0-346.0","5e6982499d7ba9245e58262a","6213d072213869dae5884c10","6","","","","","0","7"
"null","","","null","","","","html-keyboard-response","347","967874","0.0-347.0","5e6982499d7ba9245e58262a","6213d072213869dae5884c10","","","","","<p style=""color:darkgreen;font-size:24px;"">Correct :)</p>","",""
"2498","key","n","n","6.944622222222258","499.9999891627921","249.99999458139604","psychophysics","348","970373","0.0-348.0","5e6982499d7ba9245e58262a","6213d072213869dae5884c10","6","","","","","1","8"
"null","","","null","","","","html-keyboard-response","349","970874","0.0-349.0","5e6982499d7ba9245e58262a","6213d072213869dae5884c10","","","","","<p style=""color:darkgreen;font-size:24px;"">Correct :)</p>","",""
"2802","key","n","n","6.944601485148674","499.9999891627921","249.99999458139604","psychophysics","350","973678","0.0-350.0","5e6982499d7ba9245e58262a","6213d072213869dae5884c10","6","","","","","0","4"
"null","","","null","","","","html-keyboard-response","351","974179","0.0-351.0","5e6982499d7ba9245e58262a","6213d072213869dae5884c10","","","","","<p style=""color:darkgreen;font-size:24px;"">Correct :)</p>","",""
"2537","key","v","v","6.944630136986404","499.9999891627921","249.99999458139604","psychophysics","352","976718","0.0-352.0","5e6982499d7ba9245e58262a","6213d072213869dae5884c10","6","","","","","1","4"
"null","","","null","","","","html-keyboard-response","353","977219","0.0-353.0","5e6982499d7ba9245e58262a","6213d072213869dae5884c10","","","","","<p style=""color:darkgreen;font-size:24px;"">Correct :)</p>","",""
"2490","key","n","n","6.964002793296123","499.9999891627921","249.99999458139604","psychophysics","354","979711","0.0-354.0","5e6982499d7ba9245e58262a","6213d072213869dae5884c10","6","","","","","0","6"
"null","","","null","","","","html-keyboard-response","355","980212","0.0-355.0","5e6982499d7ba9245e58262a","6213d072213869dae5884c10","","","","","<p style=""color:darkgreen;font-size:24px;"">Correct :)</p>","",""
"2625","key","v","v","6.962968253968198","499.9999891627921","249.99999458139604","psychophysics","356","982839","0.0-356.0","5e6982499d7ba9245e58262a","6213d072213869dae5884c10","6","","","","","0","3"
"null","","","null","","","","html-keyboard-response","357","983340","0.0-357.0","5e6982499d7ba9245e58262a","6213d072213869dae5884c10","","","","","<p style=""color:darkgreen;font-size:24px;"">Correct :)</p>","",""
"2466","key","n","n","6.944614084507011","499.9999891627921","249.99999458139604","psychophysics","358","985808","0.0-358.0","5e6982499d7ba9245e58262a","6213d072213869dae5884c10","6","","","","","1","9"
"null","","","null","","","","html-keyboard-response","359","986308","0.0-359.0","5e6982499d7ba9245e58262a","6213d072213869dae5884c10","","","","","<p style=""color:darkgreen;font-size:24px;"">Correct :)</p>","",""
"2434","key","n","n","6.94462962962947","499.9999891627921","249.99999458139604","psychophysics","360","988744","0.0-360.0","5e6982499d7ba9245e58262a","6213d072213869dae5884c10","6","","","","","1","8"
"null","","","null","","","","html-keyboard-response","361","989245","0.0-361.0","5e6982499d7ba9245e58262a","6213d072213869dae5884c10","","","","","<p style=""color:darkgreen;font-size:24px;"">Correct :)</p>","",""
"2554","key","n","n","6.9445951086954265","499.9999891627921","249.99999458139604","psychophysics","362","991800","0.0-362.0","5e6982499d7ba9245e58262a","6213d072213869dae5884c10","6","","","","","1","6"
"null","","","null","","","","html-keyboard-response","363","992301","0.0-363.0","5e6982499d7ba9245e58262a","6213d072213869dae5884c10","","","","","<p style=""color:darkgreen;font-size:24px;"">Correct :)</p>","",""
"2674","key","v","v","6.94460779220779","499.9999891627921","249.99999458139604","psychophysics","364","994977","0.0-364.0","5e6982499d7ba9245e58262a","6213d072213869dae5884c10","6","","","","","0","9"
"null","","","null","","","","html-keyboard-response","365","995478","0.0-365.0","5e6982499d7ba9245e58262a","6213d072213869dae5884c10","","","","","<p style=""color:darkgreen;font-size:24px;"">Correct :)</p>","",""
"2674","key","n","n","6.94460779220779","499.9999891627921","249.99999458139604","psychophysics","366","998153","0.0-366.0","5e6982499d7ba9245e58262a","6213d072213869dae5884c10","6","","","","","0","6"
"null","","","null","","","","html-keyboard-response","367","998655","0.0-367.0","5e6982499d7ba9245e58262a","6213d072213869dae5884c10","","","","","<p style=""color:darkgreen;font-size:24px;"">Correct :)</p>","",""
"2705","key","v","v","6.9446179487178314","499.9999891627921","249.99999458139604","psychophysics","368","1001361","0.0-368.0","5e6982499d7ba9245e58262a","6213d072213869dae5884c10","6","","","","","1","4"
"null","","","null","","","","html-keyboard-response","369","1001862","0.0-369.0","5e6982499d7ba9245e58262a","6213d072213869dae5884c10","","","","","<p style=""color:darkgreen;font-size:24px;"">Correct :)</p>","",""
"2754","key","n","n","6.944602015113601","499.9999891627921","249.99999458139604","psychophysics","370","1004618","0.0-370.0","5e6982499d7ba9245e58262a","6213d072213869dae5884c10","6","","","","","1","8"
"null","","","null","","","","html-keyboard-response","371","1005118","0.0-371.0","5e6982499d7ba9245e58262a","6213d072213869dae5884c10","","","","","<p style=""color:darkgreen;font-size:24px;"">Correct :)</p>","",""
"2659","key","v","v","6.94462402088795","499.9999891627921","249.99999458139604","psychophysics","372","1007778","0.0-372.0","5e6982499d7ba9245e58262a","6213d072213869dae5884c10","6","","","","","0","7"
"null","","","null","","","","html-keyboard-response","373","1008279","0.0-373.0","5e6982499d7ba9245e58262a","6213d072213869dae5884c10","","","","","<p style=""color:darkgreen;font-size:24px;"">Correct :)</p>","",""
"2578","key","v","v","6.944674731182781","499.9999891627921","249.99999458139604","psychophysics","374","1010859","0.0-374.0","5e6982499d7ba9245e58262a","6213d072213869dae5884c10","6","","","","","1","1"
"null","","","null","","","","html-keyboard-response","375","1011360","0.0-375.0","5e6982499d7ba9245e58262a","6213d072213869dae5884c10","","","","","<p style=""color:darkgreen;font-size:24px;"">Correct :)</p>","",""
"2729","key","n","n","6.944603053434946","499.9999891627921","249.99999458139604","psychophysics","376","1014091","0.0-376.0","5e6982499d7ba9245e58262a","6213d072213869dae5884c10","6","","","","","1","9"
"null","","","null","","","","html-keyboard-response","377","1014592","0.0-377.0","5e6982499d7ba9245e58262a","6213d072213869dae5884c10","","","","","<p style=""color:darkgreen;font-size:24px;"">Correct :)</p>","",""
"2617","key","n","n","6.94459416445614","499.9999891627921","249.99999458139604","psychophysics","378","1017211","0.0-378.0","5e6982499d7ba9245e58262a","6213d072213869dae5884c10","6","","","","","0","6"
"null","","","null","","","","html-keyboard-response","379","1017713","0.0-379.0","5e6982499d7ba9245e58262a","6213d072213869dae5884c10","","","","","<p style=""color:darkgreen;font-size:24px;"">Correct :)</p>","",""
"2409","key","v","v","6.944608069164544","499.9999891627921","249.99999458139604","psychophysics","380","1020124","0.0-380.0","5e6982499d7ba9245e58262a","6213d072213869dae5884c10","6","","","","","1","2"
"null","","","null","","","","html-keyboard-response","381","1020625","0.0-381.0","5e6982499d7ba9245e58262a","6213d072213869dae5884c10","","","","","<p style=""color:darkgreen;font-size:24px;"">Correct :)</p>","",""
"3042","key","n","n","6.944566210045599","499.9999891627921","249.99999458139604","psychophysics","382","1023668","0.0-382.0","5e6982499d7ba9245e58262a","6213d072213869dae5884c10","6","","","","","0","8"
"null","","","null","","","","html-keyboard-response","383","1024170","0.0-383.0","5e6982499d7ba9245e58262a","6213d072213869dae5884c10","","","","","<p style=""color:darkgreen;font-size:24px;"">Correct :)</p>","",""
"2537","key","v","v","6.944620218579314","499.9999891627921","249.99999458139604","psychophysics","384","1026709","0.0-384.0","5e6982499d7ba9245e58262a","6213d072213869dae5884c10","6","","","","","0","7"
"null","","","null","","","","html-keyboard-response","385","1027222","0.0-385.0","5e6982499d7ba9245e58262a","6213d072213869dae5884c10","","","","","<p style=""color:darkgreen;font-size:24px;"">Correct :)</p>","",""
"2806","key","v","v","6.944591584158393","499.9999891627921","249.99999458139604","psychophysics","386","1030029","0.0-386.0","5e6982499d7ba9245e58262a","6213d072213869dae5884c10","6","","","","","0","3"
"null","","","null","","","","html-keyboard-response","387","1030530","0.0-387.0","5e6982499d7ba9245e58262a","6213d072213869dae5884c10","","","","","<p style=""color:darkgreen;font-size:24px;"">Correct :)</p>","",""
"2779","key","n","n","6.944592499999853","499.9999891627921","249.99999458139604","psychophysics","388","1033310","0.0-388.0","5e6982499d7ba9245e58262a","6213d072213869dae5884c10","6","","","","","1","7"
"null","","","null","","","","html-keyboard-response","389","1033811","0.0-389.0","5e6982499d7ba9245e58262a","6213d072213869dae5884c10","","","","","<p style=""color:darkgreen;font-size:24px;"">Correct :)</p>","",""
"3458","key","v","v","6.944592369477925","499.9999891627921","249.99999458139604","psychophysics","390","1037270","0.0-390.0","5e6982499d7ba9245e58262a","6213d072213869dae5884c10","6","","","","","0","9"
"null","","","null","","","","html-keyboard-response","391","1037771","0.0-391.0","5e6982499d7ba9245e58262a","6213d072213869dae5884c10","","","","","<p style=""color:darkgreen;font-size:24px;"">Correct :)</p>","",""
"2889","key","v","v","6.961318072289262","499.9999891627921","249.99999458139604","psychophysics","392","1040663","0.0-392.0","5e6982499d7ba9245e58262a","6213d072213869dae5884c10","6","","","","","1","1"
"null","","","null","","","","html-keyboard-response","393","1041163","0.0-393.0","5e6982499d7ba9245e58262a","6213d072213869dae5884c10","","","","","<p style=""color:darkgreen;font-size:24px;"">Correct :)</p>","",""
"2402","key","v","v","6.944609826589487","499.9999891627921","249.99999458139604","psychophysics","394","1043567","0.0-394.0","5e6982499d7ba9245e58262a","6213d072213869dae5884c10","6","","","","","1","1"
"null","","","null","","","","html-keyboard-response","395","1044068","0.0-395.0","5e6982499d7ba9245e58262a","6213d072213869dae5884c10","","","","","<p style=""color:darkgreen;font-size:24px;"">Correct :)</p>","",""
"3115","","","v","","","","html-keyboard-response","396","1047184","0.0-396.0","5e6982499d7ba9245e58262a","6213d072213869dae5884c10","","","","","<p> Last set of trials.  Here, the tasks are going to switch once again.  We are going to do 50 of these.  And then you are done with the experiment.  </p>  <br><br>  Ready? (press v or n)","",""
"3175","key","v","v","6.944997816594159","499.9999891627921","249.99999458139604","psychophysics","397","1050360","0.0-397.0","5e6982499d7ba9245e58262a","6213d072213869dae5884c10","7","","","","","0","7"
"null","","","null","","","","html-keyboard-response","398","1050876","0.0-398.0","5e6982499d7ba9245e58262a","6213d072213869dae5884c10","","","","","<p style=""color:darkgreen;font-size:24px;"">Correct :)</p>","",""
"2450","key","n","n","6.944611898017255","499.9999891627921","249.99999458139604","psychophysics","399","1053328","0.0-399.0","5e6982499d7ba9245e58262a","6213d072213869dae5884c10","7","","","","","0","6"
"null","","","null","","","","html-keyboard-response","400","1053829","0.0-400.0","5e6982499d7ba9245e58262a","6213d072213869dae5884c10","","","","","<p style=""color:darkgreen;font-size:24px;"">Correct :)</p>","",""
"2466","key","n","n","6.944619718310095","499.9999891627921","249.99999458139604","psychophysics","401","1056297","0.0-401.0","5e6982499d7ba9245e58262a","6213d072213869dae5884c10","7","","","","","1","7"
"null","","","null","","","","html-keyboard-response","402","1056798","0.0-402.0","5e6982499d7ba9245e58262a","6213d072213869dae5884c10","","","","","<p style=""color:darkgreen;font-size:24px;"">Correct :)</p>","",""
"2521","key","n","n","6.944611570247534","499.9999891627921","249.99999458139604","psychophysics","403","1059321","0.0-403.0","5e6982499d7ba9245e58262a","6213d072213869dae5884c10","7","","","","","0","6"
"null","","","null","","","","html-keyboard-response","404","1059822","0.0-404.0","5e6982499d7ba9245e58262a","6213d072213869dae5884c10","","","","","<p style=""color:darkgreen;font-size:24px;"">Correct :)</p>","",""
"2401","key","v","v","6.944641618497503","499.9999891627921","249.99999458139604","psychophysics","405","1062225","0.0-405.0","5e6982499d7ba9245e58262a","6213d072213869dae5884c10","7","","","","","1","3"
"null","","","null","","","","html-keyboard-response","406","1062727","0.0-406.0","5e6982499d7ba9245e58262a","6213d072213869dae5884c10","","","","","<p style=""color:darkgreen;font-size:24px;"">Correct :)</p>","",""
"2481","key","v","v","7.02310169491546","499.9999891627921","249.99999458139604","psychophysics","407","1065210","0.0-407.0","5e6982499d7ba9245e58262a","6213d072213869dae5884c10","7","","","","","0","3"
"null","","","null","","","","html-keyboard-response","408","1065711","0.0-408.0","5e6982499d7ba9245e58262a","6213d072213869dae5884c10","","","","","<p style=""color:darkgreen;font-size:24px;"">Correct :)</p>","",""
"2849","key","n","n","6.961534146341586","499.9999891627921","249.99999458139604","psychophysics","409","1068562","0.0-409.0","5e6982499d7ba9245e58262a","6213d072213869dae5884c10","7","","","","","1","7"
"null","","","null","","","","html-keyboard-response","410","1069063","0.0-410.0","5e6982499d7ba9245e58262a","6213d072213869dae5884c10","","","","","<p style=""color:darkgreen;font-size:24px;"">Correct :)</p>","",""
"2482","key","v","v","6.944607843137516","499.9999891627921","249.99999458139604","psychophysics","411","1071547","0.0-411.0","5e6982499d7ba9245e58262a","6213d072213869dae5884c10","7","","","","","1","4"
"null","","","null","","","","html-keyboard-response","412","1072048","0.0-412.0","5e6982499d7ba9245e58262a","6213d072213869dae5884c10","","","","","<p style=""color:darkgreen;font-size:24px;"">Correct :)</p>","",""
"2922","key","n","n","6.944589073634253","499.9999891627921","249.99999458139604","psychophysics","413","1074971","0.0-413.0","5e6982499d7ba9245e58262a","6213d072213869dae5884c10","7","","","","","0","4"
"null","","","null","","","","html-keyboard-response","414","1075473","0.0-414.0","5e6982499d7ba9245e58262a","6213d072213869dae5884c10","","","","","<p style=""color:darkgreen;font-size:24px;"">Correct :)</p>","",""
"2841","key","n","n","6.944586797065755","499.9999891627921","249.99999458139604","psychophysics","415","1078315","0.0-415.0","5e6982499d7ba9245e58262a","6213d072213869dae5884c10","7","","","","","1","7"
"null","","","null","","","","html-keyboard-response","416","1078817","0.0-416.0","5e6982499d7ba9245e58262a","6213d072213869dae5884c10","","","","","<p style=""color:darkgreen;font-size:24px;"">Correct :)</p>","",""
"2602","key","n","n","6.963187165775605","499.9999891627921","249.99999458139604","psychophysics","417","1081420","0.0-417.0","5e6982499d7ba9245e58262a","6213d072213869dae5884c10","7","","","","","1","7"
"null","","","null","","","","html-keyboard-response","418","1081921","0.0-418.0","5e6982499d7ba9245e58262a","6213d072213869dae5884c10","","","","","<p style=""color:darkgreen;font-size:24px;"">Correct :)</p>","",""
"2578","key","n","n","6.9446129032262975","499.9999891627921","249.99999458139604","psychophysics","419","1084500","0.0-419.0","5e6982499d7ba9245e58262a","6213d072213869dae5884c10","7","","","","","0","6"
"null","","","null","","","","html-keyboard-response","420","1085001","0.0-420.0","5e6982499d7ba9245e58262a","6213d072213869dae5884c10","","","","","<p style=""color:darkgreen;font-size:24px;"">Correct :)</p>","",""
"2626","key","v","v","6.9446005291008595","499.9999891627921","249.99999458139604","psychophysics","421","1087629","0.0-421.0","5e6982499d7ba9245e58262a","6213d072213869dae5884c10","7","","","","","1","3"
"null","","","null","","","","html-keyboard-response","422","1088129","0.0-422.0","5e6982499d7ba9245e58262a","6213d072213869dae5884c10","","","","","<p style=""color:darkgreen;font-size:24px;"">Correct :)</p>","",""
"2842","key","n","n","6.944585365853727","499.9999891627921","249.99999458139604","psychophysics","423","1090973","0.0-423.0","5e6982499d7ba9245e58262a","6213d072213869dae5884c10","7","","","","","0","2"
"null","","","null","","","","html-keyboard-response","424","1091474","0.0-424.0","5e6982499d7ba9245e58262a","6213d072213869dae5884c10","","","","","<p style=""color:darkgreen;font-size:24px;"">Correct :)</p>","",""
"2577","key","v","v","6.944603773585151","499.9999891627921","249.99999458139604","psychophysics","425","1094054","0.0-425.0","5e6982499d7ba9245e58262a","6213d072213869dae5884c10","7","","","","","1","2"
"null","","","null","","","","html-keyboard-response","426","1094554","0.0-426.0","5e6982499d7ba9245e58262a","6213d072213869dae5884c10","","","","","<p style=""color:darkgreen;font-size:24px;"">Correct :)</p>","",""
"2802","key","n","n","6.9446203473940376","499.9999891627921","249.99999458139604","psychophysics","427","1097358","0.0-427.0","5e6982499d7ba9245e58262a","6213d072213869dae5884c10","7","","","","","1","7"
"null","","","null","","","","html-keyboard-response","428","1097859","0.0-428.0","5e6982499d7ba9245e58262a","6213d072213869dae5884c10","","","","","<p style=""color:darkgreen;font-size:24px;"">Correct :)</p>","",""
"2449","key","n","n","6.984176638176628","499.9999891627921","249.99999458139604","psychophysics","429","1100311","0.0-429.0","5e6982499d7ba9245e58262a","6213d072213869dae5884c10","7","","","","","1","7"
"null","","","null","","","","html-keyboard-response","430","1100812","0.0-430.0","5e6982499d7ba9245e58262a","6213d072213869dae5884c10","","","","","<p style=""color:darkgreen;font-size:24px;"">Correct :)</p>","",""
"2522","key","v","v","6.944630853994686","499.9999891627921","249.99999458139604","psychophysics","431","1103335","0.0-431.0","5e6982499d7ba9245e58262a","6213d072213869dae5884c10","7","","","","","1","4"
"null","","","null","","","","html-keyboard-response","432","1103836","0.0-432.0","5e6982499d7ba9245e58262a","6213d072213869dae5884c10","","","","","<p style=""color:darkgreen;font-size:24px;"">Correct :)</p>","",""
"2426","key","v","v","6.944631428571551","499.9999891627921","249.99999458139604","psychophysics","433","1106263","0.0-433.0","5e6982499d7ba9245e58262a","6213d072213869dae5884c10","7","","","","","0","3"
"null","","","null","","","","html-keyboard-response","434","1106764","0.0-434.0","5e6982499d7ba9245e58262a","6213d072213869dae5884c10","","","","","<p style=""color:darkgreen;font-size:24px;"">Correct :)</p>","",""
"2457","key","n","n","6.9445988700565975","499.9999891627921","249.99999458139604","psychophysics","435","1109224","0.0-435.0","5e6982499d7ba9245e58262a","6213d072213869dae5884c10","7","","","","","1","7"
"null","","","null","","","","html-keyboard-response","436","1109724","0.0-436.0","5e6982499d7ba9245e58262a","6213d072213869dae5884c10","","","","","<p style=""color:darkgreen;font-size:24px;"">Correct :)</p>","",""
"2483","key","v","v","6.944594972067144","499.9999891627921","249.99999458139604","psychophysics","437","1112208","0.0-437.0","5e6982499d7ba9245e58262a","6213d072213869dae5884c10","7","","","","","1","6"
"null","","","null","","","","html-keyboard-response","438","1112722","0.0-438.0","5e6982499d7ba9245e58262a","6213d072213869dae5884c10","","","","","<p style=""color:red;font-size:24px;"">Error :(</p>","",""
"2501","key","n","n","6.944613888888853","499.9999891627921","249.99999458139604","psychophysics","439","1115224","0.0-439.0","5e6982499d7ba9245e58262a","6213d072213869dae5884c10","7","","","","","0","2"
"null","","","null","","","","html-keyboard-response","440","1115725","0.0-440.0","5e6982499d7ba9245e58262a","6213d072213869dae5884c10","","","","","<p style=""color:darkgreen;font-size:24px;"">Correct :)</p>","",""
"2457","key","v","v","6.9446129943500665","499.9999891627921","249.99999458139604","psychophysics","441","1118185","0.0-441.0","5e6982499d7ba9245e58262a","6213d072213869dae5884c10","7","","","","","0","1"
"null","","","null","","","","html-keyboard-response","442","1118686","0.0-442.0","5e6982499d7ba9245e58262a","6213d072213869dae5884c10","","","","","<p style=""color:darkgreen;font-size:24px;"">Correct :)</p>","",""
"2457","key","v","v","6.9446807909601675","499.9999891627921","249.99999458139604","psychophysics","443","1121145","0.0-443.0","5e6982499d7ba9245e58262a","6213d072213869dae5884c10","7","","","","","1","2"
"null","","","null","","","","html-keyboard-response","444","1121646","0.0-444.0","5e6982499d7ba9245e58262a","6213d072213869dae5884c10","","","","","<p style=""color:darkgreen;font-size:24px;"">Correct :)</p>","",""
"2698","key","n","n","6.9445902061853895","499.9999891627921","249.99999458139604","psychophysics","445","1124346","0.0-445.0","5e6982499d7ba9245e58262a","6213d072213869dae5884c10","7","","","","","1","6"
"null","","","null","","","","html-keyboard-response","446","1124847","0.0-446.0","5e6982499d7ba9245e58262a","6213d072213869dae5884c10","","","","","<p style=""color:darkgreen;font-size:24px;"">Correct :)</p>","",""
"2537","key","n","n","6.944638356164557","499.9999891627921","249.99999458139604","psychophysics","447","1127386","0.0-447.0","5e6982499d7ba9245e58262a","6213d072213869dae5884c10","7","","","","","0","6"
"null","","","null","","","","html-keyboard-response","448","1127887","0.0-448.0","5e6982499d7ba9245e58262a","6213d072213869dae5884c10","","","","","<p style=""color:darkgreen;font-size:24px;"">Correct :)</p>","",""
"2754","key","n","n","6.944584382871536","499.9999891627921","249.99999458139604","psychophysics","449","1130642","0.0-449.0","5e6982499d7ba9245e58262a","6213d072213869dae5884c10","7","","","","","0","4"
"null","","","null","","","","html-keyboard-response","450","1131143","0.0-450.0","5e6982499d7ba9245e58262a","6213d072213869dae5884c10","","","","","<p style=""color:darkgreen;font-size:24px;"">Correct :)</p>","",""
"2609","key","n","n","6.944635638297768","499.9999891627921","249.99999458139604","psychophysics","451","1133755","0.0-451.0","5e6982499d7ba9245e58262a","6213d072213869dae5884c10","7","","","","","0","2"
"null","","","null","","","","html-keyboard-response","452","1134255","0.0-452.0","5e6982499d7ba9245e58262a","6213d072213869dae5884c10","","","","","<p style=""color:darkgreen;font-size:24px;"">Correct :)</p>","",""
"2498","key","n","n","6.983407821229206","499.9999891627921","249.99999458139604","psychophysics","453","1136755","0.0-453.0","5e6982499d7ba9245e58262a","6213d072213869dae5884c10","7","","","","","1","6"
"null","","","null","","","","html-keyboard-response","454","1137264","0.0-454.0","5e6982499d7ba9245e58262a","6213d072213869dae5884c10","","","","","<p style=""color:darkgreen;font-size:24px;"">Correct :)</p>","",""
"2625","key","n","n","6.9446084656082485","499.9999891627921","249.99999458139604","psychophysics","455","1139891","0.0-455.0","5e6982499d7ba9245e58262a","6213d072213869dae5884c10","7","","","","","0","2"
"null","","","null","","","","html-keyboard-response","456","1140392","0.0-456.0","5e6982499d7ba9245e58262a","6213d072213869dae5884c10","","","","","<p style=""color:darkgreen;font-size:24px;"">Correct :)</p>","",""
"2513","key","v","v","6.94461325966838","499.9999891627921","249.99999458139604","psychophysics","457","1142908","0.0-457.0","5e6982499d7ba9245e58262a","6213d072213869dae5884c10","7","","","","","0","3"
"null","","","null","","","","html-keyboard-response","458","1143416","0.0-458.0","5e6982499d7ba9245e58262a","6213d072213869dae5884c10","","","","","<p style=""color:darkgreen;font-size:24px;"">Correct :)</p>","",""
"2835","key","n","n","6.944605392156803","499.9999891627921","249.99999458139604","psychophysics","459","1146252","0.0-459.0","5e6982499d7ba9245e58262a","6213d072213869dae5884c10","7","","","","","0","6"
"null","","","null","","","","html-keyboard-response","460","1146753","0.0-460.0","5e6982499d7ba9245e58262a","6213d072213869dae5884c10","","","","","<p style=""color:darkgreen;font-size:24px;"">Correct :)</p>","",""
"2586","key","v","v","6.944608579088257","499.9999891627921","249.99999458139604","psychophysics","461","1149341","0.0-461.0","5e6982499d7ba9245e58262a","6213d072213869dae5884c10","7","","","","","1","4"
"null","","","null","","","","html-keyboard-response","462","1149842","0.0-462.0","5e6982499d7ba9245e58262a","6213d072213869dae5884c10","","","","","<p style=""color:darkgreen;font-size:24px;"">Correct :)</p>","",""
"2474","key","n","n","6.944598314606747","499.9999891627921","249.99999458139604","psychophysics","463","1152317","0.0-463.0","5e6982499d7ba9245e58262a","6213d072213869dae5884c10","7","","","","","1","6"
"null","","","null","","","","html-keyboard-response","464","1152819","0.0-464.0","5e6982499d7ba9245e58262a","6213d072213869dae5884c10","","","","","<p style=""color:darkgreen;font-size:24px;"">Correct :)</p>","",""
"2409","key","v","v","6.944476878613024","499.9999891627921","249.99999458139604","psychophysics","465","1155230","0.0-465.0","5e6982499d7ba9245e58262a","6213d072213869dae5884c10","7","","","","","1","3"
"null","","","null","","","","html-keyboard-response","466","1155730","0.0-466.0","5e6982499d7ba9245e58262a","6213d072213869dae5884c10","","","","","<p style=""color:darkgreen;font-size:24px;"">Correct :)</p>","",""
"2562","key","n","n","6.94461246612507","499.9999891627921","249.99999458139604","psychophysics","467","1158294","0.0-467.0","5e6982499d7ba9245e58262a","6213d072213869dae5884c10","7","","","","","1","6"
"null","","","null","","","","html-keyboard-response","468","1158795","0.0-468.0","5e6982499d7ba9245e58262a","6213d072213869dae5884c10","","","","","<p style=""color:darkgreen;font-size:24px;"">Correct :)</p>","",""
"2570","key","v","v","6.944608108108436","499.9999891627921","249.99999458139604","psychophysics","469","1161367","0.0-469.0","5e6982499d7ba9245e58262a","6213d072213869dae5884c10","7","","","","","0","1"
"null","","","null","","","","html-keyboard-response","470","1161868","0.0-470.0","5e6982499d7ba9245e58262a","6213d072213869dae5884c10","","","","","<p style=""color:darkgreen;font-size:24px;"">Correct :)</p>","",""
"3082","key","v","v","6.944573363431143","499.9999891627921","249.99999458139604","psychophysics","471","1164951","0.0-471.0","5e6982499d7ba9245e58262a","6213d072213869dae5884c10","7","","","","","1","2"
"null","","","null","","","","html-keyboard-response","472","1165452","0.0-472.0","5e6982499d7ba9245e58262a","6213d072213869dae5884c10","","","","","<p style=""color:darkgreen;font-size:24px;"">Correct :)</p>","",""
