"rt","response_type","key_press","response","avg_frame_time","center_x","center_y","trial_type","trial_index","time_elapsed","internal_node_id","pid","sid","phase","guide","targ","resp","stimulus","is5","stim"
"5157","key"," "," ","16.729903536977492","500","250","psychophysics","0","5213","0.0-0.0","6107b8ea737fb20c06bb6186","6213cdbf8fdea4543ecf4743","","","","","","",""
"2098","key"," "," ","16.58730158730159","500","250","psychophysics","1","7318","0.0-1.0","6107b8ea737fb20c06bb6186","6213cdbf8fdea4543ecf4743","","","","","","",""
"2436","key"," "," ","16.578231292517007","500","250","psychophysics","2","9767","0.0-2.0","6107b8ea737fb20c06bb6186","6213cdbf8fdea4543ecf4743","","","","","","",""
"1140","key"," "," ","16.492753623188406","500","250","psychophysics","3","10911","0.0-3.0","6107b8ea737fb20c06bb6186","6213cdbf8fdea4543ecf4743","","","","","","",""
"1881","key"," "," ","16.61946902654867","500","250","psychophysics","4","12795","0.0-4.0","6107b8ea737fb20c06bb6186","6213cdbf8fdea4543ecf4743","","","","","","",""
"7985","key"," "," ","16.63883089770355","500","250","psychophysics","5","20791","0.0-5.0","6107b8ea737fb20c06bb6186","6213cdbf8fdea4543ecf4743","","","","","","",""
"2525","key"," "," ","16.532894736842106","500","250","psychophysics","6","23321","0.0-6.0","6107b8ea737fb20c06bb6186","6213cdbf8fdea4543ecf4743","","","","","","",""
"5343","key"," "," ","16.61993769470405","500","250","psychophysics","7","28675","0.0-7.0","6107b8ea737fb20c06bb6186","6213cdbf8fdea4543ecf4743","","","","","","",""
"5999","key"," "," ","16.609418282548475","500","250","psychophysics","8","34678","0.0-8.0","6107b8ea737fb20c06bb6186","6213cdbf8fdea4543ecf4743","0","0","33","35","","",""
"3083","key"," "," ","16.63243243243243","500","250","psychophysics","9","37770","0.0-9.0","6107b8ea737fb20c06bb6186","6213cdbf8fdea4543ecf4743","","","","","","",""
"3098","key"," "," ","16.56989247311828","500","250","psychophysics","10","40874","0.0-10.0","6107b8ea737fb20c06bb6186","6213cdbf8fdea4543ecf4743","","","","","","",""
"3791","key"," "," ","16.55701754385965","500","250","psychophysics","11","44674","0.0-11.0","6107b8ea737fb20c06bb6186","6213cdbf8fdea4543ecf4743","","","","","","",""
"2945","key"," "," ","16.548022598870055","500","250","psychophysics","12","47624","0.0-12.0","6107b8ea737fb20c06bb6186","6213cdbf8fdea4543ecf4743","","","","","","",""
"1719","key"," "," ","16.471153846153847","500","250","psychophysics","13","49347","0.0-13.0","6107b8ea737fb20c06bb6186","6213cdbf8fdea4543ecf4743","","","","","","",""
"1807","key"," "," ","16.574074074074073","500","250","psychophysics","14","51157","0.0-14.0","6107b8ea737fb20c06bb6186","6213cdbf8fdea4543ecf4743","","","","","","",""
"2510","key"," "," ","16.516556291390728","500","250","psychophysics","15","53675","0.0-15.0","6107b8ea737fb20c06bb6186","6213cdbf8fdea4543ecf4743","","","","","","",""
"1536","key"," "," ","16.43010752688172","500","250","psychophysics","16","55221","0.0-16.0","6107b8ea737fb20c06bb6186","6213cdbf8fdea4543ecf4743","","","","","","",""
"9497","key"," "," ","16.635087719298244","500","250","psychophysics","17","64723","0.0-17.0","6107b8ea737fb20c06bb6186","6213cdbf8fdea4543ecf4743","1","0","42","52","","",""
"4895","key"," "," ","16.591836734693878","500","250","psychophysics","18","69623","0.0-18.0","6107b8ea737fb20c06bb6186","6213cdbf8fdea4543ecf4743","1","5","24","27","","",""
"5509","key"," "," ","16.60725075528701","500","250","psychophysics","19","75137","0.0-19.0","6107b8ea737fb20c06bb6186","6213cdbf8fdea4543ecf4743","1","0","32","40","","",""
"8215","key"," "," ","16.63083164300203","500","250","psychophysics","20","83356","0.0-20.0","6107b8ea737fb20c06bb6186","6213cdbf8fdea4543ecf4743","1","5","51","56","","",""
"7484","key"," "," ","16.61777777777778","500","250","psychophysics","21","90848","0.0-21.0","6107b8ea737fb20c06bb6186","6213cdbf8fdea4543ecf4743","1","0","53","72","","",""
"4201","key"," "," ","16.59683794466403","500","250","psychophysics","22","95058","0.0-22.0","6107b8ea737fb20c06bb6186","6213cdbf8fdea4543ecf4743","1","5","27","34","","",""
"6311","key"," "," ","16.65343915343915","500","250","psychophysics","23","101372","0.0-23.0","6107b8ea737fb20c06bb6186","6213cdbf8fdea4543ecf4743","1","0","32","46","","",""
"11966","key"," "," ","16.638386648122392","500","250","psychophysics","24","113342","0.0-24.0","6107b8ea737fb20c06bb6186","6213cdbf8fdea4543ecf4743","1","5","49","55","","",""
"5026","key"," "," ","16.642384105960264","500","250","psychophysics","25","118376","0.0-25.0","6107b8ea737fb20c06bb6186","6213cdbf8fdea4543ecf4743","1","0","39","47","","",""
"3411","key"," "," ","16.62439024390244","500","250","psychophysics","26","121793","0.0-26.0","6107b8ea737fb20c06bb6186","6213cdbf8fdea4543ecf4743","1","5","30","32","","",""
"5706","key"," "," ","16.646198830409357","500","250","psychophysics","27","127502","0.0-27.0","6107b8ea737fb20c06bb6186","6213cdbf8fdea4543ecf4743","1","0","47","62","","",""
"5357","key"," "," ","16.611801242236027","500","250","psychophysics","28","132863","0.0-28.0","6107b8ea737fb20c06bb6186","6213cdbf8fdea4543ecf4743","1","5","43","48","","",""
"3660","key"," "," ","16.613636363636363","500","250","psychophysics","29","136528","0.0-29.0","6107b8ea737fb20c06bb6186","6213cdbf8fdea4543ecf4743","1","0","21","26","","",""
"9989","key"," "," ","16.649415692821368","500","250","psychophysics","30","146522","0.0-30.0","6107b8ea737fb20c06bb6186","6213cdbf8fdea4543ecf4743","1","5","59","66","","",""
"10640","key"," "," ","16.634375","500","250","psychophysics","31","157174","0.0-31.0","6107b8ea737fb20c06bb6186","6213cdbf8fdea4543ecf4743","1","0","43","62","","",""
"5185","key"," "," ","16.64630225080386","500","250","psychophysics","32","162362","0.0-32.0","6107b8ea737fb20c06bb6186","6213cdbf8fdea4543ecf4743","1","5","30","34","","",""
"4029","key"," "," ","16.619834710743802","500","250","psychophysics","33","166395","0.0-33.0","6107b8ea737fb20c06bb6186","6213cdbf8fdea4543ecf4743","1","0","22","28","","",""
"4617","key"," "," ","16.620938628158846","500","250","psychophysics","34","171017","0.0-34.0","6107b8ea737fb20c06bb6186","6213cdbf8fdea4543ecf4743","1","5","36","42","","",""
"7946","key"," "," ","16.631027253668762","500","250","psychophysics","35","178967","0.0-35.0","6107b8ea737fb20c06bb6186","6213cdbf8fdea4543ecf4743","1","0","59","78","","",""
"8352","key"," "," ","16.633466135458168","500","250","psychophysics","36","187323","0.0-36.0","6107b8ea737fb20c06bb6186","6213cdbf8fdea4543ecf4743","1","5","53","62","","",""
"5197","key"," "," ","16.647435897435898","500","250","psychophysics","37","192523","0.0-37.0","6107b8ea737fb20c06bb6186","6213cdbf8fdea4543ecf4743","","","","","","",""
"3510","key"," "," ","16.63809523809524","500","250","psychophysics","38","196037","0.0-38.0","6107b8ea737fb20c06bb6186","6213cdbf8fdea4543ecf4743","","","","","","",""
"1253","key"," "," ","16.38157894736842","500","250","psychophysics","39","197295","0.0-39.0","6107b8ea737fb20c06bb6186","6213cdbf8fdea4543ecf4743","","","","","","",""
"9369","key"," "," ","16.644128113879002","500","250","psychophysics","40","206669","0.0-40.0","6107b8ea737fb20c06bb6186","6213cdbf8fdea4543ecf4743","2","0","55","73","","",""
"4425","key"," "," ","16.586466165413533","500","250","psychophysics","41","211100","0.0-41.0","6107b8ea737fb20c06bb6186","6213cdbf8fdea4543ecf4743","","","","","","",""
"8420","key"," "," ","16.628458498023715","500","250","psychophysics","42","219526","0.0-42.0","6107b8ea737fb20c06bb6186","6213cdbf8fdea4543ecf4743","2","0","49","61","","",""
"3339","key"," "," ","16.615","500","250","psychophysics","43","222870","0.0-43.0","6107b8ea737fb20c06bb6186","6213cdbf8fdea4543ecf4743","","","","","","",""
"8158","key"," "," ","16.622448979591837","500","250","psychophysics","44","231032","0.0-44.0","6107b8ea737fb20c06bb6186","6213cdbf8fdea4543ecf4743","2","0","57","63","","",""
"2066","key"," "," ","16.54032258064516","500","250","psychophysics","45","233102","0.0-45.0","6107b8ea737fb20c06bb6186","6213cdbf8fdea4543ecf4743","","","","","","",""
"5840","key"," "," ","16.5982905982906","500","250","psychophysics","46","238949","0.0-46.0","6107b8ea737fb20c06bb6186","6213cdbf8fdea4543ecf4743","2","0","57","64","","",""
"731","key"," "," ","16.25","500","250","psychophysics","47","239686","0.0-47.0","6107b8ea737fb20c06bb6186","6213cdbf8fdea4543ecf4743","","","","","","",""
"7537","key"," "," ","16.620309050772626","500","250","psychophysics","48","247227","0.0-48.0","6107b8ea737fb20c06bb6186","6213cdbf8fdea4543ecf4743","2","0","40","51","","",""
"993","key"," "," ","16.45","500","250","psychophysics","49","248225","0.0-49.0","6107b8ea737fb20c06bb6186","6213cdbf8fdea4543ecf4743","","","","","","",""
"8027","key"," "," ","16.647302904564317","500","250","psychophysics","50","256256","0.0-50.0","6107b8ea737fb20c06bb6186","6213cdbf8fdea4543ecf4743","2","0","53","65","","",""
"4105","key"," "," ","16.63821138211382","500","250","psychophysics","51","260364","0.0-51.0","6107b8ea737fb20c06bb6186","6213cdbf8fdea4543ecf4743","","","","","","",""
"5634","key"," "," ","16.618343195266274","500","250","psychophysics","52","266001","0.0-52.0","6107b8ea737fb20c06bb6186","6213cdbf8fdea4543ecf4743","2","0","41","46","","",""
"998","key"," "," ","16.327868852459016","500","250","psychophysics","53","267005","0.0-53.0","6107b8ea737fb20c06bb6186","6213cdbf8fdea4543ecf4743","","","","","","",""
"8325","key"," "," ","16.65330661322645","500","250","psychophysics","54","275334","0.0-54.0","6107b8ea737fb20c06bb6186","6213cdbf8fdea4543ecf4743","2","0","45","55","","",""
"861","key"," "," ","16.25","500","250","psychophysics","55","276201","0.0-55.0","6107b8ea737fb20c06bb6186","6213cdbf8fdea4543ecf4743","","","","","","",""
"6444","key"," "," ","16.614987080103358","500","250","psychophysics","56","282649","0.0-56.0","6107b8ea737fb20c06bb6186","6213cdbf8fdea4543ecf4743","2","0","44","53","","",""
"854","key"," "," ","16.326923076923077","500","250","psychophysics","57","283507","0.0-57.0","6107b8ea737fb20c06bb6186","6213cdbf8fdea4543ecf4743","","","","","","",""
"3915","key"," "," ","16.625531914893617","500","250","psychophysics","58","287427","0.0-58.0","6107b8ea737fb20c06bb6186","6213cdbf8fdea4543ecf4743","2","0","20","21","","",""
"853","key"," "," ","16.41176470588235","500","250","psychophysics","59","288284","0.0-59.0","6107b8ea737fb20c06bb6186","6213cdbf8fdea4543ecf4743","","","","","","",""
"5603","key"," "," ","16.605341246290802","500","250","psychophysics","60","293897","0.0-60.0","6107b8ea737fb20c06bb6186","6213cdbf8fdea4543ecf4743","2","0","38","43","","",""
"707","key"," "," ","16.232558139534884","500","250","psychophysics","61","294608","0.0-61.0","6107b8ea737fb20c06bb6186","6213cdbf8fdea4543ecf4743","","","","","","",""
"7182","key"," "," ","16.635730858468676","500","250","psychophysics","62","301797","0.0-62.0","6107b8ea737fb20c06bb6186","6213cdbf8fdea4543ecf4743","2","0","46","54","","",""
"818","key"," "," ","16.28","500","250","psychophysics","63","302619","0.0-63.0","6107b8ea737fb20c06bb6186","6213cdbf8fdea4543ecf4743","","","","","","",""
"3754","key"," "," ","16.644444444444446","500","250","psychophysics","64","306376","0.0-64.0","6107b8ea737fb20c06bb6186","6213cdbf8fdea4543ecf4743","2","0","27","33","","",""
"1394","key"," "," ","16.511904761904763","500","250","psychophysics","65","307775","0.0-65.0","6107b8ea737fb20c06bb6186","6213cdbf8fdea4543ecf4743","","","","","","",""
"5342","key"," "," ","16.626168224299064","500","250","psychophysics","66","313122","0.0-66.0","6107b8ea737fb20c06bb6186","6213cdbf8fdea4543ecf4743","2","0","52","56","","",""
"729","key"," "," ","16.454545454545453","500","250","psychophysics","67","313857","0.0-67.0","6107b8ea737fb20c06bb6186","6213cdbf8fdea4543ecf4743","","","","","","",""
"3484","key"," "," ","16.61244019138756","500","250","psychophysics","68","317346","0.0-68.0","6107b8ea737fb20c06bb6186","6213cdbf8fdea4543ecf4743","2","0","35","38","","",""
"507","key"," "," ","16.161290322580644","500","250","psychophysics","69","317863","0.0-69.0","6107b8ea737fb20c06bb6186","6213cdbf8fdea4543ecf4743","","","","","","",""
"2246","key"," "," ","16.51851851851852","500","250","psychophysics","70","320117","0.0-70.0","6107b8ea737fb20c06bb6186","6213cdbf8fdea4543ecf4743","","","","","","",""
"2145","key"," "," ","16.511627906976745","500","250","psychophysics","71","322266","0.0-71.0","6107b8ea737fb20c06bb6186","6213cdbf8fdea4543ecf4743","","","","","","",""
"4012","key"," "," ","16.58091286307054","500","250","psychophysics","72","326283","0.0-72.0","6107b8ea737fb20c06bb6186","6213cdbf8fdea4543ecf4743","3","5","26","27","","",""
"4536","key"," "," ","16.58974358974359","500","250","psychophysics","73","330824","0.0-73.0","6107b8ea737fb20c06bb6186","6213cdbf8fdea4543ecf4743","3","0","28","32","","",""
"7257","key"," "," ","16.637614678899084","500","250","psychophysics","74","338086","0.0-74.0","6107b8ea737fb20c06bb6186","6213cdbf8fdea4543ecf4743","3","5","30","32","","",""
"7232","key"," "," ","16.65437788018433","500","250","psychophysics","75","345321","0.0-75.0","6107b8ea737fb20c06bb6186","6213cdbf8fdea4543ecf4743","3","0","39","46","","",""
"7563","key"," "," ","16.647577092511014","500","250","psychophysics","76","352889","0.0-76.0","6107b8ea737fb20c06bb6186","6213cdbf8fdea4543ecf4743","3","5","47","52","","",""
"4844","key"," "," ","16.621993127147768","500","250","psychophysics","77","357741","0.0-77.0","6107b8ea737fb20c06bb6186","6213cdbf8fdea4543ecf4743","3","0","40","47","","",""
"4142","key"," "," ","16.6144578313253","500","250","psychophysics","78","361889","0.0-78.0","6107b8ea737fb20c06bb6186","6213cdbf8fdea4543ecf4743","3","5","38","41","","",""
"3371","key"," "," ","16.60891089108911","500","250","psychophysics","79","365265","0.0-79.0","6107b8ea737fb20c06bb6186","6213cdbf8fdea4543ecf4743","3","0","25","34","","",""
"3045","key"," "," ","16.55191256830601","500","250","psychophysics","80","368315","0.0-80.0","6107b8ea737fb20c06bb6186","6213cdbf8fdea4543ecf4743","3","5","30","31","","",""
"4268","key"," "," ","16.587548638132297","500","250","psychophysics","81","372588","0.0-81.0","6107b8ea737fb20c06bb6186","6213cdbf8fdea4543ecf4743","3","0","34","44","","",""
"4376","key"," "," ","16.627376425855513","500","250","psychophysics","82","376967","0.0-82.0","6107b8ea737fb20c06bb6186","6213cdbf8fdea4543ecf4743","3","5","43","45","","",""
"3614","key"," "," ","16.64516129032258","500","250","psychophysics","83","380584","0.0-83.0","6107b8ea737fb20c06bb6186","6213cdbf8fdea4543ecf4743","3","0","26","39","","",""
"4110","key"," "," ","16.642276422764226","500","250","psychophysics","84","384698","0.0-84.0","6107b8ea737fb20c06bb6186","6213cdbf8fdea4543ecf4743","3","5","41","46","","",""
"6932","key"," "," ","16.61390887290168","500","250","psychophysics","85","391635","0.0-85.0","6107b8ea737fb20c06bb6186","6213cdbf8fdea4543ecf4743","3","0","55","62","","",""
"3496","key"," "," ","16.62857142857143","500","250","psychophysics","86","395135","0.0-86.0","6107b8ea737fb20c06bb6186","6213cdbf8fdea4543ecf4743","3","5","32","38","","",""
"4997","key"," "," ","16.64","500","250","psychophysics","87","400137","0.0-87.0","6107b8ea737fb20c06bb6186","6213cdbf8fdea4543ecf4743","3","0","38","56","","",""
"2759","key"," "," ","16.60843373493976","500","250","psychophysics","88","402901","0.0-88.0","6107b8ea737fb20c06bb6186","6213cdbf8fdea4543ecf4743","3","5","26","28","","",""
"4798","key"," "," ","16.645833333333332","500","250","psychophysics","89","407702","0.0-89.0","6107b8ea737fb20c06bb6186","6213cdbf8fdea4543ecf4743","3","0","40","54","","",""
"2778","key"," "," ","16.58682634730539","500","250","psychophysics","90","410489","0.0-90.0","6107b8ea737fb20c06bb6186","6213cdbf8fdea4543ecf4743","3","5","28","30","","",""
"5167","key"," "," ","16.625806451612902","500","250","psychophysics","91","415661","0.0-91.0","6107b8ea737fb20c06bb6186","6213cdbf8fdea4543ecf4743","3","0","40","55","","",""
"2278","key"," "," ","16.532846715328468","500","250","psychophysics","92","417944","0.0-92.0","6107b8ea737fb20c06bb6186","6213cdbf8fdea4543ecf4743","","","","","","",""
"46227","","","v","","","","html-keyboard-response","93","464172","0.0-93.0","6107b8ea737fb20c06bb6186","6213cdbf8fdea4543ecf4743","","","","","<p> In this part of the experiment, we are going present digits 1, 2, 3, 4, 6, 7, 8, and 9.  Notice that 5 is missing.  Your job is to say whether the presented digit is less than or greater than 5.  For example, 3 is less than 5 and 7 is greater than 5.  If the digit is less than 5, press the v key; if it is greater than 5, press the n key. We are going to do 200 of these in total, but only 50 righ now. They go real fast.</p>  <br><br>  Ready? (press v or n)","",""
"2884","key","n","n","16.686046511627907","500","250","psychophysics","94","467059","0.0-94.0","6107b8ea737fb20c06bb6186","6213cdbf8fdea4543ecf4743","4","","","","","1","7"
"null","","","null","","","","html-keyboard-response","95","467563","0.0-95.0","6107b8ea737fb20c06bb6186","6213cdbf8fdea4543ecf4743","","","","","<p style=""color:darkgreen;font-size:24px;"">Correct :)</p>","",""
"2797","key","n","n","16.67065868263473","500","250","psychophysics","96","470366","0.0-96.0","6107b8ea737fb20c06bb6186","6213cdbf8fdea4543ecf4743","4","","","","","1","9"
"null","","","null","","","","html-keyboard-response","97","470868","0.0-97.0","6107b8ea737fb20c06bb6186","6213cdbf8fdea4543ecf4743","","","","","<p style=""color:darkgreen;font-size:24px;"">Correct :)</p>","",""
"2441","key","v","v","16.66896551724138","500","250","psychophysics","98","473313","0.0-98.0","6107b8ea737fb20c06bb6186","6213cdbf8fdea4543ecf4743","4","","","","","1","2"
"null","","","null","","","","html-keyboard-response","99","473816","0.0-99.0","6107b8ea737fb20c06bb6186","6213cdbf8fdea4543ecf4743","","","","","<p style=""color:darkgreen;font-size:24px;"">Correct :)</p>","",""
"2677","key","n","n","16.66875","500","250","psychophysics","100","476498","0.0-100.0","6107b8ea737fb20c06bb6186","6213cdbf8fdea4543ecf4743","4","","","","","1","7"
"null","","","null","","","","html-keyboard-response","101","477000","0.0-101.0","6107b8ea737fb20c06bb6186","6213cdbf8fdea4543ecf4743","","","","","<p style=""color:darkgreen;font-size:24px;"">Correct :)</p>","",""
"2538","key","v","v","16.662251655629138","500","250","psychophysics","102","479542","0.0-102.0","6107b8ea737fb20c06bb6186","6213cdbf8fdea4543ecf4743","4","","","","","1","4"
"null","","","null","","","","html-keyboard-response","103","480045","0.0-103.0","6107b8ea737fb20c06bb6186","6213cdbf8fdea4543ecf4743","","","","","<p style=""color:darkgreen;font-size:24px;"">Correct :)</p>","",""
"2471","key","v","v","16.666666666666668","500","250","psychophysics","104","482520","0.0-104.0","6107b8ea737fb20c06bb6186","6213cdbf8fdea4543ecf4743","4","","","","","1","4"
"null","","","null","","","","html-keyboard-response","105","483023","0.0-105.0","6107b8ea737fb20c06bb6186","6213cdbf8fdea4543ecf4743","","","","","<p style=""color:darkgreen;font-size:24px;"">Correct :)</p>","",""
"2478","key","v","v","16.666666666666668","500","250","psychophysics","106","485509","0.0-106.0","6107b8ea737fb20c06bb6186","6213cdbf8fdea4543ecf4743","4","","","","","1","2"
"null","","","null","","","","html-keyboard-response","107","486011","0.0-107.0","6107b8ea737fb20c06bb6186","6213cdbf8fdea4543ecf4743","","","","","<p style=""color:darkgreen;font-size:24px;"">Correct :)</p>","",""
"2469","key","n","n","16.6734693877551","500","250","psychophysics","108","488487","0.0-108.0","6107b8ea737fb20c06bb6186","6213cdbf8fdea4543ecf4743","4","","","","","1","9"
"null","","","null","","","","html-keyboard-response","109","488991","0.0-109.0","6107b8ea737fb20c06bb6186","6213cdbf8fdea4543ecf4743","","","","","<p style=""color:darkgreen;font-size:24px;"">Correct :)</p>","",""
"2380","key","v","v","16.666666666666668","500","250","psychophysics","110","491375","0.0-110.0","6107b8ea737fb20c06bb6186","6213cdbf8fdea4543ecf4743","4","","","","","1","3"
"null","","","null","","","","html-keyboard-response","111","491878","0.0-111.0","6107b8ea737fb20c06bb6186","6213cdbf8fdea4543ecf4743","","","","","<p style=""color:darkgreen;font-size:24px;"">Correct :)</p>","",""
"2482","key","v","v","16.66216216216216","500","250","psychophysics","112","494364","0.0-112.0","6107b8ea737fb20c06bb6186","6213cdbf8fdea4543ecf4743","4","","","","","1","3"
"null","","","null","","","","html-keyboard-response","113","494867","0.0-113.0","6107b8ea737fb20c06bb6186","6213cdbf8fdea4543ecf4743","","","","","<p style=""color:darkgreen;font-size:24px;"">Correct :)</p>","",""
"2467","key","n","n","16.666666666666668","500","250","psychophysics","114","497338","0.0-114.0","6107b8ea737fb20c06bb6186","6213cdbf8fdea4543ecf4743","4","","","","","1","9"
"null","","","null","","","","html-keyboard-response","115","497841","0.0-115.0","6107b8ea737fb20c06bb6186","6213cdbf8fdea4543ecf4743","","","","","<p style=""color:darkgreen;font-size:24px;"">Correct :)</p>","",""
"2451","key","v","v","16.664383561643834","500","250","psychophysics","116","500300","0.0-116.0","6107b8ea737fb20c06bb6186","6213cdbf8fdea4543ecf4743","4","","","","","1","4"
"null","","","null","","","","html-keyboard-response","117","500802","0.0-117.0","6107b8ea737fb20c06bb6186","6213cdbf8fdea4543ecf4743","","","","","<p style=""color:darkgreen;font-size:24px;"">Correct :)</p>","",""
"2525","key","n","n","16.666666666666668","500","250","psychophysics","118","503332","0.0-118.0","6107b8ea737fb20c06bb6186","6213cdbf8fdea4543ecf4743","4","","","","","1","6"
"null","","","null","","","","html-keyboard-response","119","503834","0.0-119.0","6107b8ea737fb20c06bb6186","6213cdbf8fdea4543ecf4743","","","","","<p style=""color:darkgreen;font-size:24px;"">Correct :)</p>","",""
"2358","key","v","v","16.659574468085108","500","250","psychophysics","120","506197","0.0-120.0","6107b8ea737fb20c06bb6186","6213cdbf8fdea4543ecf4743","4","","","","","1","3"
"null","","","null","","","","html-keyboard-response","121","506699","0.0-121.0","6107b8ea737fb20c06bb6186","6213cdbf8fdea4543ecf4743","","","","","<p style=""color:darkgreen;font-size:24px;"">Correct :)</p>","",""
"2490","key","n","n","16.66891891891892","500","250","psychophysics","122","509195","0.0-122.0","6107b8ea737fb20c06bb6186","6213cdbf8fdea4543ecf4743","4","","","","","1","6"
"null","","","null","","","","html-keyboard-response","123","509699","0.0-123.0","6107b8ea737fb20c06bb6186","6213cdbf8fdea4543ecf4743","","","","","<p style=""color:darkgreen;font-size:24px;"">Correct :)</p>","",""
"2507","key","n","n","16.671140939597315","500","250","psychophysics","124","512211","0.0-124.0","6107b8ea737fb20c06bb6186","6213cdbf8fdea4543ecf4743","4","","","","","1","7"
"null","","","null","","","","html-keyboard-response","125","512713","0.0-125.0","6107b8ea737fb20c06bb6186","6213cdbf8fdea4543ecf4743","","","","","<p style=""color:darkgreen;font-size:24px;"">Correct :)</p>","",""
"2495","key","n","n","16.664429530201343","500","250","psychophysics","126","515217","0.0-126.0","6107b8ea737fb20c06bb6186","6213cdbf8fdea4543ecf4743","4","","","","","1","6"
"null","","","null","","","","html-keyboard-response","127","515719","0.0-127.0","6107b8ea737fb20c06bb6186","6213cdbf8fdea4543ecf4743","","","","","<p style=""color:darkgreen;font-size:24px;"">Correct :)</p>","",""
"2427","key","n","n","16.666666666666668","500","250","psychophysics","128","518152","0.0-128.0","6107b8ea737fb20c06bb6186","6213cdbf8fdea4543ecf4743","4","","","","","1","8"
"null","","","null","","","","html-keyboard-response","129","518655","0.0-129.0","6107b8ea737fb20c06bb6186","6213cdbf8fdea4543ecf4743","","","","","<p style=""color:darkgreen;font-size:24px;"">Correct :)</p>","",""
"2455","key","n","n","16.664383561643834","500","250","psychophysics","130","521115","0.0-130.0","6107b8ea737fb20c06bb6186","6213cdbf8fdea4543ecf4743","4","","","","","1","6"
"null","","","null","","","","html-keyboard-response","131","521617","0.0-131.0","6107b8ea737fb20c06bb6186","6213cdbf8fdea4543ecf4743","","","","","<p style=""color:darkgreen;font-size:24px;"">Correct :)</p>","",""
"2413","key","n","n","16.666666666666668","500","250","psychophysics","132","524034","0.0-132.0","6107b8ea737fb20c06bb6186","6213cdbf8fdea4543ecf4743","4","","","","","1","7"
"null","","","null","","","","html-keyboard-response","133","524537","0.0-133.0","6107b8ea737fb20c06bb6186","6213cdbf8fdea4543ecf4743","","","","","<p style=""color:darkgreen;font-size:24px;"">Correct :)</p>","",""
"2473","key","v","v","16.65986394557823","500","250","psychophysics","134","527014","0.0-134.0","6107b8ea737fb20c06bb6186","6213cdbf8fdea4543ecf4743","4","","","","","1","1"
"null","","","null","","","","html-keyboard-response","135","527516","0.0-135.0","6107b8ea737fb20c06bb6186","6213cdbf8fdea4543ecf4743","","","","","<p style=""color:darkgreen;font-size:24px;"">Correct :)</p>","",""
"2491","key","v","v","16.664429530201343","500","250","psychophysics","136","530014","0.0-136.0","6107b8ea737fb20c06bb6186","6213cdbf8fdea4543ecf4743","4","","","","","1","4"
"null","","","null","","","","html-keyboard-response","137","530516","0.0-137.0","6107b8ea737fb20c06bb6186","6213cdbf8fdea4543ecf4743","","","","","<p style=""color:darkgreen;font-size:24px;"">Correct :)</p>","",""
"2623","key","v","v","16.666666666666668","500","250","psychophysics","138","533144","0.0-138.0","6107b8ea737fb20c06bb6186","6213cdbf8fdea4543ecf4743","4","","","","","1","1"
"null","","","null","","","","html-keyboard-response","139","533648","0.0-139.0","6107b8ea737fb20c06bb6186","6213cdbf8fdea4543ecf4743","","","","","<p style=""color:darkgreen;font-size:24px;"">Correct :)</p>","",""
"2499","key","v","v","16.664429530201343","500","250","psychophysics","140","536153","0.0-140.0","6107b8ea737fb20c06bb6186","6213cdbf8fdea4543ecf4743","4","","","","","1","2"
"null","","","null","","","","html-keyboard-response","141","536656","0.0-141.0","6107b8ea737fb20c06bb6186","6213cdbf8fdea4543ecf4743","","","","","<p style=""color:darkgreen;font-size:24px;"">Correct :)</p>","",""
"2455","key","n","n","16.671232876712327","500","250","psychophysics","142","539116","0.0-142.0","6107b8ea737fb20c06bb6186","6213cdbf8fdea4543ecf4743","4","","","","","1","7"
"null","","","null","","","","html-keyboard-response","143","539618","0.0-143.0","6107b8ea737fb20c06bb6186","6213cdbf8fdea4543ecf4743","","","","","<p style=""color:darkgreen;font-size:24px;"">Correct :)</p>","",""
"2490","key","n","n","16.66891891891892","500","250","psychophysics","144","542113","0.0-144.0","6107b8ea737fb20c06bb6186","6213cdbf8fdea4543ecf4743","4","","","","","1","7"
"null","","","null","","","","html-keyboard-response","145","542616","0.0-145.0","6107b8ea737fb20c06bb6186","6213cdbf8fdea4543ecf4743","","","","","<p style=""color:darkgreen;font-size:24px;"">Correct :)</p>","",""
"2451","key","v","v","16.671232876712327","500","250","psychophysics","146","545074","0.0-146.0","6107b8ea737fb20c06bb6186","6213cdbf8fdea4543ecf4743","4","","","","","1","1"
"null","","","null","","","","html-keyboard-response","147","545577","0.0-147.0","6107b8ea737fb20c06bb6186","6213cdbf8fdea4543ecf4743","","","","","<p style=""color:darkgreen;font-size:24px;"">Correct :)</p>","",""
"2475","key","n","n","16.666666666666668","500","250","psychophysics","148","548057","0.0-148.0","6107b8ea737fb20c06bb6186","6213cdbf8fdea4543ecf4743","4","","","","","1","8"
"null","","","null","","","","html-keyboard-response","149","548560","0.0-149.0","6107b8ea737fb20c06bb6186","6213cdbf8fdea4543ecf4743","","","","","<p style=""color:darkgreen;font-size:24px;"">Correct :)</p>","",""
"2446","key","n","n","16.662068965517243","500","250","psychophysics","150","551010","0.0-150.0","6107b8ea737fb20c06bb6186","6213cdbf8fdea4543ecf4743","4","","","","","1","9"
"null","","","null","","","","html-keyboard-response","151","551513","0.0-151.0","6107b8ea737fb20c06bb6186","6213cdbf8fdea4543ecf4743","","","","","<p style=""color:darkgreen;font-size:24px;"">Correct :)</p>","",""
"2565","key","v","v","16.66013071895425","500","250","psychophysics","152","554082","0.0-152.0","6107b8ea737fb20c06bb6186","6213cdbf8fdea4543ecf4743","4","","","","","1","2"
"null","","","null","","","","html-keyboard-response","153","554586","0.0-153.0","6107b8ea737fb20c06bb6186","6213cdbf8fdea4543ecf4743","","","","","<p style=""color:darkgreen;font-size:24px;"">Correct :)</p>","",""
"2430","key","v","v","16.666666666666668","500","250","psychophysics","154","557022","0.0-154.0","6107b8ea737fb20c06bb6186","6213cdbf8fdea4543ecf4743","4","","","","","1","4"
"null","","","null","","","","html-keyboard-response","155","557525","0.0-155.0","6107b8ea737fb20c06bb6186","6213cdbf8fdea4543ecf4743","","","","","<p style=""color:darkgreen;font-size:24px;"">Correct :)</p>","",""
"2435","key","v","v","16.66896551724138","500","250","psychophysics","156","559965","0.0-156.0","6107b8ea737fb20c06bb6186","6213cdbf8fdea4543ecf4743","4","","","","","1","1"
"null","","","null","","","","html-keyboard-response","157","560468","0.0-157.0","6107b8ea737fb20c06bb6186","6213cdbf8fdea4543ecf4743","","","","","<p style=""color:darkgreen;font-size:24px;"">Correct :)</p>","",""
"2523","key","n","n","16.66","500","250","psychophysics","158","562996","0.0-158.0","6107b8ea737fb20c06bb6186","6213cdbf8fdea4543ecf4743","4","","","","","1","6"
"null","","","null","","","","html-keyboard-response","159","563497","0.0-159.0","6107b8ea737fb20c06bb6186","6213cdbf8fdea4543ecf4743","","","","","<p style=""color:darkgreen;font-size:24px;"">Correct :)</p>","",""
"4034","key","v","v","16.66804979253112","500","250","psychophysics","160","567536","0.0-160.0","6107b8ea737fb20c06bb6186","6213cdbf8fdea4543ecf4743","4","","","","","1","1"
"null","","","null","","","","html-keyboard-response","161","568038","0.0-161.0","6107b8ea737fb20c06bb6186","6213cdbf8fdea4543ecf4743","","","","","<p style=""color:darkgreen;font-size:24px;"">Correct :)</p>","",""
"2434","key","n","n","16.666666666666668","500","250","psychophysics","162","570477","0.0-162.0","6107b8ea737fb20c06bb6186","6213cdbf8fdea4543ecf4743","4","","","","","1","7"
"null","","","null","","","","html-keyboard-response","163","570981","0.0-163.0","6107b8ea737fb20c06bb6186","6213cdbf8fdea4543ecf4743","","","","","<p style=""color:darkgreen;font-size:24px;"">Correct :)</p>","",""
"2760","key","v","v","16.666666666666668","500","250","psychophysics","164","573749","0.0-164.0","6107b8ea737fb20c06bb6186","6213cdbf8fdea4543ecf4743","4","","","","","1","2"
"null","","","null","","","","html-keyboard-response","165","574252","0.0-165.0","6107b8ea737fb20c06bb6186","6213cdbf8fdea4543ecf4743","","","","","<p style=""color:darkgreen;font-size:24px;"">Correct :)</p>","",""
"2582","key","v","v","16.66013071895425","500","250","psychophysics","166","576840","0.0-166.0","6107b8ea737fb20c06bb6186","6213cdbf8fdea4543ecf4743","4","","","","","1","1"
"null","","","null","","","","html-keyboard-response","167","577343","0.0-167.0","6107b8ea737fb20c06bb6186","6213cdbf8fdea4543ecf4743","","","","","<p style=""color:darkgreen;font-size:24px;"">Correct :)</p>","",""
"2562","key","v","v","16.67763157894737","500","250","psychophysics","168","579909","0.0-168.0","6107b8ea737fb20c06bb6186","6213cdbf8fdea4543ecf4743","4","","","","","1","1"
"null","","","null","","","","html-keyboard-response","169","580413","0.0-169.0","6107b8ea737fb20c06bb6186","6213cdbf8fdea4543ecf4743","","","","","<p style=""color:darkgreen;font-size:24px;"">Correct :)</p>","",""
"2666","key","n","n","16.666666666666668","500","250","psychophysics","170","583083","0.0-170.0","6107b8ea737fb20c06bb6186","6213cdbf8fdea4543ecf4743","4","","","","","1","6"
"null","","","null","","","","html-keyboard-response","171","583585","0.0-171.0","6107b8ea737fb20c06bb6186","6213cdbf8fdea4543ecf4743","","","","","<p style=""color:darkgreen;font-size:24px;"">Correct :)</p>","",""
"2618","key","n","n","16.666666666666668","500","250","psychophysics","172","586210","0.0-172.0","6107b8ea737fb20c06bb6186","6213cdbf8fdea4543ecf4743","4","","","","","1","7"
"null","","","null","","","","html-keyboard-response","173","586714","0.0-173.0","6107b8ea737fb20c06bb6186","6213cdbf8fdea4543ecf4743","","","","","<p style=""color:darkgreen;font-size:24px;"">Correct :)</p>","",""
"2623","key","v","v","16.666666666666668","500","250","psychophysics","174","589342","0.0-174.0","6107b8ea737fb20c06bb6186","6213cdbf8fdea4543ecf4743","4","","","","","1","3"
"null","","","null","","","","html-keyboard-response","175","589845","0.0-175.0","6107b8ea737fb20c06bb6186","6213cdbf8fdea4543ecf4743","","","","","<p style=""color:darkgreen;font-size:24px;"">Correct :)</p>","",""
"2484","key","n","n","16.66891891891892","500","250","psychophysics","176","592335","0.0-176.0","6107b8ea737fb20c06bb6186","6213cdbf8fdea4543ecf4743","4","","","","","1","9"
"null","","","null","","","","html-keyboard-response","177","592838","0.0-177.0","6107b8ea737fb20c06bb6186","6213cdbf8fdea4543ecf4743","","","","","<p style=""color:darkgreen;font-size:24px;"">Correct :)</p>","",""
"2425","key","v","v","16.666666666666668","500","250","psychophysics","178","595267","0.0-178.0","6107b8ea737fb20c06bb6186","6213cdbf8fdea4543ecf4743","4","","","","","1","1"
"null","","","null","","","","html-keyboard-response","179","595771","0.0-179.0","6107b8ea737fb20c06bb6186","6213cdbf8fdea4543ecf4743","","","","","<p style=""color:darkgreen;font-size:24px;"">Correct :)</p>","",""
"2597","key","v","v","16.662337662337663","500","250","psychophysics","180","598375","0.0-180.0","6107b8ea737fb20c06bb6186","6213cdbf8fdea4543ecf4743","4","","","","","1","2"
"null","","","null","","","","html-keyboard-response","181","598879","0.0-181.0","6107b8ea737fb20c06bb6186","6213cdbf8fdea4543ecf4743","","","","","<p style=""color:darkgreen;font-size:24px;"">Correct :)</p>","",""
"2633","key","n","n","16.668789808917197","500","250","psychophysics","182","601517","0.0-182.0","6107b8ea737fb20c06bb6186","6213cdbf8fdea4543ecf4743","4","","","","","1","4"
"null","","","null","","","","html-keyboard-response","183","602020","0.0-183.0","6107b8ea737fb20c06bb6186","6213cdbf8fdea4543ecf4743","","","","","<p style=""color:red;font-size:24px;"">Error :(</p>","",""
"2681","key","n","n","16.666666666666668","500","250","psychophysics","184","604706","0.0-184.0","6107b8ea737fb20c06bb6186","6213cdbf8fdea4543ecf4743","4","","","","","1","6"
"null","","","null","","","","html-keyboard-response","185","605209","0.0-185.0","6107b8ea737fb20c06bb6186","6213cdbf8fdea4543ecf4743","","","","","<p style=""color:darkgreen;font-size:24px;"">Correct :)</p>","",""
"2820","key","n","n","16.672619047619047","500","250","psychophysics","186","608033","0.0-186.0","6107b8ea737fb20c06bb6186","6213cdbf8fdea4543ecf4743","4","","","","","1","6"
"null","","","null","","","","html-keyboard-response","187","608536","0.0-187.0","6107b8ea737fb20c06bb6186","6213cdbf8fdea4543ecf4743","","","","","<p style=""color:darkgreen;font-size:24px;"">Correct :)</p>","",""
"2566","key","n","n","16.657894736842106","500","250","psychophysics","188","611109","0.0-188.0","6107b8ea737fb20c06bb6186","6213cdbf8fdea4543ecf4743","4","","","","","1","6"
"null","","","null","","","","html-keyboard-response","189","611613","0.0-189.0","6107b8ea737fb20c06bb6186","6213cdbf8fdea4543ecf4743","","","","","<p style=""color:darkgreen;font-size:24px;"">Correct :)</p>","",""
"2507","key","n","n","16.671140939597315","500","250","psychophysics","190","614125","0.0-190.0","6107b8ea737fb20c06bb6186","6213cdbf8fdea4543ecf4743","4","","","","","1","8"
"null","","","null","","","","html-keyboard-response","191","614628","0.0-191.0","6107b8ea737fb20c06bb6186","6213cdbf8fdea4543ecf4743","","","","","<p style=""color:darkgreen;font-size:24px;"">Correct :)</p>","",""
"2533","key","v","v","16.662251655629138","500","250","psychophysics","192","617167","0.0-192.0","6107b8ea737fb20c06bb6186","6213cdbf8fdea4543ecf4743","4","","","","","1","4"
"null","","","null","","","","html-keyboard-response","193","617670","0.0-193.0","6107b8ea737fb20c06bb6186","6213cdbf8fdea4543ecf4743","","","","","<p style=""color:darkgreen;font-size:24px;"">Correct :)</p>","",""
"17248","","","n","","","","html-keyboard-response","194","634920","0.0-194.0","6107b8ea737fb20c06bb6186","6213cdbf8fdea4543ecf4743","","","","","<p> Ok, now we are going present the same digits as before.  Your job is to say whether the digit is even or odd  If the digit is odd, press to v key; if it is even, press the n key. We are going to do 50 of these.  </p>  <br><br>  Ready? (press v or n)","",""
"2901","key","v","v","16.670520231213874","500","250","psychophysics","195","637825","0.0-195.0","6107b8ea737fb20c06bb6186","6213cdbf8fdea4543ecf4743","5","","","","","0","7"
"null","","","null","","","","html-keyboard-response","196","638328","0.0-196.0","6107b8ea737fb20c06bb6186","6213cdbf8fdea4543ecf4743","","","","","<p style=""color:darkgreen;font-size:24px;"">Correct :)</p>","",""
"2744","key","v","v","16.664634146341463","500","250","psychophysics","197","641078","0.0-197.0","6107b8ea737fb20c06bb6186","6213cdbf8fdea4543ecf4743","5","","","","","0","9"
"null","","","null","","","","html-keyboard-response","198","641582","0.0-198.0","6107b8ea737fb20c06bb6186","6213cdbf8fdea4543ecf4743","","","","","<p style=""color:darkgreen;font-size:24px;"">Correct :)</p>","",""
"2826","key","n","n","16.666666666666668","500","250","psychophysics","199","644412","0.0-199.0","6107b8ea737fb20c06bb6186","6213cdbf8fdea4543ecf4743","5","","","","","0","8"
"null","","","null","","","","html-keyboard-response","200","644914","0.0-200.0","6107b8ea737fb20c06bb6186","6213cdbf8fdea4543ecf4743","","","","","<p style=""color:darkgreen;font-size:24px;"">Correct :)</p>","",""
"2678","key","n","n","16.66875","500","250","psychophysics","201","647596","0.0-201.0","6107b8ea737fb20c06bb6186","6213cdbf8fdea4543ecf4743","5","","","","","0","8"
"null","","","null","","","","html-keyboard-response","202","648099","0.0-202.0","6107b8ea737fb20c06bb6186","6213cdbf8fdea4543ecf4743","","","","","<p style=""color:darkgreen;font-size:24px;"">Correct :)</p>","",""
"2763","key","v","v","16.664634146341463","500","250","psychophysics","203","650866","0.0-203.0","6107b8ea737fb20c06bb6186","6213cdbf8fdea4543ecf4743","5","","","","","0","7"
"null","","","null","","","","html-keyboard-response","204","651369","0.0-204.0","6107b8ea737fb20c06bb6186","6213cdbf8fdea4543ecf4743","","","","","<p style=""color:darkgreen;font-size:24px;"">Correct :)</p>","",""
"2786","key","v","v","16.662650602409638","500","250","psychophysics","205","654163","0.0-205.0","6107b8ea737fb20c06bb6186","6213cdbf8fdea4543ecf4743","5","","","","","0","7"
"null","","","null","","","","html-keyboard-response","206","654665","0.0-206.0","6107b8ea737fb20c06bb6186","6213cdbf8fdea4543ecf4743","","","","","<p style=""color:darkgreen;font-size:24px;"">Correct :)</p>","",""
"2834","key","n","n","16.666666666666668","500","250","psychophysics","207","657504","0.0-207.0","6107b8ea737fb20c06bb6186","6213cdbf8fdea4543ecf4743","5","","","","","0","4"
"null","","","null","","","","html-keyboard-response","208","658007","0.0-208.0","6107b8ea737fb20c06bb6186","6213cdbf8fdea4543ecf4743","","","","","<p style=""color:darkgreen;font-size:24px;"">Correct :)</p>","",""
"2882","key","n","n","16.66860465116279","500","250","psychophysics","209","660893","0.0-209.0","6107b8ea737fb20c06bb6186","6213cdbf8fdea4543ecf4743","5","","","","","0","6"
"null","","","null","","","","html-keyboard-response","210","661396","0.0-210.0","6107b8ea737fb20c06bb6186","6213cdbf8fdea4543ecf4743","","","","","<p style=""color:darkgreen;font-size:24px;"">Correct :)</p>","",""
"2669","key","n","n","16.660377358490567","500","250","psychophysics","211","664070","0.0-211.0","6107b8ea737fb20c06bb6186","6213cdbf8fdea4543ecf4743","5","","","","","0","2"
"null","","","null","","","","html-keyboard-response","212","664573","0.0-212.0","6107b8ea737fb20c06bb6186","6213cdbf8fdea4543ecf4743","","","","","<p style=""color:darkgreen;font-size:24px;"">Correct :)</p>","",""
"2700","key","n","n","16.664596273291924","500","250","psychophysics","213","667278","0.0-213.0","6107b8ea737fb20c06bb6186","6213cdbf8fdea4543ecf4743","5","","","","","0","2"
"null","","","null","","","","html-keyboard-response","214","667782","0.0-214.0","6107b8ea737fb20c06bb6186","6213cdbf8fdea4543ecf4743","","","","","<p style=""color:darkgreen;font-size:24px;"">Correct :)</p>","",""
"2738","key","n","n","16.662576687116566","500","250","psychophysics","215","670527","0.0-215.0","6107b8ea737fb20c06bb6186","6213cdbf8fdea4543ecf4743","5","","","","","0","6"
"null","","","null","","","","html-keyboard-response","216","671029","0.0-216.0","6107b8ea737fb20c06bb6186","6213cdbf8fdea4543ecf4743","","","","","<p style=""color:darkgreen;font-size:24px;"">Correct :)</p>","",""
"2491","key","n","n","16.65771812080537","500","250","psychophysics","217","673527","0.0-217.0","6107b8ea737fb20c06bb6186","6213cdbf8fdea4543ecf4743","5","","","","","0","4"
"null","","","null","","","","html-keyboard-response","218","674029","0.0-218.0","6107b8ea737fb20c06bb6186","6213cdbf8fdea4543ecf4743","","","","","<p style=""color:darkgreen;font-size:24px;"">Correct :)</p>","",""
"2587","key","n","n","16.66883116883117","500","250","psychophysics","219","676620","0.0-219.0","6107b8ea737fb20c06bb6186","6213cdbf8fdea4543ecf4743","5","","","","","0","2"
"null","","","null","","","","html-keyboard-response","220","677122","0.0-220.0","6107b8ea737fb20c06bb6186","6213cdbf8fdea4543ecf4743","","","","","<p style=""color:darkgreen;font-size:24px;"">Correct :)</p>","",""
"2610","key","v","v","16.670967741935485","500","250","psychophysics","221","679736","0.0-221.0","6107b8ea737fb20c06bb6186","6213cdbf8fdea4543ecf4743","5","","","","","0","7"
"null","","","null","","","","html-keyboard-response","222","680239","0.0-222.0","6107b8ea737fb20c06bb6186","6213cdbf8fdea4543ecf4743","","","","","<p style=""color:darkgreen;font-size:24px;"">Correct :)</p>","",""
"2708","key","v","v","16.664596273291924","500","250","psychophysics","223","682954","0.0-223.0","6107b8ea737fb20c06bb6186","6213cdbf8fdea4543ecf4743","5","","","","","0","7"
"null","","","null","","","","html-keyboard-response","224","683457","0.0-224.0","6107b8ea737fb20c06bb6186","6213cdbf8fdea4543ecf4743","","","","","<p style=""color:darkgreen;font-size:24px;"">Correct :)</p>","",""
"2578","key","v","v","16.666666666666668","500","250","psychophysics","225","686040","0.0-225.0","6107b8ea737fb20c06bb6186","6213cdbf8fdea4543ecf4743","5","","","","","0","1"
"null","","","null","","","","html-keyboard-response","226","686543","0.0-226.0","6107b8ea737fb20c06bb6186","6213cdbf8fdea4543ecf4743","","","","","<p style=""color:darkgreen;font-size:24px;"">Correct :)</p>","",""
"2638","key","v","v","16.668789808917197","500","250","psychophysics","227","689186","0.0-227.0","6107b8ea737fb20c06bb6186","6213cdbf8fdea4543ecf4743","5","","","","","0","3"
"null","","","null","","","","html-keyboard-response","228","689689","0.0-228.0","6107b8ea737fb20c06bb6186","6213cdbf8fdea4543ecf4743","","","","","<p style=""color:darkgreen;font-size:24px;"">Correct :)</p>","",""
"2652","key","n","n","16.664556962025316","500","250","psychophysics","229","692346","0.0-229.0","6107b8ea737fb20c06bb6186","6213cdbf8fdea4543ecf4743","5","","","","","0","8"
"null","","","null","","","","html-keyboard-response","230","692849","0.0-230.0","6107b8ea737fb20c06bb6186","6213cdbf8fdea4543ecf4743","","","","","<p style=""color:darkgreen;font-size:24px;"">Correct :)</p>","",""
"2702","key","v","v","16.664596273291924","500","250","psychophysics","231","695558","0.0-231.0","6107b8ea737fb20c06bb6186","6213cdbf8fdea4543ecf4743","5","","","","","0","7"
"null","","","null","","","","html-keyboard-response","232","696061","0.0-232.0","6107b8ea737fb20c06bb6186","6213cdbf8fdea4543ecf4743","","","","","<p style=""color:darkgreen;font-size:24px;"">Correct :)</p>","",""
"2716","key","v","v","16.67080745341615","500","250","psychophysics","233","698790","0.0-233.0","6107b8ea737fb20c06bb6186","6213cdbf8fdea4543ecf4743","5","","","","","0","4"
"null","","","null","","","","html-keyboard-response","234","699293","0.0-234.0","6107b8ea737fb20c06bb6186","6213cdbf8fdea4543ecf4743","","","","","<p style=""color:red;font-size:24px;"">Error :(</p>","",""
"2872","key","v","v","16.666666666666668","500","250","psychophysics","235","702169","0.0-235.0","6107b8ea737fb20c06bb6186","6213cdbf8fdea4543ecf4743","5","","","","","0","7"
"null","","","null","","","","html-keyboard-response","236","702671","0.0-236.0","6107b8ea737fb20c06bb6186","6213cdbf8fdea4543ecf4743","","","","","<p style=""color:darkgreen;font-size:24px;"">Correct :)</p>","",""
"2914","key","v","v","16.666666666666668","500","250","psychophysics","237","705593","0.0-237.0","6107b8ea737fb20c06bb6186","6213cdbf8fdea4543ecf4743","5","","","","","0","7"
"null","","","null","","","","html-keyboard-response","238","706095","0.0-238.0","6107b8ea737fb20c06bb6186","6213cdbf8fdea4543ecf4743","","","","","<p style=""color:darkgreen;font-size:24px;"">Correct :)</p>","",""
"2677","key","n","n","16.6625","500","250","psychophysics","239","708779","0.0-239.0","6107b8ea737fb20c06bb6186","6213cdbf8fdea4543ecf4743","5","","","","","0","8"
"null","","","null","","","","html-keyboard-response","240","709282","0.0-240.0","6107b8ea737fb20c06bb6186","6213cdbf8fdea4543ecf4743","","","","","<p style=""color:darkgreen;font-size:24px;"">Correct :)</p>","",""
"3126","key","n","n","16.666666666666668","500","250","psychophysics","241","712413","0.0-241.0","6107b8ea737fb20c06bb6186","6213cdbf8fdea4543ecf4743","5","","","","","0","4"
"null","","","null","","","","html-keyboard-response","242","712916","0.0-242.0","6107b8ea737fb20c06bb6186","6213cdbf8fdea4543ecf4743","","","","","<p style=""color:darkgreen;font-size:24px;"">Correct :)</p>","",""
"3023","key","v","v","16.666666666666668","500","250","psychophysics","243","715943","0.0-243.0","6107b8ea737fb20c06bb6186","6213cdbf8fdea4543ecf4743","5","","","","","0","3"
"null","","","null","","","","html-keyboard-response","244","716445","0.0-244.0","6107b8ea737fb20c06bb6186","6213cdbf8fdea4543ecf4743","","","","","<p style=""color:darkgreen;font-size:24px;"">Correct :)</p>","",""
"2844","key","n","n","16.67058823529412","500","250","psychophysics","245","719294","0.0-245.0","6107b8ea737fb20c06bb6186","6213cdbf8fdea4543ecf4743","5","","","","","0","8"
"null","","","null","","","","html-keyboard-response","246","719795","0.0-246.0","6107b8ea737fb20c06bb6186","6213cdbf8fdea4543ecf4743","","","","","<p style=""color:darkgreen;font-size:24px;"">Correct :)</p>","",""
"2644","key","n","n","16.670886075949365","500","250","psychophysics","247","722443","0.0-247.0","6107b8ea737fb20c06bb6186","6213cdbf8fdea4543ecf4743","5","","","","","0","6"
"null","","","null","","","","html-keyboard-response","248","722946","0.0-248.0","6107b8ea737fb20c06bb6186","6213cdbf8fdea4543ecf4743","","","","","<p style=""color:darkgreen;font-size:24px;"">Correct :)</p>","",""
"3633","key","v","v","16.668202764976957","500","250","psychophysics","249","726585","0.0-249.0","6107b8ea737fb20c06bb6186","6213cdbf8fdea4543ecf4743","5","","","","","0","3"
"null","","","null","","","","html-keyboard-response","250","727088","0.0-250.0","6107b8ea737fb20c06bb6186","6213cdbf8fdea4543ecf4743","","","","","<p style=""color:darkgreen;font-size:24px;"">Correct :)</p>","",""
"3084","key","v","v","16.66304347826087","500","250","psychophysics","251","730176","0.0-251.0","6107b8ea737fb20c06bb6186","6213cdbf8fdea4543ecf4743","5","","","","","0","9"
"null","","","null","","","","html-keyboard-response","252","730679","0.0-252.0","6107b8ea737fb20c06bb6186","6213cdbf8fdea4543ecf4743","","","","","<p style=""color:darkgreen;font-size:24px;"">Correct :)</p>","",""
"2841","key","n","n","16.662721893491124","500","250","psychophysics","253","733524","0.0-253.0","6107b8ea737fb20c06bb6186","6213cdbf8fdea4543ecf4743","5","","","","","0","8"
"null","","","null","","","","html-keyboard-response","254","734027","0.0-254.0","6107b8ea737fb20c06bb6186","6213cdbf8fdea4543ecf4743","","","","","<p style=""color:darkgreen;font-size:24px;"">Correct :)</p>","",""
"3250","key","n","n","16.664948453608247","500","250","psychophysics","255","737281","0.0-255.0","6107b8ea737fb20c06bb6186","6213cdbf8fdea4543ecf4743","5","","","","","0","8"
"null","","","null","","","","html-keyboard-response","256","737783","0.0-256.0","6107b8ea737fb20c06bb6186","6213cdbf8fdea4543ecf4743","","","","","<p style=""color:darkgreen;font-size:24px;"">Correct :)</p>","",""
"2714","key","v","v","16.664596273291924","500","250","psychophysics","257","740501","0.0-257.0","6107b8ea737fb20c06bb6186","6213cdbf8fdea4543ecf4743","5","","","","","0","1"
"null","","","null","","","","html-keyboard-response","258","741004","0.0-258.0","6107b8ea737fb20c06bb6186","6213cdbf8fdea4543ecf4743","","","","","<p style=""color:darkgreen;font-size:24px;"">Correct :)</p>","",""
"3029","key","v","v","16.666666666666668","500","250","psychophysics","259","744039","0.0-259.0","6107b8ea737fb20c06bb6186","6213cdbf8fdea4543ecf4743","5","","","","","0","1"
"null","","","null","","","","html-keyboard-response","260","744542","0.0-260.0","6107b8ea737fb20c06bb6186","6213cdbf8fdea4543ecf4743","","","","","<p style=""color:darkgreen;font-size:24px;"">Correct :)</p>","",""
"3234","key","v","v","16.66839378238342","500","250","psychophysics","261","747781","0.0-261.0","6107b8ea737fb20c06bb6186","6213cdbf8fdea4543ecf4743","5","","","","","0","7"
"null","","","null","","","","html-keyboard-response","262","748284","0.0-262.0","6107b8ea737fb20c06bb6186","6213cdbf8fdea4543ecf4743","","","","","<p style=""color:darkgreen;font-size:24px;"">Correct :)</p>","",""
"3121","key","v","v","16.668449197860962","500","250","psychophysics","263","751408","0.0-263.0","6107b8ea737fb20c06bb6186","6213cdbf8fdea4543ecf4743","5","","","","","0","3"
"null","","","null","","","","html-keyboard-response","264","751911","0.0-264.0","6107b8ea737fb20c06bb6186","6213cdbf8fdea4543ecf4743","","","","","<p style=""color:darkgreen;font-size:24px;"">Correct :)</p>","",""
"3037","key","v","v","16.65745856353591","500","250","psychophysics","265","754952","0.0-265.0","6107b8ea737fb20c06bb6186","6213cdbf8fdea4543ecf4743","5","","","","","0","7"
"null","","","null","","","","html-keyboard-response","266","755457","0.0-266.0","6107b8ea737fb20c06bb6186","6213cdbf8fdea4543ecf4743","","","","","<p style=""color:darkgreen;font-size:24px;"">Correct :)</p>","",""
"2889","key","v","v","16.662790697674417","500","250","psychophysics","267","758350","0.0-267.0","6107b8ea737fb20c06bb6186","6213cdbf8fdea4543ecf4743","5","","","","","0","3"
"null","","","null","","","","html-keyboard-response","268","758853","0.0-268.0","6107b8ea737fb20c06bb6186","6213cdbf8fdea4543ecf4743","","","","","<p style=""color:darkgreen;font-size:24px;"">Correct :)</p>","",""
"2631","key","n","n","16.666666666666668","500","250","psychophysics","269","761487","0.0-269.0","6107b8ea737fb20c06bb6186","6213cdbf8fdea4543ecf4743","5","","","","","0","6"
"null","","","null","","","","html-keyboard-response","270","761990","0.0-270.0","6107b8ea737fb20c06bb6186","6213cdbf8fdea4543ecf4743","","","","","<p style=""color:darkgreen;font-size:24px;"">Correct :)</p>","",""
"2996","key","n","n","16.664804469273744","500","250","psychophysics","271","764990","0.0-271.0","6107b8ea737fb20c06bb6186","6213cdbf8fdea4543ecf4743","5","","","","","0","2"
"null","","","null","","","","html-keyboard-response","272","765493","0.0-272.0","6107b8ea737fb20c06bb6186","6213cdbf8fdea4543ecf4743","","","","","<p style=""color:darkgreen;font-size:24px;"">Correct :)</p>","",""
"2574","key","v","v","16.666666666666668","500","250","psychophysics","273","768070","0.0-273.0","6107b8ea737fb20c06bb6186","6213cdbf8fdea4543ecf4743","5","","","","","0","1"
"null","","","null","","","","html-keyboard-response","274","768574","0.0-274.0","6107b8ea737fb20c06bb6186","6213cdbf8fdea4543ecf4743","","","","","<p style=""color:darkgreen;font-size:24px;"">Correct :)</p>","",""
"2817","key","n","n","16.666666666666668","500","250","psychophysics","275","771394","0.0-275.0","6107b8ea737fb20c06bb6186","6213cdbf8fdea4543ecf4743","5","","","","","0","8"
"null","","","null","","","","html-keyboard-response","276","771897","0.0-276.0","6107b8ea737fb20c06bb6186","6213cdbf8fdea4543ecf4743","","","","","<p style=""color:darkgreen;font-size:24px;"">Correct :)</p>","",""
"3051","key","n","n","16.662983425414364","500","250","psychophysics","277","774954","0.0-277.0","6107b8ea737fb20c06bb6186","6213cdbf8fdea4543ecf4743","5","","","","","0","4"
"null","","","null","","","","html-keyboard-response","278","775458","0.0-278.0","6107b8ea737fb20c06bb6186","6213cdbf8fdea4543ecf4743","","","","","<p style=""color:darkgreen;font-size:24px;"">Correct :)</p>","",""
"2783","key","n","n","16.674698795180724","500","250","psychophysics","279","778247","0.0-279.0","6107b8ea737fb20c06bb6186","6213cdbf8fdea4543ecf4743","5","","","","","0","4"
"null","","","null","","","","html-keyboard-response","280","778749","0.0-280.0","6107b8ea737fb20c06bb6186","6213cdbf8fdea4543ecf4743","","","","","<p style=""color:darkgreen;font-size:24px;"">Correct :)</p>","",""
"2523","key","v","v","16.662251655629138","500","250","psychophysics","281","781277","0.0-281.0","6107b8ea737fb20c06bb6186","6213cdbf8fdea4543ecf4743","5","","","","","0","1"
"null","","","null","","","","html-keyboard-response","282","781780","0.0-282.0","6107b8ea737fb20c06bb6186","6213cdbf8fdea4543ecf4743","","","","","<p style=""color:darkgreen;font-size:24px;"">Correct :)</p>","",""
"2883","key","n","n","16.666666666666668","500","250","psychophysics","283","784667","0.0-283.0","6107b8ea737fb20c06bb6186","6213cdbf8fdea4543ecf4743","5","","","","","0","2"
"null","","","null","","","","html-keyboard-response","284","785170","0.0-284.0","6107b8ea737fb20c06bb6186","6213cdbf8fdea4543ecf4743","","","","","<p style=""color:darkgreen;font-size:24px;"">Correct :)</p>","",""
"2843","key","n","n","16.662721893491124","500","250","psychophysics","285","788021","0.0-285.0","6107b8ea737fb20c06bb6186","6213cdbf8fdea4543ecf4743","5","","","","","0","4"
"null","","","null","","","","html-keyboard-response","286","788524","0.0-286.0","6107b8ea737fb20c06bb6186","6213cdbf8fdea4543ecf4743","","","","","<p style=""color:darkgreen;font-size:24px;"">Correct :)</p>","",""
"2858","key","v","v","16.666666666666668","500","250","psychophysics","287","791390","0.0-287.0","6107b8ea737fb20c06bb6186","6213cdbf8fdea4543ecf4743","5","","","","","0","9"
"null","","","null","","","","html-keyboard-response","288","791891","0.0-288.0","6107b8ea737fb20c06bb6186","6213cdbf8fdea4543ecf4743","","","","","<p style=""color:darkgreen;font-size:24px;"">Correct :)</p>","",""
"2673","key","n","n","16.666666666666668","500","250","psychophysics","289","794570","0.0-289.0","6107b8ea737fb20c06bb6186","6213cdbf8fdea4543ecf4743","5","","","","","0","2"
"null","","","null","","","","html-keyboard-response","290","795072","0.0-290.0","6107b8ea737fb20c06bb6186","6213cdbf8fdea4543ecf4743","","","","","<p style=""color:darkgreen;font-size:24px;"">Correct :)</p>","",""
"3047","key","n","n","16.664835164835164","500","250","psychophysics","291","798123","0.0-291.0","6107b8ea737fb20c06bb6186","6213cdbf8fdea4543ecf4743","5","","","","","0","8"
"null","","","null","","","","html-keyboard-response","292","798626","0.0-292.0","6107b8ea737fb20c06bb6186","6213cdbf8fdea4543ecf4743","","","","","<p style=""color:darkgreen;font-size:24px;"">Correct :)</p>","",""
"2763","key","n","n","16.666666666666668","500","250","psychophysics","293","801395","0.0-293.0","6107b8ea737fb20c06bb6186","6213cdbf8fdea4543ecf4743","5","","","","","0","6"
"null","","","null","","","","html-keyboard-response","294","801898","0.0-294.0","6107b8ea737fb20c06bb6186","6213cdbf8fdea4543ecf4743","","","","","<p style=""color:darkgreen;font-size:24px;"">Correct :)</p>","",""
"14612","","","n","","","","html-keyboard-response","295","816511","0.0-295.0","6107b8ea737fb20c06bb6186","6213cdbf8fdea4543ecf4743","","","","","<p> Here, the tasks are going to switch.  For some trials, your job is to decide if the digit is less than or greater than 5.  For others, it is to decide if the digit is even or odd.  You will be told which type of trial the current one is.  But, pay attention, the type of trial changes too.  We are going to do 50 of these.  </p>  <br><br>  Ready? (press v or n)","",""
"2584","key","n","n","16.694805194805195","500","250","psychophysics","296","819099","0.0-296.0","6107b8ea737fb20c06bb6186","6213cdbf8fdea4543ecf4743","6","","","","","0","6"
"null","","","null","","","","html-keyboard-response","297","819601","0.0-297.0","6107b8ea737fb20c06bb6186","6213cdbf8fdea4543ecf4743","","","","","<p style=""color:darkgreen;font-size:24px;"">Correct :)</p>","",""
"2665","key","v","v","16.666666666666668","500","250","psychophysics","298","822274","0.0-298.0","6107b8ea737fb20c06bb6186","6213cdbf8fdea4543ecf4743","6","","","","","0","7"
"null","","","null","","","","html-keyboard-response","299","822778","0.0-299.0","6107b8ea737fb20c06bb6186","6213cdbf8fdea4543ecf4743","","","","","<p style=""color:darkgreen;font-size:24px;"">Correct :)</p>","",""
"3921","key","n","n","16.665236051502145","500","250","psychophysics","300","826704","0.0-300.0","6107b8ea737fb20c06bb6186","6213cdbf8fdea4543ecf4743","6","","","","","1","9"
"null","","","null","","","","html-keyboard-response","301","827207","0.0-301.0","6107b8ea737fb20c06bb6186","6213cdbf8fdea4543ecf4743","","","","","<p style=""color:darkgreen;font-size:24px;"">Correct :)</p>","",""
"2828","key","v","v","16.662721893491124","500","250","psychophysics","302","830039","0.0-302.0","6107b8ea737fb20c06bb6186","6213cdbf8fdea4543ecf4743","6","","","","","0","1"
"null","","","null","","","","html-keyboard-response","303","830541","0.0-303.0","6107b8ea737fb20c06bb6186","6213cdbf8fdea4543ecf4743","","","","","<p style=""color:darkgreen;font-size:24px;"">Correct :)</p>","",""
"3013","key","v","v","16.666666666666668","500","250","psychophysics","304","833558","0.0-304.0","6107b8ea737fb20c06bb6186","6213cdbf8fdea4543ecf4743","6","","","","","1","3"
"null","","","null","","","","html-keyboard-response","305","834060","0.0-305.0","6107b8ea737fb20c06bb6186","6213cdbf8fdea4543ecf4743","","","","","<p style=""color:darkgreen;font-size:24px;"">Correct :)</p>","",""
"3305","key","n","n","16.663265306122447","500","250","psychophysics","306","837369","0.0-306.0","6107b8ea737fb20c06bb6186","6213cdbf8fdea4543ecf4743","6","","","","","0","4"
"null","","","null","","","","html-keyboard-response","307","837872","0.0-307.0","6107b8ea737fb20c06bb6186","6213cdbf8fdea4543ecf4743","","","","","<p style=""color:darkgreen;font-size:24px;"">Correct :)</p>","",""
"2971","key","v","v","16.672316384180792","500","250","psychophysics","308","840850","0.0-308.0","6107b8ea737fb20c06bb6186","6213cdbf8fdea4543ecf4743","6","","","","","1","1"
"null","","","null","","","","html-keyboard-response","309","841352","0.0-309.0","6107b8ea737fb20c06bb6186","6213cdbf8fdea4543ecf4743","","","","","<p style=""color:darkgreen;font-size:24px;"">Correct :)</p>","",""
"2946","key","n","n","16.66857142857143","500","250","psychophysics","310","844302","0.0-310.0","6107b8ea737fb20c06bb6186","6213cdbf8fdea4543ecf4743","6","","","","","1","9"
"null","","","null","","","","html-keyboard-response","311","844806","0.0-311.0","6107b8ea737fb20c06bb6186","6213cdbf8fdea4543ecf4743","","","","","<p style=""color:darkgreen;font-size:24px;"">Correct :)</p>","",""
"3149","key","n","n","16.664893617021278","500","250","psychophysics","312","847959","0.0-312.0","6107b8ea737fb20c06bb6186","6213cdbf8fdea4543ecf4743","6","","","","","0","4"
"null","","","null","","","","html-keyboard-response","313","848462","0.0-313.0","6107b8ea737fb20c06bb6186","6213cdbf8fdea4543ecf4743","","","","","<p style=""color:darkgreen;font-size:24px;"">Correct :)</p>","",""
"2905","key","v","v","16.664739884393065","500","250","psychophysics","314","851372","0.0-314.0","6107b8ea737fb20c06bb6186","6213cdbf8fdea4543ecf4743","6","","","","","1","1"
"null","","","null","","","","html-keyboard-response","315","851874","0.0-315.0","6107b8ea737fb20c06bb6186","6213cdbf8fdea4543ecf4743","","","","","<p style=""color:darkgreen;font-size:24px;"">Correct :)</p>","",""
"3208","key","n","n","16.666666666666668","500","250","psychophysics","316","855088","0.0-316.0","6107b8ea737fb20c06bb6186","6213cdbf8fdea4543ecf4743","6","","","","","0","4"
"null","","","null","","","","html-keyboard-response","317","855591","0.0-317.0","6107b8ea737fb20c06bb6186","6213cdbf8fdea4543ecf4743","","","","","<p style=""color:darkgreen;font-size:24px;"">Correct :)</p>","",""
"3165","key","n","n","16.67195767195767","500","250","psychophysics","318","858760","0.0-318.0","6107b8ea737fb20c06bb6186","6213cdbf8fdea4543ecf4743","6","","","","","1","7"
"null","","","null","","","","html-keyboard-response","319","859264","0.0-319.0","6107b8ea737fb20c06bb6186","6213cdbf8fdea4543ecf4743","","","","","<p style=""color:darkgreen;font-size:24px;"">Correct :)</p>","",""
"2851","key","v","v","16.67058823529412","500","250","psychophysics","320","862122","0.0-320.0","6107b8ea737fb20c06bb6186","6213cdbf8fdea4543ecf4743","6","","","","","0","1"
"null","","","null","","","","html-keyboard-response","321","862624","0.0-321.0","6107b8ea737fb20c06bb6186","6213cdbf8fdea4543ecf4743","","","","","<p style=""color:darkgreen;font-size:24px;"">Correct :)</p>","",""
"2836","key","v","v","16.668639053254438","500","250","psychophysics","322","865465","0.0-322.0","6107b8ea737fb20c06bb6186","6213cdbf8fdea4543ecf4743","6","","","","","0","9"
"null","","","null","","","","html-keyboard-response","323","865968","0.0-323.0","6107b8ea737fb20c06bb6186","6213cdbf8fdea4543ecf4743","","","","","<p style=""color:darkgreen;font-size:24px;"">Correct :)</p>","",""
"2821","key","v","v","16.666666666666668","500","250","psychophysics","324","868793","0.0-324.0","6107b8ea737fb20c06bb6186","6213cdbf8fdea4543ecf4743","6","","","","","0","9"
"null","","","null","","","","html-keyboard-response","325","869296","0.0-325.0","6107b8ea737fb20c06bb6186","6213cdbf8fdea4543ecf4743","","","","","<p style=""color:darkgreen;font-size:24px;"">Correct :)</p>","",""
"3220","key","n","n","16.66321243523316","500","250","psychophysics","326","872522","0.0-326.0","6107b8ea737fb20c06bb6186","6213cdbf8fdea4543ecf4743","6","","","","","1","6"
"null","","","null","","","","html-keyboard-response","327","873025","0.0-327.0","6107b8ea737fb20c06bb6186","6213cdbf8fdea4543ecf4743","","","","","<p style=""color:darkgreen;font-size:24px;"">Correct :)</p>","",""
"3060","key","v","v","16.666666666666668","500","250","psychophysics","328","876090","0.0-328.0","6107b8ea737fb20c06bb6186","6213cdbf8fdea4543ecf4743","6","","","","","1","2"
"null","","","null","","","","html-keyboard-response","329","876592","0.0-329.0","6107b8ea737fb20c06bb6186","6213cdbf8fdea4543ecf4743","","","","","<p style=""color:darkgreen;font-size:24px;"">Correct :)</p>","",""
"3018","key","v","v","16.664804469273744","500","250","psychophysics","330","879615","0.0-330.0","6107b8ea737fb20c06bb6186","6213cdbf8fdea4543ecf4743","6","","","","","0","9"
"null","","","null","","","","html-keyboard-response","331","880118","0.0-331.0","6107b8ea737fb20c06bb6186","6213cdbf8fdea4543ecf4743","","","","","<p style=""color:darkgreen;font-size:24px;"">Correct :)</p>","",""
"2872","key","v","v","16.666666666666668","500","250","psychophysics","332","882994","0.0-332.0","6107b8ea737fb20c06bb6186","6213cdbf8fdea4543ecf4743","6","","","","","0","9"
"null","","","null","","","","html-keyboard-response","333","883497","0.0-333.0","6107b8ea737fb20c06bb6186","6213cdbf8fdea4543ecf4743","","","","","<p style=""color:darkgreen;font-size:24px;"">Correct :)</p>","",""
"2584","key","v","v","16.638709677419357","500","250","psychophysics","334","886087","0.0-334.0","6107b8ea737fb20c06bb6186","6213cdbf8fdea4543ecf4743","6","","","","","0","7"
"null","","","null","","","","html-keyboard-response","335","886590","0.0-335.0","6107b8ea737fb20c06bb6186","6213cdbf8fdea4543ecf4743","","","","","<p style=""color:darkgreen;font-size:24px;"">Correct :)</p>","",""
"3126","key","v","v","16.668449197860962","500","250","psychophysics","336","889720","0.0-336.0","6107b8ea737fb20c06bb6186","6213cdbf8fdea4543ecf4743","6","","","","","1","1"
"null","","","null","","","","html-keyboard-response","337","890222","0.0-337.0","6107b8ea737fb20c06bb6186","6213cdbf8fdea4543ecf4743","","","","","<p style=""color:darkgreen;font-size:24px;"">Correct :)</p>","",""
"2711","key","n","n","16.666666666666668","500","250","psychophysics","338","892937","0.0-338.0","6107b8ea737fb20c06bb6186","6213cdbf8fdea4543ecf4743","6","","","","","1","8"
"null","","","null","","","","html-keyboard-response","339","893439","0.0-339.0","6107b8ea737fb20c06bb6186","6213cdbf8fdea4543ecf4743","","","","","<p style=""color:darkgreen;font-size:24px;"">Correct :)</p>","",""
"2939","key","v","v","16.66857142857143","500","250","psychophysics","340","896383","0.0-340.0","6107b8ea737fb20c06bb6186","6213cdbf8fdea4543ecf4743","6","","","","","1","2"
"null","","","null","","","","html-keyboard-response","341","896886","0.0-341.0","6107b8ea737fb20c06bb6186","6213cdbf8fdea4543ecf4743","","","","","<p style=""color:darkgreen;font-size:24px;"">Correct :)</p>","",""
"2828","key","n","n","16.668639053254438","500","250","psychophysics","342","899721","0.0-342.0","6107b8ea737fb20c06bb6186","6213cdbf8fdea4543ecf4743","6","","","","","1","3"
"null","","","null","","","","html-keyboard-response","343","900223","0.0-343.0","6107b8ea737fb20c06bb6186","6213cdbf8fdea4543ecf4743","","","","","<p style=""color:red;font-size:24px;"">Error :(</p>","",""
"3324","key","n","n","16.66331658291457","500","250","psychophysics","344","903552","0.0-344.0","6107b8ea737fb20c06bb6186","6213cdbf8fdea4543ecf4743","6","","","","","1","9"
"null","","","null","","","","html-keyboard-response","345","904055","0.0-345.0","6107b8ea737fb20c06bb6186","6213cdbf8fdea4543ecf4743","","","","","<p style=""color:darkgreen;font-size:24px;"">Correct :)</p>","",""
"3082","key","v","v","16.668478260869566","500","250","psychophysics","346","907141","0.0-346.0","6107b8ea737fb20c06bb6186","6213cdbf8fdea4543ecf4743","6","","","","","0","3"
"null","","","null","","","","html-keyboard-response","347","907644","0.0-347.0","6107b8ea737fb20c06bb6186","6213cdbf8fdea4543ecf4743","","","","","<p style=""color:darkgreen;font-size:24px;"">Correct :)</p>","",""
"3142","key","n","n","16.668449197860962","500","250","psychophysics","348","910791","0.0-348.0","6107b8ea737fb20c06bb6186","6213cdbf8fdea4543ecf4743","6","","","","","0","2"
"null","","","null","","","","html-keyboard-response","349","911295","0.0-349.0","6107b8ea737fb20c06bb6186","6213cdbf8fdea4543ecf4743","","","","","<p style=""color:darkgreen;font-size:24px;"">Correct :)</p>","",""
"2990","key","n","n","16.668539325842698","500","250","psychophysics","350","914291","0.0-350.0","6107b8ea737fb20c06bb6186","6213cdbf8fdea4543ecf4743","6","","","","","1","7"
"null","","","null","","","","html-keyboard-response","351","914794","0.0-351.0","6107b8ea737fb20c06bb6186","6213cdbf8fdea4543ecf4743","","","","","<p style=""color:darkgreen;font-size:24px;"">Correct :)</p>","",""
"2560","key","v","v","16.664473684210527","500","250","psychophysics","352","917359","0.0-352.0","6107b8ea737fb20c06bb6186","6213cdbf8fdea4543ecf4743","6","","","","","0","1"
"null","","","null","","","","html-keyboard-response","353","917862","0.0-353.0","6107b8ea737fb20c06bb6186","6213cdbf8fdea4543ecf4743","","","","","<p style=""color:darkgreen;font-size:24px;"">Correct :)</p>","",""
"2742","key","n","n","16.66871165644172","500","250","psychophysics","354","920608","0.0-354.0","6107b8ea737fb20c06bb6186","6213cdbf8fdea4543ecf4743","6","","","","","0","4"
"null","","","null","","","","html-keyboard-response","355","921110","0.0-355.0","6107b8ea737fb20c06bb6186","6213cdbf8fdea4543ecf4743","","","","","<p style=""color:darkgreen;font-size:24px;"">Correct :)</p>","",""
"2786","key","v","v","16.666666666666668","500","250","psychophysics","356","923900","0.0-356.0","6107b8ea737fb20c06bb6186","6213cdbf8fdea4543ecf4743","6","","","","","0","1"
"null","","","null","","","","html-keyboard-response","357","924403","0.0-357.0","6107b8ea737fb20c06bb6186","6213cdbf8fdea4543ecf4743","","","","","<p style=""color:darkgreen;font-size:24px;"">Correct :)</p>","",""
"2907","key","n","n","16.664739884393065","500","250","psychophysics","358","927317","0.0-358.0","6107b8ea737fb20c06bb6186","6213cdbf8fdea4543ecf4743","6","","","","","1","7"
"null","","","null","","","","html-keyboard-response","359","927821","0.0-359.0","6107b8ea737fb20c06bb6186","6213cdbf8fdea4543ecf4743","","","","","<p style=""color:darkgreen;font-size:24px;"">Correct :)</p>","",""
"2740","key","n","n","16.66871165644172","500","250","psychophysics","360","930566","0.0-360.0","6107b8ea737fb20c06bb6186","6213cdbf8fdea4543ecf4743","6","","","","","0","6"
"null","","","null","","","","html-keyboard-response","361","931069","0.0-361.0","6107b8ea737fb20c06bb6186","6213cdbf8fdea4543ecf4743","","","","","<p style=""color:darkgreen;font-size:24px;"">Correct :)</p>","",""
"2639","key","n","n","16.668789808917197","500","250","psychophysics","362","933713","0.0-362.0","6107b8ea737fb20c06bb6186","6213cdbf8fdea4543ecf4743","6","","","","","1","9"
"null","","","null","","","","html-keyboard-response","363","934216","0.0-363.0","6107b8ea737fb20c06bb6186","6213cdbf8fdea4543ecf4743","","","","","<p style=""color:darkgreen;font-size:24px;"">Correct :)</p>","",""
"2782","key","v","v","16.66867469879518","500","250","psychophysics","364","937003","0.0-364.0","6107b8ea737fb20c06bb6186","6213cdbf8fdea4543ecf4743","6","","","","","1","2"
"null","","","null","","","","html-keyboard-response","365","937505","0.0-365.0","6107b8ea737fb20c06bb6186","6213cdbf8fdea4543ecf4743","","","","","<p style=""color:darkgreen;font-size:24px;"">Correct :)</p>","",""
"2584","key","n","n","16.66883116883117","500","250","psychophysics","366","940095","0.0-366.0","6107b8ea737fb20c06bb6186","6213cdbf8fdea4543ecf4743","6","","","","","1","6"
"null","","","null","","","","html-keyboard-response","367","940597","0.0-367.0","6107b8ea737fb20c06bb6186","6213cdbf8fdea4543ecf4743","","","","","<p style=""color:darkgreen;font-size:24px;"">Correct :)</p>","",""
"2473","key","v","v","16.666666666666668","500","250","psychophysics","368","943075","0.0-368.0","6107b8ea737fb20c06bb6186","6213cdbf8fdea4543ecf4743","6","","","","","1","3"
"null","","","null","","","","html-keyboard-response","369","943578","0.0-369.0","6107b8ea737fb20c06bb6186","6213cdbf8fdea4543ecf4743","","","","","<p style=""color:darkgreen;font-size:24px;"">Correct :)</p>","",""
"2420","key","n","n","16.662068965517243","500","250","psychophysics","370","946002","0.0-370.0","6107b8ea737fb20c06bb6186","6213cdbf8fdea4543ecf4743","6","","","","","1","8"
"null","","","null","","","","html-keyboard-response","371","946504","0.0-371.0","6107b8ea737fb20c06bb6186","6213cdbf8fdea4543ecf4743","","","","","<p style=""color:darkgreen;font-size:24px;"">Correct :)</p>","",""
"2732","key","n","n","16.66871165644172","500","250","psychophysics","372","949241","0.0-372.0","6107b8ea737fb20c06bb6186","6213cdbf8fdea4543ecf4743","6","","","","","0","6"
"null","","","null","","","","html-keyboard-response","373","949744","0.0-373.0","6107b8ea737fb20c06bb6186","6213cdbf8fdea4543ecf4743","","","","","<p style=""color:darkgreen;font-size:24px;"">Correct :)</p>","",""
"3008","key","v","v","16.664804469273744","500","250","psychophysics","374","952758","0.0-374.0","6107b8ea737fb20c06bb6186","6213cdbf8fdea4543ecf4743","6","","","","","0","9"
"null","","","null","","","","html-keyboard-response","375","953261","0.0-375.0","6107b8ea737fb20c06bb6186","6213cdbf8fdea4543ecf4743","","","","","<p style=""color:darkgreen;font-size:24px;"">Correct :)</p>","",""
"2496","key","v","v","16.66891891891892","500","250","psychophysics","376","955763","0.0-376.0","6107b8ea737fb20c06bb6186","6213cdbf8fdea4543ecf4743","6","","","","","1","1"
"null","","","null","","","","html-keyboard-response","377","956265","0.0-377.0","6107b8ea737fb20c06bb6186","6213cdbf8fdea4543ecf4743","","","","","<p style=""color:darkgreen;font-size:24px;"">Correct :)</p>","",""
"2909","key","v","v","16.670520231213874","500","250","psychophysics","378","959179","0.0-378.0","6107b8ea737fb20c06bb6186","6213cdbf8fdea4543ecf4743","6","","","","","1","2"
"null","","","null","","","","html-keyboard-response","379","959681","0.0-379.0","6107b8ea737fb20c06bb6186","6213cdbf8fdea4543ecf4743","","","","","<p style=""color:darkgreen;font-size:24px;"">Correct :)</p>","",""
"2780","key","n","n","16.666666666666668","500","250","psychophysics","380","962466","0.0-380.0","6107b8ea737fb20c06bb6186","6213cdbf8fdea4543ecf4743","6","","","","","1","6"
"null","","","null","","","","html-keyboard-response","381","962970","0.0-381.0","6107b8ea737fb20c06bb6186","6213cdbf8fdea4543ecf4743","","","","","<p style=""color:darkgreen;font-size:24px;"">Correct :)</p>","",""
"3014","key","n","n","16.65","500","250","psychophysics","382","965992","0.0-382.0","6107b8ea737fb20c06bb6186","6213cdbf8fdea4543ecf4743","6","","","","","0","8"
"null","","","null","","","","html-keyboard-response","383","966495","0.0-383.0","6107b8ea737fb20c06bb6186","6213cdbf8fdea4543ecf4743","","","","","<p style=""color:darkgreen;font-size:24px;"">Correct :)</p>","",""
"2582","key","n","n","16.66013071895425","500","250","psychophysics","384","969082","0.0-384.0","6107b8ea737fb20c06bb6186","6213cdbf8fdea4543ecf4743","6","","","","","1","7"
"null","","","null","","","","html-keyboard-response","385","969585","0.0-385.0","6107b8ea737fb20c06bb6186","6213cdbf8fdea4543ecf4743","","","","","<p style=""color:darkgreen;font-size:24px;"">Correct :)</p>","",""
"2789","key","n","n","16.66867469879518","500","250","psychophysics","386","972378","0.0-386.0","6107b8ea737fb20c06bb6186","6213cdbf8fdea4543ecf4743","6","","","","","0","8"
"null","","","null","","","","html-keyboard-response","387","972880","0.0-387.0","6107b8ea737fb20c06bb6186","6213cdbf8fdea4543ecf4743","","","","","<p style=""color:darkgreen;font-size:24px;"">Correct :)</p>","",""
"2762","key","v","v","16.670731707317074","500","250","psychophysics","388","975649","0.0-388.0","6107b8ea737fb20c06bb6186","6213cdbf8fdea4543ecf4743","6","","","","","0","9"
"null","","","null","","","","html-keyboard-response","389","976151","0.0-389.0","6107b8ea737fb20c06bb6186","6213cdbf8fdea4543ecf4743","","","","","<p style=""color:darkgreen;font-size:24px;"">Correct :)</p>","",""
"2402","key","v","v","16.664335664335663","500","250","psychophysics","390","978561","0.0-390.0","6107b8ea737fb20c06bb6186","6213cdbf8fdea4543ecf4743","6","","","","","1","3"
"null","","","null","","","","html-keyboard-response","391","979064","0.0-391.0","6107b8ea737fb20c06bb6186","6213cdbf8fdea4543ecf4743","","","","","<p style=""color:darkgreen;font-size:24px;"">Correct :)</p>","",""
"2543","key","n","n","16.662251655629138","500","250","psychophysics","392","981612","0.0-392.0","6107b8ea737fb20c06bb6186","6213cdbf8fdea4543ecf4743","6","","","","","0","8"
"null","","","null","","","","html-keyboard-response","393","982115","0.0-393.0","6107b8ea737fb20c06bb6186","6213cdbf8fdea4543ecf4743","","","","","<p style=""color:darkgreen;font-size:24px;"">Correct :)</p>","",""
"3435","key","n","n","16.663414634146342","500","250","psychophysics","394","985555","0.0-394.0","6107b8ea737fb20c06bb6186","6213cdbf8fdea4543ecf4743","6","","","","","1","8"
"null","","","null","","","","html-keyboard-response","395","986057","0.0-395.0","6107b8ea737fb20c06bb6186","6213cdbf8fdea4543ecf4743","","","","","<p style=""color:darkgreen;font-size:24px;"">Correct :)</p>","",""
"18076","","","v","","","","html-keyboard-response","396","1004135","0.0-396.0","6107b8ea737fb20c06bb6186","6213cdbf8fdea4543ecf4743","","","","","<p> Last set of trials.  Here, the tasks are going to switch once again.  We are going to do 50 of these.  And then you are done with the experiment.  </p>  <br><br>  Ready? (press v or n)","",""
"2694","key","n","n","16.627329192546583","500","250","psychophysics","397","1006831","0.0-397.0","6107b8ea737fb20c06bb6186","6213cdbf8fdea4543ecf4743","7","","","","","0","6"
"null","","","null","","","","html-keyboard-response","398","1007335","0.0-398.0","6107b8ea737fb20c06bb6186","6213cdbf8fdea4543ecf4743","","","","","<p style=""color:darkgreen;font-size:24px;"">Correct :)</p>","",""
"2708","key","n","n","16.664596273291924","500","250","psychophysics","399","1010047","0.0-399.0","6107b8ea737fb20c06bb6186","6213cdbf8fdea4543ecf4743","7","","","","","0","6"
"null","","","null","","","","html-keyboard-response","400","1010550","0.0-400.0","6107b8ea737fb20c06bb6186","6213cdbf8fdea4543ecf4743","","","","","<p style=""color:darkgreen;font-size:24px;"">Correct :)</p>","",""
"2576","key","v","v","16.673202614379086","500","250","psychophysics","401","1013131","0.0-401.0","6107b8ea737fb20c06bb6186","6213cdbf8fdea4543ecf4743","7","","","","","0","1"
"null","","","null","","","","html-keyboard-response","402","1013635","0.0-402.0","6107b8ea737fb20c06bb6186","6213cdbf8fdea4543ecf4743","","","","","<p style=""color:darkgreen;font-size:24px;"">Correct :)</p>","",""
"2444","key","v","v","16.664383561643834","500","250","psychophysics","403","1016083","0.0-403.0","6107b8ea737fb20c06bb6186","6213cdbf8fdea4543ecf4743","7","","","","","1","1"
"null","","","null","","","","html-keyboard-response","404","1016585","0.0-404.0","6107b8ea737fb20c06bb6186","6213cdbf8fdea4543ecf4743","","","","","<p style=""color:darkgreen;font-size:24px;"">Correct :)</p>","",""
"2624","key","v","v","16.673076923076923","500","250","psychophysics","405","1019214","0.0-405.0","6107b8ea737fb20c06bb6186","6213cdbf8fdea4543ecf4743","7","","","","","0","1"
"null","","","null","","","","html-keyboard-response","406","1019717","0.0-406.0","6107b8ea737fb20c06bb6186","6213cdbf8fdea4543ecf4743","","","","","<p style=""color:darkgreen;font-size:24px;"">Correct :)</p>","",""
"2915","key","v","v","16.666666666666668","500","250","psychophysics","407","1022636","0.0-407.0","6107b8ea737fb20c06bb6186","6213cdbf8fdea4543ecf4743","7","","","","","1","1"
"null","","","null","","","","html-keyboard-response","408","1023138","0.0-408.0","6107b8ea737fb20c06bb6186","6213cdbf8fdea4543ecf4743","","","","","<p style=""color:darkgreen;font-size:24px;"">Correct :)</p>","",""
"2534","key","n","n","16.666666666666668","500","250","psychophysics","409","1025680","0.0-409.0","6107b8ea737fb20c06bb6186","6213cdbf8fdea4543ecf4743","7","","","","","0","4"
"null","","","null","","","","html-keyboard-response","410","1026184","0.0-410.0","6107b8ea737fb20c06bb6186","6213cdbf8fdea4543ecf4743","","","","","<p style=""color:darkgreen;font-size:24px;"">Correct :)</p>","",""
"2773","key","v","v","16.666666666666668","500","250","psychophysics","411","1028964","0.0-411.0","6107b8ea737fb20c06bb6186","6213cdbf8fdea4543ecf4743","7","","","","","0","7"
"null","","","null","","","","html-keyboard-response","412","1029468","0.0-412.0","6107b8ea737fb20c06bb6186","6213cdbf8fdea4543ecf4743","","","","","<p style=""color:darkgreen;font-size:24px;"">Correct :)</p>","",""
"2766","key","n","n","16.666666666666668","500","250","psychophysics","413","1032238","0.0-413.0","6107b8ea737fb20c06bb6186","6213cdbf8fdea4543ecf4743","7","","","","","1","6"
"null","","","null","","","","html-keyboard-response","414","1032741","0.0-414.0","6107b8ea737fb20c06bb6186","6213cdbf8fdea4543ecf4743","","","","","<p style=""color:darkgreen;font-size:24px;"">Correct :)</p>","",""
"3260","key","n","n","16.65979381443299","500","250","psychophysics","415","1036006","0.0-415.0","6107b8ea737fb20c06bb6186","6213cdbf8fdea4543ecf4743","7","","","","","0","2"
"null","","","null","","","","html-keyboard-response","416","1036508","0.0-416.0","6107b8ea737fb20c06bb6186","6213cdbf8fdea4543ecf4743","","","","","<p style=""color:darkgreen;font-size:24px;"">Correct :)</p>","",""
"3448","key","n","n","16.66829268292683","500","250","psychophysics","417","1039960","0.0-417.0","6107b8ea737fb20c06bb6186","6213cdbf8fdea4543ecf4743","7","","","","","0","4"
"null","","","null","","","","html-keyboard-response","418","1040463","0.0-418.0","6107b8ea737fb20c06bb6186","6213cdbf8fdea4543ecf4743","","","","","<p style=""color:darkgreen;font-size:24px;"">Correct :)</p>","",""
"2674","key","n","n","16.67295597484277","500","250","psychophysics","419","1043144","0.0-419.0","6107b8ea737fb20c06bb6186","6213cdbf8fdea4543ecf4743","7","","","","","1","7"
"null","","","null","","","","html-keyboard-response","420","1043646","0.0-420.0","6107b8ea737fb20c06bb6186","6213cdbf8fdea4543ecf4743","","","","","<p style=""color:darkgreen;font-size:24px;"">Correct :)</p>","",""
"2648","key","v","v","16.664556962025316","500","250","psychophysics","421","1046304","0.0-421.0","6107b8ea737fb20c06bb6186","6213cdbf8fdea4543ecf4743","7","","","","","1","1"
"null","","","null","","","","html-keyboard-response","422","1046807","0.0-422.0","6107b8ea737fb20c06bb6186","6213cdbf8fdea4543ecf4743","","","","","<p style=""color:darkgreen;font-size:24px;"">Correct :)</p>","",""
"2768","key","n","n","16.664634146341463","500","250","psychophysics","423","1049580","0.0-423.0","6107b8ea737fb20c06bb6186","6213cdbf8fdea4543ecf4743","7","","","","","0","2"
"null","","","null","","","","html-keyboard-response","424","1050083","0.0-424.0","6107b8ea737fb20c06bb6186","6213cdbf8fdea4543ecf4743","","","","","<p style=""color:darkgreen;font-size:24px;"">Correct :)</p>","",""
"2715","key","v","v","16.67283950617284","500","250","psychophysics","425","1052803","0.0-425.0","6107b8ea737fb20c06bb6186","6213cdbf8fdea4543ecf4743","7","","","","","1","3"
"null","","","null","","","","html-keyboard-response","426","1053305","0.0-426.0","6107b8ea737fb20c06bb6186","6213cdbf8fdea4543ecf4743","","","","","<p style=""color:darkgreen;font-size:24px;"">Correct :)</p>","",""
"2389","key","v","v","16.661971830985916","500","250","psychophysics","427","1055699","0.0-427.0","6107b8ea737fb20c06bb6186","6213cdbf8fdea4543ecf4743","7","","","","","1","1"
"null","","","null","","","","html-keyboard-response","428","1056201","0.0-428.0","6107b8ea737fb20c06bb6186","6213cdbf8fdea4543ecf4743","","","","","<p style=""color:darkgreen;font-size:24px;"">Correct :)</p>","",""
"2557","key","n","n","16.65359477124183","500","250","psychophysics","429","1058767","0.0-429.0","6107b8ea737fb20c06bb6186","6213cdbf8fdea4543ecf4743","7","","","","","1","7"
"null","","","null","","","","html-keyboard-response","430","1059270","0.0-430.0","6107b8ea737fb20c06bb6186","6213cdbf8fdea4543ecf4743","","","","","<p style=""color:darkgreen;font-size:24px;"">Correct :)</p>","",""
"3076","key","v","v","16.666666666666668","500","250","psychophysics","431","1062353","0.0-431.0","6107b8ea737fb20c06bb6186","6213cdbf8fdea4543ecf4743","7","","","","","0","7"
"null","","","null","","","","html-keyboard-response","432","1062856","0.0-432.0","6107b8ea737fb20c06bb6186","6213cdbf8fdea4543ecf4743","","","","","<p style=""color:darkgreen;font-size:24px;"">Correct :)</p>","",""
"2766","key","n","n","16.664634146341463","500","250","psychophysics","433","1065627","0.0-433.0","6107b8ea737fb20c06bb6186","6213cdbf8fdea4543ecf4743","7","","","","","0","6"
"null","","","null","","","","html-keyboard-response","434","1066130","0.0-434.0","6107b8ea737fb20c06bb6186","6213cdbf8fdea4543ecf4743","","","","","<p style=""color:darkgreen;font-size:24px;"">Correct :)</p>","",""
"2535","key","n","n","16.655629139072847","500","250","psychophysics","435","1068671","0.0-435.0","6107b8ea737fb20c06bb6186","6213cdbf8fdea4543ecf4743","7","","","","","1","6"
"null","","","null","","","","html-keyboard-response","436","1069174","0.0-436.0","6107b8ea737fb20c06bb6186","6213cdbf8fdea4543ecf4743","","","","","<p style=""color:darkgreen;font-size:24px;"">Correct :)</p>","",""
"3033","key","v","v","16.666666666666668","500","250","psychophysics","437","1072212","0.0-437.0","6107b8ea737fb20c06bb6186","6213cdbf8fdea4543ecf4743","7","","","","","1","4"
"null","","","null","","","","html-keyboard-response","438","1072715","0.0-438.0","6107b8ea737fb20c06bb6186","6213cdbf8fdea4543ecf4743","","","","","<p style=""color:darkgreen;font-size:24px;"">Correct :)</p>","",""
"2709","key","n","n","16.664596273291924","500","250","psychophysics","439","1075428","0.0-439.0","6107b8ea737fb20c06bb6186","6213cdbf8fdea4543ecf4743","7","","","","","0","6"
"null","","","null","","","","html-keyboard-response","440","1075932","0.0-440.0","6107b8ea737fb20c06bb6186","6213cdbf8fdea4543ecf4743","","","","","<p style=""color:darkgreen;font-size:24px;"">Correct :)</p>","",""
"2929","key","v","v","16.662857142857142","500","250","psychophysics","441","1078868","0.0-441.0","6107b8ea737fb20c06bb6186","6213cdbf8fdea4543ecf4743","7","","","","","1","4"
"null","","","null","","","","html-keyboard-response","442","1079371","0.0-442.0","6107b8ea737fb20c06bb6186","6213cdbf8fdea4543ecf4743","","","","","<p style=""color:darkgreen;font-size:24px;"">Correct :)</p>","",""
"3066","key","v","v","16.65934065934066","500","250","psychophysics","443","1082442","0.0-443.0","6107b8ea737fb20c06bb6186","6213cdbf8fdea4543ecf4743","7","","","","","0","3"
"null","","","null","","","","html-keyboard-response","444","1082945","0.0-444.0","6107b8ea737fb20c06bb6186","6213cdbf8fdea4543ecf4743","","","","","<p style=""color:darkgreen;font-size:24px;"">Correct :)</p>","",""
"2919","key","v","v","16.666666666666668","500","250","psychophysics","445","1085868","0.0-445.0","6107b8ea737fb20c06bb6186","6213cdbf8fdea4543ecf4743","7","","","","","1","3"
"null","","","null","","","","html-keyboard-response","446","1086370","0.0-446.0","6107b8ea737fb20c06bb6186","6213cdbf8fdea4543ecf4743","","","","","<p style=""color:darkgreen;font-size:24px;"">Correct :)</p>","",""
"2633","key","n","n","16.66025641025641","500","250","psychophysics","447","1089006","0.0-447.0","6107b8ea737fb20c06bb6186","6213cdbf8fdea4543ecf4743","7","","","","","0","4"
"null","","","null","","","","html-keyboard-response","448","1089508","0.0-448.0","6107b8ea737fb20c06bb6186","6213cdbf8fdea4543ecf4743","","","","","<p style=""color:darkgreen;font-size:24px;"">Correct :)</p>","",""
"2560","key","n","n","16.562091503267975","500","250","psychophysics","449","1092075","0.0-449.0","6107b8ea737fb20c06bb6186","6213cdbf8fdea4543ecf4743","7","","","","","0","6"
"null","","","null","","","","html-keyboard-response","450","1092578","0.0-450.0","6107b8ea737fb20c06bb6186","6213cdbf8fdea4543ecf4743","","","","","<p style=""color:darkgreen;font-size:24px;"">Correct :)</p>","",""
"2824","key","n","n","16.666666666666668","500","250","psychophysics","451","1095413","0.0-451.0","6107b8ea737fb20c06bb6186","6213cdbf8fdea4543ecf4743","7","","","","","0","2"
"null","","","null","","","","html-keyboard-response","452","1095916","0.0-452.0","6107b8ea737fb20c06bb6186","6213cdbf8fdea4543ecf4743","","","","","<p style=""color:darkgreen;font-size:24px;"">Correct :)</p>","",""
"2725","key","v","v","16.660493827160494","500","250","psychophysics","453","1098645","0.0-453.0","6107b8ea737fb20c06bb6186","6213cdbf8fdea4543ecf4743","7","","","","","0","7"
"null","","","null","","","","html-keyboard-response","454","1099148","0.0-454.0","6107b8ea737fb20c06bb6186","6213cdbf8fdea4543ecf4743","","","","","<p style=""color:darkgreen;font-size:24px;"">Correct :)</p>","",""
"2992","key","v","v","16.662921348314608","500","250","psychophysics","455","1102145","0.0-455.0","6107b8ea737fb20c06bb6186","6213cdbf8fdea4543ecf4743","7","","","","","1","3"
"null","","","null","","","","html-keyboard-response","456","1102648","0.0-456.0","6107b8ea737fb20c06bb6186","6213cdbf8fdea4543ecf4743","","","","","<p style=""color:darkgreen;font-size:24px;"">Correct :)</p>","",""
"2564","key","n","n","16.666666666666668","500","250","psychophysics","457","1105215","0.0-457.0","6107b8ea737fb20c06bb6186","6213cdbf8fdea4543ecf4743","7","","","","","0","6"
"null","","","null","","","","html-keyboard-response","458","1105718","0.0-458.0","6107b8ea737fb20c06bb6186","6213cdbf8fdea4543ecf4743","","","","","<p style=""color:darkgreen;font-size:24px;"">Correct :)</p>","",""
"2971","key","v","v","16.672316384180792","500","250","psychophysics","459","1108694","0.0-459.0","6107b8ea737fb20c06bb6186","6213cdbf8fdea4543ecf4743","7","","","","","1","3"
"null","","","null","","","","html-keyboard-response","460","1109197","0.0-460.0","6107b8ea737fb20c06bb6186","6213cdbf8fdea4543ecf4743","","","","","<p style=""color:darkgreen;font-size:24px;"">Correct :)</p>","",""
"2523","key","v","v","16.666666666666668","500","250","psychophysics","461","1111725","0.0-461.0","6107b8ea737fb20c06bb6186","6213cdbf8fdea4543ecf4743","7","","","","","1","2"
"null","","","null","","","","html-keyboard-response","462","1112228","0.0-462.0","6107b8ea737fb20c06bb6186","6213cdbf8fdea4543ecf4743","","","","","<p style=""color:darkgreen;font-size:24px;"">Correct :)</p>","",""
"2679","key","n","n","16.666666666666668","500","250","psychophysics","463","1114912","0.0-463.0","6107b8ea737fb20c06bb6186","6213cdbf8fdea4543ecf4743","7","","","","","0","4"
"null","","","null","","","","html-keyboard-response","464","1115414","0.0-464.0","6107b8ea737fb20c06bb6186","6213cdbf8fdea4543ecf4743","","","","","<p style=""color:darkgreen;font-size:24px;"">Correct :)</p>","",""
"2543","key","n","n","16.67105263157895","500","250","psychophysics","465","1117964","0.0-465.0","6107b8ea737fb20c06bb6186","6213cdbf8fdea4543ecf4743","7","","","","","0","6"
"null","","","null","","","","html-keyboard-response","466","1118467","0.0-466.0","6107b8ea737fb20c06bb6186","6213cdbf8fdea4543ecf4743","","","","","<p style=""color:darkgreen;font-size:24px;"">Correct :)</p>","",""
"3186","key","v","v","16.66315789473684","500","250","psychophysics","467","1121661","0.0-467.0","6107b8ea737fb20c06bb6186","6213cdbf8fdea4543ecf4743","7","","","","","1","2"
"null","","","null","","","","html-keyboard-response","468","1122164","0.0-468.0","6107b8ea737fb20c06bb6186","6213cdbf8fdea4543ecf4743","","","","","<p style=""color:darkgreen;font-size:24px;"">Correct :)</p>","",""
"2853","key","n","n","16.66470588235294","500","250","psychophysics","469","1125019","0.0-469.0","6107b8ea737fb20c06bb6186","6213cdbf8fdea4543ecf4743","7","","","","","0","4"
"null","","","null","","","","html-keyboard-response","470","1125522","0.0-470.0","6107b8ea737fb20c06bb6186","6213cdbf8fdea4543ecf4743","","","","","<p style=""color:darkgreen;font-size:24px;"">Correct :)</p>","",""
"2567","key","n","n","16.67105263157895","500","250","psychophysics","471","1128094","0.0-471.0","6107b8ea737fb20c06bb6186","6213cdbf8fdea4543ecf4743","7","","","","","0","6"
"null","","","null","","","","html-keyboard-response","472","1128596","0.0-472.0","6107b8ea737fb20c06bb6186","6213cdbf8fdea4543ecf4743","","","","","<p style=""color:darkgreen;font-size:24px;"">Correct :)</p>","",""
"2579","key","v","v","16.666666666666668","500","250","psychophysics","473","1131177","0.0-473.0","6107b8ea737fb20c06bb6186","6213cdbf8fdea4543ecf4743","7","","","","","0","3"
"null","","","null","","","","html-keyboard-response","474","1131679","0.0-474.0","6107b8ea737fb20c06bb6186","6213cdbf8fdea4543ecf4743","","","","","<p style=""color:darkgreen;font-size:24px;"">Correct :)</p>","",""
"2641","key","v","v","16.668789808917197","500","250","psychophysics","475","1134327","0.0-475.0","6107b8ea737fb20c06bb6186","6213cdbf8fdea4543ecf4743","7","","","","","0","3"
"null","","","null","","","","html-keyboard-response","476","1134830","0.0-476.0","6107b8ea737fb20c06bb6186","6213cdbf8fdea4543ecf4743","","","","","<p style=""color:darkgreen;font-size:24px;"">Correct :)</p>","",""
"2757","key","v","v","16.664634146341463","500","250","psychophysics","477","1137591","0.0-477.0","6107b8ea737fb20c06bb6186","6213cdbf8fdea4543ecf4743","7","","","","","0","3"
"null","","","null","","","","html-keyboard-response","478","1138095","0.0-478.0","6107b8ea737fb20c06bb6186","6213cdbf8fdea4543ecf4743","","","","","<p style=""color:darkgreen;font-size:24px;"">Correct :)</p>","",""
"3010","key","n","n","16.670391061452513","500","250","psychophysics","479","1141110","0.0-479.0","6107b8ea737fb20c06bb6186","6213cdbf8fdea4543ecf4743","7","","","","","1","7"
"null","","","null","","","","html-keyboard-response","480","1141613","0.0-480.0","6107b8ea737fb20c06bb6186","6213cdbf8fdea4543ecf4743","","","","","<p style=""color:darkgreen;font-size:24px;"">Correct :)</p>","",""
"2923","key","n","n","16.666666666666668","500","250","psychophysics","481","1144541","0.0-481.0","6107b8ea737fb20c06bb6186","6213cdbf8fdea4543ecf4743","7","","","","","1","7"
"null","","","null","","","","html-keyboard-response","482","1145043","0.0-482.0","6107b8ea737fb20c06bb6186","6213cdbf8fdea4543ecf4743","","","","","<p style=""color:darkgreen;font-size:24px;"">Correct :)</p>","",""
"3036","key","n","n","16.668508287292816","500","250","psychophysics","483","1148082","0.0-483.0","6107b8ea737fb20c06bb6186","6213cdbf8fdea4543ecf4743","7","","","","","0","2"
"null","","","null","","","","html-keyboard-response","484","1148584","0.0-484.0","6107b8ea737fb20c06bb6186","6213cdbf8fdea4543ecf4743","","","","","<p style=""color:darkgreen;font-size:24px;"">Correct :)</p>","",""
"2472","key","n","n","16.6734693877551","500","250","psychophysics","485","1151063","0.0-485.0","6107b8ea737fb20c06bb6186","6213cdbf8fdea4543ecf4743","7","","","","","1","7"
"null","","","null","","","","html-keyboard-response","486","1151566","0.0-486.0","6107b8ea737fb20c06bb6186","6213cdbf8fdea4543ecf4743","","","","","<p style=""color:darkgreen;font-size:24px;"">Correct :)</p>","",""
"2884","key","n","n","16.66860465116279","500","250","psychophysics","487","1154457","0.0-487.0","6107b8ea737fb20c06bb6186","6213cdbf8fdea4543ecf4743","7","","","","","1","6"
"null","","","null","","","","html-keyboard-response","488","1154959","0.0-488.0","6107b8ea737fb20c06bb6186","6213cdbf8fdea4543ecf4743","","","","","<p style=""color:darkgreen;font-size:24px;"">Correct :)</p>","",""
"2562","key","v","v","16.67105263157895","500","250","psychophysics","489","1157528","0.0-489.0","6107b8ea737fb20c06bb6186","6213cdbf8fdea4543ecf4743","7","","","","","0","1"
"null","","","null","","","","html-keyboard-response","490","1158031","0.0-490.0","6107b8ea737fb20c06bb6186","6213cdbf8fdea4543ecf4743","","","","","<p style=""color:darkgreen;font-size:24px;"">Correct :)</p>","",""
"2742","key","v","v","16.66871165644172","500","250","psychophysics","491","1160777","0.0-491.0","6107b8ea737fb20c06bb6186","6213cdbf8fdea4543ecf4743","7","","","","","1","2"
"null","","","null","","","","html-keyboard-response","492","1161280","0.0-492.0","6107b8ea737fb20c06bb6186","6213cdbf8fdea4543ecf4743","","","","","<p style=""color:darkgreen;font-size:24px;"">Correct :)</p>","",""
"2782","key","v","v","16.66867469879518","500","250","psychophysics","493","1164066","0.0-493.0","6107b8ea737fb20c06bb6186","6213cdbf8fdea4543ecf4743","7","","","","","1","3"
"null","","","null","","","","html-keyboard-response","494","1164567","0.0-494.0","6107b8ea737fb20c06bb6186","6213cdbf8fdea4543ecf4743","","","","","<p style=""color:darkgreen;font-size:24px;"">Correct :)</p>","",""
"3255","key","n","n","16.664948453608247","500","250","psychophysics","495","1167829","0.0-495.0","6107b8ea737fb20c06bb6186","6213cdbf8fdea4543ecf4743","7","","","","","0","6"
"null","","","null","","","","html-keyboard-response","496","1168332","0.0-496.0","6107b8ea737fb20c06bb6186","6213cdbf8fdea4543ecf4743","","","","","<p style=""color:darkgreen;font-size:24px;"">Correct :)</p>","",""
