"rt","response_type","key_press","response","avg_frame_time","center_x","center_y","trial_type","trial_index","time_elapsed","internal_node_id","pid","sid","phase","guide","targ","resp","stimulus","is5","stim"
"3656","key"," "," ","17.2018779342723","500","250","psychophysics","0","3681","0.0-0.0","60fdc3108d972d6c852fbf8a","620a612e6f4c1bcc63a7f057","","","","","","",""
"7526","key"," "," ","18.20581113801453","500","250","psychophysics","1","11212","0.0-1.0","60fdc3108d972d6c852fbf8a","620a612e6f4c1bcc63a7f057","","","","","","",""
"1599","key"," "," ","16.673684210526314","500","250","psychophysics","2","12816","0.0-2.0","60fdc3108d972d6c852fbf8a","620a612e6f4c1bcc63a7f057","","","","","","",""
"1284","key"," "," ","16.69736842105263","500","250","psychophysics","3","14105","0.0-3.0","60fdc3108d972d6c852fbf8a","620a612e6f4c1bcc63a7f057","","","","","","",""
"2153","key"," "," ","16.643410852713178","500","250","psychophysics","4","16263","0.0-4.0","60fdc3108d972d6c852fbf8a","620a612e6f4c1bcc63a7f057","","","","","","",""
"11508","key"," "," ","16.66521739130435","500","250","psychophysics","5","27775","0.0-5.0","60fdc3108d972d6c852fbf8a","620a612e6f4c1bcc63a7f057","","","","","","",""
"3065","key"," "," ","16.666666666666668","500","250","psychophysics","6","30847","0.0-6.0","60fdc3108d972d6c852fbf8a","620a612e6f4c1bcc63a7f057","","","","","","",""
"3711","key"," "," ","16.66216216216216","500","250","psychophysics","7","34562","0.0-7.0","60fdc3108d972d6c852fbf8a","620a612e6f4c1bcc63a7f057","","","","","","",""
"11752","key"," "," ","16.667613636363637","500","250","psychophysics","8","46317","0.0-8.0","60fdc3108d972d6c852fbf8a","620a612e6f4c1bcc63a7f057","0","0","54","58","","",""
"2878","key"," "," ","16.66860465116279","500","250","psychophysics","9","49199","0.0-9.0","60fdc3108d972d6c852fbf8a","620a612e6f4c1bcc63a7f057","","","","","","",""
"2248","key"," "," ","16.671641791044777","500","250","psychophysics","10","51453","0.0-10.0","60fdc3108d972d6c852fbf8a","620a612e6f4c1bcc63a7f057","","","","","","",""
"3657","key"," "," ","16.662100456621005","500","250","psychophysics","11","55113","0.0-11.0","60fdc3108d972d6c852fbf8a","620a612e6f4c1bcc63a7f057","","","","","","",""
"5709","key"," "," ","16.666666666666668","500","250","psychophysics","12","60827","0.0-12.0","60fdc3108d972d6c852fbf8a","620a612e6f4c1bcc63a7f057","","","","","","",""
"1771","key"," "," ","16.666666666666668","500","250","psychophysics","13","62603","0.0-13.0","60fdc3108d972d6c852fbf8a","620a612e6f4c1bcc63a7f057","","","","","","",""
"14814","key"," "," ","16.659167604049493","500","250","psychophysics","14","77423","0.0-14.0","60fdc3108d972d6c852fbf8a","620a612e6f4c1bcc63a7f057","","","","","","",""
"3525","key"," "," ","16.66190476190476","500","250","psychophysics","15","80953","0.0-15.0","60fdc3108d972d6c852fbf8a","620a612e6f4c1bcc63a7f057","","","","","","",""
"1738","key"," "," ","16.64423076923077","500","250","psychophysics","16","82695","0.0-16.0","60fdc3108d972d6c852fbf8a","620a612e6f4c1bcc63a7f057","","","","","","",""
"5969","key"," "," ","16.666666666666668","500","250","psychophysics","17","88668","0.0-17.0","60fdc3108d972d6c852fbf8a","620a612e6f4c1bcc63a7f057","1","0","34","42","","",""
"14161","key"," "," ","16.661955241460543","500","250","psychophysics","18","102834","0.0-18.0","60fdc3108d972d6c852fbf8a","620a612e6f4c1bcc63a7f057","1","5","53","65","","",""
"10241","key"," "," ","16.65960912052117","500","250","psychophysics","19","113079","0.0-19.0","60fdc3108d972d6c852fbf8a","620a612e6f4c1bcc63a7f057","1","0","49","75","","",""
"11148","key"," "," ","16.66616766467066","500","250","psychophysics","20","124230","0.0-20.0","60fdc3108d972d6c852fbf8a","620a612e6f4c1bcc63a7f057","1","5","53","67","","",""
"8338","key"," "," ","16.666","500","250","psychophysics","21","132572","0.0-21.0","60fdc3108d972d6c852fbf8a","620a612e6f4c1bcc63a7f057","1","0","41","62","","",""
"5802","key"," "," ","16.6685878962536","500","250","psychophysics","22","138379","0.0-22.0","60fdc3108d972d6c852fbf8a","620a612e6f4c1bcc63a7f057","1","5","39","52","","",""
"8967","key"," "," ","16.664804469273744","500","250","psychophysics","23","147349","0.0-23.0","60fdc3108d972d6c852fbf8a","620a612e6f4c1bcc63a7f057","1","0","55","82","","",""
"7907","key"," "," ","16.658227848101266","500","250","psychophysics","24","155261","0.0-24.0","60fdc3108d972d6c852fbf8a","620a612e6f4c1bcc63a7f057","1","5","45","59","","",""
"7478","key"," "," ","16.667410714285715","500","250","psychophysics","25","162743","0.0-25.0","60fdc3108d972d6c852fbf8a","620a612e6f4c1bcc63a7f057","1","0","43","65","","",""
"9126","key"," "," ","16.6672760511883","500","250","psychophysics","26","171873","0.0-26.0","60fdc3108d972d6c852fbf8a","620a612e6f4c1bcc63a7f057","1","5","57","65","","",""
"9706","key"," "," ","16.664948453608247","500","250","psychophysics","27","181584","0.0-27.0","60fdc3108d972d6c852fbf8a","620a612e6f4c1bcc63a7f057","1","0","60","87","","",""
"5389","key"," "," ","16.667701863354036","500","250","psychophysics","28","186976","0.0-28.0","60fdc3108d972d6c852fbf8a","620a612e6f4c1bcc63a7f057","1","5","22","29","","",""
"8832","key"," "," ","16.669187145557657","500","250","psychophysics","29","195812","0.0-29.0","60fdc3108d972d6c852fbf8a","620a612e6f4c1bcc63a7f057","1","0","54","77","","",""
"5429","key"," "," ","16.655384615384616","500","250","psychophysics","30","201246","0.0-30.0","60fdc3108d972d6c852fbf8a","620a612e6f4c1bcc63a7f057","1","5","31","39","","",""
"5995","key"," "," ","16.654596100278553","500","250","psychophysics","31","207245","0.0-31.0","60fdc3108d972d6c852fbf8a","620a612e6f4c1bcc63a7f057","1","0","35","60","","",""
"6634","key"," "," ","16.65829145728643","500","250","psychophysics","32","213883","0.0-32.0","60fdc3108d972d6c852fbf8a","620a612e6f4c1bcc63a7f057","1","5","57","63","","",""
"4239","key"," "," ","16.66798418972332","500","250","psychophysics","33","218124","0.0-33.0","60fdc3108d972d6c852fbf8a","620a612e6f4c1bcc63a7f057","1","0","25","39","","",""
"5356","key"," "," ","16.66355140186916","500","250","psychophysics","34","223486","0.0-34.0","60fdc3108d972d6c852fbf8a","620a612e6f4c1bcc63a7f057","1","5","43","55","","",""
"9437","key"," "," ","16.665486725663715","500","250","psychophysics","35","232928","0.0-35.0","60fdc3108d972d6c852fbf8a","620a612e6f4c1bcc63a7f057","1","0","57","88","","",""
"5583","key"," "," ","16.65671641791045","500","250","psychophysics","36","238515","0.0-36.0","60fdc3108d972d6c852fbf8a","620a612e6f4c1bcc63a7f057","1","5","51","54","","",""
"2951","key"," "," ","16.664772727272727","500","250","psychophysics","37","241470","0.0-37.0","60fdc3108d972d6c852fbf8a","620a612e6f4c1bcc63a7f057","","","","","","",""
"3280","key"," "," ","16.668367346938776","500","250","psychophysics","38","244755","0.0-38.0","60fdc3108d972d6c852fbf8a","620a612e6f4c1bcc63a7f057","","","","","","",""
"1368","key"," "," ","16.666666666666668","500","250","psychophysics","39","246127","0.0-39.0","60fdc3108d972d6c852fbf8a","620a612e6f4c1bcc63a7f057","","","","","","",""
"6667","key"," "," ","16.66","500","250","psychophysics","40","252798","0.0-40.0","60fdc3108d972d6c852fbf8a","620a612e6f4c1bcc63a7f057","2","0","27","43","","",""
"2358","key"," "," ","16.65714285714286","500","250","psychophysics","41","255245","0.0-41.0","60fdc3108d972d6c852fbf8a","620a612e6f4c1bcc63a7f057","","","","","","",""
"4652","key"," "," ","16.655913978494624","500","250","psychophysics","42","259900","0.0-42.0","60fdc3108d972d6c852fbf8a","620a612e6f4c1bcc63a7f057","2","0","30","32","","",""
"1509","key"," "," ","16.644444444444446","500","250","psychophysics","43","261414","0.0-43.0","60fdc3108d972d6c852fbf8a","620a612e6f4c1bcc63a7f057","","","","","","",""
"7515","key"," "," ","16.666666666666668","500","250","psychophysics","44","268933","0.0-44.0","60fdc3108d972d6c852fbf8a","620a612e6f4c1bcc63a7f057","2","0","46","69","","",""
"1906","key"," "," ","16.663716814159294","500","250","psychophysics","45","270843","0.0-45.0","60fdc3108d972d6c852fbf8a","620a612e6f4c1bcc63a7f057","","","","","","",""
"4462","key"," "," ","16.655430711610485","500","250","psychophysics","46","275309","0.0-46.0","60fdc3108d972d6c852fbf8a","620a612e6f4c1bcc63a7f057","2","0","33","43","","",""
"1060","key"," "," ","16.634920634920636","500","250","psychophysics","47","276373","0.0-47.0","60fdc3108d972d6c852fbf8a","620a612e6f4c1bcc63a7f057","","","","","","",""
"8212","key"," "," ","16.664634146341463","500","250","psychophysics","48","284591","0.0-48.0","60fdc3108d972d6c852fbf8a","620a612e6f4c1bcc63a7f057","2","0","58","62","","",""
"1081","key"," "," ","16.65625","500","250","psychophysics","49","285676","0.0-49.0","60fdc3108d972d6c852fbf8a","620a612e6f4c1bcc63a7f057","","","","","","",""
"3909","key"," "," ","16.65811965811966","500","250","psychophysics","50","289589","0.0-50.0","60fdc3108d972d6c852fbf8a","620a612e6f4c1bcc63a7f057","2","0","22","21","","",""
"951","key"," "," ","16.660714285714285","500","250","psychophysics","51","290543","0.0-51.0","60fdc3108d972d6c852fbf8a","620a612e6f4c1bcc63a7f057","","","","","","",""
"5279","key"," "," ","16.658227848101266","500","250","psychophysics","52","295826","0.0-52.0","60fdc3108d972d6c852fbf8a","620a612e6f4c1bcc63a7f057","2","0","30","33","","",""
"820","key"," "," ","16.591836734693878","500","250","psychophysics","53","296652","0.0-53.0","60fdc3108d972d6c852fbf8a","620a612e6f4c1bcc63a7f057","","","","","","",""
"4858","key"," "," ","16.66323024054983","500","250","psychophysics","54","301513","0.0-54.0","60fdc3108d972d6c852fbf8a","620a612e6f4c1bcc63a7f057","2","0","28","27","","",""
"767","key"," "," ","16.666666666666668","500","250","psychophysics","55","302285","0.0-55.0","60fdc3108d972d6c852fbf8a","620a612e6f4c1bcc63a7f057","","","","","","",""
"3722","key"," "," ","16.663677130044842","500","250","psychophysics","56","306011","0.0-56.0","60fdc3108d972d6c852fbf8a","620a612e6f4c1bcc63a7f057","2","0","24","24","","",""
"641","key"," "," ","16.675675675675677","500","250","psychophysics","57","306657","0.0-57.0","60fdc3108d972d6c852fbf8a","620a612e6f4c1bcc63a7f057","","","","","","",""
"5534","key"," "," ","16.65963855421687","500","250","psychophysics","58","312195","0.0-58.0","60fdc3108d972d6c852fbf8a","620a612e6f4c1bcc63a7f057","2","0","49","50","","",""
"781","key"," "," ","16.67391304347826","500","250","psychophysics","59","312980","0.0-59.0","60fdc3108d972d6c852fbf8a","620a612e6f4c1bcc63a7f057","","","","","","",""
"4097","key"," "," ","16.66530612244898","500","250","psychophysics","60","317081","0.0-60.0","60fdc3108d972d6c852fbf8a","620a612e6f4c1bcc63a7f057","2","0","27","24","","",""
"717","key"," "," ","16.666666666666668","500","250","psychophysics","61","317803","0.0-61.0","60fdc3108d972d6c852fbf8a","620a612e6f4c1bcc63a7f057","","","","","","",""
"3739","key"," "," ","16.665178571428573","500","250","psychophysics","62","321546","0.0-62.0","60fdc3108d972d6c852fbf8a","620a612e6f4c1bcc63a7f057","2","0","20","19","","",""
"716","key"," "," ","16.642857142857142","500","250","psychophysics","63","322266","0.0-63.0","60fdc3108d972d6c852fbf8a","620a612e6f4c1bcc63a7f057","","","","","","",""
"2763","key"," "," ","16.672727272727272","500","250","psychophysics","64","325034","0.0-64.0","60fdc3108d972d6c852fbf8a","620a612e6f4c1bcc63a7f057","2","0","32","26","","",""
"680","key"," "," ","16.675","500","250","psychophysics","65","325719","0.0-65.0","60fdc3108d972d6c852fbf8a","620a612e6f4c1bcc63a7f057","","","","","","",""
"3340","key"," "," ","16.665","500","250","psychophysics","66","329062","0.0-66.0","60fdc3108d972d6c852fbf8a","620a612e6f4c1bcc63a7f057","2","0","30","32","","",""
"832","key"," "," ","16.653061224489797","500","250","psychophysics","67","329899","0.0-67.0","60fdc3108d972d6c852fbf8a","620a612e6f4c1bcc63a7f057","","","","","","",""
"5302","key"," "," ","16.665615141955836","500","250","psychophysics","68","335204","0.0-68.0","60fdc3108d972d6c852fbf8a","620a612e6f4c1bcc63a7f057","2","0","52","57","","",""
"884","key"," "," ","16.60377358490566","500","250","psychophysics","69","336094","0.0-69.0","60fdc3108d972d6c852fbf8a","620a612e6f4c1bcc63a7f057","","","","","","",""
"2004","key"," "," ","16.65546218487395","500","250","psychophysics","70","338102","0.0-70.0","60fdc3108d972d6c852fbf8a","620a612e6f4c1bcc63a7f057","","","","","","",""
"2550","key"," "," ","16.67105263157895","500","250","psychophysics","71","340656","0.0-71.0","60fdc3108d972d6c852fbf8a","620a612e6f4c1bcc63a7f057","","","","","","",""
"5103","key"," "," ","16.65686274509804","500","250","psychophysics","72","345763","0.0-72.0","60fdc3108d972d6c852fbf8a","620a612e6f4c1bcc63a7f057","3","5","58","50","","",""
"6280","key"," "," ","16.66755319148936","500","250","psychophysics","73","352049","0.0-73.0","60fdc3108d972d6c852fbf8a","620a612e6f4c1bcc63a7f057","3","0","47","60","","",""
"4047","key"," "," ","16.669421487603305","500","250","psychophysics","74","356101","0.0-74.0","60fdc3108d972d6c852fbf8a","620a612e6f4c1bcc63a7f057","3","5","47","43","","",""
"4182","key"," "," ","16.672","500","250","psychophysics","75","360288","0.0-75.0","60fdc3108d972d6c852fbf8a","620a612e6f4c1bcc63a7f057","3","0","32","45","","",""
"2806","key"," "," ","16.660714285714285","500","250","psychophysics","76","363096","0.0-76.0","60fdc3108d972d6c852fbf8a","620a612e6f4c1bcc63a7f057","3","5","25","28","","",""
"4805","key"," "," ","16.663194444444443","500","250","psychophysics","77","367908","0.0-77.0","60fdc3108d972d6c852fbf8a","620a612e6f4c1bcc63a7f057","3","0","32","46","","",""
"3851","key"," "," ","16.66521739130435","500","250","psychophysics","78","371765","0.0-78.0","60fdc3108d972d6c852fbf8a","620a612e6f4c1bcc63a7f057","3","5","50","40","","",""
"6819","key"," "," ","16.665036674816626","500","250","psychophysics","79","378590","0.0-79.0","60fdc3108d972d6c852fbf8a","620a612e6f4c1bcc63a7f057","3","0","47","68","","",""
"3912","key"," "," ","16.665236051502145","500","250","psychophysics","80","382505","0.0-80.0","60fdc3108d972d6c852fbf8a","620a612e6f4c1bcc63a7f057","3","5","39","39","","",""
"3079","key"," "," ","16.63243243243243","500","250","psychophysics","81","385590","0.0-81.0","60fdc3108d972d6c852fbf8a","620a612e6f4c1bcc63a7f057","3","0","20","32","","",""
"5184","key"," "," ","16.66774193548387","500","250","psychophysics","82","390778","0.0-82.0","60fdc3108d972d6c852fbf8a","620a612e6f4c1bcc63a7f057","3","5","40","47","","",""
"5800","key"," "," ","16.665706051873197","500","250","psychophysics","83","396582","0.0-83.0","60fdc3108d972d6c852fbf8a","620a612e6f4c1bcc63a7f057","3","0","38","62","","",""
"2802","key"," "," ","16.666666666666668","500","250","psychophysics","84","399389","0.0-84.0","60fdc3108d972d6c852fbf8a","620a612e6f4c1bcc63a7f057","3","5","21","27","","",""
"5456","key"," "," ","16.665644171779142","500","250","psychophysics","85","404849","0.0-85.0","60fdc3108d972d6c852fbf8a","620a612e6f4c1bcc63a7f057","3","0","39","61","","",""
"5576","key"," "," ","16.667664670658684","500","250","psychophysics","86","410429","0.0-86.0","60fdc3108d972d6c852fbf8a","620a612e6f4c1bcc63a7f057","3","5","56","59","","",""
"5282","key"," "," ","16.667721518987342","500","250","psychophysics","87","415715","0.0-87.0","60fdc3108d972d6c852fbf8a","620a612e6f4c1bcc63a7f057","3","0","41","60","","",""
"5184","key"," "," ","16.670967741935485","500","250","psychophysics","88","420902","0.0-88.0","60fdc3108d972d6c852fbf8a","620a612e6f4c1bcc63a7f057","3","5","59","57","","",""
"4863","key"," "," ","16.652920962199314","500","250","psychophysics","89","425769","0.0-89.0","60fdc3108d972d6c852fbf8a","620a612e6f4c1bcc63a7f057","3","0","40","53","","",""
"2796","key"," "," ","16.646706586826348","500","250","psychophysics","90","428569","0.0-90.0","60fdc3108d972d6c852fbf8a","620a612e6f4c1bcc63a7f057","3","5","28","28","","",""
"6405","key"," "," ","16.65625","500","250","psychophysics","91","434977","0.0-91.0","60fdc3108d972d6c852fbf8a","620a612e6f4c1bcc63a7f057","3","0","49","72","","",""
"1715","key"," "," ","16.666666666666668","500","250","psychophysics","92","436698","0.0-92.0","60fdc3108d972d6c852fbf8a","620a612e6f4c1bcc63a7f057","","","","","","",""
"21347","","","v","","","","html-keyboard-response","93","458048","0.0-93.0","60fdc3108d972d6c852fbf8a","620a612e6f4c1bcc63a7f057","","","","","<p> In this part of the experiment, we are going present digits 1, 2, 3, 4, 6, 7, 8, and 9.  Notice that 5 is missing.  Your job is to say whether the presented digit is less than or greater than 5.  For example, 3 is less than 5 and 7 is greater than 5.  If the digit is less than 5, press the v key; if it is greater than 5, press the n key. We are going to do 200 of these in total, but only 50 righ now. They go real fast.</p>  <br><br>  Ready? (press v or n)","",""
"2785","key","n","n","16.656626506024097","500","250","psychophysics","94","460836","0.0-94.0","60fdc3108d972d6c852fbf8a","620a612e6f4c1bcc63a7f057","4","","","","","1","7"
"null","","","null","","","","html-keyboard-response","95","461340","0.0-95.0","60fdc3108d972d6c852fbf8a","620a612e6f4c1bcc63a7f057","","","","","<p style=""color:darkgreen;font-size:24px;"">Correct :)</p>","",""
"2892","key","v","v","16.703488372093023","500","250","psychophysics","96","464239","0.0-96.0","60fdc3108d972d6c852fbf8a","620a612e6f4c1bcc63a7f057","4","","","","","1","2"
"null","","","null","","","","html-keyboard-response","97","464740","0.0-97.0","60fdc3108d972d6c852fbf8a","620a612e6f4c1bcc63a7f057","","","","","<p style=""color:darkgreen;font-size:24px;"">Correct :)</p>","",""
"2786","key","n","n","17.01840490797546","500","250","psychophysics","98","467532","0.0-98.0","60fdc3108d972d6c852fbf8a","620a612e6f4c1bcc63a7f057","4","","","","","1","8"
"null","","","null","","","","html-keyboard-response","99","468034","0.0-99.0","60fdc3108d972d6c852fbf8a","620a612e6f4c1bcc63a7f057","","","","","<p style=""color:darkgreen;font-size:24px;"">Correct :)</p>","",""
"2617","key","v","v","16.666666666666668","500","250","psychophysics","100","470660","0.0-100.0","60fdc3108d972d6c852fbf8a","620a612e6f4c1bcc63a7f057","4","","","","","1","2"
"null","","","null","","","","html-keyboard-response","101","471164","0.0-101.0","60fdc3108d972d6c852fbf8a","620a612e6f4c1bcc63a7f057","","","","","<p style=""color:darkgreen;font-size:24px;"">Correct :)</p>","",""
"2624","key","v","v","16.705128205128204","500","250","psychophysics","102","473793","0.0-102.0","60fdc3108d972d6c852fbf8a","620a612e6f4c1bcc63a7f057","4","","","","","1","2"
"null","","","null","","","","html-keyboard-response","103","474295","0.0-103.0","60fdc3108d972d6c852fbf8a","620a612e6f4c1bcc63a7f057","","","","","<p style=""color:darkgreen;font-size:24px;"">Correct :)</p>","",""
"2720","key","v","v","16.664596273291924","500","250","psychophysics","104","477018","0.0-104.0","60fdc3108d972d6c852fbf8a","620a612e6f4c1bcc63a7f057","4","","","","","1","1"
"null","","","null","","","","html-keyboard-response","105","477521","0.0-105.0","60fdc3108d972d6c852fbf8a","620a612e6f4c1bcc63a7f057","","","","","<p style=""color:darkgreen;font-size:24px;"">Correct :)</p>","",""
"2563","key","n","n","16.66013071895425","500","250","psychophysics","106","480090","0.0-106.0","60fdc3108d972d6c852fbf8a","620a612e6f4c1bcc63a7f057","4","","","","","1","8"
"null","","","null","","","","html-keyboard-response","107","480593","0.0-107.0","60fdc3108d972d6c852fbf8a","620a612e6f4c1bcc63a7f057","","","","","<p style=""color:darkgreen;font-size:24px;"">Correct :)</p>","",""
"2639","key","v","v","16.662420382165607","500","250","psychophysics","108","483238","0.0-108.0","60fdc3108d972d6c852fbf8a","620a612e6f4c1bcc63a7f057","4","","","","","1","1"
"null","","","null","","","","html-keyboard-response","109","483741","0.0-109.0","60fdc3108d972d6c852fbf8a","620a612e6f4c1bcc63a7f057","","","","","<p style=""color:darkgreen;font-size:24px;"">Correct :)</p>","",""
"2565","key","n","n","16.666666666666668","500","250","psychophysics","110","486311","0.0-110.0","60fdc3108d972d6c852fbf8a","620a612e6f4c1bcc63a7f057","4","","","","","1","9"
"null","","","null","","","","html-keyboard-response","111","486814","0.0-111.0","60fdc3108d972d6c852fbf8a","620a612e6f4c1bcc63a7f057","","","","","<p style=""color:darkgreen;font-size:24px;"">Correct :)</p>","",""
"2722","key","v","v","16.660493827160494","500","250","psychophysics","112","489541","0.0-112.0","60fdc3108d972d6c852fbf8a","620a612e6f4c1bcc63a7f057","4","","","","","1","3"
"null","","","null","","","","html-keyboard-response","113","490043","0.0-113.0","60fdc3108d972d6c852fbf8a","620a612e6f4c1bcc63a7f057","","","","","<p style=""color:darkgreen;font-size:24px;"">Correct :)</p>","",""
"2685","key","v","v","16.666666666666668","500","250","psychophysics","114","492734","0.0-114.0","60fdc3108d972d6c852fbf8a","620a612e6f4c1bcc63a7f057","4","","","","","1","3"
"null","","","null","","","","html-keyboard-response","115","493236","0.0-115.0","60fdc3108d972d6c852fbf8a","620a612e6f4c1bcc63a7f057","","","","","<p style=""color:darkgreen;font-size:24px;"">Correct :)</p>","",""
"2681","key","n","n","16.6625","500","250","psychophysics","116","495921","0.0-116.0","60fdc3108d972d6c852fbf8a","620a612e6f4c1bcc63a7f057","4","","","","","1","7"
"null","","","null","","","","html-keyboard-response","117","496424","0.0-117.0","60fdc3108d972d6c852fbf8a","620a612e6f4c1bcc63a7f057","","","","","<p style=""color:darkgreen;font-size:24px;"">Correct :)</p>","",""
"2685","key","n","n","16.66875","500","250","psychophysics","118","499113","0.0-118.0","60fdc3108d972d6c852fbf8a","620a612e6f4c1bcc63a7f057","4","","","","","1","9"
"null","","","null","","","","html-keyboard-response","119","499615","0.0-119.0","60fdc3108d972d6c852fbf8a","620a612e6f4c1bcc63a7f057","","","","","<p style=""color:darkgreen;font-size:24px;"">Correct :)</p>","",""
"2619","key","n","n","16.653846153846153","500","250","psychophysics","120","502241","0.0-120.0","60fdc3108d972d6c852fbf8a","620a612e6f4c1bcc63a7f057","4","","","","","1","9"
"null","","","null","","","","html-keyboard-response","121","502743","0.0-121.0","60fdc3108d972d6c852fbf8a","620a612e6f4c1bcc63a7f057","","","","","<p style=""color:darkgreen;font-size:24px;"">Correct :)</p>","",""
"2637","key","v","v","16.656050955414013","500","250","psychophysics","122","505386","0.0-122.0","60fdc3108d972d6c852fbf8a","620a612e6f4c1bcc63a7f057","4","","","","","1","1"
"null","","","null","","","","html-keyboard-response","123","505889","0.0-123.0","60fdc3108d972d6c852fbf8a","620a612e6f4c1bcc63a7f057","","","","","<p style=""color:darkgreen;font-size:24px;"">Correct :)</p>","",""
"2828","key","v","v","16.65680473372781","500","250","psychophysics","124","508721","0.0-124.0","60fdc3108d972d6c852fbf8a","620a612e6f4c1bcc63a7f057","4","","","","","1","4"
"null","","","null","","","","html-keyboard-response","125","509223","0.0-125.0","60fdc3108d972d6c852fbf8a","620a612e6f4c1bcc63a7f057","","","","","<p style=""color:darkgreen;font-size:24px;"">Correct :)</p>","",""
"2602","key","v","v","16.66883116883117","500","250","psychophysics","126","511831","0.0-126.0","60fdc3108d972d6c852fbf8a","620a612e6f4c1bcc63a7f057","4","","","","","1","3"
"null","","","null","","","","html-keyboard-response","127","512334","0.0-127.0","60fdc3108d972d6c852fbf8a","620a612e6f4c1bcc63a7f057","","","","","<p style=""color:darkgreen;font-size:24px;"">Correct :)</p>","",""
"2822","key","n","n","16.660714285714285","500","250","psychophysics","128","515162","0.0-128.0","60fdc3108d972d6c852fbf8a","620a612e6f4c1bcc63a7f057","4","","","","","1","9"
"null","","","null","","","","html-keyboard-response","129","515665","0.0-129.0","60fdc3108d972d6c852fbf8a","620a612e6f4c1bcc63a7f057","","","","","<p style=""color:darkgreen;font-size:24px;"">Correct :)</p>","",""
"3008","key","v","v","16.65921787709497","500","250","psychophysics","130","518678","0.0-130.0","60fdc3108d972d6c852fbf8a","620a612e6f4c1bcc63a7f057","4","","","","","1","2"
"null","","","null","","","","html-keyboard-response","131","519180","0.0-131.0","60fdc3108d972d6c852fbf8a","620a612e6f4c1bcc63a7f057","","","","","<p style=""color:darkgreen;font-size:24px;"">Correct :)</p>","",""
"2581","key","v","v","16.655844155844157","500","250","psychophysics","132","521768","0.0-132.0","60fdc3108d972d6c852fbf8a","620a612e6f4c1bcc63a7f057","4","","","","","1","2"
"null","","","null","","","","html-keyboard-response","133","522271","0.0-133.0","60fdc3108d972d6c852fbf8a","620a612e6f4c1bcc63a7f057","","","","","<p style=""color:darkgreen;font-size:24px;"">Correct :)</p>","",""
"2692","key","n","n","16.664596273291924","500","250","psychophysics","134","524969","0.0-134.0","60fdc3108d972d6c852fbf8a","620a612e6f4c1bcc63a7f057","4","","","","","1","8"
"null","","","null","","","","html-keyboard-response","135","525471","0.0-135.0","60fdc3108d972d6c852fbf8a","620a612e6f4c1bcc63a7f057","","","","","<p style=""color:darkgreen;font-size:24px;"">Correct :)</p>","",""
"2864","key","n","n","16.660818713450293","500","250","psychophysics","136","528340","0.0-136.0","60fdc3108d972d6c852fbf8a","620a612e6f4c1bcc63a7f057","4","","","","","1","9"
"null","","","null","","","","html-keyboard-response","137","528842","0.0-137.0","60fdc3108d972d6c852fbf8a","620a612e6f4c1bcc63a7f057","","","","","<p style=""color:darkgreen;font-size:24px;"">Correct :)</p>","",""
"2480","key","v","v","16.666666666666668","500","250","psychophysics","138","531328","0.0-138.0","60fdc3108d972d6c852fbf8a","620a612e6f4c1bcc63a7f057","4","","","","","1","3"
"null","","","null","","","","html-keyboard-response","139","531831","0.0-139.0","60fdc3108d972d6c852fbf8a","620a612e6f4c1bcc63a7f057","","","","","<p style=""color:darkgreen;font-size:24px;"">Correct :)</p>","",""
"2636","key","n","n","16.656050955414013","500","250","psychophysics","140","534472","0.0-140.0","60fdc3108d972d6c852fbf8a","620a612e6f4c1bcc63a7f057","4","","","","","1","9"
"null","","","null","","","","html-keyboard-response","141","534975","0.0-141.0","60fdc3108d972d6c852fbf8a","620a612e6f4c1bcc63a7f057","","","","","<p style=""color:darkgreen;font-size:24px;"">Correct :)</p>","",""
"2754","key","v","v","16.658536585365855","500","250","psychophysics","142","537734","0.0-142.0","60fdc3108d972d6c852fbf8a","620a612e6f4c1bcc63a7f057","4","","","","","1","3"
"null","","","null","","","","html-keyboard-response","143","538236","0.0-143.0","60fdc3108d972d6c852fbf8a","620a612e6f4c1bcc63a7f057","","","","","<p style=""color:darkgreen;font-size:24px;"">Correct :)</p>","",""
"2697","key","n","n","16.664596273291924","500","250","psychophysics","144","540940","0.0-144.0","60fdc3108d972d6c852fbf8a","620a612e6f4c1bcc63a7f057","4","","","","","1","7"
"null","","","null","","","","html-keyboard-response","145","541443","0.0-145.0","60fdc3108d972d6c852fbf8a","620a612e6f4c1bcc63a7f057","","","","","<p style=""color:darkgreen;font-size:24px;"">Correct :)</p>","",""
"2838","key","n","n","16.668639053254438","500","250","psychophysics","146","544287","0.0-146.0","60fdc3108d972d6c852fbf8a","620a612e6f4c1bcc63a7f057","4","","","","","1","6"
"null","","","null","","","","html-keyboard-response","147","544790","0.0-147.0","60fdc3108d972d6c852fbf8a","620a612e6f4c1bcc63a7f057","","","","","<p style=""color:darkgreen;font-size:24px;"">Correct :)</p>","",""
"2621","key","n","n","16.664516129032258","500","250","psychophysics","148","547415","0.0-148.0","60fdc3108d972d6c852fbf8a","620a612e6f4c1bcc63a7f057","4","","","","","1","6"
"null","","","null","","","","html-keyboard-response","149","547918","0.0-149.0","60fdc3108d972d6c852fbf8a","620a612e6f4c1bcc63a7f057","","","","","<p style=""color:darkgreen;font-size:24px;"">Correct :)</p>","",""
"2567","key","v","v","16.666666666666668","500","250","psychophysics","150","550491","0.0-150.0","60fdc3108d972d6c852fbf8a","620a612e6f4c1bcc63a7f057","4","","","","","1","4"
"null","","","null","","","","html-keyboard-response","151","550993","0.0-151.0","60fdc3108d972d6c852fbf8a","620a612e6f4c1bcc63a7f057","","","","","<p style=""color:darkgreen;font-size:24px;"">Correct :)</p>","",""
"2574","key","n","n","16.66013071895425","500","250","psychophysics","152","553574","0.0-152.0","60fdc3108d972d6c852fbf8a","620a612e6f4c1bcc63a7f057","4","","","","","1","9"
"null","","","null","","","","html-keyboard-response","153","554078","0.0-153.0","60fdc3108d972d6c852fbf8a","620a612e6f4c1bcc63a7f057","","","","","<p style=""color:darkgreen;font-size:24px;"">Correct :)</p>","",""
"2690","key","v","v","16.66875","500","250","psychophysics","154","556773","0.0-154.0","60fdc3108d972d6c852fbf8a","620a612e6f4c1bcc63a7f057","4","","","","","1","3"
"null","","","null","","","","html-keyboard-response","155","557276","0.0-155.0","60fdc3108d972d6c852fbf8a","620a612e6f4c1bcc63a7f057","","","","","<p style=""color:darkgreen;font-size:24px;"">Correct :)</p>","",""
"2607","key","n","n","16.664516129032258","500","250","psychophysics","156","559889","0.0-156.0","60fdc3108d972d6c852fbf8a","620a612e6f4c1bcc63a7f057","4","","","","","1","7"
"null","","","null","","","","html-keyboard-response","157","560392","0.0-157.0","60fdc3108d972d6c852fbf8a","620a612e6f4c1bcc63a7f057","","","","","<p style=""color:darkgreen;font-size:24px;"">Correct :)</p>","",""
"2662","key","v","v","16.658227848101266","500","250","psychophysics","158","563060","0.0-158.0","60fdc3108d972d6c852fbf8a","620a612e6f4c1bcc63a7f057","4","","","","","1","4"
"null","","","null","","","","html-keyboard-response","159","563562","0.0-159.0","60fdc3108d972d6c852fbf8a","620a612e6f4c1bcc63a7f057","","","","","<p style=""color:darkgreen;font-size:24px;"">Correct :)</p>","",""
"2613","key","n","n","16.670967741935485","500","250","psychophysics","160","566177","0.0-160.0","60fdc3108d972d6c852fbf8a","620a612e6f4c1bcc63a7f057","4","","","","","1","9"
"null","","","null","","","","html-keyboard-response","161","566680","0.0-161.0","60fdc3108d972d6c852fbf8a","620a612e6f4c1bcc63a7f057","","","","","<p style=""color:darkgreen;font-size:24px;"">Correct :)</p>","",""
"2677","key","n","n","16.666666666666668","500","250","psychophysics","162","569363","0.0-162.0","60fdc3108d972d6c852fbf8a","620a612e6f4c1bcc63a7f057","4","","","","","1","8"
"null","","","null","","","","html-keyboard-response","163","569865","0.0-163.0","60fdc3108d972d6c852fbf8a","620a612e6f4c1bcc63a7f057","","","","","<p style=""color:darkgreen;font-size:24px;"">Correct :)</p>","",""
"2766","key","n","n","16.666666666666668","500","250","psychophysics","164","572638","0.0-164.0","60fdc3108d972d6c852fbf8a","620a612e6f4c1bcc63a7f057","4","","","","","1","9"
"null","","","null","","","","html-keyboard-response","165","573141","0.0-165.0","60fdc3108d972d6c852fbf8a","620a612e6f4c1bcc63a7f057","","","","","<p style=""color:darkgreen;font-size:24px;"">Correct :)</p>","",""
"2550","key","v","v","16.66887417218543","500","250","psychophysics","166","575695","0.0-166.0","60fdc3108d972d6c852fbf8a","620a612e6f4c1bcc63a7f057","4","","","","","1","2"
"null","","","null","","","","html-keyboard-response","167","576197","0.0-167.0","60fdc3108d972d6c852fbf8a","620a612e6f4c1bcc63a7f057","","","","","<p style=""color:darkgreen;font-size:24px;"">Correct :)</p>","",""
"2508","key","n","n","16.664429530201343","500","250","psychophysics","168","578712","0.0-168.0","60fdc3108d972d6c852fbf8a","620a612e6f4c1bcc63a7f057","4","","","","","1","7"
"null","","","null","","","","html-keyboard-response","169","579214","0.0-169.0","60fdc3108d972d6c852fbf8a","620a612e6f4c1bcc63a7f057","","","","","<p style=""color:darkgreen;font-size:24px;"">Correct :)</p>","",""
"2995","key","n","n","16.670391061452513","500","250","psychophysics","170","582215","0.0-170.0","60fdc3108d972d6c852fbf8a","620a612e6f4c1bcc63a7f057","4","","","","","1","6"
"null","","","null","","","","html-keyboard-response","171","582718","0.0-171.0","60fdc3108d972d6c852fbf8a","620a612e6f4c1bcc63a7f057","","","","","<p style=""color:darkgreen;font-size:24px;"">Correct :)</p>","",""
"2588","key","v","v","16.66883116883117","500","250","psychophysics","172","585311","0.0-172.0","60fdc3108d972d6c852fbf8a","620a612e6f4c1bcc63a7f057","4","","","","","1","2"
"null","","","null","","","","html-keyboard-response","173","585814","0.0-173.0","60fdc3108d972d6c852fbf8a","620a612e6f4c1bcc63a7f057","","","","","<p style=""color:darkgreen;font-size:24px;"">Correct :)</p>","",""
"2533","key","n","n","16.662251655629138","500","250","psychophysics","174","588352","0.0-174.0","60fdc3108d972d6c852fbf8a","620a612e6f4c1bcc63a7f057","4","","","","","1","9"
"null","","","null","","","","html-keyboard-response","175","588855","0.0-175.0","60fdc3108d972d6c852fbf8a","620a612e6f4c1bcc63a7f057","","","","","<p style=""color:darkgreen;font-size:24px;"">Correct :)</p>","",""
"2625","key","v","v","16.66025641025641","500","250","psychophysics","176","591486","0.0-176.0","60fdc3108d972d6c852fbf8a","620a612e6f4c1bcc63a7f057","4","","","","","1","2"
"null","","","null","","","","html-keyboard-response","177","591989","0.0-177.0","60fdc3108d972d6c852fbf8a","620a612e6f4c1bcc63a7f057","","","","","<p style=""color:darkgreen;font-size:24px;"">Correct :)</p>","",""
"2688","key","v","v","16.65625","500","250","psychophysics","178","594681","0.0-178.0","60fdc3108d972d6c852fbf8a","620a612e6f4c1bcc63a7f057","4","","","","","1","1"
"null","","","null","","","","html-keyboard-response","179","595184","0.0-179.0","60fdc3108d972d6c852fbf8a","620a612e6f4c1bcc63a7f057","","","","","<p style=""color:darkgreen;font-size:24px;"">Correct :)</p>","",""
"2579","key","n","n","16.662337662337663","500","250","psychophysics","180","597768","0.0-180.0","60fdc3108d972d6c852fbf8a","620a612e6f4c1bcc63a7f057","4","","","","","1","7"
"null","","","null","","","","html-keyboard-response","181","598270","0.0-181.0","60fdc3108d972d6c852fbf8a","620a612e6f4c1bcc63a7f057","","","","","<p style=""color:darkgreen;font-size:24px;"">Correct :)</p>","",""
"2808","key","v","v","16.664670658682635","500","250","psychophysics","182","601084","0.0-182.0","60fdc3108d972d6c852fbf8a","620a612e6f4c1bcc63a7f057","4","","","","","1","1"
"null","","","null","","","","html-keyboard-response","183","601587","0.0-183.0","60fdc3108d972d6c852fbf8a","620a612e6f4c1bcc63a7f057","","","","","<p style=""color:darkgreen;font-size:24px;"">Correct :)</p>","",""
"2929","key","v","v","16.666666666666668","500","250","psychophysics","184","604520","0.0-184.0","60fdc3108d972d6c852fbf8a","620a612e6f4c1bcc63a7f057","4","","","","","1","4"
"null","","","null","","","","html-keyboard-response","185","605023","0.0-185.0","60fdc3108d972d6c852fbf8a","620a612e6f4c1bcc63a7f057","","","","","<p style=""color:darkgreen;font-size:24px;"">Correct :)</p>","",""
"1188","key","v","v","16.642857142857142","500","250","psychophysics","186","606217","0.0-186.0","60fdc3108d972d6c852fbf8a","620a612e6f4c1bcc63a7f057","4","","","","","1","6"
"null","","","null","","","","html-keyboard-response","187","606720","0.0-187.0","60fdc3108d972d6c852fbf8a","620a612e6f4c1bcc63a7f057","","","","","<p style=""color:red;font-size:24px;"">Error :(</p>","",""
"2572","key","n","n","16.66013071895425","500","250","psychophysics","188","609298","0.0-188.0","60fdc3108d972d6c852fbf8a","620a612e6f4c1bcc63a7f057","4","","","","","1","9"
"null","","","null","","","","html-keyboard-response","189","609801","0.0-189.0","60fdc3108d972d6c852fbf8a","620a612e6f4c1bcc63a7f057","","","","","<p style=""color:darkgreen;font-size:24px;"">Correct :)</p>","",""
"2629","key","v","v","16.66025641025641","500","250","psychophysics","190","612435","0.0-190.0","60fdc3108d972d6c852fbf8a","620a612e6f4c1bcc63a7f057","4","","","","","1","1"
"null","","","null","","","","html-keyboard-response","191","612938","0.0-191.0","60fdc3108d972d6c852fbf8a","620a612e6f4c1bcc63a7f057","","","","","<p style=""color:darkgreen;font-size:24px;"">Correct :)</p>","",""
"2594","key","n","n","16.66883116883117","500","250","psychophysics","192","615537","0.0-192.0","60fdc3108d972d6c852fbf8a","620a612e6f4c1bcc63a7f057","4","","","","","1","6"
"null","","","null","","","","html-keyboard-response","193","616041","0.0-193.0","60fdc3108d972d6c852fbf8a","620a612e6f4c1bcc63a7f057","","","","","<p style=""color:darkgreen;font-size:24px;"">Correct :)</p>","",""
"10683","","","v","","","","html-keyboard-response","194","626727","0.0-194.0","60fdc3108d972d6c852fbf8a","620a612e6f4c1bcc63a7f057","","","","","<p> Ok, now we are going present the same digits as before.  Your job is to say whether the digit is even or odd  If the digit is odd, press to v key; if it is even, press the n key. We are going to do 50 of these.  </p>  <br><br>  Ready? (press v or n)","",""
"2685","key","n","n","16.625","500","250","psychophysics","195","629419","0.0-195.0","60fdc3108d972d6c852fbf8a","620a612e6f4c1bcc63a7f057","5","","","","","0","2"
"null","","","null","","","","html-keyboard-response","196","629922","0.0-196.0","60fdc3108d972d6c852fbf8a","620a612e6f4c1bcc63a7f057","","","","","<p style=""color:darkgreen;font-size:24px;"">Correct :)</p>","",""
"2458","key","v","v","16.664383561643834","500","250","psychophysics","197","632384","0.0-197.0","60fdc3108d972d6c852fbf8a","620a612e6f4c1bcc63a7f057","5","","","","","0","7"
"null","","","null","","","","html-keyboard-response","198","632889","0.0-198.0","60fdc3108d972d6c852fbf8a","620a612e6f4c1bcc63a7f057","","","","","<p style=""color:darkgreen;font-size:24px;"">Correct :)</p>","",""
"2559","key","v","v","16.70394736842105","500","250","psychophysics","199","635452","0.0-199.0","60fdc3108d972d6c852fbf8a","620a612e6f4c1bcc63a7f057","5","","","","","0","3"
"null","","","null","","","","html-keyboard-response","200","635955","0.0-200.0","60fdc3108d972d6c852fbf8a","620a612e6f4c1bcc63a7f057","","","","","<p style=""color:darkgreen;font-size:24px;"">Correct :)</p>","",""
"2553","key","v","v","16.664473684210527","500","250","psychophysics","201","638514","0.0-201.0","60fdc3108d972d6c852fbf8a","620a612e6f4c1bcc63a7f057","5","","","","","0","1"
"null","","","null","","","","html-keyboard-response","202","639016","0.0-202.0","60fdc3108d972d6c852fbf8a","620a612e6f4c1bcc63a7f057","","","","","<p style=""color:darkgreen;font-size:24px;"">Correct :)</p>","",""
"2839","key","n","n","16.70414201183432","500","250","psychophysics","203","641860","0.0-203.0","60fdc3108d972d6c852fbf8a","620a612e6f4c1bcc63a7f057","5","","","","","0","2"
"null","","","null","","","","html-keyboard-response","204","642362","0.0-204.0","60fdc3108d972d6c852fbf8a","620a612e6f4c1bcc63a7f057","","","","","<p style=""color:darkgreen;font-size:24px;"">Correct :)</p>","",""
"2527","key","v","v","16.69333333333333","500","250","psychophysics","205","644894","0.0-205.0","60fdc3108d972d6c852fbf8a","620a612e6f4c1bcc63a7f057","5","","","","","0","3"
"null","","","null","","","","html-keyboard-response","206","645396","0.0-206.0","60fdc3108d972d6c852fbf8a","620a612e6f4c1bcc63a7f057","","","","","<p style=""color:darkgreen;font-size:24px;"">Correct :)</p>","",""
"2569","key","n","n","16.66013071895425","500","250","psychophysics","207","647970","0.0-207.0","60fdc3108d972d6c852fbf8a","620a612e6f4c1bcc63a7f057","5","","","","","0","6"
"null","","","null","","","","html-keyboard-response","208","648472","0.0-208.0","60fdc3108d972d6c852fbf8a","620a612e6f4c1bcc63a7f057","","","","","<p style=""color:darkgreen;font-size:24px;"">Correct :)</p>","",""
"2463","key","v","v","16.671232876712327","500","250","psychophysics","209","650940","0.0-209.0","60fdc3108d972d6c852fbf8a","620a612e6f4c1bcc63a7f057","5","","","","","0","1"
"null","","","null","","","","html-keyboard-response","210","651443","0.0-210.0","60fdc3108d972d6c852fbf8a","620a612e6f4c1bcc63a7f057","","","","","<p style=""color:darkgreen;font-size:24px;"">Correct :)</p>","",""
"2707","key","n","n","16.664596273291924","500","250","psychophysics","211","654154","0.0-211.0","60fdc3108d972d6c852fbf8a","620a612e6f4c1bcc63a7f057","5","","","","","0","2"
"null","","","null","","","","html-keyboard-response","212","654657","0.0-212.0","60fdc3108d972d6c852fbf8a","620a612e6f4c1bcc63a7f057","","","","","<p style=""color:darkgreen;font-size:24px;"">Correct :)</p>","",""
"2929","key","v","v","16.666666666666668","500","250","psychophysics","213","657590","0.0-213.0","60fdc3108d972d6c852fbf8a","620a612e6f4c1bcc63a7f057","5","","","","","0","7"
"null","","","null","","","","html-keyboard-response","214","658092","0.0-214.0","60fdc3108d972d6c852fbf8a","620a612e6f4c1bcc63a7f057","","","","","<p style=""color:darkgreen;font-size:24px;"">Correct :)</p>","",""
"2991","key","n","n","16.668539325842698","500","250","psychophysics","215","661088","0.0-215.0","60fdc3108d972d6c852fbf8a","620a612e6f4c1bcc63a7f057","5","","","","","0","9"
"null","","","null","","","","html-keyboard-response","216","661590","0.0-216.0","60fdc3108d972d6c852fbf8a","620a612e6f4c1bcc63a7f057","","","","","<p style=""color:red;font-size:24px;"">Error :(</p>","",""
"2641","key","v","v","16.662420382165607","500","250","psychophysics","217","664236","0.0-217.0","60fdc3108d972d6c852fbf8a","620a612e6f4c1bcc63a7f057","5","","","","","0","3"
"null","","","null","","","","html-keyboard-response","218","664738","0.0-218.0","60fdc3108d972d6c852fbf8a","620a612e6f4c1bcc63a7f057","","","","","<p style=""color:darkgreen;font-size:24px;"">Correct :)</p>","",""
"2689","key","n","n","16.66875","500","250","psychophysics","219","667432","0.0-219.0","60fdc3108d972d6c852fbf8a","620a612e6f4c1bcc63a7f057","5","","","","","0","6"
"null","","","null","","","","html-keyboard-response","220","667934","0.0-220.0","60fdc3108d972d6c852fbf8a","620a612e6f4c1bcc63a7f057","","","","","<p style=""color:darkgreen;font-size:24px;"">Correct :)</p>","",""
"2972","key","n","n","16.661016949152543","500","250","psychophysics","221","670912","0.0-221.0","60fdc3108d972d6c852fbf8a","620a612e6f4c1bcc63a7f057","5","","","","","0","8"
"null","","","null","","","","html-keyboard-response","222","671415","0.0-222.0","60fdc3108d972d6c852fbf8a","620a612e6f4c1bcc63a7f057","","","","","<p style=""color:darkgreen;font-size:24px;"">Correct :)</p>","",""
"2660","key","v","v","16.660377358490567","500","250","psychophysics","223","674079","0.0-223.0","60fdc3108d972d6c852fbf8a","620a612e6f4c1bcc63a7f057","5","","","","","0","7"
"null","","","null","","","","html-keyboard-response","224","674582","0.0-224.0","60fdc3108d972d6c852fbf8a","620a612e6f4c1bcc63a7f057","","","","","<p style=""color:darkgreen;font-size:24px;"">Correct :)</p>","",""
"2791","key","v","v","16.65868263473054","500","250","psychophysics","225","677377","0.0-225.0","60fdc3108d972d6c852fbf8a","620a612e6f4c1bcc63a7f057","5","","","","","0","4"
"null","","","null","","","","html-keyboard-response","226","677880","0.0-226.0","60fdc3108d972d6c852fbf8a","620a612e6f4c1bcc63a7f057","","","","","<p style=""color:red;font-size:24px;"">Error :(</p>","",""
"2612","key","v","v","16.66025641025641","500","250","psychophysics","227","680498","0.0-227.0","60fdc3108d972d6c852fbf8a","620a612e6f4c1bcc63a7f057","5","","","","","0","1"
"null","","","null","","","","html-keyboard-response","228","681001","0.0-228.0","60fdc3108d972d6c852fbf8a","620a612e6f4c1bcc63a7f057","","","","","<p style=""color:darkgreen;font-size:24px;"">Correct :)</p>","",""
"2703","key","n","n","16.6625","500","250","psychophysics","229","683708","0.0-229.0","60fdc3108d972d6c852fbf8a","620a612e6f4c1bcc63a7f057","5","","","","","0","2"
"null","","","null","","","","html-keyboard-response","230","684211","0.0-230.0","60fdc3108d972d6c852fbf8a","620a612e6f4c1bcc63a7f057","","","","","<p style=""color:darkgreen;font-size:24px;"">Correct :)</p>","",""
"2843","key","v","v","16.668639053254438","500","250","psychophysics","231","687058","0.0-231.0","60fdc3108d972d6c852fbf8a","620a612e6f4c1bcc63a7f057","5","","","","","0","1"
"null","","","null","","","","html-keyboard-response","232","687561","0.0-232.0","60fdc3108d972d6c852fbf8a","620a612e6f4c1bcc63a7f057","","","","","<p style=""color:darkgreen;font-size:24px;"">Correct :)</p>","",""
"3506","key","v","v","16.66507177033493","500","250","psychophysics","233","691074","0.0-233.0","60fdc3108d972d6c852fbf8a","620a612e6f4c1bcc63a7f057","5","","","","","0","9"
"null","","","null","","","","html-keyboard-response","234","691576","0.0-234.0","60fdc3108d972d6c852fbf8a","620a612e6f4c1bcc63a7f057","","","","","<p style=""color:darkgreen;font-size:24px;"">Correct :)</p>","",""
"2700","key","n","n","16.664596273291924","500","250","psychophysics","235","694281","0.0-235.0","60fdc3108d972d6c852fbf8a","620a612e6f4c1bcc63a7f057","5","","","","","0","8"
"null","","","null","","","","html-keyboard-response","236","694783","0.0-236.0","60fdc3108d972d6c852fbf8a","620a612e6f4c1bcc63a7f057","","","","","<p style=""color:darkgreen;font-size:24px;"">Correct :)</p>","",""
"2832","key","n","n","16.660714285714285","500","250","psychophysics","237","697620","0.0-237.0","60fdc3108d972d6c852fbf8a","620a612e6f4c1bcc63a7f057","5","","","","","0","6"
"null","","","null","","","","html-keyboard-response","238","698122","0.0-238.0","60fdc3108d972d6c852fbf8a","620a612e6f4c1bcc63a7f057","","","","","<p style=""color:darkgreen;font-size:24px;"">Correct :)</p>","",""
"2622","key","n","n","16.66025641025641","500","250","psychophysics","239","700748","0.0-239.0","60fdc3108d972d6c852fbf8a","620a612e6f4c1bcc63a7f057","5","","","","","0","2"
"null","","","null","","","","html-keyboard-response","240","701251","0.0-240.0","60fdc3108d972d6c852fbf8a","620a612e6f4c1bcc63a7f057","","","","","<p style=""color:darkgreen;font-size:24px;"">Correct :)</p>","",""
"2604","key","v","v","16.65806451612903","500","250","psychophysics","241","703860","0.0-241.0","60fdc3108d972d6c852fbf8a","620a612e6f4c1bcc63a7f057","5","","","","","0","1"
"null","","","null","","","","html-keyboard-response","242","704362","0.0-242.0","60fdc3108d972d6c852fbf8a","620a612e6f4c1bcc63a7f057","","","","","<p style=""color:darkgreen;font-size:24px;"">Correct :)</p>","",""
"3033","key","n","n","16.662983425414364","500","250","psychophysics","243","707400","0.0-243.0","60fdc3108d972d6c852fbf8a","620a612e6f4c1bcc63a7f057","5","","","","","0","6"
"null","","","null","","","","html-keyboard-response","244","707902","0.0-244.0","60fdc3108d972d6c852fbf8a","620a612e6f4c1bcc63a7f057","","","","","<p style=""color:darkgreen;font-size:24px;"">Correct :)</p>","",""
"2612","key","n","n","16.664516129032258","500","250","psychophysics","245","710518","0.0-245.0","60fdc3108d972d6c852fbf8a","620a612e6f4c1bcc63a7f057","5","","","","","0","8"
"null","","","null","","","","html-keyboard-response","246","711021","0.0-246.0","60fdc3108d972d6c852fbf8a","620a612e6f4c1bcc63a7f057","","","","","<p style=""color:darkgreen;font-size:24px;"">Correct :)</p>","",""
"2884","key","v","v","16.656976744186046","500","250","psychophysics","247","713911","0.0-247.0","60fdc3108d972d6c852fbf8a","620a612e6f4c1bcc63a7f057","5","","","","","0","3"
"null","","","null","","","","html-keyboard-response","248","714413","0.0-248.0","60fdc3108d972d6c852fbf8a","620a612e6f4c1bcc63a7f057","","","","","<p style=""color:darkgreen;font-size:24px;"">Correct :)</p>","",""
"3080","key","n","n","16.66304347826087","500","250","psychophysics","249","717502","0.0-249.0","60fdc3108d972d6c852fbf8a","620a612e6f4c1bcc63a7f057","5","","","","","0","2"
"null","","","null","","","","html-keyboard-response","250","718005","0.0-250.0","60fdc3108d972d6c852fbf8a","620a612e6f4c1bcc63a7f057","","","","","<p style=""color:darkgreen;font-size:24px;"">Correct :)</p>","",""
"2683","key","n","n","16.65625","500","250","psychophysics","251","720692","0.0-251.0","60fdc3108d972d6c852fbf8a","620a612e6f4c1bcc63a7f057","5","","","","","0","8"
"null","","","null","","","","html-keyboard-response","252","721195","0.0-252.0","60fdc3108d972d6c852fbf8a","620a612e6f4c1bcc63a7f057","","","","","<p style=""color:darkgreen;font-size:24px;"">Correct :)</p>","",""
"3581","key","v","v","16.661971830985916","500","250","psychophysics","253","724784","0.0-253.0","60fdc3108d972d6c852fbf8a","620a612e6f4c1bcc63a7f057","5","","","","","0","9"
"null","","","null","","","","html-keyboard-response","254","725285","0.0-254.0","60fdc3108d972d6c852fbf8a","620a612e6f4c1bcc63a7f057","","","","","<p style=""color:darkgreen;font-size:24px;"">Correct :)</p>","",""
"2794","key","n","n","16.66867469879518","500","250","psychophysics","255","728083","0.0-255.0","60fdc3108d972d6c852fbf8a","620a612e6f4c1bcc63a7f057","5","","","","","0","8"
"null","","","null","","","","html-keyboard-response","256","728586","0.0-256.0","60fdc3108d972d6c852fbf8a","620a612e6f4c1bcc63a7f057","","","","","<p style=""color:darkgreen;font-size:24px;"">Correct :)</p>","",""
"2904","key","v","v","16.664739884393065","500","250","psychophysics","257","731495","0.0-257.0","60fdc3108d972d6c852fbf8a","620a612e6f4c1bcc63a7f057","5","","","","","0","3"
"null","","","null","","","","html-keyboard-response","258","731998","0.0-258.0","60fdc3108d972d6c852fbf8a","620a612e6f4c1bcc63a7f057","","","","","<p style=""color:darkgreen;font-size:24px;"">Correct :)</p>","",""
"3419","key","v","v","16.665024630541872","500","250","psychophysics","259","735421","0.0-259.0","60fdc3108d972d6c852fbf8a","620a612e6f4c1bcc63a7f057","5","","","","","0","9"
"null","","","null","","","","html-keyboard-response","260","735924","0.0-260.0","60fdc3108d972d6c852fbf8a","620a612e6f4c1bcc63a7f057","","","","","<p style=""color:darkgreen;font-size:24px;"">Correct :)</p>","",""
"2828","key","n","n","16.662721893491124","500","250","psychophysics","261","738758","0.0-261.0","60fdc3108d972d6c852fbf8a","620a612e6f4c1bcc63a7f057","5","","","","","0","6"
"null","","","null","","","","html-keyboard-response","262","739261","0.0-262.0","60fdc3108d972d6c852fbf8a","620a612e6f4c1bcc63a7f057","","","","","<p style=""color:darkgreen;font-size:24px;"">Correct :)</p>","",""
"2623","key","v","v","16.66025641025641","500","250","psychophysics","263","741888","0.0-263.0","60fdc3108d972d6c852fbf8a","620a612e6f4c1bcc63a7f057","5","","","","","0","1"
"null","","","null","","","","html-keyboard-response","264","742390","0.0-264.0","60fdc3108d972d6c852fbf8a","620a612e6f4c1bcc63a7f057","","","","","<p style=""color:darkgreen;font-size:24px;"">Correct :)</p>","",""
"3278","key","n","n","16.658163265306122","500","250","psychophysics","265","745672","0.0-265.0","60fdc3108d972d6c852fbf8a","620a612e6f4c1bcc63a7f057","5","","","","","0","2"
"null","","","null","","","","html-keyboard-response","266","746175","0.0-266.0","60fdc3108d972d6c852fbf8a","620a612e6f4c1bcc63a7f057","","","","","<p style=""color:darkgreen;font-size:24px;"">Correct :)</p>","",""
"2840","key","v","v","16.668639053254438","500","250","psychophysics","267","749021","0.0-267.0","60fdc3108d972d6c852fbf8a","620a612e6f4c1bcc63a7f057","5","","","","","0","7"
"null","","","null","","","","html-keyboard-response","268","749524","0.0-268.0","60fdc3108d972d6c852fbf8a","620a612e6f4c1bcc63a7f057","","","","","<p style=""color:darkgreen;font-size:24px;"">Correct :)</p>","",""
"3049","key","n","n","16.664835164835164","500","250","psychophysics","269","752583","0.0-269.0","60fdc3108d972d6c852fbf8a","620a612e6f4c1bcc63a7f057","5","","","","","0","8"
"null","","","null","","","","html-keyboard-response","270","753086","0.0-270.0","60fdc3108d972d6c852fbf8a","620a612e6f4c1bcc63a7f057","","","","","<p style=""color:darkgreen;font-size:24px;"">Correct :)</p>","",""
"2617","key","v","v","16.653846153846153","500","250","psychophysics","271","755707","0.0-271.0","60fdc3108d972d6c852fbf8a","620a612e6f4c1bcc63a7f057","5","","","","","0","3"
"null","","","null","","","","html-keyboard-response","272","756209","0.0-272.0","60fdc3108d972d6c852fbf8a","620a612e6f4c1bcc63a7f057","","","","","<p style=""color:darkgreen;font-size:24px;"">Correct :)</p>","",""
"2802","key","n","n","16.67065868263473","500","250","psychophysics","273","759015","0.0-273.0","60fdc3108d972d6c852fbf8a","620a612e6f4c1bcc63a7f057","5","","","","","0","2"
"null","","","null","","","","html-keyboard-response","274","759518","0.0-274.0","60fdc3108d972d6c852fbf8a","620a612e6f4c1bcc63a7f057","","","","","<p style=""color:darkgreen;font-size:24px;"">Correct :)</p>","",""
"2907","key","v","v","16.664739884393065","500","250","psychophysics","275","762430","0.0-275.0","60fdc3108d972d6c852fbf8a","620a612e6f4c1bcc63a7f057","5","","","","","0","2"
"null","","","null","","","","html-keyboard-response","276","762933","0.0-276.0","60fdc3108d972d6c852fbf8a","620a612e6f4c1bcc63a7f057","","","","","<p style=""color:red;font-size:24px;"">Error :(</p>","",""
"3627","key","v","v","16.666666666666668","500","250","psychophysics","277","766566","0.0-277.0","60fdc3108d972d6c852fbf8a","620a612e6f4c1bcc63a7f057","5","","","","","0","3"
"null","","","null","","","","html-keyboard-response","278","767069","0.0-278.0","60fdc3108d972d6c852fbf8a","620a612e6f4c1bcc63a7f057","","","","","<p style=""color:darkgreen;font-size:24px;"">Correct :)</p>","",""
"3113","key","v","v","16.664864864864864","500","250","psychophysics","279","770186","0.0-279.0","60fdc3108d972d6c852fbf8a","620a612e6f4c1bcc63a7f057","5","","","","","0","9"
"null","","","null","","","","html-keyboard-response","280","770688","0.0-280.0","60fdc3108d972d6c852fbf8a","620a612e6f4c1bcc63a7f057","","","","","<p style=""color:darkgreen;font-size:24px;"">Correct :)</p>","",""
"2753","key","n","n","16.670731707317074","500","250","psychophysics","281","773446","0.0-281.0","60fdc3108d972d6c852fbf8a","620a612e6f4c1bcc63a7f057","5","","","","","0","8"
"null","","","null","","","","html-keyboard-response","282","773949","0.0-282.0","60fdc3108d972d6c852fbf8a","620a612e6f4c1bcc63a7f057","","","","","<p style=""color:darkgreen;font-size:24px;"">Correct :)</p>","",""
"2569","key","v","v","16.66013071895425","500","250","psychophysics","283","776524","0.0-283.0","60fdc3108d972d6c852fbf8a","620a612e6f4c1bcc63a7f057","5","","","","","0","7"
"null","","","null","","","","html-keyboard-response","284","777026","0.0-284.0","60fdc3108d972d6c852fbf8a","620a612e6f4c1bcc63a7f057","","","","","<p style=""color:darkgreen;font-size:24px;"">Correct :)</p>","",""
"3034","key","n","n","16.66111111111111","500","250","psychophysics","285","780065","0.0-285.0","60fdc3108d972d6c852fbf8a","620a612e6f4c1bcc63a7f057","5","","","","","0","6"
"null","","","null","","","","html-keyboard-response","286","780567","0.0-286.0","60fdc3108d972d6c852fbf8a","620a612e6f4c1bcc63a7f057","","","","","<p style=""color:darkgreen;font-size:24px;"">Correct :)</p>","",""
"2653","key","v","v","16.658227848101266","500","250","psychophysics","287","783224","0.0-287.0","60fdc3108d972d6c852fbf8a","620a612e6f4c1bcc63a7f057","5","","","","","0","3"
"null","","","null","","","","html-keyboard-response","288","783727","0.0-288.0","60fdc3108d972d6c852fbf8a","620a612e6f4c1bcc63a7f057","","","","","<p style=""color:darkgreen;font-size:24px;"">Correct :)</p>","",""
"3003","key","n","n","16.668539325842698","500","250","psychophysics","289","786735","0.0-289.0","60fdc3108d972d6c852fbf8a","620a612e6f4c1bcc63a7f057","5","","","","","0","2"
"null","","","null","","","","html-keyboard-response","290","787237","0.0-290.0","60fdc3108d972d6c852fbf8a","620a612e6f4c1bcc63a7f057","","","","","<p style=""color:darkgreen;font-size:24px;"">Correct :)</p>","",""
"2854","key","v","v","16.66470588235294","500","250","psychophysics","291","790097","0.0-291.0","60fdc3108d972d6c852fbf8a","620a612e6f4c1bcc63a7f057","5","","","","","0","3"
"null","","","null","","","","html-keyboard-response","292","790600","0.0-292.0","60fdc3108d972d6c852fbf8a","620a612e6f4c1bcc63a7f057","","","","","<p style=""color:darkgreen;font-size:24px;"">Correct :)</p>","",""
"3142","key","v","v","16.663101604278076","500","250","psychophysics","293","793748","0.0-293.0","60fdc3108d972d6c852fbf8a","620a612e6f4c1bcc63a7f057","5","","","","","0","3"
"null","","","null","","","","html-keyboard-response","294","794250","0.0-294.0","60fdc3108d972d6c852fbf8a","620a612e6f4c1bcc63a7f057","","","","","<p style=""color:darkgreen;font-size:24px;"">Correct :)</p>","",""
"10404","","","v","","","","html-keyboard-response","295","804656","0.0-295.0","60fdc3108d972d6c852fbf8a","620a612e6f4c1bcc63a7f057","","","","","<p> Here, the tasks are going to switch.  For some trials, your job is to decide if the digit is less than or greater than 5.  For others, it is to decide if the digit is even or odd.  You will be told which type of trial the current one is.  But, pay attention, the type of trial changes too.  We are going to do 50 of these.  </p>  <br><br>  Ready? (press v or n)","",""
"3236","key","n","n","16.61855670103093","500","250","psychophysics","296","807897","0.0-296.0","60fdc3108d972d6c852fbf8a","620a612e6f4c1bcc63a7f057","6","","","","","1","7"
"null","","","null","","","","html-keyboard-response","297","808400","0.0-297.0","60fdc3108d972d6c852fbf8a","620a612e6f4c1bcc63a7f057","","","","","<p style=""color:darkgreen;font-size:24px;"">Correct :)</p>","",""
"3331","key","n","n","16.696969696969695","500","250","psychophysics","298","811735","0.0-298.0","60fdc3108d972d6c852fbf8a","620a612e6f4c1bcc63a7f057","6","","","","","1","8"
"null","","","null","","","","html-keyboard-response","299","812238","0.0-299.0","60fdc3108d972d6c852fbf8a","620a612e6f4c1bcc63a7f057","","","","","<p style=""color:darkgreen;font-size:24px;"">Correct :)</p>","",""
"2816","key","v","v","16.696428571428573","500","250","psychophysics","300","815058","0.0-300.0","60fdc3108d972d6c852fbf8a","620a612e6f4c1bcc63a7f057","6","","","","","0","7"
"null","","","null","","","","html-keyboard-response","301","815562","0.0-301.0","60fdc3108d972d6c852fbf8a","620a612e6f4c1bcc63a7f057","","","","","<p style=""color:darkgreen;font-size:24px;"">Correct :)</p>","",""
"3546","key","v","v","16.65566037735849","500","250","psychophysics","302","819112","0.0-302.0","60fdc3108d972d6c852fbf8a","620a612e6f4c1bcc63a7f057","6","","","","","0","9"
"null","","","null","","","","html-keyboard-response","303","819614","0.0-303.0","60fdc3108d972d6c852fbf8a","620a612e6f4c1bcc63a7f057","","","","","<p style=""color:darkgreen;font-size:24px;"">Correct :)</p>","",""
"2836","key","n","n","16.702380952380953","500","250","psychophysics","304","822455","0.0-304.0","60fdc3108d972d6c852fbf8a","620a612e6f4c1bcc63a7f057","6","","","","","1","7"
"null","","","null","","","","html-keyboard-response","305","822958","0.0-305.0","60fdc3108d972d6c852fbf8a","620a612e6f4c1bcc63a7f057","","","","","<p style=""color:darkgreen;font-size:24px;"">Correct :)</p>","",""
"3005","key","n","n","16.670391061452513","500","250","psychophysics","306","825967","0.0-306.0","60fdc3108d972d6c852fbf8a","620a612e6f4c1bcc63a7f057","6","","","","","0","4"
"null","","","null","","","","html-keyboard-response","307","826470","0.0-307.0","60fdc3108d972d6c852fbf8a","620a612e6f4c1bcc63a7f057","","","","","<p style=""color:darkgreen;font-size:24px;"">Correct :)</p>","",""
"3349","key","n","n","16.668341708542712","500","250","psychophysics","308","829824","0.0-308.0","60fdc3108d972d6c852fbf8a","620a612e6f4c1bcc63a7f057","6","","","","","1","9"
"null","","","null","","","","html-keyboard-response","309","830325","0.0-309.0","60fdc3108d972d6c852fbf8a","620a612e6f4c1bcc63a7f057","","","","","<p style=""color:darkgreen;font-size:24px;"">Correct :)</p>","",""
"3248","key","n","n","16.66321243523316","500","250","psychophysics","310","833578","0.0-310.0","60fdc3108d972d6c852fbf8a","620a612e6f4c1bcc63a7f057","6","","","","","0","4"
"null","","","null","","","","html-keyboard-response","311","834082","0.0-311.0","60fdc3108d972d6c852fbf8a","620a612e6f4c1bcc63a7f057","","","","","<p style=""color:darkgreen;font-size:24px;"">Correct :)</p>","",""
"2912","key","n","n","16.660919540229884","500","250","psychophysics","312","836998","0.0-312.0","60fdc3108d972d6c852fbf8a","620a612e6f4c1bcc63a7f057","6","","","","","0","2"
"null","","","null","","","","html-keyboard-response","313","837501","0.0-313.0","60fdc3108d972d6c852fbf8a","620a612e6f4c1bcc63a7f057","","","","","<p style=""color:darkgreen;font-size:24px;"">Correct :)</p>","",""
"2807","key","v","v","16.664670658682635","500","250","psychophysics","314","840312","0.0-314.0","60fdc3108d972d6c852fbf8a","620a612e6f4c1bcc63a7f057","6","","","","","0","9"
"null","","","null","","","","html-keyboard-response","315","840815","0.0-315.0","60fdc3108d972d6c852fbf8a","620a612e6f4c1bcc63a7f057","","","","","<p style=""color:darkgreen;font-size:24px;"">Correct :)</p>","",""
"2828","key","v","v","16.662721893491124","500","250","psychophysics","316","843648","0.0-316.0","60fdc3108d972d6c852fbf8a","620a612e6f4c1bcc63a7f057","6","","","","","0","1"
"null","","","null","","","","html-keyboard-response","317","844150","0.0-317.0","60fdc3108d972d6c852fbf8a","620a612e6f4c1bcc63a7f057","","","","","<p style=""color:darkgreen;font-size:24px;"">Correct :)</p>","",""
"2713","key","n","n","16.65432098765432","500","250","psychophysics","318","846868","0.0-318.0","60fdc3108d972d6c852fbf8a","620a612e6f4c1bcc63a7f057","6","","","","","0","4"
"null","","","null","","","","html-keyboard-response","319","847371","0.0-319.0","60fdc3108d972d6c852fbf8a","620a612e6f4c1bcc63a7f057","","","","","<p style=""color:darkgreen;font-size:24px;"">Correct :)</p>","",""
"2716","key","v","v","16.664596273291924","500","250","psychophysics","320","850093","0.0-320.0","60fdc3108d972d6c852fbf8a","620a612e6f4c1bcc63a7f057","6","","","","","0","9"
"null","","","null","","","","html-keyboard-response","321","850596","0.0-321.0","60fdc3108d972d6c852fbf8a","620a612e6f4c1bcc63a7f057","","","","","<p style=""color:darkgreen;font-size:24px;"">Correct :)</p>","",""
"2598","key","v","v","16.664516129032258","500","250","psychophysics","322","853199","0.0-322.0","60fdc3108d972d6c852fbf8a","620a612e6f4c1bcc63a7f057","6","","","","","0","3"
"null","","","null","","","","html-keyboard-response","323","853701","0.0-323.0","60fdc3108d972d6c852fbf8a","620a612e6f4c1bcc63a7f057","","","","","<p style=""color:darkgreen;font-size:24px;"">Correct :)</p>","",""
"2795","key","n","n","16.662650602409638","500","250","psychophysics","324","856503","0.0-324.0","60fdc3108d972d6c852fbf8a","620a612e6f4c1bcc63a7f057","6","","","","","0","2"
"null","","","null","","","","html-keyboard-response","325","857006","0.0-325.0","60fdc3108d972d6c852fbf8a","620a612e6f4c1bcc63a7f057","","","","","<p style=""color:darkgreen;font-size:24px;"">Correct :)</p>","",""
"3067","key","v","v","16.661202185792348","500","250","psychophysics","326","860081","0.0-326.0","60fdc3108d972d6c852fbf8a","620a612e6f4c1bcc63a7f057","6","","","","","0","9"
"null","","","null","","","","html-keyboard-response","327","860584","0.0-327.0","60fdc3108d972d6c852fbf8a","620a612e6f4c1bcc63a7f057","","","","","<p style=""color:darkgreen;font-size:24px;"">Correct :)</p>","",""
"2936","key","v","v","16.666666666666668","500","250","psychophysics","328","863524","0.0-328.0","60fdc3108d972d6c852fbf8a","620a612e6f4c1bcc63a7f057","6","","","","","1","3"
"null","","","null","","","","html-keyboard-response","329","864025","0.0-329.0","60fdc3108d972d6c852fbf8a","620a612e6f4c1bcc63a7f057","","","","","<p style=""color:darkgreen;font-size:24px;"">Correct :)</p>","",""
"3440","key","n","n","16.663414634146342","500","250","psychophysics","330","867466","0.0-330.0","60fdc3108d972d6c852fbf8a","620a612e6f4c1bcc63a7f057","6","","","","","0","8"
"null","","","null","","","","html-keyboard-response","331","867969","0.0-331.0","60fdc3108d972d6c852fbf8a","620a612e6f4c1bcc63a7f057","","","","","<p style=""color:darkgreen;font-size:24px;"">Correct :)</p>","",""
"2813","key","n","n","16.67065868263473","500","250","psychophysics","332","870788","0.0-332.0","60fdc3108d972d6c852fbf8a","620a612e6f4c1bcc63a7f057","6","","","","","1","9"
"null","","","null","","","","html-keyboard-response","333","871290","0.0-333.0","60fdc3108d972d6c852fbf8a","620a612e6f4c1bcc63a7f057","","","","","<p style=""color:darkgreen;font-size:24px;"">Correct :)</p>","",""
"3982","key","n","n","16.666666666666668","500","250","psychophysics","334","875277","0.0-334.0","60fdc3108d972d6c852fbf8a","620a612e6f4c1bcc63a7f057","6","","","","","0","2"
"null","","","null","","","","html-keyboard-response","335","875779","0.0-335.0","60fdc3108d972d6c852fbf8a","620a612e6f4c1bcc63a7f057","","","","","<p style=""color:darkgreen;font-size:24px;"">Correct :)</p>","",""
"2865","key","v","v","16.660818713450293","500","250","psychophysics","336","878650","0.0-336.0","60fdc3108d972d6c852fbf8a","620a612e6f4c1bcc63a7f057","6","","","","","0","1"
"null","","","null","","","","html-keyboard-response","337","879153","0.0-337.0","60fdc3108d972d6c852fbf8a","620a612e6f4c1bcc63a7f057","","","","","<p style=""color:darkgreen;font-size:24px;"">Correct :)</p>","",""
"3017","key","v","v","16.664804469273744","500","250","psychophysics","338","882175","0.0-338.0","60fdc3108d972d6c852fbf8a","620a612e6f4c1bcc63a7f057","6","","","","","0","7"
"null","","","null","","","","html-keyboard-response","339","882677","0.0-339.0","60fdc3108d972d6c852fbf8a","620a612e6f4c1bcc63a7f057","","","","","<p style=""color:darkgreen;font-size:24px;"">Correct :)</p>","",""
"2929","key","v","v","16.666666666666668","500","250","psychophysics","340","885610","0.0-340.0","60fdc3108d972d6c852fbf8a","620a612e6f4c1bcc63a7f057","6","","","","","0","3"
"null","","","null","","","","html-keyboard-response","341","886112","0.0-341.0","60fdc3108d972d6c852fbf8a","620a612e6f4c1bcc63a7f057","","","","","<p style=""color:darkgreen;font-size:24px;"">Correct :)</p>","",""
"2567","key","v","v","16.66013071895425","500","250","psychophysics","342","888685","0.0-342.0","60fdc3108d972d6c852fbf8a","620a612e6f4c1bcc63a7f057","6","","","","","0","3"
"null","","","null","","","","html-keyboard-response","343","889187","0.0-343.0","60fdc3108d972d6c852fbf8a","620a612e6f4c1bcc63a7f057","","","","","<p style=""color:darkgreen;font-size:24px;"">Correct :)</p>","",""
"2629","key","v","v","16.666666666666668","500","250","psychophysics","344","891821","0.0-344.0","60fdc3108d972d6c852fbf8a","620a612e6f4c1bcc63a7f057","6","","","","","0","3"
"null","","","null","","","","html-keyboard-response","345","892324","0.0-345.0","60fdc3108d972d6c852fbf8a","620a612e6f4c1bcc63a7f057","","","","","<p style=""color:darkgreen;font-size:24px;"">Correct :)</p>","",""
"3250","key","n","n","16.664948453608247","500","250","psychophysics","346","895578","0.0-346.0","60fdc3108d972d6c852fbf8a","620a612e6f4c1bcc63a7f057","6","","","","","0","2"
"null","","","null","","","","html-keyboard-response","347","896080","0.0-347.0","60fdc3108d972d6c852fbf8a","620a612e6f4c1bcc63a7f057","","","","","<p style=""color:darkgreen;font-size:24px;"">Correct :)</p>","",""
"2834","key","v","v","16.668639053254438","500","250","psychophysics","348","898921","0.0-348.0","60fdc3108d972d6c852fbf8a","620a612e6f4c1bcc63a7f057","6","","","","","1","2"
"null","","","null","","","","html-keyboard-response","349","899424","0.0-349.0","60fdc3108d972d6c852fbf8a","620a612e6f4c1bcc63a7f057","","","","","<p style=""color:darkgreen;font-size:24px;"">Correct :)</p>","",""
"3341","key","v","v","16.668341708542712","500","250","psychophysics","350","902770","0.0-350.0","60fdc3108d972d6c852fbf8a","620a612e6f4c1bcc63a7f057","6","","","","","0","1"
"null","","","null","","","","html-keyboard-response","351","903273","0.0-351.0","60fdc3108d972d6c852fbf8a","620a612e6f4c1bcc63a7f057","","","","","<p style=""color:darkgreen;font-size:24px;"">Correct :)</p>","",""
"3123","key","v","v","16.666666666666668","500","250","psychophysics","352","906400","0.0-352.0","60fdc3108d972d6c852fbf8a","620a612e6f4c1bcc63a7f057","6","","","","","0","3"
"null","","","null","","","","html-keyboard-response","353","906904","0.0-353.0","60fdc3108d972d6c852fbf8a","620a612e6f4c1bcc63a7f057","","","","","<p style=""color:darkgreen;font-size:24px;"">Correct :)</p>","",""
"3492","key","n","n","16.66826923076923","500","250","psychophysics","354","910401","0.0-354.0","60fdc3108d972d6c852fbf8a","620a612e6f4c1bcc63a7f057","6","","","","","1","6"
"null","","","null","","","","html-keyboard-response","355","910903","0.0-355.0","60fdc3108d972d6c852fbf8a","620a612e6f4c1bcc63a7f057","","","","","<p style=""color:darkgreen;font-size:24px;"">Correct :)</p>","",""
"3111","key","v","v","16.67027027027027","500","250","psychophysics","356","914019","0.0-356.0","60fdc3108d972d6c852fbf8a","620a612e6f4c1bcc63a7f057","6","","","","","1","3"
"null","","","null","","","","html-keyboard-response","357","914522","0.0-357.0","60fdc3108d972d6c852fbf8a","620a612e6f4c1bcc63a7f057","","","","","<p style=""color:darkgreen;font-size:24px;"">Correct :)</p>","",""
"3373","key","v","v","16.66169154228856","500","250","psychophysics","358","917900","0.0-358.0","60fdc3108d972d6c852fbf8a","620a612e6f4c1bcc63a7f057","6","","","","","0","7"
"null","","","null","","","","html-keyboard-response","359","918403","0.0-359.0","60fdc3108d972d6c852fbf8a","620a612e6f4c1bcc63a7f057","","","","","<p style=""color:darkgreen;font-size:24px;"">Correct :)</p>","",""
"3919","key","v","v","16.662393162393162","500","250","psychophysics","360","922327","0.0-360.0","60fdc3108d972d6c852fbf8a","620a612e6f4c1bcc63a7f057","6","","","","","1","3"
"null","","","null","","","","html-keyboard-response","361","922829","0.0-361.0","60fdc3108d972d6c852fbf8a","620a612e6f4c1bcc63a7f057","","","","","<p style=""color:darkgreen;font-size:24px;"">Correct :)</p>","",""
"2755","key","n","n","16.658536585365855","500","250","psychophysics","362","925589","0.0-362.0","60fdc3108d972d6c852fbf8a","620a612e6f4c1bcc63a7f057","6","","","","","0","4"
"null","","","null","","","","html-keyboard-response","363","926092","0.0-363.0","60fdc3108d972d6c852fbf8a","620a612e6f4c1bcc63a7f057","","","","","<p style=""color:darkgreen;font-size:24px;"">Correct :)</p>","",""
"2538","key","v","v","16.662251655629138","500","250","psychophysics","364","928635","0.0-364.0","60fdc3108d972d6c852fbf8a","620a612e6f4c1bcc63a7f057","6","","","","","1","3"
"null","","","null","","","","html-keyboard-response","365","929137","0.0-365.0","60fdc3108d972d6c852fbf8a","620a612e6f4c1bcc63a7f057","","","","","<p style=""color:darkgreen;font-size:24px;"">Correct :)</p>","",""
"2749","key","v","v","16.664634146341463","500","250","psychophysics","366","931895","0.0-366.0","60fdc3108d972d6c852fbf8a","620a612e6f4c1bcc63a7f057","6","","","","","1","1"
"null","","","null","","","","html-keyboard-response","367","932398","0.0-367.0","60fdc3108d972d6c852fbf8a","620a612e6f4c1bcc63a7f057","","","","","<p style=""color:darkgreen;font-size:24px;"">Correct :)</p>","",""
"2818","key","n","n","16.664670658682635","500","250","psychophysics","368","935220","0.0-368.0","60fdc3108d972d6c852fbf8a","620a612e6f4c1bcc63a7f057","6","","","","","1","8"
"null","","","null","","","","html-keyboard-response","369","935723","0.0-369.0","60fdc3108d972d6c852fbf8a","620a612e6f4c1bcc63a7f057","","","","","<p style=""color:darkgreen;font-size:24px;"">Correct :)</p>","",""
"2526","key","n","n","16.673333333333332","500","250","psychophysics","370","938254","0.0-370.0","60fdc3108d972d6c852fbf8a","620a612e6f4c1bcc63a7f057","6","","","","","1","8"
"null","","","null","","","","html-keyboard-response","371","938756","0.0-371.0","60fdc3108d972d6c852fbf8a","620a612e6f4c1bcc63a7f057","","","","","<p style=""color:darkgreen;font-size:24px;"">Correct :)</p>","",""
"3068","key","n","n","16.661202185792348","500","250","psychophysics","372","941828","0.0-372.0","60fdc3108d972d6c852fbf8a","620a612e6f4c1bcc63a7f057","6","","","","","0","4"
"null","","","null","","","","html-keyboard-response","373","942331","0.0-373.0","60fdc3108d972d6c852fbf8a","620a612e6f4c1bcc63a7f057","","","","","<p style=""color:darkgreen;font-size:24px;"">Correct :)</p>","",""
"3570","key","n","n","16.66509433962264","500","250","psychophysics","374","945904","0.0-374.0","60fdc3108d972d6c852fbf8a","620a612e6f4c1bcc63a7f057","6","","","","","0","8"
"null","","","null","","","","html-keyboard-response","375","946407","0.0-375.0","60fdc3108d972d6c852fbf8a","620a612e6f4c1bcc63a7f057","","","","","<p style=""color:darkgreen;font-size:24px;"">Correct :)</p>","",""
"2934","key","v","v","16.65714285714286","500","250","psychophysics","376","949345","0.0-376.0","60fdc3108d972d6c852fbf8a","620a612e6f4c1bcc63a7f057","6","","","","","1","3"
"null","","","null","","","","html-keyboard-response","377","949847","0.0-377.0","60fdc3108d972d6c852fbf8a","620a612e6f4c1bcc63a7f057","","","","","<p style=""color:darkgreen;font-size:24px;"">Correct :)</p>","",""
"3428","key","v","v","16.67156862745098","500","250","psychophysics","378","953281","0.0-378.0","60fdc3108d972d6c852fbf8a","620a612e6f4c1bcc63a7f057","6","","","","","0","9"
"null","","","null","","","","html-keyboard-response","379","953784","0.0-379.0","60fdc3108d972d6c852fbf8a","620a612e6f4c1bcc63a7f057","","","","","<p style=""color:darkgreen;font-size:24px;"">Correct :)</p>","",""
"2930","key","v","v","16.660919540229884","500","250","psychophysics","380","956718","0.0-380.0","60fdc3108d972d6c852fbf8a","620a612e6f4c1bcc63a7f057","6","","","","","0","1"
"null","","","null","","","","html-keyboard-response","381","957220","0.0-381.0","60fdc3108d972d6c852fbf8a","620a612e6f4c1bcc63a7f057","","","","","<p style=""color:darkgreen;font-size:24px;"">Correct :)</p>","",""
"2488","key","v","v","16.66216216216216","500","250","psychophysics","382","959713","0.0-382.0","60fdc3108d972d6c852fbf8a","620a612e6f4c1bcc63a7f057","6","","","","","0","1"
"null","","","null","","","","html-keyboard-response","383","960216","0.0-383.0","60fdc3108d972d6c852fbf8a","620a612e6f4c1bcc63a7f057","","","","","<p style=""color:darkgreen;font-size:24px;"">Correct :)</p>","",""
"2837","key","n","n","16.662721893491124","500","250","psychophysics","384","963058","0.0-384.0","60fdc3108d972d6c852fbf8a","620a612e6f4c1bcc63a7f057","6","","","","","1","9"
"null","","","null","","","","html-keyboard-response","385","963561","0.0-385.0","60fdc3108d972d6c852fbf8a","620a612e6f4c1bcc63a7f057","","","","","<p style=""color:darkgreen;font-size:24px;"">Correct :)</p>","",""
"2796","key","v","v","16.65868263473054","500","250","psychophysics","386","966361","0.0-386.0","60fdc3108d972d6c852fbf8a","620a612e6f4c1bcc63a7f057","6","","","","","1","3"
"null","","","null","","","","html-keyboard-response","387","966863","0.0-387.0","60fdc3108d972d6c852fbf8a","620a612e6f4c1bcc63a7f057","","","","","<p style=""color:darkgreen;font-size:24px;"">Correct :)</p>","",""
"2864","key","n","n","16.658823529411766","500","250","psychophysics","388","969733","0.0-388.0","60fdc3108d972d6c852fbf8a","620a612e6f4c1bcc63a7f057","6","","","","","1","6"
"null","","","null","","","","html-keyboard-response","389","970236","0.0-389.0","60fdc3108d972d6c852fbf8a","620a612e6f4c1bcc63a7f057","","","","","<p style=""color:darkgreen;font-size:24px;"">Correct :)</p>","",""
"2564","key","v","v","16.664473684210527","500","250","psychophysics","390","972804","0.0-390.0","60fdc3108d972d6c852fbf8a","620a612e6f4c1bcc63a7f057","6","","","","","0","1"
"null","","","null","","","","html-keyboard-response","391","973307","0.0-391.0","60fdc3108d972d6c852fbf8a","620a612e6f4c1bcc63a7f057","","","","","<p style=""color:darkgreen;font-size:24px;"">Correct :)</p>","",""
"2543","key","v","v","16.662251655629138","500","250","psychophysics","392","975854","0.0-392.0","60fdc3108d972d6c852fbf8a","620a612e6f4c1bcc63a7f057","6","","","","","1","1"
"null","","","null","","","","html-keyboard-response","393","976357","0.0-393.0","60fdc3108d972d6c852fbf8a","620a612e6f4c1bcc63a7f057","","","","","<p style=""color:darkgreen;font-size:24px;"">Correct :)</p>","",""
"2615","key","n","n","16.66025641025641","500","250","psychophysics","394","978978","0.0-394.0","60fdc3108d972d6c852fbf8a","620a612e6f4c1bcc63a7f057","6","","","","","0","8"
"null","","","null","","","","html-keyboard-response","395","979481","0.0-395.0","60fdc3108d972d6c852fbf8a","620a612e6f4c1bcc63a7f057","","","","","<p style=""color:darkgreen;font-size:24px;"">Correct :)</p>","",""
"4598","","","n","","","","html-keyboard-response","396","984081","0.0-396.0","60fdc3108d972d6c852fbf8a","620a612e6f4c1bcc63a7f057","","","","","<p> Last set of trials.  Here, the tasks are going to switch once again.  We are going to do 50 of these.  And then you are done with the experiment.  </p>  <br><br>  Ready? (press v or n)","",""
"2789","key","v","v","16.6144578313253","500","250","psychophysics","397","986874","0.0-397.0","60fdc3108d972d6c852fbf8a","620a612e6f4c1bcc63a7f057","7","","","","","0","1"
"null","","","null","","","","html-keyboard-response","398","987378","0.0-398.0","60fdc3108d972d6c852fbf8a","620a612e6f4c1bcc63a7f057","","","","","<p style=""color:darkgreen;font-size:24px;"">Correct :)</p>","",""
"2638","key","n","n","16.662420382165607","500","250","psychophysics","399","990021","0.0-399.0","60fdc3108d972d6c852fbf8a","620a612e6f4c1bcc63a7f057","7","","","","","0","6"
"null","","","null","","","","html-keyboard-response","400","990526","0.0-400.0","60fdc3108d972d6c852fbf8a","620a612e6f4c1bcc63a7f057","","","","","<p style=""color:darkgreen;font-size:24px;"">Correct :)</p>","",""
"3484","key","v","v","16.695652173913043","500","250","psychophysics","401","994014","0.0-401.0","60fdc3108d972d6c852fbf8a","620a612e6f4c1bcc63a7f057","7","","","","","1","4"
"null","","","null","","","","html-keyboard-response","402","994517","0.0-402.0","60fdc3108d972d6c852fbf8a","620a612e6f4c1bcc63a7f057","","","","","<p style=""color:darkgreen;font-size:24px;"">Correct :)</p>","",""
"3243","key","n","n","16.699481865284973","500","250","psychophysics","403","997765","0.0-403.0","60fdc3108d972d6c852fbf8a","620a612e6f4c1bcc63a7f057","7","","","","","0","6"
"null","","","null","","","","html-keyboard-response","404","998267","0.0-404.0","60fdc3108d972d6c852fbf8a","620a612e6f4c1bcc63a7f057","","","","","<p style=""color:darkgreen;font-size:24px;"">Correct :)</p>","",""
"3955","key","n","n","16.693617021276594","500","250","psychophysics","405","1002228","0.0-405.0","60fdc3108d972d6c852fbf8a","620a612e6f4c1bcc63a7f057","7","","","","","1","7"
"null","","","null","","","","html-keyboard-response","406","1002731","0.0-406.0","60fdc3108d972d6c852fbf8a","620a612e6f4c1bcc63a7f057","","","","","<p style=""color:darkgreen;font-size:24px;"">Correct :)</p>","",""
"2583","key","v","v","16.655844155844157","500","250","psychophysics","407","1005319","0.0-407.0","60fdc3108d972d6c852fbf8a","620a612e6f4c1bcc63a7f057","7","","","","","1","3"
"null","","","null","","","","html-keyboard-response","408","1005821","0.0-408.0","60fdc3108d972d6c852fbf8a","620a612e6f4c1bcc63a7f057","","","","","<p style=""color:darkgreen;font-size:24px;"">Correct :)</p>","",""
"2477","key","v","v","16.65986394557823","500","250","psychophysics","409","1008303","0.0-409.0","60fdc3108d972d6c852fbf8a","620a612e6f4c1bcc63a7f057","7","","","","","0","3"
"null","","","null","","","","html-keyboard-response","410","1008805","0.0-410.0","60fdc3108d972d6c852fbf8a","620a612e6f4c1bcc63a7f057","","","","","<p style=""color:darkgreen;font-size:24px;"">Correct :)</p>","",""
"2838","key","n","n","16.668639053254438","500","250","psychophysics","411","1011649","0.0-411.0","60fdc3108d972d6c852fbf8a","620a612e6f4c1bcc63a7f057","7","","","","","0","6"
"null","","","null","","","","html-keyboard-response","412","1012152","0.0-412.0","60fdc3108d972d6c852fbf8a","620a612e6f4c1bcc63a7f057","","","","","<p style=""color:darkgreen;font-size:24px;"">Correct :)</p>","",""
"2581","key","n","n","16.655844155844157","500","250","psychophysics","413","1014738","0.0-413.0","60fdc3108d972d6c852fbf8a","620a612e6f4c1bcc63a7f057","7","","","","","1","7"
"null","","","null","","","","html-keyboard-response","414","1015240","0.0-414.0","60fdc3108d972d6c852fbf8a","620a612e6f4c1bcc63a7f057","","","","","<p style=""color:darkgreen;font-size:24px;"">Correct :)</p>","",""
"2649","key","v","v","16.664556962025316","500","250","psychophysics","415","1017894","0.0-415.0","60fdc3108d972d6c852fbf8a","620a612e6f4c1bcc63a7f057","7","","","","","1","6"
"null","","","null","","","","html-keyboard-response","416","1018396","0.0-416.0","60fdc3108d972d6c852fbf8a","620a612e6f4c1bcc63a7f057","","","","","<p style=""color:red;font-size:24px;"">Error :(</p>","",""
"2571","key","n","n","16.66013071895425","500","250","psychophysics","417","1020972","0.0-417.0","60fdc3108d972d6c852fbf8a","620a612e6f4c1bcc63a7f057","7","","","","","1","7"
"null","","","null","","","","html-keyboard-response","418","1021475","0.0-418.0","60fdc3108d972d6c852fbf8a","620a612e6f4c1bcc63a7f057","","","","","<p style=""color:darkgreen;font-size:24px;"">Correct :)</p>","",""
"2916","key","v","v","16.666666666666668","500","250","psychophysics","419","1024396","0.0-419.0","60fdc3108d972d6c852fbf8a","620a612e6f4c1bcc63a7f057","7","","","","","0","1"
"null","","","null","","","","html-keyboard-response","420","1024899","0.0-420.0","60fdc3108d972d6c852fbf8a","620a612e6f4c1bcc63a7f057","","","","","<p style=""color:darkgreen;font-size:24px;"">Correct :)</p>","",""
"2748","key","v","v","16.662576687116566","500","250","psychophysics","421","1027651","0.0-421.0","60fdc3108d972d6c852fbf8a","620a612e6f4c1bcc63a7f057","7","","","","","1","3"
"null","","","null","","","","html-keyboard-response","422","1028153","0.0-422.0","60fdc3108d972d6c852fbf8a","620a612e6f4c1bcc63a7f057","","","","","<p style=""color:darkgreen;font-size:24px;"">Correct :)</p>","",""
"2728","key","n","n","16.65644171779141","500","250","psychophysics","423","1030888","0.0-423.0","60fdc3108d972d6c852fbf8a","620a612e6f4c1bcc63a7f057","7","","","","","1","7"
"null","","","null","","","","html-keyboard-response","424","1031390","0.0-424.0","60fdc3108d972d6c852fbf8a","620a612e6f4c1bcc63a7f057","","","","","<p style=""color:darkgreen;font-size:24px;"">Correct :)</p>","",""
"2390","key","v","v","16.657342657342657","500","250","psychophysics","425","1033787","0.0-425.0","60fdc3108d972d6c852fbf8a","620a612e6f4c1bcc63a7f057","7","","","","","1","3"
"null","","","null","","","","html-keyboard-response","426","1034290","0.0-426.0","60fdc3108d972d6c852fbf8a","620a612e6f4c1bcc63a7f057","","","","","<p style=""color:darkgreen;font-size:24px;"">Correct :)</p>","",""
"3056","key","n","n","16.65934065934066","500","250","psychophysics","427","1037351","0.0-427.0","60fdc3108d972d6c852fbf8a","620a612e6f4c1bcc63a7f057","7","","","","","0","4"
"null","","","null","","","","html-keyboard-response","428","1037854","0.0-428.0","60fdc3108d972d6c852fbf8a","620a612e6f4c1bcc63a7f057","","","","","<p style=""color:darkgreen;font-size:24px;"">Correct :)</p>","",""
"3011","key","n","n","16.66111111111111","500","250","psychophysics","429","1040870","0.0-429.0","60fdc3108d972d6c852fbf8a","620a612e6f4c1bcc63a7f057","7","","","","","0","4"
"null","","","null","","","","html-keyboard-response","430","1041372","0.0-430.0","60fdc3108d972d6c852fbf8a","620a612e6f4c1bcc63a7f057","","","","","<p style=""color:darkgreen;font-size:24px;"">Correct :)</p>","",""
"2790","key","n","n","16.66867469879518","500","250","psychophysics","431","1044168","0.0-431.0","60fdc3108d972d6c852fbf8a","620a612e6f4c1bcc63a7f057","7","","","","","1","6"
"null","","","null","","","","html-keyboard-response","432","1044670","0.0-432.0","60fdc3108d972d6c852fbf8a","620a612e6f4c1bcc63a7f057","","","","","<p style=""color:darkgreen;font-size:24px;"">Correct :)</p>","",""
"3377","key","v","v","16.65841584158416","500","250","psychophysics","433","1048053","0.0-433.0","60fdc3108d972d6c852fbf8a","620a612e6f4c1bcc63a7f057","7","","","","","0","3"
"null","","","null","","","","html-keyboard-response","434","1048557","0.0-434.0","60fdc3108d972d6c852fbf8a","620a612e6f4c1bcc63a7f057","","","","","<p style=""color:darkgreen;font-size:24px;"">Correct :)</p>","",""
"2584","key","v","v","16.66883116883117","500","250","psychophysics","435","1051145","0.0-435.0","60fdc3108d972d6c852fbf8a","620a612e6f4c1bcc63a7f057","7","","","","","0","1"
"null","","","null","","","","html-keyboard-response","436","1051647","0.0-436.0","60fdc3108d972d6c852fbf8a","620a612e6f4c1bcc63a7f057","","","","","<p style=""color:darkgreen;font-size:24px;"">Correct :)</p>","",""
"2780","key","n","n","16.666666666666668","500","250","psychophysics","437","1054432","0.0-437.0","60fdc3108d972d6c852fbf8a","620a612e6f4c1bcc63a7f057","7","","","","","0","2"
"null","","","null","","","","html-keyboard-response","438","1054934","0.0-438.0","60fdc3108d972d6c852fbf8a","620a612e6f4c1bcc63a7f057","","","","","<p style=""color:darkgreen;font-size:24px;"">Correct :)</p>","",""
"2587","key","v","v","16.662337662337663","500","250","psychophysics","439","1057526","0.0-439.0","60fdc3108d972d6c852fbf8a","620a612e6f4c1bcc63a7f057","7","","","","","1","1"
"null","","","null","","","","html-keyboard-response","440","1058027","0.0-440.0","60fdc3108d972d6c852fbf8a","620a612e6f4c1bcc63a7f057","","","","","<p style=""color:darkgreen;font-size:24px;"">Correct :)</p>","",""
"2525","key","v","v","16.666666666666668","500","250","psychophysics","441","1060559","0.0-441.0","60fdc3108d972d6c852fbf8a","620a612e6f4c1bcc63a7f057","7","","","","","1","4"
"null","","","null","","","","html-keyboard-response","442","1061062","0.0-442.0","60fdc3108d972d6c852fbf8a","620a612e6f4c1bcc63a7f057","","","","","<p style=""color:darkgreen;font-size:24px;"">Correct :)</p>","",""
"3506","key","v","v","16.66507177033493","500","250","psychophysics","443","1064573","0.0-443.0","60fdc3108d972d6c852fbf8a","620a612e6f4c1bcc63a7f057","7","","","","","1","4"
"null","","","null","","","","html-keyboard-response","444","1065075","0.0-444.0","60fdc3108d972d6c852fbf8a","620a612e6f4c1bcc63a7f057","","","","","<p style=""color:darkgreen;font-size:24px;"">Correct :)</p>","",""
"2889","key","v","v","16.952662721893493","500","250","psychophysics","445","1067969","0.0-445.0","60fdc3108d972d6c852fbf8a","620a612e6f4c1bcc63a7f057","7","","","","","1","1"
"null","","","null","","","","html-keyboard-response","446","1068471","0.0-446.0","60fdc3108d972d6c852fbf8a","620a612e6f4c1bcc63a7f057","","","","","<p style=""color:darkgreen;font-size:24px;"">Correct :)</p>","",""
"2858","key","n","n","16.66470588235294","500","250","psychophysics","447","1071333","0.0-447.0","60fdc3108d972d6c852fbf8a","620a612e6f4c1bcc63a7f057","7","","","","","0","2"
"null","","","null","","","","html-keyboard-response","448","1071835","0.0-448.0","60fdc3108d972d6c852fbf8a","620a612e6f4c1bcc63a7f057","","","","","<p style=""color:darkgreen;font-size:24px;"">Correct :)</p>","",""
"3184","key","n","n","16.66842105263158","500","250","psychophysics","449","1075025","0.0-449.0","60fdc3108d972d6c852fbf8a","620a612e6f4c1bcc63a7f057","7","","","","","0","4"
"null","","","null","","","","html-keyboard-response","450","1075528","0.0-450.0","60fdc3108d972d6c852fbf8a","620a612e6f4c1bcc63a7f057","","","","","<p style=""color:darkgreen;font-size:24px;"">Correct :)</p>","",""
"2814","key","n","n","16.660714285714285","500","250","psychophysics","451","1078351","0.0-451.0","60fdc3108d972d6c852fbf8a","620a612e6f4c1bcc63a7f057","7","","","","","1","7"
"null","","","null","","","","html-keyboard-response","452","1078854","0.0-452.0","60fdc3108d972d6c852fbf8a","620a612e6f4c1bcc63a7f057","","","","","<p style=""color:darkgreen;font-size:24px;"">Correct :)</p>","",""
"2989","key","n","n","16.662921348314608","500","250","psychophysics","453","1081848","0.0-453.0","60fdc3108d972d6c852fbf8a","620a612e6f4c1bcc63a7f057","7","","","","","0","6"
"null","","","null","","","","html-keyboard-response","454","1082351","0.0-454.0","60fdc3108d972d6c852fbf8a","620a612e6f4c1bcc63a7f057","","","","","<p style=""color:darkgreen;font-size:24px;"">Correct :)</p>","",""
"2509","key","v","v","16.664429530201343","500","250","psychophysics","455","1084864","0.0-455.0","60fdc3108d972d6c852fbf8a","620a612e6f4c1bcc63a7f057","7","","","","","1","3"
"null","","","null","","","","html-keyboard-response","456","1085367","0.0-456.0","60fdc3108d972d6c852fbf8a","620a612e6f4c1bcc63a7f057","","","","","<p style=""color:darkgreen;font-size:24px;"">Correct :)</p>","",""
"2586","key","n","n","16.662337662337663","500","250","psychophysics","457","1087957","0.0-457.0","60fdc3108d972d6c852fbf8a","620a612e6f4c1bcc63a7f057","7","","","","","0","6"
"null","","","null","","","","html-keyboard-response","458","1088461","0.0-458.0","60fdc3108d972d6c852fbf8a","620a612e6f4c1bcc63a7f057","","","","","<p style=""color:darkgreen;font-size:24px;"">Correct :)</p>","",""
"2620","key","v","v","16.653846153846153","500","250","psychophysics","459","1091085","0.0-459.0","60fdc3108d972d6c852fbf8a","620a612e6f4c1bcc63a7f057","7","","","","","0","1"
"null","","","null","","","","html-keyboard-response","460","1091588","0.0-460.0","60fdc3108d972d6c852fbf8a","620a612e6f4c1bcc63a7f057","","","","","<p style=""color:darkgreen;font-size:24px;"">Correct :)</p>","",""
"3198","key","v","v","16.670157068062828","500","250","psychophysics","461","1094791","0.0-461.0","60fdc3108d972d6c852fbf8a","620a612e6f4c1bcc63a7f057","7","","","","","1","4"
"null","","","null","","","","html-keyboard-response","462","1095293","0.0-462.0","60fdc3108d972d6c852fbf8a","620a612e6f4c1bcc63a7f057","","","","","<p style=""color:darkgreen;font-size:24px;"">Correct :)</p>","",""
"2627","key","v","v","16.673076923076923","500","250","psychophysics","463","1097926","0.0-463.0","60fdc3108d972d6c852fbf8a","620a612e6f4c1bcc63a7f057","7","","","","","1","1"
"null","","","null","","","","html-keyboard-response","464","1098427","0.0-464.0","60fdc3108d972d6c852fbf8a","620a612e6f4c1bcc63a7f057","","","","","<p style=""color:darkgreen;font-size:24px;"">Correct :)</p>","",""
"2554","key","v","v","16.664473684210527","500","250","psychophysics","465","1100990","0.0-465.0","60fdc3108d972d6c852fbf8a","620a612e6f4c1bcc63a7f057","7","","","","","1","1"
"null","","","null","","","","html-keyboard-response","466","1101494","0.0-466.0","60fdc3108d972d6c852fbf8a","620a612e6f4c1bcc63a7f057","","","","","<p style=""color:darkgreen;font-size:24px;"">Correct :)</p>","",""
"2641","key","n","n","16.656050955414013","500","250","psychophysics","467","1104139","0.0-467.0","60fdc3108d972d6c852fbf8a","620a612e6f4c1bcc63a7f057","7","","","","","1","6"
"null","","","null","","","","html-keyboard-response","468","1104642","0.0-468.0","60fdc3108d972d6c852fbf8a","620a612e6f4c1bcc63a7f057","","","","","<p style=""color:darkgreen;font-size:24px;"">Correct :)</p>","",""
"2488","key","v","v","16.66216216216216","500","250","psychophysics","469","1107139","0.0-469.0","60fdc3108d972d6c852fbf8a","620a612e6f4c1bcc63a7f057","7","","","","","1","1"
"null","","","null","","","","html-keyboard-response","470","1107642","0.0-470.0","60fdc3108d972d6c852fbf8a","620a612e6f4c1bcc63a7f057","","","","","<p style=""color:darkgreen;font-size:24px;"">Correct :)</p>","",""
"2606","key","v","v","16.65806451612903","500","250","psychophysics","471","1110252","0.0-471.0","60fdc3108d972d6c852fbf8a","620a612e6f4c1bcc63a7f057","7","","","","","1","3"
"null","","","null","","","","html-keyboard-response","472","1110755","0.0-472.0","60fdc3108d972d6c852fbf8a","620a612e6f4c1bcc63a7f057","","","","","<p style=""color:darkgreen;font-size:24px;"">Correct :)</p>","",""
"2851","key","v","v","16.668639053254438","500","250","psychophysics","473","1113611","0.0-473.0","60fdc3108d972d6c852fbf8a","620a612e6f4c1bcc63a7f057","7","","","","","0","3"
"null","","","null","","","","html-keyboard-response","474","1114113","0.0-474.0","60fdc3108d972d6c852fbf8a","620a612e6f4c1bcc63a7f057","","","","","<p style=""color:darkgreen;font-size:24px;"">Correct :)</p>","",""
"2744","key","v","v","16.662576687116566","500","250","psychophysics","475","1116862","0.0-475.0","60fdc3108d972d6c852fbf8a","620a612e6f4c1bcc63a7f057","7","","","","","1","2"
"null","","","null","","","","html-keyboard-response","476","1117364","0.0-476.0","60fdc3108d972d6c852fbf8a","620a612e6f4c1bcc63a7f057","","","","","<p style=""color:darkgreen;font-size:24px;"">Correct :)</p>","",""
"2474","key","v","v","16.666666666666668","500","250","psychophysics","477","1119844","0.0-477.0","60fdc3108d972d6c852fbf8a","620a612e6f4c1bcc63a7f057","7","","","","","1","1"
"null","","","null","","","","html-keyboard-response","478","1120347","0.0-478.0","60fdc3108d972d6c852fbf8a","620a612e6f4c1bcc63a7f057","","","","","<p style=""color:darkgreen;font-size:24px;"">Correct :)</p>","",""
"2611","key","n","n","16.670967741935485","500","250","psychophysics","479","1122963","0.0-479.0","60fdc3108d972d6c852fbf8a","620a612e6f4c1bcc63a7f057","7","","","","","0","6"
"null","","","null","","","","html-keyboard-response","480","1123466","0.0-480.0","60fdc3108d972d6c852fbf8a","620a612e6f4c1bcc63a7f057","","","","","<p style=""color:darkgreen;font-size:24px;"">Correct :)</p>","",""
"2588","key","v","v","16.66883116883117","500","250","psychophysics","481","1126058","0.0-481.0","60fdc3108d972d6c852fbf8a","620a612e6f4c1bcc63a7f057","7","","","","","1","3"
"null","","","null","","","","html-keyboard-response","482","1126561","0.0-482.0","60fdc3108d972d6c852fbf8a","620a612e6f4c1bcc63a7f057","","","","","<p style=""color:darkgreen;font-size:24px;"">Correct :)</p>","",""
"3167","key","v","v","16.66137566137566","500","250","psychophysics","483","1129734","0.0-483.0","60fdc3108d972d6c852fbf8a","620a612e6f4c1bcc63a7f057","7","","","","","0","7"
"null","","","null","","","","html-keyboard-response","484","1130237","0.0-484.0","60fdc3108d972d6c852fbf8a","620a612e6f4c1bcc63a7f057","","","","","<p style=""color:darkgreen;font-size:24px;"">Correct :)</p>","",""
"2837","key","v","v","16.666666666666668","500","250","psychophysics","485","1133078","0.0-485.0","60fdc3108d972d6c852fbf8a","620a612e6f4c1bcc63a7f057","7","","","","","0","3"
"null","","","null","","","","html-keyboard-response","486","1133581","0.0-486.0","60fdc3108d972d6c852fbf8a","620a612e6f4c1bcc63a7f057","","","","","<p style=""color:darkgreen;font-size:24px;"">Correct :)</p>","",""
"3318","key","n","n","16.661616161616163","500","250","psychophysics","487","1136903","0.0-487.0","60fdc3108d972d6c852fbf8a","620a612e6f4c1bcc63a7f057","7","","","","","1","7"
"null","","","null","","","","html-keyboard-response","488","1137406","0.0-488.0","60fdc3108d972d6c852fbf8a","620a612e6f4c1bcc63a7f057","","","","","<p style=""color:darkgreen;font-size:24px;"">Correct :)</p>","",""
"3317","key","n","n","16.66497461928934","500","250","psychophysics","489","1140728","0.0-489.0","60fdc3108d972d6c852fbf8a","620a612e6f4c1bcc63a7f057","7","","","","","0","4"
"null","","","null","","","","html-keyboard-response","490","1141231","0.0-490.0","60fdc3108d972d6c852fbf8a","620a612e6f4c1bcc63a7f057","","","","","<p style=""color:darkgreen;font-size:24px;"">Correct :)</p>","",""
"3001","key","n","n","16.65921787709497","500","250","psychophysics","491","1144236","0.0-491.0","60fdc3108d972d6c852fbf8a","620a612e6f4c1bcc63a7f057","7","","","","","0","4"
"null","","","null","","","","html-keyboard-response","492","1144740","0.0-492.0","60fdc3108d972d6c852fbf8a","620a612e6f4c1bcc63a7f057","","","","","<p style=""color:darkgreen;font-size:24px;"">Correct :)</p>","",""
"2866","key","n","n","16.67058823529412","500","250","psychophysics","493","1147610","0.0-493.0","60fdc3108d972d6c852fbf8a","620a612e6f4c1bcc63a7f057","7","","","","","0","2"
"null","","","null","","","","html-keyboard-response","494","1148113","0.0-494.0","60fdc3108d972d6c852fbf8a","620a612e6f4c1bcc63a7f057","","","","","<p style=""color:darkgreen;font-size:24px;"">Correct :)</p>","",""
"2669","key","v","v","16.660377358490567","500","250","psychophysics","495","1150787","0.0-495.0","60fdc3108d972d6c852fbf8a","620a612e6f4c1bcc63a7f057","7","","","","","1","3"
"null","","","null","","","","html-keyboard-response","496","1151289","0.0-496.0","60fdc3108d972d6c852fbf8a","620a612e6f4c1bcc63a7f057","","","","","<p style=""color:darkgreen;font-size:24px;"">Correct :)</p>","",""
