"rt","response_type","key_press","response","avg_frame_time","center_x","center_y","trial_type","trial_index","time_elapsed","internal_node_id","pid","sid","phase","guide","targ","resp","stimulus","is5","stim"
"1492","key"," "," ","16.85214285714286","500","250","psychophysics","0","1550","0.0-0.0","5a8e2e8faa46dd00016bfb5a","6213d157728b38affd41e3ba","","","","","","",""
"1927","key"," "," ","16.66868103448276","500","250","psychophysics","1","3496","0.0-1.0","5a8e2e8faa46dd00016bfb5a","6213d157728b38affd41e3ba","","","","","","",""
"1232","key"," "," ","16.664513513513512","500","250","psychophysics","2","4744","0.0-2.0","5a8e2e8faa46dd00016bfb5a","6213d157728b38affd41e3ba","","","","","","",""
"1290","key"," "," ","16.665844155844162","500","250","psychophysics","3","6041","0.0-3.0","5a8e2e8faa46dd00016bfb5a","6213d157728b38affd41e3ba","","","","","","",""
"1772","key"," "," ","16.66802830188679","500","250","psychophysics","4","7828","0.0-4.0","5a8e2e8faa46dd00016bfb5a","6213d157728b38affd41e3ba","","","","","","",""
"4603","key"," "," ","16.788861313868612","500","250","psychophysics","5","12447","0.0-5.0","5a8e2e8faa46dd00016bfb5a","6213d157728b38affd41e3ba","","","","","","",""
"2574","key"," "," ","16.667285714285708","500","250","psychophysics","6","15023","0.0-6.0","5a8e2e8faa46dd00016bfb5a","6213d157728b38affd41e3ba","","","","","","",""
"2384","key"," "," ","16.666521126760554","500","250","psychophysics","7","17411","0.0-7.0","5a8e2e8faa46dd00016bfb5a","6213d157728b38affd41e3ba","","","","","","",""
"5151","key"," "," ","16.774696774193544","500","250","psychophysics","8","22628","0.0-8.0","5a8e2e8faa46dd00016bfb5a","6213d157728b38affd41e3ba","0","0","50","46","","",""
"2668","key"," "," ","16.666119496855348","500","250","psychophysics","9","25299","0.0-9.0","5a8e2e8faa46dd00016bfb5a","6213d157728b38affd41e3ba","","","","","","",""
"2531","key"," "," ","16.66621052631581","500","250","psychophysics","10","27843","0.0-10.0","5a8e2e8faa46dd00016bfb5a","6213d157728b38affd41e3ba","","","","","","",""
"2959","key"," "," ","16.667762711864405","500","250","psychophysics","11","30808","0.0-11.0","5a8e2e8faa46dd00016bfb5a","6213d157728b38affd41e3ba","","","","","","",""
"1328","key"," "," ","16.666556962025357","500","250","psychophysics","12","32143","0.0-12.0","5a8e2e8faa46dd00016bfb5a","6213d157728b38affd41e3ba","","","","","","",""
"1462","key"," "," ","16.660068965517237","500","250","psychophysics","13","33613","0.0-13.0","5a8e2e8faa46dd00016bfb5a","6213d157728b38affd41e3ba","","","","","","",""
"1531","key"," "," ","16.848152173913032","500","250","psychophysics","14","35174","0.0-14.0","5a8e2e8faa46dd00016bfb5a","6213d157728b38affd41e3ba","","","","","","",""
"2935","key"," "," ","16.66856","500","250","psychophysics","15","38115","0.0-15.0","5a8e2e8faa46dd00016bfb5a","6213d157728b38affd41e3ba","","","","","","",""
"1610","key"," "," ","16.667144329896942","500","250","psychophysics","16","39740","0.0-16.0","5a8e2e8faa46dd00016bfb5a","6213d157728b38affd41e3ba","","","","","","",""
"4762","key"," "," ","16.666617543859665","500","250","psychophysics","17","44508","0.0-17.0","5a8e2e8faa46dd00016bfb5a","6213d157728b38affd41e3ba","1","0","51","45","","",""
"5633","key"," "," ","16.666872403560824","500","250","psychophysics","18","50146","0.0-18.0","5a8e2e8faa46dd00016bfb5a","6213d157728b38affd41e3ba","1","5","46","48","","",""
"4533","key"," "," ","16.728274725274737","500","250","psychophysics","19","54727","0.0-19.0","5a8e2e8faa46dd00016bfb5a","6213d157728b38affd41e3ba","1","0","53","61","","",""
"4681","key"," "," ","16.666257142857155","500","250","psychophysics","20","59420","0.0-20.0","5a8e2e8faa46dd00016bfb5a","6213d157728b38affd41e3ba","1","5","44","44","","",""
"4945","key"," "," ","16.666821548821556","500","250","psychophysics","21","64374","0.0-21.0","5a8e2e8faa46dd00016bfb5a","6213d157728b38affd41e3ba","1","0","28","39","","",""
"4713","key"," "," ","16.78480212014135","500","250","psychophysics","22","69157","0.0-22.0","5a8e2e8faa46dd00016bfb5a","6213d157728b38affd41e3ba","1","5","44","48","","",""
"5606","key"," "," ","16.665593471810112","500","250","psychophysics","23","74778","0.0-23.0","5a8e2e8faa46dd00016bfb5a","6213d157728b38affd41e3ba","1","0","59","76","","",""
"7553","key"," "," ","16.66671081677705","500","250","psychophysics","24","82350","0.0-24.0","5a8e2e8faa46dd00016bfb5a","6213d157728b38affd41e3ba","1","5","55","58","","",""
"6288","key"," "," ","16.66699734748014","500","250","psychophysics","25","88650","0.0-25.0","5a8e2e8faa46dd00016bfb5a","6213d157728b38affd41e3ba","1","0","38","51","","",""
"4802","key"," "," ","16.667522648083615","500","250","psychophysics","26","93457","0.0-26.0","5a8e2e8faa46dd00016bfb5a","6213d157728b38affd41e3ba","1","5","35","35","","",""
"5934","key"," "," ","16.662694677871134","500","250","psychophysics","27","99410","0.0-27.0","5a8e2e8faa46dd00016bfb5a","6213d157728b38affd41e3ba","1","0","22","29","","",""
"7482","key"," "," ","16.666643652561255","500","250","psychophysics","28","106906","0.0-28.0","5a8e2e8faa46dd00016bfb5a","6213d157728b38affd41e3ba","1","5","34","36","","",""
"6627","key"," "," ","16.666690176322437","500","250","psychophysics","29","113539","0.0-29.0","5a8e2e8faa46dd00016bfb5a","6213d157728b38affd41e3ba","1","0","57","71","","",""
"5200","key"," "," ","16.666961414791007","500","250","psychophysics","30","118744","0.0-30.0","5a8e2e8faa46dd00016bfb5a","6213d157728b38affd41e3ba","1","5","43","46","","",""
"3968","key"," "," ","16.6653502109705","500","250","psychophysics","31","122726","0.0-31.0","5a8e2e8faa46dd00016bfb5a","6213d157728b38affd41e3ba","1","0","39","50","","",""
"4413","key"," "," ","16.6659962264151","500","250","psychophysics","32","127155","0.0-32.0","5a8e2e8faa46dd00016bfb5a","6213d157728b38affd41e3ba","1","5","36","39","","",""
"5679","key"," "," ","16.665495601173003","500","250","psychophysics","33","132842","0.0-33.0","5a8e2e8faa46dd00016bfb5a","6213d157728b38affd41e3ba","1","0","23","31","","",""
"4567","key"," "," ","16.666941391941435","500","250","psychophysics","34","137416","0.0-34.0","5a8e2e8faa46dd00016bfb5a","6213d157728b38affd41e3ba","1","5","59","60","","",""
"4333","key"," "," ","16.66634999999996","500","250","psychophysics","35","141767","0.0-35.0","5a8e2e8faa46dd00016bfb5a","6213d157728b38affd41e3ba","1","0","31","38","","",""
"5123","key"," "," ","16.66691856677517","500","250","psychophysics","36","146899","0.0-36.0","5a8e2e8faa46dd00016bfb5a","6213d157728b38affd41e3ba","1","5","46","51","","",""
"1565","key"," "," ","16.668510638298144","500","250","psychophysics","37","148475","0.0-37.0","5a8e2e8faa46dd00016bfb5a","6213d157728b38affd41e3ba","","","","","","",""
"7896","key"," "," ","16.666845665961954","500","250","psychophysics","38","156377","0.0-38.0","5a8e2e8faa46dd00016bfb5a","6213d157728b38affd41e3ba","","","","","","",""
"2151","key"," "," ","16.667390625000053","500","250","psychophysics","39","158534","0.0-39.0","5a8e2e8faa46dd00016bfb5a","6213d157728b38affd41e3ba","","","","","","",""
"4532","key"," "," ","16.666169117647073","500","250","psychophysics","40","163078","0.0-40.0","5a8e2e8faa46dd00016bfb5a","6213d157728b38affd41e3ba","2","0","36","45","","",""
"1562","key"," "," ","16.668870967742112","500","250","psychophysics","41","164644","0.0-41.0","5a8e2e8faa46dd00016bfb5a","6213d157728b38affd41e3ba","","","","","","",""
"5133","key"," "," ","16.666451298701276","500","250","psychophysics","42","169789","0.0-42.0","5a8e2e8faa46dd00016bfb5a","6213d157728b38affd41e3ba","2","0","53","60","","",""
"1101","key"," "," ","16.66763076923089","500","250","psychophysics","43","170895","0.0-43.0","5a8e2e8faa46dd00016bfb5a","6213d157728b38affd41e3ba","","","","","","",""
"2925","key"," "," ","16.66489714285708","500","250","psychophysics","44","173825","0.0-44.0","5a8e2e8faa46dd00016bfb5a","6213d157728b38affd41e3ba","2","0","23","28","","",""
"1013","key"," "," ","16.66716666666665","500","250","psychophysics","45","174844","0.0-45.0","5a8e2e8faa46dd00016bfb5a","6213d157728b38affd41e3ba","","","","","","",""
"3478","key"," "," ","16.666778846153857","500","250","psychophysics","46","178328","0.0-46.0","5a8e2e8faa46dd00016bfb5a","6213d157728b38affd41e3ba","2","0","26","34","","",""
"796","key"," "," ","16.668829787233992","500","250","psychophysics","47","179129","0.0-47.0","5a8e2e8faa46dd00016bfb5a","6213d157728b38affd41e3ba","","","","","","",""
"3439","key"," "," ","16.667150485436984","500","250","psychophysics","48","182582","0.0-48.0","5a8e2e8faa46dd00016bfb5a","6213d157728b38affd41e3ba","2","0","32","38","","",""
"838","key"," "," ","16.669860000000334","500","250","psychophysics","49","183430","0.0-49.0","5a8e2e8faa46dd00016bfb5a","6213d157728b38affd41e3ba","","","","","","",""
"4565","key"," "," ","16.66686861313861","500","250","psychophysics","50","188014","0.0-50.0","5a8e2e8faa46dd00016bfb5a","6213d157728b38affd41e3ba","2","0","52","63","","",""
"707","key"," "," ","16.665380952380865","500","250","psychophysics","51","188731","0.0-51.0","5a8e2e8faa46dd00016bfb5a","6213d157728b38affd41e3ba","","","","","","",""
"4134","key"," "," ","16.667587044534415","500","250","psychophysics","52","192867","0.0-52.0","5a8e2e8faa46dd00016bfb5a","6213d157728b38affd41e3ba","2","0","38","41","","",""
"788","key"," "," ","16.665645833333354","500","250","psychophysics","53","193673","0.0-53.0","5a8e2e8faa46dd00016bfb5a","6213d157728b38affd41e3ba","","","","","","",""
"2832","key"," "," ","16.66713609467464","500","250","psychophysics","54","196510","0.0-54.0","5a8e2e8faa46dd00016bfb5a","6213d157728b38affd41e3ba","2","0","31","36","","",""
"780","key"," "," ","16.666978260869815","500","250","psychophysics","55","197292","0.0-55.0","5a8e2e8faa46dd00016bfb5a","6213d157728b38affd41e3ba","","","","","","",""
"2981","key"," "," ","16.667129213483044","500","250","psychophysics","56","200275","0.0-56.0","5a8e2e8faa46dd00016bfb5a","6213d157728b38affd41e3ba","2","0","32","35","","",""
"693","key"," "," ","16.669825000000127","500","250","psychophysics","57","200975","0.0-57.0","5a8e2e8faa46dd00016bfb5a","6213d157728b38affd41e3ba","","","","","","",""
"3879","key"," "," ","16.666329059829067","500","250","psychophysics","58","204877","0.0-58.0","5a8e2e8faa46dd00016bfb5a","6213d157728b38affd41e3ba","2","0","42","47","","",""
"750","key"," "," ","16.666227272727568","500","250","psychophysics","59","205630","0.0-59.0","5a8e2e8faa46dd00016bfb5a","6213d157728b38affd41e3ba","","","","","","",""
"4276","key"," "," ","16.666843749999998","500","250","psychophysics","60","209909","0.0-60.0","5a8e2e8faa46dd00016bfb5a","6213d157728b38affd41e3ba","2","0","57","69","","",""
"871","key"," "," ","16.666352941176406","500","250","psychophysics","61","210782","0.0-61.0","5a8e2e8faa46dd00016bfb5a","6213d157728b38affd41e3ba","","","","","","",""
"3061","key"," "," ","16.666775956284095","500","250","psychophysics","62","213846","0.0-62.0","5a8e2e8faa46dd00016bfb5a","6213d157728b38affd41e3ba","2","0","46","55","","",""
"729","key"," "," ","16.66644186046527","500","250","psychophysics","63","214578","0.0-63.0","5a8e2e8faa46dd00016bfb5a","6213d157728b38affd41e3ba","","","","","","",""
"3994","key"," "," ","16.667661087866094","500","250","psychophysics","64","218575","0.0-64.0","5a8e2e8faa46dd00016bfb5a","6213d157728b38affd41e3ba","2","0","50","51","","",""
"985","key"," "," ","16.66260344827606","500","250","psychophysics","65","219566","0.0-65.0","5a8e2e8faa46dd00016bfb5a","6213d157728b38affd41e3ba","","","","","","",""
"2436","key"," "," ","16.665835616438354","500","250","psychophysics","66","222013","0.0-66.0","5a8e2e8faa46dd00016bfb5a","6213d157728b38affd41e3ba","2","0","24","34","","",""
"710","key"," "," ","16.667595238095686","500","250","psychophysics","67","222726","0.0-67.0","5a8e2e8faa46dd00016bfb5a","6213d157728b38affd41e3ba","","","","","","",""
"2304","key"," "," ","16.668291970803004","500","250","psychophysics","68","225033","0.0-68.0","5a8e2e8faa46dd00016bfb5a","6213d157728b38affd41e3ba","2","0","26","29","","",""
"820","key"," "," ","16.66753061224495","500","250","psychophysics","69","225864","0.0-69.0","5a8e2e8faa46dd00016bfb5a","6213d157728b38affd41e3ba","","","","","","",""
"2044","key"," "," ","16.667499999999983","500","250","psychophysics","70","227913","0.0-70.0","5a8e2e8faa46dd00016bfb5a","6213d157728b38affd41e3ba","","","","","","",""
"1604","key"," "," ","16.66695833333324","500","250","psychophysics","71","229528","0.0-71.0","5a8e2e8faa46dd00016bfb5a","6213d157728b38affd41e3ba","","","","","","",""
"3337","key"," "," ","16.83614646464647","500","250","psychophysics","72","232877","0.0-72.0","5a8e2e8faa46dd00016bfb5a","6213d157728b38affd41e3ba","3","5","34","29","","",""
"2846","key"," "," ","16.667417647058883","500","250","psychophysics","73","235732","0.0-73.0","5a8e2e8faa46dd00016bfb5a","6213d157728b38affd41e3ba","3","0","33","37","","",""
"1876","key"," "," ","16.666115044247857","500","250","psychophysics","74","237622","0.0-74.0","5a8e2e8faa46dd00016bfb5a","6213d157728b38affd41e3ba","3","5","24","22","","",""
"2801","key"," "," ","16.6666586826347","500","250","psychophysics","75","240426","0.0-75.0","5a8e2e8faa46dd00016bfb5a","6213d157728b38affd41e3ba","3","0","46","52","","",""
"2650","key"," "," ","16.66729113924051","500","250","psychophysics","76","243082","0.0-76.0","5a8e2e8faa46dd00016bfb5a","6213d157728b38affd41e3ba","3","5","58","49","","",""
"3215","key"," "," ","16.666740932642547","500","250","psychophysics","77","246316","0.0-77.0","5a8e2e8faa46dd00016bfb5a","6213d157728b38affd41e3ba","3","0","42","51","","",""
"4257","key"," "," ","16.6668196078431","500","250","psychophysics","78","250585","0.0-78.0","5a8e2e8faa46dd00016bfb5a","6213d157728b38affd41e3ba","3","5","38","39","","",""
"6013","key"," "," ","16.666919667590033","500","250","psychophysics","79","256610","0.0-79.0","5a8e2e8faa46dd00016bfb5a","6213d157728b38affd41e3ba","3","0","45","63","","",""
"3815","key"," "," ","16.68233920704847","500","250","psychophysics","80","260457","0.0-80.0","5a8e2e8faa46dd00016bfb5a","6213d157728b38affd41e3ba","3","5","21","22","","",""
"3729","key"," "," ","17.342602739726022","500","250","psychophysics","81","264231","0.0-81.0","5a8e2e8faa46dd00016bfb5a","6213d157728b38affd41e3ba","3","0","33","39","","",""
"4831","key"," "," ","16.667017301038","500","250","psychophysics","82","269066","0.0-82.0","5a8e2e8faa46dd00016bfb5a","6213d157728b38affd41e3ba","3","5","53","54","","",""
"4151","key"," "," ","16.667236947791135","500","250","psychophysics","83","273230","0.0-83.0","5a8e2e8faa46dd00016bfb5a","6213d157728b38affd41e3ba","3","0","49","60","","",""
"2408","key"," "," ","16.666506944444134","500","250","psychophysics","84","275641","0.0-84.0","5a8e2e8faa46dd00016bfb5a","6213d157728b38affd41e3ba","3","5","23","25","","",""
"2714","key"," "," ","16.667117283950823","500","250","psychophysics","85","278361","0.0-85.0","5a8e2e8faa46dd00016bfb5a","6213d157728b38affd41e3ba","3","0","39","45","","",""
"1792","key"," "," ","16.822330188679395","500","250","psychophysics","86","280168","0.0-86.0","5a8e2e8faa46dd00016bfb5a","6213d157728b38affd41e3ba","3","5","21","22","","",""
"3096","key"," "," ","16.666870270270188","500","250","psychophysics","87","283268","0.0-87.0","5a8e2e8faa46dd00016bfb5a","6213d157728b38affd41e3ba","3","0","31","45","","",""
"3568","key"," "," ","16.667056074766354","500","250","psychophysics","88","286841","0.0-88.0","5a8e2e8faa46dd00016bfb5a","6213d157728b38affd41e3ba","3","5","39","38","","",""
"4059","key"," "," ","16.667809917355314","500","250","psychophysics","89","290905","0.0-89.0","5a8e2e8faa46dd00016bfb5a","6213d157728b38affd41e3ba","3","0","32","32","","",""
"3325","key"," "," ","16.667280000000027","500","250","psychophysics","90","294243","0.0-90.0","5a8e2e8faa46dd00016bfb5a","6213d157728b38affd41e3ba","3","5","29","29","","",""
"3476","key"," "," ","16.66627403846164","500","250","psychophysics","91","297726","0.0-91.0","5a8e2e8faa46dd00016bfb5a","6213d157728b38affd41e3ba","3","0","32","43","","",""
"1094","key"," "," ","16.668876923077132","500","250","psychophysics","92","298826","0.0-92.0","5a8e2e8faa46dd00016bfb5a","6213d157728b38affd41e3ba","","","","","","",""
"33193","","","v","","","","html-keyboard-response","93","332023","0.0-93.0","5a8e2e8faa46dd00016bfb5a","6213d157728b38affd41e3ba","","","","","<p> In this part of the experiment, we are going present digits 1, 2, 3, 4, 6, 7, 8, and 9.  Notice that 5 is missing.  Your job is to say whether the presented digit is less than or greater than 5.  For example, 3 is less than 5 and 7 is greater than 5.  If the digit is less than 5, press the v key; if it is greater than 5, press the n key. We are going to do 200 of these in total, but only 50 righ now. They go real fast.</p>  <br><br>  Ready? (press v or n)","",""
"134","key","v","v","16.82011111111044","500","250","psychophysics","94","332184","0.0-94.0","5a8e2e8faa46dd00016bfb5a","6213d157728b38affd41e3ba","4","","","","","1","9"
"null","","","null","","","","html-keyboard-response","95","332686","0.0-95.0","5a8e2e8faa46dd00016bfb5a","6213d157728b38affd41e3ba","","","","","<p style=""color:red;font-size:24px;"">Error :(</p>","",""
"2850","key","n","n","16.667070588235305","500","250","psychophysics","96","335538","0.0-96.0","5a8e2e8faa46dd00016bfb5a","6213d157728b38affd41e3ba","4","","","","","1","7"
"null","","","null","","","","html-keyboard-response","97","336041","0.0-97.0","5a8e2e8faa46dd00016bfb5a","6213d157728b38affd41e3ba","","","","","<p style=""color:darkgreen;font-size:24px;"">Correct :)</p>","",""
"2544","key","v","v","16.668888888888677","500","250","psychophysics","98","338590","0.0-98.0","5a8e2e8faa46dd00016bfb5a","6213d157728b38affd41e3ba","4","","","","","1","4"
"null","","","null","","","","html-keyboard-response","99","339095","0.0-99.0","5a8e2e8faa46dd00016bfb5a","6213d157728b38affd41e3ba","","","","","<p style=""color:darkgreen;font-size:24px;"">Correct :)</p>","",""
"2436","key","n","n","16.666999999999994","500","250","psychophysics","100","341543","0.0-100.0","5a8e2e8faa46dd00016bfb5a","6213d157728b38affd41e3ba","4","","","","","1","6"
"null","","","null","","","","html-keyboard-response","101","342045","0.0-101.0","5a8e2e8faa46dd00016bfb5a","6213d157728b38affd41e3ba","","","","","<p style=""color:darkgreen;font-size:24px;"">Correct :)</p>","",""
"2533","key","n","n","16.66696732026164","500","250","psychophysics","102","344588","0.0-102.0","5a8e2e8faa46dd00016bfb5a","6213d157728b38affd41e3ba","4","","","","","1","9"
"null","","","null","","","","html-keyboard-response","103","345089","0.0-103.0","5a8e2e8faa46dd00016bfb5a","6213d157728b38affd41e3ba","","","","","<p style=""color:darkgreen;font-size:24px;"">Correct :)</p>","",""
"2450","key","n","n","16.667455782313183","500","250","psychophysics","104","347543","0.0-104.0","5a8e2e8faa46dd00016bfb5a","6213d157728b38affd41e3ba","4","","","","","1","7"
"null","","","null","","","","html-keyboard-response","105","348046","0.0-105.0","5a8e2e8faa46dd00016bfb5a","6213d157728b38affd41e3ba","","","","","<p style=""color:darkgreen;font-size:24px;"">Correct :)</p>","",""
"2474","key","v","v","16.6670268456375","500","250","psychophysics","106","350527","0.0-106.0","5a8e2e8faa46dd00016bfb5a","6213d157728b38affd41e3ba","4","","","","","1","2"
"null","","","null","","","","html-keyboard-response","107","351034","0.0-107.0","5a8e2e8faa46dd00016bfb5a","6213d157728b38affd41e3ba","","","","","<p style=""color:darkgreen;font-size:24px;"">Correct :)</p>","",""
"2436","key","n","n","16.661700680272236","500","250","psychophysics","108","353482","0.0-108.0","5a8e2e8faa46dd00016bfb5a","6213d157728b38affd41e3ba","4","","","","","1","9"
"null","","","null","","","","html-keyboard-response","109","353987","0.0-109.0","5a8e2e8faa46dd00016bfb5a","6213d157728b38affd41e3ba","","","","","<p style=""color:darkgreen;font-size:24px;"">Correct :)</p>","",""
"2513","key","n","n","16.667766666666914","500","250","psychophysics","110","356505","0.0-110.0","5a8e2e8faa46dd00016bfb5a","6213d157728b38affd41e3ba","4","","","","","1","8"
"null","","","null","","","","html-keyboard-response","111","357009","0.0-111.0","5a8e2e8faa46dd00016bfb5a","6213d157728b38affd41e3ba","","","","","<p style=""color:darkgreen;font-size:24px;"">Correct :)</p>","",""
"2385","key","n","n","16.667202797202616","500","250","psychophysics","112","359398","0.0-112.0","5a8e2e8faa46dd00016bfb5a","6213d157728b38affd41e3ba","4","","","","","1","7"
"null","","","null","","","","html-keyboard-response","113","359912","0.0-113.0","5a8e2e8faa46dd00016bfb5a","6213d157728b38affd41e3ba","","","","","<p style=""color:darkgreen;font-size:24px;"">Correct :)</p>","",""
"2414","key","n","n","16.781455172413704","500","250","psychophysics","114","362339","0.0-114.0","5a8e2e8faa46dd00016bfb5a","6213d157728b38affd41e3ba","4","","","","","1","8"
"null","","","null","","","","html-keyboard-response","115","362842","0.0-115.0","5a8e2e8faa46dd00016bfb5a","6213d157728b38affd41e3ba","","","","","<p style=""color:darkgreen;font-size:24px;"">Correct :)</p>","",""
"2439","key","n","n","16.666326530612324","500","250","psychophysics","116","365292","0.0-116.0","5a8e2e8faa46dd00016bfb5a","6213d157728b38affd41e3ba","4","","","","","1","8"
"null","","","null","","","","html-keyboard-response","117","365795","0.0-117.0","5a8e2e8faa46dd00016bfb5a","6213d157728b38affd41e3ba","","","","","<p style=""color:darkgreen;font-size:24px;"">Correct :)</p>","",""
"2450","key","n","n","16.66817567567538","500","250","psychophysics","118","368257","0.0-118.0","5a8e2e8faa46dd00016bfb5a","6213d157728b38affd41e3ba","4","","","","","1","9"
"null","","","null","","","","html-keyboard-response","119","368767","0.0-119.0","5a8e2e8faa46dd00016bfb5a","6213d157728b38affd41e3ba","","","","","<p style=""color:darkgreen;font-size:24px;"">Correct :)</p>","",""
"2386","key","v","v","16.667069444444174","500","250","psychophysics","120","371159","0.0-120.0","5a8e2e8faa46dd00016bfb5a","6213d157728b38affd41e3ba","4","","","","","1","2"
"null","","","null","","","","html-keyboard-response","121","371663","0.0-121.0","5a8e2e8faa46dd00016bfb5a","6213d157728b38affd41e3ba","","","","","<p style=""color:darkgreen;font-size:24px;"">Correct :)</p>","",""
"2424","key","n","n","16.669609589040938","500","250","psychophysics","122","374105","0.0-122.0","5a8e2e8faa46dd00016bfb5a","6213d157728b38affd41e3ba","4","","","","","1","6"
"null","","","null","","","","html-keyboard-response","123","374620","0.0-123.0","5a8e2e8faa46dd00016bfb5a","6213d157728b38affd41e3ba","","","","","<p style=""color:darkgreen;font-size:24px;"">Correct :)</p>","",""
"2413","key","n","n","16.90069930069922","500","250","psychophysics","124","377046","0.0-124.0","5a8e2e8faa46dd00016bfb5a","6213d157728b38affd41e3ba","4","","","","","1","9"
"null","","","null","","","","html-keyboard-response","125","377549","0.0-125.0","5a8e2e8faa46dd00016bfb5a","6213d157728b38affd41e3ba","","","","","<p style=""color:darkgreen;font-size:24px;"">Correct :)</p>","",""
"2482","key","v","v","16.666486666666653","500","250","psychophysics","126","380042","0.0-126.0","5a8e2e8faa46dd00016bfb5a","6213d157728b38affd41e3ba","4","","","","","1","1"
"null","","","null","","","","html-keyboard-response","127","380545","0.0-127.0","5a8e2e8faa46dd00016bfb5a","6213d157728b38affd41e3ba","","","","","<p style=""color:darkgreen;font-size:24px;"">Correct :)</p>","",""
"2452","key","v","v","16.665054054054153","500","250","psychophysics","128","383009","0.0-128.0","5a8e2e8faa46dd00016bfb5a","6213d157728b38affd41e3ba","4","","","","","1","3"
"null","","","null","","","","html-keyboard-response","129","383512","0.0-129.0","5a8e2e8faa46dd00016bfb5a","6213d157728b38affd41e3ba","","","","","<p style=""color:darkgreen;font-size:24px;"">Correct :)</p>","",""
"2384","key","v","v","16.667472222222486","500","250","psychophysics","130","385909","0.0-130.0","5a8e2e8faa46dd00016bfb5a","6213d157728b38affd41e3ba","4","","","","","1","2"
"null","","","null","","","","html-keyboard-response","131","386412","0.0-131.0","5a8e2e8faa46dd00016bfb5a","6213d157728b38affd41e3ba","","","","","<p style=""color:darkgreen;font-size:24px;"">Correct :)</p>","",""
"2461","key","v","v","16.66636486486469","500","250","psychophysics","132","388885","0.0-132.0","5a8e2e8faa46dd00016bfb5a","6213d157728b38affd41e3ba","4","","","","","1","1"
"null","","","null","","","","html-keyboard-response","133","389394","0.0-133.0","5a8e2e8faa46dd00016bfb5a","6213d157728b38affd41e3ba","","","","","<p style=""color:darkgreen;font-size:24px;"">Correct :)</p>","",""
"2520","key","v","v","16.66638157894723","500","250","psychophysics","134","391927","0.0-134.0","5a8e2e8faa46dd00016bfb5a","6213d157728b38affd41e3ba","4","","","","","1","2"
"null","","","null","","","","html-keyboard-response","135","392430","0.0-135.0","5a8e2e8faa46dd00016bfb5a","6213d157728b38affd41e3ba","","","","","<p style=""color:darkgreen;font-size:24px;"">Correct :)</p>","",""
"2392","key","v","v","16.667465277778117","500","250","psychophysics","136","394833","0.0-136.0","5a8e2e8faa46dd00016bfb5a","6213d157728b38affd41e3ba","4","","","","","1","2"
"null","","","null","","","","html-keyboard-response","137","395335","0.0-137.0","5a8e2e8faa46dd00016bfb5a","6213d157728b38affd41e3ba","","","","","<p style=""color:darkgreen;font-size:24px;"">Correct :)</p>","",""
"2382","key","n","n","16.667645833333356","500","250","psychophysics","138","397728","0.0-138.0","5a8e2e8faa46dd00016bfb5a","6213d157728b38affd41e3ba","4","","","","","1","6"
"null","","","null","","","","html-keyboard-response","139","398236","0.0-139.0","5a8e2e8faa46dd00016bfb5a","6213d157728b38affd41e3ba","","","","","<p style=""color:darkgreen;font-size:24px;"">Correct :)</p>","",""
"2442","key","v","v","17.01166896551711","500","250","psychophysics","140","400692","0.0-140.0","5a8e2e8faa46dd00016bfb5a","6213d157728b38affd41e3ba","4","","","","","1","1"
"null","","","null","","","","html-keyboard-response","141","401195","0.0-141.0","5a8e2e8faa46dd00016bfb5a","6213d157728b38affd41e3ba","","","","","<p style=""color:darkgreen;font-size:24px;"">Correct :)</p>","",""
"2418","key","n","n","16.66755862068947","500","250","psychophysics","142","403619","0.0-142.0","5a8e2e8faa46dd00016bfb5a","6213d157728b38affd41e3ba","4","","","","","1","9"
"null","","","null","","","","html-keyboard-response","143","404123","0.0-143.0","5a8e2e8faa46dd00016bfb5a","6213d157728b38affd41e3ba","","","","","<p style=""color:darkgreen;font-size:24px;"">Correct :)</p>","",""
"2418","key","v","v","16.666048275862","500","250","psychophysics","144","406551","0.0-144.0","5a8e2e8faa46dd00016bfb5a","6213d157728b38affd41e3ba","4","","","","","1","1"
"null","","","null","","","","html-keyboard-response","145","407056","0.0-145.0","5a8e2e8faa46dd00016bfb5a","6213d157728b38affd41e3ba","","","","","<p style=""color:darkgreen;font-size:24px;"">Correct :)</p>","",""
"2377","key","v","v","16.666950704225314","500","250","psychophysics","146","409440","0.0-146.0","5a8e2e8faa46dd00016bfb5a","6213d157728b38affd41e3ba","4","","","","","1","1"
"null","","","null","","","","html-keyboard-response","147","409944","0.0-147.0","5a8e2e8faa46dd00016bfb5a","6213d157728b38affd41e3ba","","","","","<p style=""color:darkgreen;font-size:24px;"">Correct :)</p>","",""
"2423","key","n","n","16.66570547945225","500","250","psychophysics","148","412378","0.0-148.0","5a8e2e8faa46dd00016bfb5a","6213d157728b38affd41e3ba","4","","","","","1","7"
"null","","","null","","","","html-keyboard-response","149","412882","0.0-149.0","5a8e2e8faa46dd00016bfb5a","6213d157728b38affd41e3ba","","","","","<p style=""color:darkgreen;font-size:24px;"">Correct :)</p>","",""
"2500","key","n","n","16.666092715231898","500","250","psychophysics","150","415397","0.0-150.0","5a8e2e8faa46dd00016bfb5a","6213d157728b38affd41e3ba","4","","","","","1","4"
"null","","","null","","","","html-keyboard-response","151","415900","0.0-151.0","5a8e2e8faa46dd00016bfb5a","6213d157728b38affd41e3ba","","","","","<p style=""color:red;font-size:24px;"">Error :(</p>","",""
"2468","key","v","v","16.66808724832204","500","250","psychophysics","152","418379","0.0-152.0","5a8e2e8faa46dd00016bfb5a","6213d157728b38affd41e3ba","4","","","","","1","1"
"null","","","null","","","","html-keyboard-response","153","418883","0.0-153.0","5a8e2e8faa46dd00016bfb5a","6213d157728b38affd41e3ba","","","","","<p style=""color:darkgreen;font-size:24px;"">Correct :)</p>","",""
"2427","key","v","v","16.664258503401413","500","250","psychophysics","154","421326","0.0-154.0","5a8e2e8faa46dd00016bfb5a","6213d157728b38affd41e3ba","4","","","","","1","3"
"null","","","null","","","","html-keyboard-response","155","421842","0.0-155.0","5a8e2e8faa46dd00016bfb5a","6213d157728b38affd41e3ba","","","","","<p style=""color:darkgreen;font-size:24px;"">Correct :)</p>","",""
"2459","key","n","n","16.89196575342475","500","250","psychophysics","156","424312","0.0-156.0","5a8e2e8faa46dd00016bfb5a","6213d157728b38affd41e3ba","4","","","","","1","6"
"null","","","null","","","","html-keyboard-response","157","424816","0.0-157.0","5a8e2e8faa46dd00016bfb5a","6213d157728b38affd41e3ba","","","","","<p style=""color:darkgreen;font-size:24px;"">Correct :)</p>","",""
"2478","key","v","v","16.665920000000234","500","250","psychophysics","158","427309","0.0-158.0","5a8e2e8faa46dd00016bfb5a","6213d157728b38affd41e3ba","4","","","","","1","3"
"null","","","null","","","","html-keyboard-response","159","427812","0.0-159.0","5a8e2e8faa46dd00016bfb5a","6213d157728b38affd41e3ba","","","","","<p style=""color:darkgreen;font-size:24px;"">Correct :)</p>","",""
"2400","key","n","n","16.667618055555472","500","250","psychophysics","160","430224","0.0-160.0","5a8e2e8faa46dd00016bfb5a","6213d157728b38affd41e3ba","4","","","","","1","8"
"null","","","null","","","","html-keyboard-response","161","430735","0.0-161.0","5a8e2e8faa46dd00016bfb5a","6213d157728b38affd41e3ba","","","","","<p style=""color:darkgreen;font-size:24px;"">Correct :)</p>","",""
"2487","key","n","n","16.665606666666765","500","250","psychophysics","162","433230","0.0-162.0","5a8e2e8faa46dd00016bfb5a","6213d157728b38affd41e3ba","4","","","","","1","8"
"null","","","null","","","","html-keyboard-response","163","433731","0.0-163.0","5a8e2e8faa46dd00016bfb5a","6213d157728b38affd41e3ba","","","","","<p style=""color:darkgreen;font-size:24px;"">Correct :)</p>","",""
"2536","key","n","n","16.666660130719023","500","250","psychophysics","164","436278","0.0-164.0","5a8e2e8faa46dd00016bfb5a","6213d157728b38affd41e3ba","4","","","","","1","9"
"null","","","null","","","","html-keyboard-response","165","436781","0.0-165.0","5a8e2e8faa46dd00016bfb5a","6213d157728b38affd41e3ba","","","","","<p style=""color:darkgreen;font-size:24px;"">Correct :)</p>","",""
"2427","key","v","v","16.66683561643841","500","250","psychophysics","166","439216","0.0-166.0","5a8e2e8faa46dd00016bfb5a","6213d157728b38affd41e3ba","4","","","","","1","1"
"null","","","null","","","","html-keyboard-response","167","439719","0.0-167.0","5a8e2e8faa46dd00016bfb5a","6213d157728b38affd41e3ba","","","","","<p style=""color:darkgreen;font-size:24px;"">Correct :)</p>","",""
"2426","key","n","n","16.66665753424654","500","250","psychophysics","168","442148","0.0-168.0","5a8e2e8faa46dd00016bfb5a","6213d157728b38affd41e3ba","4","","","","","1","9"
"null","","","null","","","","html-keyboard-response","169","442650","0.0-169.0","5a8e2e8faa46dd00016bfb5a","6213d157728b38affd41e3ba","","","","","<p style=""color:darkgreen;font-size:24px;"">Correct :)</p>","",""
"2448","key","v","v","16.66714965986392","500","250","psychophysics","170","445106","0.0-170.0","5a8e2e8faa46dd00016bfb5a","6213d157728b38affd41e3ba","4","","","","","1","2"
"null","","","null","","","","html-keyboard-response","171","445611","0.0-171.0","5a8e2e8faa46dd00016bfb5a","6213d157728b38affd41e3ba","","","","","<p style=""color:darkgreen;font-size:24px;"">Correct :)</p>","",""
"2428","key","n","n","16.6665753424658","500","250","psychophysics","172","448052","0.0-172.0","5a8e2e8faa46dd00016bfb5a","6213d157728b38affd41e3ba","4","","","","","1","7"
"null","","","null","","","","html-keyboard-response","173","448558","0.0-173.0","5a8e2e8faa46dd00016bfb5a","6213d157728b38affd41e3ba","","","","","<p style=""color:darkgreen;font-size:24px;"">Correct :)</p>","",""
"2417","key","n","n","16.783437500000016","500","250","psychophysics","174","450979","0.0-174.0","5a8e2e8faa46dd00016bfb5a","6213d157728b38affd41e3ba","4","","","","","1","8"
"null","","","null","","","","html-keyboard-response","175","451481","0.0-175.0","5a8e2e8faa46dd00016bfb5a","6213d157728b38affd41e3ba","","","","","<p style=""color:darkgreen;font-size:24px;"">Correct :)</p>","",""
"2576","key","n","n","16.666348387097052","500","250","psychophysics","176","454068","0.0-176.0","5a8e2e8faa46dd00016bfb5a","6213d157728b38affd41e3ba","4","","","","","1","6"
"null","","","null","","","","html-keyboard-response","177","454572","0.0-177.0","5a8e2e8faa46dd00016bfb5a","6213d157728b38affd41e3ba","","","","","<p style=""color:darkgreen;font-size:24px;"">Correct :)</p>","",""
"2426","key","v","v","16.666746575342675","500","250","psychophysics","178","457009","0.0-178.0","5a8e2e8faa46dd00016bfb5a","6213d157728b38affd41e3ba","4","","","","","1","4"
"null","","","null","","","","html-keyboard-response","179","457514","0.0-179.0","5a8e2e8faa46dd00016bfb5a","6213d157728b38affd41e3ba","","","","","<p style=""color:darkgreen;font-size:24px;"">Correct :)</p>","",""
"2391","key","n","n","16.667541666666594","500","250","psychophysics","180","459908","0.0-180.0","5a8e2e8faa46dd00016bfb5a","6213d157728b38affd41e3ba","4","","","","","1","7"
"null","","","null","","","","html-keyboard-response","181","460412","0.0-181.0","5a8e2e8faa46dd00016bfb5a","6213d157728b38affd41e3ba","","","","","<p style=""color:darkgreen;font-size:24px;"">Correct :)</p>","",""
"2424","key","n","n","16.668465753424393","500","250","psychophysics","182","462848","0.0-182.0","5a8e2e8faa46dd00016bfb5a","6213d157728b38affd41e3ba","4","","","","","1","7"
"null","","","null","","","","html-keyboard-response","183","463351","0.0-183.0","5a8e2e8faa46dd00016bfb5a","6213d157728b38affd41e3ba","","","","","<p style=""color:darkgreen;font-size:24px;"">Correct :)</p>","",""
"2500","key","v","v","16.66779470198675","500","250","psychophysics","184","465860","0.0-184.0","5a8e2e8faa46dd00016bfb5a","6213d157728b38affd41e3ba","4","","","","","1","2"
"null","","","null","","","","html-keyboard-response","185","466363","0.0-185.0","5a8e2e8faa46dd00016bfb5a","6213d157728b38affd41e3ba","","","","","<p style=""color:darkgreen;font-size:24px;"">Correct :)</p>","",""
"2781","key","n","n","16.66628742514981","500","250","psychophysics","186","469155","0.0-186.0","5a8e2e8faa46dd00016bfb5a","6213d157728b38affd41e3ba","4","","","","","1","9"
"null","","","null","","","","html-keyboard-response","187","469657","0.0-187.0","5a8e2e8faa46dd00016bfb5a","6213d157728b38affd41e3ba","","","","","<p style=""color:darkgreen;font-size:24px;"">Correct :)</p>","",""
"2451","key","v","v","16.66775510204064","500","250","psychophysics","188","472117","0.0-188.0","5a8e2e8faa46dd00016bfb5a","6213d157728b38affd41e3ba","4","","","","","1","2"
"null","","","null","","","","html-keyboard-response","189","472619","0.0-189.0","5a8e2e8faa46dd00016bfb5a","6213d157728b38affd41e3ba","","","","","<p style=""color:darkgreen;font-size:24px;"">Correct :)</p>","",""
"2480","key","n","n","17.008748299319482","500","250","psychophysics","190","475109","0.0-190.0","5a8e2e8faa46dd00016bfb5a","6213d157728b38affd41e3ba","4","","","","","1","6"
"null","","","null","","","","html-keyboard-response","191","475614","0.0-191.0","5a8e2e8faa46dd00016bfb5a","6213d157728b38affd41e3ba","","","","","<p style=""color:darkgreen;font-size:24px;"">Correct :)</p>","",""
"2473","key","v","v","16.66128859060368","500","250","psychophysics","192","478098","0.0-192.0","5a8e2e8faa46dd00016bfb5a","6213d157728b38affd41e3ba","4","","","","","1","2"
"null","","","null","","","","html-keyboard-response","193","478600","0.0-193.0","5a8e2e8faa46dd00016bfb5a","6213d157728b38affd41e3ba","","","","","<p style=""color:darkgreen;font-size:24px;"">Correct :)</p>","",""
"12364","","","n","","","","html-keyboard-response","194","490968","0.0-194.0","5a8e2e8faa46dd00016bfb5a","6213d157728b38affd41e3ba","","","","","<p> Ok, now we are going present the same digits as before.  Your job is to say whether the digit is even or odd  If the digit is odd, press to v key; if it is even, press the n key. We are going to do 50 of these.  </p>  <br><br>  Ready? (press v or n)","",""
"2431","key","n","n","16.670476190476176","500","250","psychophysics","195","493409","0.0-195.0","5a8e2e8faa46dd00016bfb5a","6213d157728b38affd41e3ba","5","","","","","0","4"
"null","","","null","","","","html-keyboard-response","196","493914","0.0-196.0","5a8e2e8faa46dd00016bfb5a","6213d157728b38affd41e3ba","","","","","<p style=""color:darkgreen;font-size:24px;"">Correct :)</p>","",""
"2496","key","n","n","16.664933774834235","500","250","psychophysics","197","496425","0.0-197.0","5a8e2e8faa46dd00016bfb5a","6213d157728b38affd41e3ba","5","","","","","0","6"
"null","","","null","","","","html-keyboard-response","198","496927","0.0-198.0","5a8e2e8faa46dd00016bfb5a","6213d157728b38affd41e3ba","","","","","<p style=""color:darkgreen;font-size:24px;"">Correct :)</p>","",""
"2403","key","v","v","16.668027777777752","500","250","psychophysics","199","499335","0.0-199.0","5a8e2e8faa46dd00016bfb5a","6213d157728b38affd41e3ba","5","","","","","0","7"
"null","","","null","","","","html-keyboard-response","200","499838","0.0-200.0","5a8e2e8faa46dd00016bfb5a","6213d157728b38affd41e3ba","","","","","<p style=""color:darkgreen;font-size:24px;"">Correct :)</p>","",""
"2471","key","n","n","16.66713513513497","500","250","psychophysics","201","502314","0.0-201.0","5a8e2e8faa46dd00016bfb5a","6213d157728b38affd41e3ba","5","","","","","0","2"
"null","","","null","","","","html-keyboard-response","202","502818","0.0-202.0","5a8e2e8faa46dd00016bfb5a","6213d157728b38affd41e3ba","","","","","<p style=""color:darkgreen;font-size:24px;"">Correct :)</p>","",""
"2411","key","v","v","16.66658904109579","500","250","psychophysics","203","505243","0.0-203.0","5a8e2e8faa46dd00016bfb5a","6213d157728b38affd41e3ba","5","","","","","0","1"
"null","","","null","","","","html-keyboard-response","204","505747","0.0-204.0","5a8e2e8faa46dd00016bfb5a","6213d157728b38affd41e3ba","","","","","<p style=""color:darkgreen;font-size:24px;"">Correct :)</p>","",""
"2419","key","n","n","16.66548275862066","500","250","psychophysics","205","508175","0.0-205.0","5a8e2e8faa46dd00016bfb5a","6213d157728b38affd41e3ba","5","","","","","0","6"
"null","","","null","","","","html-keyboard-response","206","508678","0.0-206.0","5a8e2e8faa46dd00016bfb5a","6213d157728b38affd41e3ba","","","","","<p style=""color:darkgreen;font-size:24px;"">Correct :)</p>","",""
"2455","key","v","v","16.6637905405408","500","250","psychophysics","207","511144","0.0-207.0","5a8e2e8faa46dd00016bfb5a","6213d157728b38affd41e3ba","5","","","","","0","9"
"null","","","null","","","","html-keyboard-response","208","511646","0.0-208.0","5a8e2e8faa46dd00016bfb5a","6213d157728b38affd41e3ba","","","","","<p style=""color:darkgreen;font-size:24px;"">Correct :)</p>","",""
"2470","key","v","v","16.778554054053824","500","250","psychophysics","209","514127","0.0-209.0","5a8e2e8faa46dd00016bfb5a","6213d157728b38affd41e3ba","5","","","","","0","3"
"null","","","null","","","","html-keyboard-response","210","514629","0.0-210.0","5a8e2e8faa46dd00016bfb5a","6213d157728b38affd41e3ba","","","","","<p style=""color:darkgreen;font-size:24px;"">Correct :)</p>","",""
"2421","key","n","n","16.666239726027452","500","250","psychophysics","211","517063","0.0-211.0","5a8e2e8faa46dd00016bfb5a","6213d157728b38affd41e3ba","5","","","","","0","6"
"null","","","null","","","","html-keyboard-response","212","517565","0.0-212.0","5a8e2e8faa46dd00016bfb5a","6213d157728b38affd41e3ba","","","","","<p style=""color:darkgreen;font-size:24px;"">Correct :)</p>","",""
"2436","key","n","n","16.66647945205507","500","250","psychophysics","213","520005","0.0-213.0","5a8e2e8faa46dd00016bfb5a","6213d157728b38affd41e3ba","5","","","","","0","4"
"null","","","null","","","","html-keyboard-response","214","520508","0.0-214.0","5a8e2e8faa46dd00016bfb5a","6213d157728b38affd41e3ba","","","","","<p style=""color:darkgreen;font-size:24px;"">Correct :)</p>","",""
"2483","key","v","v","16.668080536912715","500","250","psychophysics","215","523002","0.0-215.0","5a8e2e8faa46dd00016bfb5a","6213d157728b38affd41e3ba","5","","","","","0","1"
"null","","","null","","","","html-keyboard-response","216","523507","0.0-216.0","5a8e2e8faa46dd00016bfb5a","6213d157728b38affd41e3ba","","","","","<p style=""color:darkgreen;font-size:24px;"">Correct :)</p>","",""
"2505","key","v","v","16.667887417218704","500","250","psychophysics","217","526023","0.0-217.0","5a8e2e8faa46dd00016bfb5a","6213d157728b38affd41e3ba","5","","","","","0","7"
"null","","","null","","","","html-keyboard-response","218","526526","0.0-218.0","5a8e2e8faa46dd00016bfb5a","6213d157728b38affd41e3ba","","","","","<p style=""color:darkgreen;font-size:24px;"">Correct :)</p>","",""
"2582","key","v","v","16.666825806451662","500","250","psychophysics","219","529119","0.0-219.0","5a8e2e8faa46dd00016bfb5a","6213d157728b38affd41e3ba","5","","","","","0","7"
"null","","","null","","","","html-keyboard-response","220","529623","0.0-220.0","5a8e2e8faa46dd00016bfb5a","6213d157728b38affd41e3ba","","","","","<p style=""color:darkgreen;font-size:24px;"">Correct :)</p>","",""
"2451","key","n","n","16.66643537414976","500","250","psychophysics","221","532086","0.0-221.0","5a8e2e8faa46dd00016bfb5a","6213d157728b38affd41e3ba","5","","","","","0","4"
"null","","","null","","","","html-keyboard-response","222","532592","0.0-222.0","5a8e2e8faa46dd00016bfb5a","6213d157728b38affd41e3ba","","","","","<p style=""color:darkgreen;font-size:24px;"">Correct :)</p>","",""
"2468","key","n","n","16.66780536912769","500","250","psychophysics","223","535077","0.0-223.0","5a8e2e8faa46dd00016bfb5a","6213d157728b38affd41e3ba","5","","","","","0","2"
"null","","","null","","","","html-keyboard-response","224","535580","0.0-224.0","5a8e2e8faa46dd00016bfb5a","6213d157728b38affd41e3ba","","","","","<p style=""color:darkgreen;font-size:24px;"">Correct :)</p>","",""
"2422","key","v","v","16.66787671232883","500","250","psychophysics","225","538014","0.0-225.0","5a8e2e8faa46dd00016bfb5a","6213d157728b38affd41e3ba","5","","","","","0","3"
"null","","","null","","","","html-keyboard-response","226","538516","0.0-226.0","5a8e2e8faa46dd00016bfb5a","6213d157728b38affd41e3ba","","","","","<p style=""color:darkgreen;font-size:24px;"">Correct :)</p>","",""
"2450","key","v","v","16.896568493150518","500","250","psychophysics","227","540977","0.0-227.0","5a8e2e8faa46dd00016bfb5a","6213d157728b38affd41e3ba","5","","","","","0","7"
"null","","","null","","","","html-keyboard-response","228","541480","0.0-228.0","5a8e2e8faa46dd00016bfb5a","6213d157728b38affd41e3ba","","","","","<p style=""color:darkgreen;font-size:24px;"">Correct :)</p>","",""
"2405","key","n","n","16.668586206897","500","250","psychophysics","229","543894","0.0-229.0","5a8e2e8faa46dd00016bfb5a","6213d157728b38affd41e3ba","5","","","","","0","4"
"null","","","null","","","","html-keyboard-response","230","544399","0.0-230.0","5a8e2e8faa46dd00016bfb5a","6213d157728b38affd41e3ba","","","","","<p style=""color:darkgreen;font-size:24px;"">Correct :)</p>","",""
"2476","key","n","n","16.667273333333434","500","250","psychophysics","231","546894","0.0-231.0","5a8e2e8faa46dd00016bfb5a","6213d157728b38affd41e3ba","5","","","","","0","8"
"null","","","null","","","","html-keyboard-response","232","547398","0.0-232.0","5a8e2e8faa46dd00016bfb5a","6213d157728b38affd41e3ba","","","","","<p style=""color:darkgreen;font-size:24px;"">Correct :)</p>","",""
"2405","key","n","n","16.66809655172381","500","250","psychophysics","233","549816","0.0-233.0","5a8e2e8faa46dd00016bfb5a","6213d157728b38affd41e3ba","5","","","","","0","8"
"null","","","null","","","","html-keyboard-response","234","550322","0.0-234.0","5a8e2e8faa46dd00016bfb5a","6213d157728b38affd41e3ba","","","","","<p style=""color:darkgreen;font-size:24px;"">Correct :)</p>","",""
"2426","key","v","v","16.666482758620788","500","250","psychophysics","235","552752","0.0-235.0","5a8e2e8faa46dd00016bfb5a","6213d157728b38affd41e3ba","5","","","","","0","3"
"null","","","null","","","","html-keyboard-response","236","553258","0.0-236.0","5a8e2e8faa46dd00016bfb5a","6213d157728b38affd41e3ba","","","","","<p style=""color:darkgreen;font-size:24px;"">Correct :)</p>","",""
"2490","key","n","n","16.666866666666852","500","250","psychophysics","237","555760","0.0-237.0","5a8e2e8faa46dd00016bfb5a","6213d157728b38affd41e3ba","5","","","","","0","4"
"null","","","null","","","","html-keyboard-response","238","556262","0.0-238.0","5a8e2e8faa46dd00016bfb5a","6213d157728b38affd41e3ba","","","","","<p style=""color:darkgreen;font-size:24px;"">Correct :)</p>","",""
"2479","key","v","v","16.665583892617587","500","250","psychophysics","239","558745","0.0-239.0","5a8e2e8faa46dd00016bfb5a","6213d157728b38affd41e3ba","5","","","","","0","3"
"null","","","null","","","","html-keyboard-response","240","559256","0.0-240.0","5a8e2e8faa46dd00016bfb5a","6213d157728b38affd41e3ba","","","","","<p style=""color:darkgreen;font-size:24px;"">Correct :)</p>","",""
"2497","key","v","v","16.667740000000535","500","250","psychophysics","241","561758","0.0-241.0","5a8e2e8faa46dd00016bfb5a","6213d157728b38affd41e3ba","5","","","","","0","1"
"null","","","null","","","","html-keyboard-response","242","562270","0.0-242.0","5a8e2e8faa46dd00016bfb5a","6213d157728b38affd41e3ba","","","","","<p style=""color:darkgreen;font-size:24px;"">Correct :)</p>","",""
"2506","key","v","v","16.666251655629473","500","250","psychophysics","243","564784","0.0-243.0","5a8e2e8faa46dd00016bfb5a","6213d157728b38affd41e3ba","5","","","","","0","9"
"null","","","null","","","","html-keyboard-response","244","565299","0.0-244.0","5a8e2e8faa46dd00016bfb5a","6213d157728b38affd41e3ba","","","","","<p style=""color:darkgreen;font-size:24px;"">Correct :)</p>","",""
"2422","key","v","v","16.67306849315096","500","250","psychophysics","245","567728","0.0-245.0","5a8e2e8faa46dd00016bfb5a","6213d157728b38affd41e3ba","5","","","","","0","1"
"null","","","null","","","","html-keyboard-response","246","568232","0.0-246.0","5a8e2e8faa46dd00016bfb5a","6213d157728b38affd41e3ba","","","","","<p style=""color:darkgreen;font-size:24px;"">Correct :)</p>","",""
"2402","key","n","n","16.66795138888847","500","250","psychophysics","247","570637","0.0-247.0","5a8e2e8faa46dd00016bfb5a","6213d157728b38affd41e3ba","5","","","","","0","3"
"null","","","null","","","","html-keyboard-response","248","571140","0.0-248.0","5a8e2e8faa46dd00016bfb5a","6213d157728b38affd41e3ba","","","","","<p style=""color:red;font-size:24px;"">Error :(</p>","",""
"2447","key","v","v","16.66651700680274","500","250","psychophysics","249","573595","0.0-249.0","5a8e2e8faa46dd00016bfb5a","6213d157728b38affd41e3ba","5","","","","","0","3"
"null","","","null","","","","html-keyboard-response","250","574096","0.0-250.0","5a8e2e8faa46dd00016bfb5a","6213d157728b38affd41e3ba","","","","","<p style=""color:darkgreen;font-size:24px;"">Correct :)</p>","",""
"2408","key","n","n","16.668409722222552","500","250","psychophysics","251","576507","0.0-251.0","5a8e2e8faa46dd00016bfb5a","6213d157728b38affd41e3ba","5","","","","","0","8"
"null","","","null","","","","html-keyboard-response","252","577010","0.0-252.0","5a8e2e8faa46dd00016bfb5a","6213d157728b38affd41e3ba","","","","","<p style=""color:darkgreen;font-size:24px;"">Correct :)</p>","",""
"2623","key","n","n","16.772388535031936","500","250","psychophysics","253","579643","0.0-253.0","5a8e2e8faa46dd00016bfb5a","6213d157728b38affd41e3ba","5","","","","","0","6"
"null","","","null","","","","html-keyboard-response","254","580144","0.0-254.0","5a8e2e8faa46dd00016bfb5a","6213d157728b38affd41e3ba","","","","","<p style=""color:darkgreen;font-size:24px;"">Correct :)</p>","",""
"2551","key","v","v","16.6670779220778","500","250","psychophysics","255","582709","0.0-255.0","5a8e2e8faa46dd00016bfb5a","6213d157728b38affd41e3ba","5","","","","","0","3"
"null","","","null","","","","html-keyboard-response","256","583212","0.0-256.0","5a8e2e8faa46dd00016bfb5a","6213d157728b38affd41e3ba","","","","","<p style=""color:darkgreen;font-size:24px;"">Correct :)</p>","",""
"2439","key","v","v","16.66784353741543","500","250","psychophysics","257","585665","0.0-257.0","5a8e2e8faa46dd00016bfb5a","6213d157728b38affd41e3ba","5","","","","","0","1"
"null","","","null","","","","html-keyboard-response","258","586176","0.0-258.0","5a8e2e8faa46dd00016bfb5a","6213d157728b38affd41e3ba","","","","","<p style=""color:darkgreen;font-size:24px;"">Correct :)</p>","",""
"2466","key","n","n","16.665945945946323","500","250","psychophysics","259","588651","0.0-259.0","5a8e2e8faa46dd00016bfb5a","6213d157728b38affd41e3ba","5","","","","","0","8"
"null","","","null","","","","html-keyboard-response","260","589161","0.0-260.0","5a8e2e8faa46dd00016bfb5a","6213d157728b38affd41e3ba","","","","","<p style=""color:darkgreen;font-size:24px;"">Correct :)</p>","",""
"2526","key","v","v","16.66738410596042","500","250","psychophysics","261","591692","0.0-261.0","5a8e2e8faa46dd00016bfb5a","6213d157728b38affd41e3ba","5","","","","","0","7"
"null","","","null","","","","html-keyboard-response","262","592197","0.0-262.0","5a8e2e8faa46dd00016bfb5a","6213d157728b38affd41e3ba","","","","","<p style=""color:darkgreen;font-size:24px;"">Correct :)</p>","",""
"2476","key","v","v","16.66837583892688","500","250","psychophysics","263","594684","0.0-263.0","5a8e2e8faa46dd00016bfb5a","6213d157728b38affd41e3ba","5","","","","","0","3"
"null","","","null","","","","html-keyboard-response","264","595187","0.0-264.0","5a8e2e8faa46dd00016bfb5a","6213d157728b38affd41e3ba","","","","","<p style=""color:darkgreen;font-size:24px;"">Correct :)</p>","",""
"2488","key","v","v","16.668496644295494","500","250","psychophysics","265","597689","0.0-265.0","5a8e2e8faa46dd00016bfb5a","6213d157728b38affd41e3ba","5","","","","","0","1"
"null","","","null","","","","html-keyboard-response","266","598194","0.0-266.0","5a8e2e8faa46dd00016bfb5a","6213d157728b38affd41e3ba","","","","","<p style=""color:darkgreen;font-size:24px;"">Correct :)</p>","",""
"2433","key","n","n","16.66636301369856","500","250","psychophysics","267","600630","0.0-267.0","5a8e2e8faa46dd00016bfb5a","6213d157728b38affd41e3ba","5","","","","","0","2"
"null","","","null","","","","html-keyboard-response","268","601133","0.0-268.0","5a8e2e8faa46dd00016bfb5a","6213d157728b38affd41e3ba","","","","","<p style=""color:darkgreen;font-size:24px;"">Correct :)</p>","",""
"2506","key","n","n","16.665715231788376","500","250","psychophysics","269","603645","0.0-269.0","5a8e2e8faa46dd00016bfb5a","6213d157728b38affd41e3ba","5","","","","","0","4"
"null","","","null","","","","html-keyboard-response","270","604147","0.0-270.0","5a8e2e8faa46dd00016bfb5a","6213d157728b38affd41e3ba","","","","","<p style=""color:darkgreen;font-size:24px;"">Correct :)</p>","",""
"2439","key","v","v","16.666609589041574","500","250","psychophysics","271","606590","0.0-271.0","5a8e2e8faa46dd00016bfb5a","6213d157728b38affd41e3ba","5","","","","","0","3"
"null","","","null","","","","html-keyboard-response","272","607095","0.0-272.0","5a8e2e8faa46dd00016bfb5a","6213d157728b38affd41e3ba","","","","","<p style=""color:darkgreen;font-size:24px;"">Correct :)</p>","",""
"2424","key","v","v","16.68500684931466","500","250","psychophysics","273","609531","0.0-273.0","5a8e2e8faa46dd00016bfb5a","6213d157728b38affd41e3ba","5","","","","","0","1"
"null","","","null","","","","html-keyboard-response","274","610036","0.0-274.0","5a8e2e8faa46dd00016bfb5a","6213d157728b38affd41e3ba","","","","","<p style=""color:darkgreen;font-size:24px;"">Correct :)</p>","",""
"2414","key","v","v","16.66594482758564","500","250","psychophysics","275","612455","0.0-275.0","5a8e2e8faa46dd00016bfb5a","6213d157728b38affd41e3ba","5","","","","","0","3"
"null","","","null","","","","html-keyboard-response","276","612960","0.0-276.0","5a8e2e8faa46dd00016bfb5a","6213d157728b38affd41e3ba","","","","","<p style=""color:darkgreen;font-size:24px;"">Correct :)</p>","",""
"2381","key","v","v","16.6663286713289","500","250","psychophysics","277","615355","0.0-277.0","5a8e2e8faa46dd00016bfb5a","6213d157728b38affd41e3ba","5","","","","","0","3"
"null","","","null","","","","html-keyboard-response","278","615858","0.0-278.0","5a8e2e8faa46dd00016bfb5a","6213d157728b38affd41e3ba","","","","","<p style=""color:darkgreen;font-size:24px;"">Correct :)</p>","",""
"2597","key","n","n","16.665487179487126","500","250","psychophysics","279","618466","0.0-279.0","5a8e2e8faa46dd00016bfb5a","6213d157728b38affd41e3ba","5","","","","","0","6"
"null","","","null","","","","html-keyboard-response","280","618968","0.0-280.0","5a8e2e8faa46dd00016bfb5a","6213d157728b38affd41e3ba","","","","","<p style=""color:darkgreen;font-size:24px;"">Correct :)</p>","",""
"2453","key","v","v","16.67048299319719","500","250","psychophysics","281","621427","0.0-281.0","5a8e2e8faa46dd00016bfb5a","6213d157728b38affd41e3ba","5","","","","","0","9"
"null","","","null","","","","html-keyboard-response","282","621931","0.0-282.0","5a8e2e8faa46dd00016bfb5a","6213d157728b38affd41e3ba","","","","","<p style=""color:darkgreen;font-size:24px;"">Correct :)</p>","",""
"2447","key","n","n","16.667312925169878","500","250","psychophysics","283","624389","0.0-283.0","5a8e2e8faa46dd00016bfb5a","6213d157728b38affd41e3ba","5","","","","","0","4"
"null","","","null","","","","html-keyboard-response","284","624890","0.0-284.0","5a8e2e8faa46dd00016bfb5a","6213d157728b38affd41e3ba","","","","","<p style=""color:darkgreen;font-size:24px;"">Correct :)</p>","",""
"2449","key","v","v","16.667639455782584","500","250","psychophysics","285","627345","0.0-285.0","5a8e2e8faa46dd00016bfb5a","6213d157728b38affd41e3ba","5","","","","","0","9"
"null","","","null","","","","html-keyboard-response","286","627848","0.0-286.0","5a8e2e8faa46dd00016bfb5a","6213d157728b38affd41e3ba","","","","","<p style=""color:darkgreen;font-size:24px;"">Correct :)</p>","",""
"2445","key","n","n","16.666857142856685","500","250","psychophysics","287","630305","0.0-287.0","5a8e2e8faa46dd00016bfb5a","6213d157728b38affd41e3ba","5","","","","","0","4"
"null","","","null","","","","html-keyboard-response","288","630818","0.0-288.0","5a8e2e8faa46dd00016bfb5a","6213d157728b38affd41e3ba","","","","","<p style=""color:darkgreen;font-size:24px;"">Correct :)</p>","",""
"2482","key","n","n","16.77844966442993","500","250","psychophysics","289","633309","0.0-289.0","5a8e2e8faa46dd00016bfb5a","6213d157728b38affd41e3ba","5","","","","","0","8"
"null","","","null","","","","html-keyboard-response","290","633812","0.0-290.0","5a8e2e8faa46dd00016bfb5a","6213d157728b38affd41e3ba","","","","","<p style=""color:darkgreen;font-size:24px;"">Correct :)</p>","",""
"2375","key","v","v","17.012111111110748","500","250","psychophysics","291","636263","0.0-291.0","5a8e2e8faa46dd00016bfb5a","6213d157728b38affd41e3ba","5","","","","","0","3"
"null","","","null","","","","html-keyboard-response","292","636772","0.0-292.0","5a8e2e8faa46dd00016bfb5a","6213d157728b38affd41e3ba","","","","","<p style=""color:darkgreen;font-size:24px;"">Correct :)</p>","",""
"2476","key","v","v","16.670825503355566","500","250","psychophysics","293","639261","0.0-293.0","5a8e2e8faa46dd00016bfb5a","6213d157728b38affd41e3ba","5","","","","","0","7"
"null","","","null","","","","html-keyboard-response","294","639768","0.0-294.0","5a8e2e8faa46dd00016bfb5a","6213d157728b38affd41e3ba","","","","","<p style=""color:darkgreen;font-size:24px;"">Correct :)</p>","",""
"16529","","","v","","","","html-keyboard-response","295","656302","0.0-295.0","5a8e2e8faa46dd00016bfb5a","6213d157728b38affd41e3ba","","","","","<p> Here, the tasks are going to switch.  For some trials, your job is to decide if the digit is less than or greater than 5.  For others, it is to decide if the digit is even or odd.  You will be told which type of trial the current one is.  But, pay attention, the type of trial changes too.  We are going to do 50 of these.  </p>  <br><br>  Ready? (press v or n)","",""
"2493","key","n","n","16.668093333333577","500","250","psychophysics","296","658803","0.0-296.0","5a8e2e8faa46dd00016bfb5a","6213d157728b38affd41e3ba","6","","","","","0","4"
"null","","","null","","","","html-keyboard-response","297","659310","0.0-297.0","5a8e2e8faa46dd00016bfb5a","6213d157728b38affd41e3ba","","","","","<p style=""color:darkgreen;font-size:24px;"">Correct :)</p>","",""
"2501","key","n","n","16.666480000000448","500","250","psychophysics","298","661816","0.0-298.0","5a8e2e8faa46dd00016bfb5a","6213d157728b38affd41e3ba","6","","","","","0","6"
"null","","","null","","","","html-keyboard-response","299","662318","0.0-299.0","5a8e2e8faa46dd00016bfb5a","6213d157728b38affd41e3ba","","","","","<p style=""color:darkgreen;font-size:24px;"">Correct :)</p>","",""
"2440","key","n","n","16.667462585033803","500","250","psychophysics","300","664769","0.0-300.0","5a8e2e8faa46dd00016bfb5a","6213d157728b38affd41e3ba","6","","","","","1","8"
"null","","","null","","","","html-keyboard-response","301","665275","0.0-301.0","5a8e2e8faa46dd00016bfb5a","6213d157728b38affd41e3ba","","","","","<p style=""color:darkgreen;font-size:24px;"">Correct :)</p>","",""
"2584","key","n","n","16.6672709677421","500","250","psychophysics","302","667863","0.0-302.0","5a8e2e8faa46dd00016bfb5a","6213d157728b38affd41e3ba","6","","","","","0","2"
"null","","","null","","","","html-keyboard-response","303","668366","0.0-303.0","5a8e2e8faa46dd00016bfb5a","6213d157728b38affd41e3ba","","","","","<p style=""color:darkgreen;font-size:24px;"">Correct :)</p>","",""
"2367","key","v","v","16.667272727272206","500","250","psychophysics","304","670746","0.0-304.0","5a8e2e8faa46dd00016bfb5a","6213d157728b38affd41e3ba","6","","","","","1","3"
"null","","","null","","","","html-keyboard-response","305","671250","0.0-305.0","5a8e2e8faa46dd00016bfb5a","6213d157728b38affd41e3ba","","","","","<p style=""color:darkgreen;font-size:24px;"">Correct :)</p>","",""
"2442","key","n","n","16.666020408163455","500","250","psychophysics","306","673703","0.0-306.0","5a8e2e8faa46dd00016bfb5a","6213d157728b38affd41e3ba","6","","","","","1","4"
"null","","","null","","","","html-keyboard-response","307","674211","0.0-307.0","5a8e2e8faa46dd00016bfb5a","6213d157728b38affd41e3ba","","","","","<p style=""color:red;font-size:24px;"">Error :(</p>","",""
"2488","key","n","n","16.77832885905975","500","250","psychophysics","308","676713","0.0-308.0","5a8e2e8faa46dd00016bfb5a","6213d157728b38affd41e3ba","6","","","","","0","4"
"null","","","null","","","","html-keyboard-response","309","677216","0.0-309.0","5a8e2e8faa46dd00016bfb5a","6213d157728b38affd41e3ba","","","","","<p style=""color:darkgreen;font-size:24px;"">Correct :)</p>","",""
"2357","key","n","n","16.66658741258772","500","250","psychophysics","310","679592","0.0-310.0","5a8e2e8faa46dd00016bfb5a","6213d157728b38affd41e3ba","6","","","","","0","4"
"null","","","null","","","","html-keyboard-response","311","680103","0.0-311.0","5a8e2e8faa46dd00016bfb5a","6213d157728b38affd41e3ba","","","","","<p style=""color:darkgreen;font-size:24px;"">Correct :)</p>","",""
"2442","key","n","n","16.781184931506548","500","250","psychophysics","312","682557","0.0-312.0","5a8e2e8faa46dd00016bfb5a","6213d157728b38affd41e3ba","6","","","","","0","8"
"null","","","null","","","","html-keyboard-response","313","683062","0.0-313.0","5a8e2e8faa46dd00016bfb5a","6213d157728b38affd41e3ba","","","","","<p style=""color:darkgreen;font-size:24px;"">Correct :)</p>","",""
"2400","key","n","n","16.667999999999463","500","250","psychophysics","314","685468","0.0-314.0","5a8e2e8faa46dd00016bfb5a","6213d157728b38affd41e3ba","6","","","","","0","8"
"null","","","null","","","","html-keyboard-response","315","685971","0.0-315.0","5a8e2e8faa46dd00016bfb5a","6213d157728b38affd41e3ba","","","","","<p style=""color:darkgreen;font-size:24px;"">Correct :)</p>","",""
"2366","key","n","n","16.667262411347743","500","250","psychophysics","316","688340","0.0-316.0","5a8e2e8faa46dd00016bfb5a","6213d157728b38affd41e3ba","6","","","","","0","8"
"null","","","null","","","","html-keyboard-response","317","688845","0.0-317.0","5a8e2e8faa46dd00016bfb5a","6213d157728b38affd41e3ba","","","","","<p style=""color:darkgreen;font-size:24px;"">Correct :)</p>","",""
"2504","key","n","n","16.667006622516514","500","250","psychophysics","318","691360","0.0-318.0","5a8e2e8faa46dd00016bfb5a","6213d157728b38affd41e3ba","6","","","","","1","9"
"null","","","null","","","","html-keyboard-response","319","691873","0.0-319.0","5a8e2e8faa46dd00016bfb5a","6213d157728b38affd41e3ba","","","","","<p style=""color:darkgreen;font-size:24px;"">Correct :)</p>","",""
"2414","key","v","v","16.667220689654993","500","250","psychophysics","320","694297","0.0-320.0","5a8e2e8faa46dd00016bfb5a","6213d157728b38affd41e3ba","6","","","","","1","3"
"null","","","null","","","","html-keyboard-response","321","694799","0.0-321.0","5a8e2e8faa46dd00016bfb5a","6213d157728b38affd41e3ba","","","","","<p style=""color:darkgreen;font-size:24px;"">Correct :)</p>","",""
"2538","key","n","n","16.667470588235435","500","250","psychophysics","322","697348","0.0-322.0","5a8e2e8faa46dd00016bfb5a","6213d157728b38affd41e3ba","6","","","","","0","4"
"null","","","null","","","","html-keyboard-response","323","697852","0.0-323.0","5a8e2e8faa46dd00016bfb5a","6213d157728b38affd41e3ba","","","","","<p style=""color:darkgreen;font-size:24px;"">Correct :)</p>","",""
"2488","key","n","n","16.89323648648585","500","250","psychophysics","324","700355","0.0-324.0","5a8e2e8faa46dd00016bfb5a","6213d157728b38affd41e3ba","6","","","","","1","8"
"null","","","null","","","","html-keyboard-response","325","700862","0.0-325.0","5a8e2e8faa46dd00016bfb5a","6213d157728b38affd41e3ba","","","","","<p style=""color:darkgreen;font-size:24px;"">Correct :)</p>","",""
"2452","key","n","n","16.666574324324657","500","250","psychophysics","326","703327","0.0-326.0","5a8e2e8faa46dd00016bfb5a","6213d157728b38affd41e3ba","6","","","","","1","9"
"null","","","null","","","","html-keyboard-response","327","703831","0.0-327.0","5a8e2e8faa46dd00016bfb5a","6213d157728b38affd41e3ba","","","","","<p style=""color:darkgreen;font-size:24px;"">Correct :)</p>","",""
"2552","key","n","n","16.666701298701433","500","250","psychophysics","328","706395","0.0-328.0","5a8e2e8faa46dd00016bfb5a","6213d157728b38affd41e3ba","6","","","","","0","6"
"null","","","null","","","","html-keyboard-response","329","706896","0.0-329.0","5a8e2e8faa46dd00016bfb5a","6213d157728b38affd41e3ba","","","","","<p style=""color:darkgreen;font-size:24px;"">Correct :)</p>","",""
"2452","key","v","v","16.667401360544268","500","250","psychophysics","330","709359","0.0-330.0","5a8e2e8faa46dd00016bfb5a","6213d157728b38affd41e3ba","6","","","","","1","1"
"null","","","null","","","","html-keyboard-response","331","709873","0.0-331.0","5a8e2e8faa46dd00016bfb5a","6213d157728b38affd41e3ba","","","","","<p style=""color:darkgreen;font-size:24px;"">Correct :)</p>","",""
"2499","key","n","n","16.66725333333326","500","250","psychophysics","332","712379","0.0-332.0","5a8e2e8faa46dd00016bfb5a","6213d157728b38affd41e3ba","6","","","","","0","2"
"null","","","null","","","","html-keyboard-response","333","712884","0.0-333.0","5a8e2e8faa46dd00016bfb5a","6213d157728b38affd41e3ba","","","","","<p style=""color:darkgreen;font-size:24px;"">Correct :)</p>","",""
"2464","key","v","v","16.66627516778539","500","250","psychophysics","334","715358","0.0-334.0","5a8e2e8faa46dd00016bfb5a","6213d157728b38affd41e3ba","6","","","","","1","1"
"null","","","null","","","","html-keyboard-response","335","715875","0.0-335.0","5a8e2e8faa46dd00016bfb5a","6213d157728b38affd41e3ba","","","","","<p style=""color:darkgreen;font-size:24px;"">Correct :)</p>","",""
"2635","key","v","v","16.66714556962016","500","250","psychophysics","336","718518","0.0-336.0","5a8e2e8faa46dd00016bfb5a","6213d157728b38affd41e3ba","6","","","","","1","4"
"null","","","null","","","","html-keyboard-response","337","719021","0.0-337.0","5a8e2e8faa46dd00016bfb5a","6213d157728b38affd41e3ba","","","","","<p style=""color:darkgreen;font-size:24px;"">Correct :)</p>","",""
"2396","key","v","v","16.667265734265694","500","250","psychophysics","338","721425","0.0-338.0","5a8e2e8faa46dd00016bfb5a","6213d157728b38affd41e3ba","6","","","","","0","3"
"null","","","null","","","","html-keyboard-response","339","721927","0.0-339.0","5a8e2e8faa46dd00016bfb5a","6213d157728b38affd41e3ba","","","","","<p style=""color:darkgreen;font-size:24px;"">Correct :)</p>","",""
"2450","key","v","v","16.781575342465658","500","250","psychophysics","340","724388","0.0-340.0","5a8e2e8faa46dd00016bfb5a","6213d157728b38affd41e3ba","6","","","","","1","1"
"null","","","null","","","","html-keyboard-response","341","724891","0.0-341.0","5a8e2e8faa46dd00016bfb5a","6213d157728b38affd41e3ba","","","","","<p style=""color:darkgreen;font-size:24px;"">Correct :)</p>","",""
"2492","key","n","n","16.666493333332863","500","250","psychophysics","342","727396","0.0-342.0","5a8e2e8faa46dd00016bfb5a","6213d157728b38affd41e3ba","6","","","","","0","4"
"null","","","null","","","","html-keyboard-response","343","727912","0.0-343.0","5a8e2e8faa46dd00016bfb5a","6213d157728b38affd41e3ba","","","","","<p style=""color:darkgreen;font-size:24px;"">Correct :)</p>","",""
"2500","key","n","n","16.670906666667044","500","250","psychophysics","344","730425","0.0-344.0","5a8e2e8faa46dd00016bfb5a","6213d157728b38affd41e3ba","6","","","","","0","2"
"null","","","null","","","","html-keyboard-response","345","730935","0.0-345.0","5a8e2e8faa46dd00016bfb5a","6213d157728b38affd41e3ba","","","","","<p style=""color:darkgreen;font-size:24px;"">Correct :)</p>","",""
"2509","key","v","v","16.668516556291365","500","250","psychophysics","346","733456","0.0-346.0","5a8e2e8faa46dd00016bfb5a","6213d157728b38affd41e3ba","6","","","","","0","7"
"null","","","null","","","","html-keyboard-response","347","733958","0.0-347.0","5a8e2e8faa46dd00016bfb5a","6213d157728b38affd41e3ba","","","","","<p style=""color:darkgreen;font-size:24px;"">Correct :)</p>","",""
"2503","key","v","v","16.667073333334024","500","250","psychophysics","348","736465","0.0-348.0","5a8e2e8faa46dd00016bfb5a","6213d157728b38affd41e3ba","6","","","","","0","1"
"null","","","null","","","","html-keyboard-response","349","736967","0.0-349.0","5a8e2e8faa46dd00016bfb5a","6213d157728b38affd41e3ba","","","","","<p style=""color:darkgreen;font-size:24px;"">Correct :)</p>","",""
"2465","key","n","n","16.66666216216195","500","250","psychophysics","350","739435","0.0-350.0","5a8e2e8faa46dd00016bfb5a","6213d157728b38affd41e3ba","6","","","","","1","8"
"null","","","null","","","","html-keyboard-response","351","739938","0.0-351.0","5a8e2e8faa46dd00016bfb5a","6213d157728b38affd41e3ba","","","","","<p style=""color:darkgreen;font-size:24px;"">Correct :)</p>","",""
"2440","key","n","n","16.781924657534","500","250","psychophysics","352","742386","0.0-352.0","5a8e2e8faa46dd00016bfb5a","6213d157728b38affd41e3ba","6","","","","","0","6"
"null","","","null","","","","html-keyboard-response","353","742893","0.0-353.0","5a8e2e8faa46dd00016bfb5a","6213d157728b38affd41e3ba","","","","","<p style=""color:darkgreen;font-size:24px;"">Correct :)</p>","",""
"2533","key","n","n","16.667210526315582","500","250","psychophysics","354","745436","0.0-354.0","5a8e2e8faa46dd00016bfb5a","6213d157728b38affd41e3ba","6","","","","","1","4"
"null","","","null","","","","html-keyboard-response","355","745938","0.0-355.0","5a8e2e8faa46dd00016bfb5a","6213d157728b38affd41e3ba","","","","","<p style=""color:red;font-size:24px;"">Error :(</p>","",""
"2401","key","v","v","16.781722222222015","500","250","psychophysics","356","748346","0.0-356.0","5a8e2e8faa46dd00016bfb5a","6213d157728b38affd41e3ba","6","","","","","0","1"
"null","","","null","","","","html-keyboard-response","357","748860","0.0-357.0","5a8e2e8faa46dd00016bfb5a","6213d157728b38affd41e3ba","","","","","<p style=""color:darkgreen;font-size:24px;"">Correct :)</p>","",""
"2352","key","v","v","17.137225352112914","500","250","psychophysics","358","751303","0.0-358.0","5a8e2e8faa46dd00016bfb5a","6213d157728b38affd41e3ba","6","","","","","1","1"
"null","","","null","","","","html-keyboard-response","359","751809","0.0-359.0","5a8e2e8faa46dd00016bfb5a","6213d157728b38affd41e3ba","","","","","<p style=""color:darkgreen;font-size:24px;"">Correct :)</p>","",""
"2576","key","n","n","16.66847741935447","500","250","psychophysics","360","754397","0.0-360.0","5a8e2e8faa46dd00016bfb5a","6213d157728b38affd41e3ba","6","","","","","1","8"
"null","","","null","","","","html-keyboard-response","361","754899","0.0-361.0","5a8e2e8faa46dd00016bfb5a","6213d157728b38affd41e3ba","","","","","<p style=""color:darkgreen;font-size:24px;"">Correct :)</p>","",""
"2684","key","v","v","16.668043209876533","500","250","psychophysics","362","757595","0.0-362.0","5a8e2e8faa46dd00016bfb5a","6213d157728b38affd41e3ba","6","","","","","1","4"
"null","","","null","","","","html-keyboard-response","363","758100","0.0-363.0","5a8e2e8faa46dd00016bfb5a","6213d157728b38affd41e3ba","","","","","<p style=""color:darkgreen;font-size:24px;"">Correct :)</p>","",""
"2443","key","n","n","16.66831292517065","500","250","psychophysics","364","760555","0.0-364.0","5a8e2e8faa46dd00016bfb5a","6213d157728b38affd41e3ba","6","","","","","1","7"
"null","","","null","","","","html-keyboard-response","365","761063","0.0-365.0","5a8e2e8faa46dd00016bfb5a","6213d157728b38affd41e3ba","","","","","<p style=""color:darkgreen;font-size:24px;"">Correct :)</p>","",""
"2861","key","n","n","16.66689534883724","500","250","psychophysics","366","763934","0.0-366.0","5a8e2e8faa46dd00016bfb5a","6213d157728b38affd41e3ba","6","","","","","1","6"
"null","","","null","","","","html-keyboard-response","367","764438","0.0-367.0","5a8e2e8faa46dd00016bfb5a","6213d157728b38affd41e3ba","","","","","<p style=""color:darkgreen;font-size:24px;"">Correct :)</p>","",""
"2482","key","v","v","16.577925170067743","500","250","psychophysics","368","766926","0.0-368.0","5a8e2e8faa46dd00016bfb5a","6213d157728b38affd41e3ba","6","","","","","1","2"
"null","","","null","","","","html-keyboard-response","369","767431","0.0-369.0","5a8e2e8faa46dd00016bfb5a","6213d157728b38affd41e3ba","","","","","<p style=""color:darkgreen;font-size:24px;"">Correct :)</p>","",""
"2470","key","v","v","16.66686486486484","500","250","psychophysics","370","769907","0.0-370.0","5a8e2e8faa46dd00016bfb5a","6213d157728b38affd41e3ba","6","","","","","0","9"
"null","","","null","","","","html-keyboard-response","371","770413","0.0-371.0","5a8e2e8faa46dd00016bfb5a","6213d157728b38affd41e3ba","","","","","<p style=""color:darkgreen;font-size:24px;"">Correct :)</p>","",""
"2475","key","v","v","16.66759731543669","500","250","psychophysics","372","772898","0.0-372.0","5a8e2e8faa46dd00016bfb5a","6213d157728b38affd41e3ba","6","","","","","0","9"
"null","","","null","","","","html-keyboard-response","373","773413","0.0-373.0","5a8e2e8faa46dd00016bfb5a","6213d157728b38affd41e3ba","","","","","<p style=""color:darkgreen;font-size:24px;"">Correct :)</p>","",""
"2501","key","n","n","17.00640136054416","500","250","psychophysics","374","775925","0.0-374.0","5a8e2e8faa46dd00016bfb5a","6213d157728b38affd41e3ba","6","","","","","1","7"
"null","","","null","","","","html-keyboard-response","375","776430","0.0-375.0","5a8e2e8faa46dd00016bfb5a","6213d157728b38affd41e3ba","","","","","<p style=""color:darkgreen;font-size:24px;"">Correct :)</p>","",""
"2434","key","v","v","16.665482993197287","500","250","psychophysics","376","778877","0.0-376.0","5a8e2e8faa46dd00016bfb5a","6213d157728b38affd41e3ba","6","","","","","1","2"
"null","","","null","","","","html-keyboard-response","377","779380","0.0-377.0","5a8e2e8faa46dd00016bfb5a","6213d157728b38affd41e3ba","","","","","<p style=""color:darkgreen;font-size:24px;"">Correct :)</p>","",""
"2432","key","n","n","16.667191780821344","500","250","psychophysics","378","781825","0.0-378.0","5a8e2e8faa46dd00016bfb5a","6213d157728b38affd41e3ba","6","","","","","0","4"
"null","","","null","","","","html-keyboard-response","379","782334","0.0-379.0","5a8e2e8faa46dd00016bfb5a","6213d157728b38affd41e3ba","","","","","<p style=""color:darkgreen;font-size:24px;"">Correct :)</p>","",""
"2584","key","n","n","16.675044871794316","500","250","psychophysics","380","784929","0.0-380.0","5a8e2e8faa46dd00016bfb5a","6213d157728b38affd41e3ba","6","","","","","0","2"
"null","","","null","","","","html-keyboard-response","381","785432","0.0-381.0","5a8e2e8faa46dd00016bfb5a","6213d157728b38affd41e3ba","","","","","<p style=""color:darkgreen;font-size:24px;"">Correct :)</p>","",""
"2408","key","n","n","16.665820689655135","500","250","psychophysics","382","787852","0.0-382.0","5a8e2e8faa46dd00016bfb5a","6213d157728b38affd41e3ba","6","","","","","1","6"
"null","","","null","","","","html-keyboard-response","383","788355","0.0-383.0","5a8e2e8faa46dd00016bfb5a","6213d157728b38affd41e3ba","","","","","<p style=""color:darkgreen;font-size:24px;"">Correct :)</p>","",""
"2443","key","n","n","16.666639455782605","500","250","psychophysics","384","790811","0.0-384.0","5a8e2e8faa46dd00016bfb5a","6213d157728b38affd41e3ba","6","","","","","0","4"
"null","","","null","","","","html-keyboard-response","385","791315","0.0-385.0","5a8e2e8faa46dd00016bfb5a","6213d157728b38affd41e3ba","","","","","<p style=""color:darkgreen;font-size:24px;"">Correct :)</p>","",""
"2501","key","v","v","16.66932450331183","500","250","psychophysics","386","793827","0.0-386.0","5a8e2e8faa46dd00016bfb5a","6213d157728b38affd41e3ba","6","","","","","0","3"
"null","","","null","","","","html-keyboard-response","387","794330","0.0-387.0","5a8e2e8faa46dd00016bfb5a","6213d157728b38affd41e3ba","","","","","<p style=""color:darkgreen;font-size:24px;"">Correct :)</p>","",""
"2572","key","n","n","16.666720779220327","500","250","psychophysics","388","796908","0.0-388.0","5a8e2e8faa46dd00016bfb5a","6213d157728b38affd41e3ba","6","","","","","1","9"
"null","","","null","","","","html-keyboard-response","389","797410","0.0-389.0","5a8e2e8faa46dd00016bfb5a","6213d157728b38affd41e3ba","","","","","<p style=""color:darkgreen;font-size:24px;"">Correct :)</p>","",""
"2478","key","n","n","16.78081081081119","500","250","psychophysics","390","799894","0.0-390.0","5a8e2e8faa46dd00016bfb5a","6213d157728b38affd41e3ba","6","","","","","0","8"
"null","","","null","","","","html-keyboard-response","391","800409","0.0-391.0","5a8e2e8faa46dd00016bfb5a","6213d157728b38affd41e3ba","","","","","<p style=""color:darkgreen;font-size:24px;"">Correct :)</p>","",""
"2477","key","v","v","16.66740268456434","500","250","psychophysics","392","802897","0.0-392.0","5a8e2e8faa46dd00016bfb5a","6213d157728b38affd41e3ba","6","","","","","1","1"
"null","","","null","","","","html-keyboard-response","393","803400","0.0-393.0","5a8e2e8faa46dd00016bfb5a","6213d157728b38affd41e3ba","","","","","<p style=""color:darkgreen;font-size:24px;"">Correct :)</p>","",""
"2479","key","v","v","16.66597315436229","500","250","psychophysics","394","805890","0.0-394.0","5a8e2e8faa46dd00016bfb5a","6213d157728b38affd41e3ba","6","","","","","1","4"
"null","","","null","","","","html-keyboard-response","395","806396","0.0-395.0","5a8e2e8faa46dd00016bfb5a","6213d157728b38affd41e3ba","","","","","<p style=""color:darkgreen;font-size:24px;"">Correct :)</p>","",""
"5748","","","n","","","","html-keyboard-response","396","812146","0.0-396.0","5a8e2e8faa46dd00016bfb5a","6213d157728b38affd41e3ba","","","","","<p> Last set of trials.  Here, the tasks are going to switch once again.  We are going to do 50 of these.  And then you are done with the experiment.  </p>  <br><br>  Ready? (press v or n)","",""
"2629","key","v","v","16.6701139240508","500","250","psychophysics","397","814780","0.0-397.0","5a8e2e8faa46dd00016bfb5a","6213d157728b38affd41e3ba","7","","","","","0","4"
"null","","","null","","","","html-keyboard-response","398","815285","0.0-398.0","5a8e2e8faa46dd00016bfb5a","6213d157728b38affd41e3ba","","","","","<p style=""color:red;font-size:24px;"">Error :(</p>","",""
"2362","key","n","n","16.66799300699332","500","250","psychophysics","399","817662","0.0-399.0","5a8e2e8faa46dd00016bfb5a","6213d157728b38affd41e3ba","7","","","","","0","4"
"null","","","null","","","","html-keyboard-response","400","818165","0.0-400.0","5a8e2e8faa46dd00016bfb5a","6213d157728b38affd41e3ba","","","","","<p style=""color:darkgreen;font-size:24px;"">Correct :)</p>","",""
"2474","key","v","v","16.662604026845656","500","250","psychophysics","401","820652","0.0-401.0","5a8e2e8faa46dd00016bfb5a","6213d157728b38affd41e3ba","7","","","","","0","1"
"null","","","null","","","","html-keyboard-response","402","821158","0.0-402.0","5a8e2e8faa46dd00016bfb5a","6213d157728b38affd41e3ba","","","","","<p style=""color:darkgreen;font-size:24px;"">Correct :)</p>","",""
"2626","key","n","n","16.66641772151895","500","250","psychophysics","403","823796","0.0-403.0","5a8e2e8faa46dd00016bfb5a","6213d157728b38affd41e3ba","7","","","","","1","7"
"null","","","null","","","","html-keyboard-response","404","824304","0.0-404.0","5a8e2e8faa46dd00016bfb5a","6213d157728b38affd41e3ba","","","","","<p style=""color:darkgreen;font-size:24px;"">Correct :)</p>","",""
"2741","key","n","n","16.768140243902298","500","250","psychophysics","405","827048","0.0-405.0","5a8e2e8faa46dd00016bfb5a","6213d157728b38affd41e3ba","7","","","","","0","2"
"null","","","null","","","","html-keyboard-response","406","827549","0.0-406.0","5a8e2e8faa46dd00016bfb5a","6213d157728b38affd41e3ba","","","","","<p style=""color:darkgreen;font-size:24px;"">Correct :)</p>","",""
"2399","key","v","v","16.784930069930038","500","250","psychophysics","407","829953","0.0-407.0","5a8e2e8faa46dd00016bfb5a","6213d157728b38affd41e3ba","7","","","","","0","3"
"null","","","null","","","","html-keyboard-response","408","830465","0.0-408.0","5a8e2e8faa46dd00016bfb5a","6213d157728b38affd41e3ba","","","","","<p style=""color:darkgreen;font-size:24px;"">Correct :)</p>","",""
"2438","key","n","n","16.668578231292237","500","250","psychophysics","409","832918","0.0-409.0","5a8e2e8faa46dd00016bfb5a","6213d157728b38affd41e3ba","7","","","","","0","2"
"null","","","null","","","","html-keyboard-response","410","833423","0.0-410.0","5a8e2e8faa46dd00016bfb5a","6213d157728b38affd41e3ba","","","","","<p style=""color:darkgreen;font-size:24px;"">Correct :)</p>","",""
"2416","key","n","n","16.781475862069055","500","250","psychophysics","411","835852","0.0-411.0","5a8e2e8faa46dd00016bfb5a","6213d157728b38affd41e3ba","7","","","","","0","4"
"null","","","null","","","","html-keyboard-response","412","836357","0.0-412.0","5a8e2e8faa46dd00016bfb5a","6213d157728b38affd41e3ba","","","","","<p style=""color:darkgreen;font-size:24px;"">Correct :)</p>","",""
"2391","key","n","n","16.66641258741273","500","250","psychophysics","413","838752","0.0-413.0","5a8e2e8faa46dd00016bfb5a","6213d157728b38affd41e3ba","7","","","","","1","6"
"null","","","null","","","","html-keyboard-response","414","839256","0.0-414.0","5a8e2e8faa46dd00016bfb5a","6213d157728b38affd41e3ba","","","","","<p style=""color:darkgreen;font-size:24px;"">Correct :)</p>","",""
"2417","key","n","n","16.669579310344275","500","250","psychophysics","415","841676","0.0-415.0","5a8e2e8faa46dd00016bfb5a","6213d157728b38affd41e3ba","7","","","","","0","6"
"null","","","null","","","","html-keyboard-response","416","842179","0.0-416.0","5a8e2e8faa46dd00016bfb5a","6213d157728b38affd41e3ba","","","","","<p style=""color:darkgreen;font-size:24px;"">Correct :)</p>","",""
"2472","key","n","n","16.666966216216284","500","250","psychophysics","417","844657","0.0-417.0","5a8e2e8faa46dd00016bfb5a","6213d157728b38affd41e3ba","7","","","","","0","4"
"null","","","null","","","","html-keyboard-response","418","845159","0.0-418.0","5a8e2e8faa46dd00016bfb5a","6213d157728b38affd41e3ba","","","","","<p style=""color:darkgreen;font-size:24px;"">Correct :)</p>","",""
"2460","key","v","v","16.664277027026795","500","250","psychophysics","419","847631","0.0-419.0","5a8e2e8faa46dd00016bfb5a","6213d157728b38affd41e3ba","7","","","","","1","3"
"null","","","null","","","","html-keyboard-response","420","848136","0.0-420.0","5a8e2e8faa46dd00016bfb5a","6213d157728b38affd41e3ba","","","","","<p style=""color:darkgreen;font-size:24px;"">Correct :)</p>","",""
"2422","key","n","n","16.666232876712456","500","250","psychophysics","421","850568","0.0-421.0","5a8e2e8faa46dd00016bfb5a","6213d157728b38affd41e3ba","7","","","","","0","2"
"null","","","null","","","","html-keyboard-response","422","851069","0.0-422.0","5a8e2e8faa46dd00016bfb5a","6213d157728b38affd41e3ba","","","","","<p style=""color:darkgreen;font-size:24px;"">Correct :)</p>","",""
"2406","key","v","v","17.02035915493001","500","250","psychophysics","423","853490","0.0-423.0","5a8e2e8faa46dd00016bfb5a","6213d157728b38affd41e3ba","7","","","","","1","1"
"null","","","null","","","","html-keyboard-response","424","854000","0.0-424.0","5a8e2e8faa46dd00016bfb5a","6213d157728b38affd41e3ba","","","","","<p style=""color:darkgreen;font-size:24px;"">Correct :)</p>","",""
"2372","key","n","n","16.666500000000283","500","250","psychophysics","425","856375","0.0-425.0","5a8e2e8faa46dd00016bfb5a","6213d157728b38affd41e3ba","7","","","","","0","4"
"null","","","null","","","","html-keyboard-response","426","856879","0.0-426.0","5a8e2e8faa46dd00016bfb5a","6213d157728b38affd41e3ba","","","","","<p style=""color:darkgreen;font-size:24px;"">Correct :)</p>","",""
"2422","key","v","v","16.663137931034676","500","250","psychophysics","427","859308","0.0-427.0","5a8e2e8faa46dd00016bfb5a","6213d157728b38affd41e3ba","7","","","","","1","3"
"null","","","null","","","","html-keyboard-response","428","859818","0.0-428.0","5a8e2e8faa46dd00016bfb5a","6213d157728b38affd41e3ba","","","","","<p style=""color:darkgreen;font-size:24px;"">Correct :)</p>","",""
"2397","key","v","v","16.666548611111164","500","250","psychophysics","429","862218","0.0-429.0","5a8e2e8faa46dd00016bfb5a","6213d157728b38affd41e3ba","7","","","","","1","1"
"null","","","null","","","","html-keyboard-response","430","862721","0.0-430.0","5a8e2e8faa46dd00016bfb5a","6213d157728b38affd41e3ba","","","","","<p style=""color:darkgreen;font-size:24px;"">Correct :)</p>","",""
"2495","key","v","v","16.571425675675652","500","250","psychophysics","431","865225","0.0-431.0","5a8e2e8faa46dd00016bfb5a","6213d157728b38affd41e3ba","7","","","","","0","3"
"null","","","null","","","","html-keyboard-response","432","865737","0.0-432.0","5a8e2e8faa46dd00016bfb5a","6213d157728b38affd41e3ba","","","","","<p style=""color:darkgreen;font-size:24px;"">Correct :)</p>","",""
"2620","key","n","n","16.66643670886089","500","250","psychophysics","433","868371","0.0-433.0","5a8e2e8faa46dd00016bfb5a","6213d157728b38affd41e3ba","7","","","","","1","6"
"null","","","null","","","","html-keyboard-response","434","868878","0.0-434.0","5a8e2e8faa46dd00016bfb5a","6213d157728b38affd41e3ba","","","","","<p style=""color:darkgreen;font-size:24px;"">Correct :)</p>","",""
"2787","key","v","v","16.66505952380941","500","250","psychophysics","435","871676","0.0-435.0","5a8e2e8faa46dd00016bfb5a","6213d157728b38affd41e3ba","7","","","","","1","2"
"null","","","null","","","","html-keyboard-response","436","872184","0.0-436.0","5a8e2e8faa46dd00016bfb5a","6213d157728b38affd41e3ba","","","","","<p style=""color:darkgreen;font-size:24px;"">Correct :)</p>","",""
"2488","key","n","n","16.66726174496658","500","250","psychophysics","437","874676","0.0-437.0","5a8e2e8faa46dd00016bfb5a","6213d157728b38affd41e3ba","7","","","","","1","4"
"null","","","null","","","","html-keyboard-response","438","875177","0.0-438.0","5a8e2e8faa46dd00016bfb5a","6213d157728b38affd41e3ba","","","","","<p style=""color:red;font-size:24px;"">Error :(</p>","",""
"2551","key","n","n","16.776032894736424","500","250","psychophysics","439","877731","0.0-439.0","5a8e2e8faa46dd00016bfb5a","6213d157728b38affd41e3ba","7","","","","","1","6"
"null","","","null","","","","html-keyboard-response","440","878236","0.0-440.0","5a8e2e8faa46dd00016bfb5a","6213d157728b38affd41e3ba","","","","","<p style=""color:darkgreen;font-size:24px;"">Correct :)</p>","",""
"2431","key","v","v","16.667102040816417","500","250","psychophysics","441","880676","0.0-441.0","5a8e2e8faa46dd00016bfb5a","6213d157728b38affd41e3ba","7","","","","","0","7"
"null","","","null","","","","html-keyboard-response","442","881188","0.0-442.0","5a8e2e8faa46dd00016bfb5a","6213d157728b38affd41e3ba","","","","","<p style=""color:darkgreen;font-size:24px;"">Correct :)</p>","",""
"2466","key","v","v","16.77950675675655","500","250","psychophysics","443","883658","0.0-443.0","5a8e2e8faa46dd00016bfb5a","6213d157728b38affd41e3ba","7","","","","","0","3"
"null","","","null","","","","html-keyboard-response","444","884166","0.0-444.0","5a8e2e8faa46dd00016bfb5a","6213d157728b38affd41e3ba","","","","","<p style=""color:darkgreen;font-size:24px;"">Correct :)</p>","",""
"2412","key","n","n","16.66618620689621","500","250","psychophysics","445","886590","0.0-445.0","5a8e2e8faa46dd00016bfb5a","6213d157728b38affd41e3ba","7","","","","","1","6"
"null","","","null","","","","html-keyboard-response","446","887097","0.0-446.0","5a8e2e8faa46dd00016bfb5a","6213d157728b38affd41e3ba","","","","","<p style=""color:darkgreen;font-size:24px;"">Correct :)</p>","",""
"2387","key","v","v","16.66700000000047","500","250","psychophysics","447","889497","0.0-447.0","5a8e2e8faa46dd00016bfb5a","6213d157728b38affd41e3ba","7","","","","","1","1"
"null","","","null","","","","html-keyboard-response","448","890000","0.0-448.0","5a8e2e8faa46dd00016bfb5a","6213d157728b38affd41e3ba","","","","","<p style=""color:darkgreen;font-size:24px;"">Correct :)</p>","",""
"2426","key","n","n","16.666650684931547","500","250","psychophysics","449","892442","0.0-449.0","5a8e2e8faa46dd00016bfb5a","6213d157728b38affd41e3ba","7","","","","","0","6"
"null","","","null","","","","html-keyboard-response","450","892945","0.0-450.0","5a8e2e8faa46dd00016bfb5a","6213d157728b38affd41e3ba","","","","","<p style=""color:darkgreen;font-size:24px;"">Correct :)</p>","",""
"2413","key","v","v","16.66704137931048","500","250","psychophysics","451","895372","0.0-451.0","5a8e2e8faa46dd00016bfb5a","6213d157728b38affd41e3ba","7","","","","","0","7"
"null","","","null","","","","html-keyboard-response","452","895878","0.0-452.0","5a8e2e8faa46dd00016bfb5a","6213d157728b38affd41e3ba","","","","","<p style=""color:darkgreen;font-size:24px;"">Correct :)</p>","",""
"2535","key","v","v","16.667150326796772","500","250","psychophysics","453","898434","0.0-453.0","5a8e2e8faa46dd00016bfb5a","6213d157728b38affd41e3ba","7","","","","","1","1"
"null","","","null","","","","html-keyboard-response","454","898940","0.0-454.0","5a8e2e8faa46dd00016bfb5a","6213d157728b38affd41e3ba","","","","","<p style=""color:darkgreen;font-size:24px;"">Correct :)</p>","",""
"2818","key","n","n","16.765916666666662","500","250","psychophysics","455","901763","0.0-455.0","5a8e2e8faa46dd00016bfb5a","6213d157728b38affd41e3ba","7","","","","","0","2"
"null","","","null","","","","html-keyboard-response","456","902269","0.0-456.0","5a8e2e8faa46dd00016bfb5a","6213d157728b38affd41e3ba","","","","","<p style=""color:darkgreen;font-size:24px;"">Correct :)</p>","",""
"2551","key","n","n","16.666038961038627","500","250","psychophysics","457","904838","0.0-457.0","5a8e2e8faa46dd00016bfb5a","6213d157728b38affd41e3ba","7","","","","","0","2"
"null","","","null","","","","html-keyboard-response","458","905339","0.0-458.0","5a8e2e8faa46dd00016bfb5a","6213d157728b38affd41e3ba","","","","","<p style=""color:darkgreen;font-size:24px;"">Correct :)</p>","",""
"2412","key","v","v","16.66627586206887","500","250","psychophysics","459","907770","0.0-459.0","5a8e2e8faa46dd00016bfb5a","6213d157728b38affd41e3ba","7","","","","","0","1"
"null","","","null","","","","html-keyboard-response","460","908275","0.0-460.0","5a8e2e8faa46dd00016bfb5a","6213d157728b38affd41e3ba","","","","","<p style=""color:darkgreen;font-size:24px;"">Correct :)</p>","",""
"2397","key","v","v","16.665847222222915","500","250","psychophysics","461","910676","0.0-461.0","5a8e2e8faa46dd00016bfb5a","6213d157728b38affd41e3ba","7","","","","","0","1"
"null","","","null","","","","html-keyboard-response","462","911181","0.0-462.0","5a8e2e8faa46dd00016bfb5a","6213d157728b38affd41e3ba","","","","","<p style=""color:darkgreen;font-size:24px;"">Correct :)</p>","",""
"2413","key","v","v","16.666779310345362","500","250","psychophysics","463","913603","0.0-463.0","5a8e2e8faa46dd00016bfb5a","6213d157728b38affd41e3ba","7","","","","","1","4"
"null","","","null","","","","html-keyboard-response","464","914105","0.0-464.0","5a8e2e8faa46dd00016bfb5a","6213d157728b38affd41e3ba","","","","","<p style=""color:darkgreen;font-size:24px;"">Correct :)</p>","",""
"2569","key","n","n","16.775509803921132","500","250","psychophysics","465","916678","0.0-465.0","5a8e2e8faa46dd00016bfb5a","6213d157728b38affd41e3ba","7","","","","","1","7"
"null","","","null","","","","html-keyboard-response","466","917191","0.0-466.0","5a8e2e8faa46dd00016bfb5a","6213d157728b38affd41e3ba","","","","","<p style=""color:darkgreen;font-size:24px;"">Correct :)</p>","",""
"2448","key","v","v","16.667108843537825","500","250","psychophysics","467","919649","0.0-467.0","5a8e2e8faa46dd00016bfb5a","6213d157728b38affd41e3ba","7","","","","","0","1"
"null","","","null","","","","html-keyboard-response","468","920151","0.0-468.0","5a8e2e8faa46dd00016bfb5a","6213d157728b38affd41e3ba","","","","","<p style=""color:darkgreen;font-size:24px;"">Correct :)</p>","",""
"2472","key","n","n","16.66659731543607","500","250","psychophysics","469","922626","0.0-469.0","5a8e2e8faa46dd00016bfb5a","6213d157728b38affd41e3ba","7","","","","","0","6"
"null","","","null","","","","html-keyboard-response","470","923137","0.0-470.0","5a8e2e8faa46dd00016bfb5a","6213d157728b38affd41e3ba","","","","","<p style=""color:darkgreen;font-size:24px;"">Correct :)</p>","",""
"2436","key","v","v","16.66748979591866","500","250","psychophysics","471","925585","0.0-471.0","5a8e2e8faa46dd00016bfb5a","6213d157728b38affd41e3ba","7","","","","","1","1"
"null","","","null","","","","html-keyboard-response","472","926089","0.0-472.0","5a8e2e8faa46dd00016bfb5a","6213d157728b38affd41e3ba","","","","","<p style=""color:darkgreen;font-size:24px;"">Correct :)</p>","",""
"2395","key","v","v","17.143185714285522","500","250","psychophysics","473","928500","0.0-473.0","5a8e2e8faa46dd00016bfb5a","6213d157728b38affd41e3ba","7","","","","","0","1"
"null","","","null","","","","html-keyboard-response","474","929006","0.0-474.0","5a8e2e8faa46dd00016bfb5a","6213d157728b38affd41e3ba","","","","","<p style=""color:darkgreen;font-size:24px;"">Correct :)</p>","",""
"2385","key","n","n","16.78358041957978","500","250","psychophysics","475","931405","0.0-475.0","5a8e2e8faa46dd00016bfb5a","6213d157728b38affd41e3ba","7","","","","","0","6"
"null","","","null","","","","html-keyboard-response","476","931909","0.0-476.0","5a8e2e8faa46dd00016bfb5a","6213d157728b38affd41e3ba","","","","","<p style=""color:darkgreen;font-size:24px;"">Correct :)</p>","",""
"2424","key","n","n","16.666068493150977","500","250","psychophysics","477","934342","0.0-477.0","5a8e2e8faa46dd00016bfb5a","6213d157728b38affd41e3ba","7","","","","","1","6"
"null","","","null","","","","html-keyboard-response","478","934843","0.0-478.0","5a8e2e8faa46dd00016bfb5a","6213d157728b38affd41e3ba","","","","","<p style=""color:darkgreen;font-size:24px;"">Correct :)</p>","",""
"2499","key","n","n","16.667686666666995","500","250","psychophysics","479","937346","0.0-479.0","5a8e2e8faa46dd00016bfb5a","6213d157728b38affd41e3ba","7","","","","","0","4"
"null","","","null","","","","html-keyboard-response","480","937849","0.0-480.0","5a8e2e8faa46dd00016bfb5a","6213d157728b38affd41e3ba","","","","","<p style=""color:darkgreen;font-size:24px;"">Correct :)</p>","",""
"2377","key","v","v","16.667552447552186","500","250","psychophysics","481","940229","0.0-481.0","5a8e2e8faa46dd00016bfb5a","6213d157728b38affd41e3ba","7","","","","","1","4"
"null","","","null","","","","html-keyboard-response","482","940730","0.0-482.0","5a8e2e8faa46dd00016bfb5a","6213d157728b38affd41e3ba","","","","","<p style=""color:darkgreen;font-size:24px;"">Correct :)</p>","",""
"2400","key","n","n","16.78374125874175","500","250","psychophysics","483","943137","0.0-483.0","5a8e2e8faa46dd00016bfb5a","6213d157728b38affd41e3ba","7","","","","","0","6"
"null","","","null","","","","html-keyboard-response","484","943640","0.0-484.0","5a8e2e8faa46dd00016bfb5a","6213d157728b38affd41e3ba","","","","","<p style=""color:darkgreen;font-size:24px;"">Correct :)</p>","",""
"2445","key","v","v","16.6664965986393","500","250","psychophysics","485","946095","0.0-485.0","5a8e2e8faa46dd00016bfb5a","6213d157728b38affd41e3ba","7","","","","","0","1"
"null","","","null","","","","html-keyboard-response","486","946598","0.0-486.0","5a8e2e8faa46dd00016bfb5a","6213d157728b38affd41e3ba","","","","","<p style=""color:darkgreen;font-size:24px;"">Correct :)</p>","",""
"2464","key","v","v","16.667905405405246","500","250","psychophysics","487","949073","0.0-487.0","5a8e2e8faa46dd00016bfb5a","6213d157728b38affd41e3ba","7","","","","","1","3"
"null","","","null","","","","html-keyboard-response","488","949581","0.0-488.0","5a8e2e8faa46dd00016bfb5a","6213d157728b38affd41e3ba","","","","","<p style=""color:darkgreen;font-size:24px;"">Correct :)</p>","",""
"2363","key","v","v","16.666767605633677","500","250","psychophysics","489","951948","0.0-489.0","5a8e2e8faa46dd00016bfb5a","6213d157728b38affd41e3ba","7","","","","","1","2"
"null","","","null","","","","html-keyboard-response","490","952453","0.0-490.0","5a8e2e8faa46dd00016bfb5a","6213d157728b38affd41e3ba","","","","","<p style=""color:darkgreen;font-size:24px;"">Correct :)</p>","",""
"2396","key","v","v","16.66719310344839","500","250","psychophysics","491","954864","0.0-491.0","5a8e2e8faa46dd00016bfb5a","6213d157728b38affd41e3ba","7","","","","","0","1"
"null","","","null","","","","html-keyboard-response","492","955367","0.0-492.0","5a8e2e8faa46dd00016bfb5a","6213d157728b38affd41e3ba","","","","","<p style=""color:darkgreen;font-size:24px;"">Correct :)</p>","",""
"2451","key","n","n","16.66679054054092","500","250","psychophysics","493","957830","0.0-493.0","5a8e2e8faa46dd00016bfb5a","6213d157728b38affd41e3ba","7","","","","","0","2"
"null","","","null","","","","html-keyboard-response","494","958333","0.0-494.0","5a8e2e8faa46dd00016bfb5a","6213d157728b38affd41e3ba","","","","","<p style=""color:darkgreen;font-size:24px;"">Correct :)</p>","",""
"2383","key","v","v","16.666587412586903","500","250","psychophysics","495","960720","0.0-495.0","5a8e2e8faa46dd00016bfb5a","6213d157728b38affd41e3ba","7","","","","","1","4"
"null","","","null","","","","html-keyboard-response","496","961225","0.0-496.0","5a8e2e8faa46dd00016bfb5a","6213d157728b38affd41e3ba","","","","","<p style=""color:darkgreen;font-size:24px;"">Correct :)</p>","",""
