"rt","response_type","key_press","response","avg_frame_time","center_x","center_y","trial_type","trial_index","time_elapsed","internal_node_id","pid","sid","phase","guide","targ","resp","stimulus","is5","stim"
"3961","key"," "," ","16.680255319148937","500","250","psychophysics","0","3963","0.0-0.0","5f467b0a0d1aef037515c8c9","62014e0904f12d7fa5489ecf","","","","","","",""
"2404","key"," "," ","16.68027777777778","500","250","psychophysics","1","6369","0.0-1.0","5f467b0a0d1aef037515c8c9","62014e0904f12d7fa5489ecf","","","","","","",""
"3045","key"," "," ","16.680331491712703","500","250","psychophysics","2","9415","0.0-2.0","5f467b0a0d1aef037515c8c9","62014e0904f12d7fa5489ecf","","","","","","",""
"1341","key"," "," ","16.68025","500","250","psychophysics","3","10756","0.0-3.0","5f467b0a0d1aef037515c8c9","62014e0904f12d7fa5489ecf","","","","","","",""
"4042","key"," "," ","16.680331950207464","500","250","psychophysics","4","14800","0.0-4.0","5f467b0a0d1aef037515c8c9","62014e0904f12d7fa5489ecf","","","","","","",""
"4810","key"," "," ","16.680278745644603","500","250","psychophysics","5","19610","0.0-5.0","5f467b0a0d1aef037515c8c9","62014e0904f12d7fa5489ecf","","","","","","",""
"3227","key"," "," ","16.680207253886003","500","250","psychophysics","6","22837","0.0-6.0","5f467b0a0d1aef037515c8c9","62014e0904f12d7fa5489ecf","","","","","","",""
"3560","key"," "," ","16.680377358490556","500","250","psychophysics","7","26398","0.0-7.0","5f467b0a0d1aef037515c8c9","62014e0904f12d7fa5489ecf","","","","","","",""
"2924","key"," "," ","16.680228571428575","500","250","psychophysics","8","29325","0.0-8.0","5f467b0a0d1aef037515c8c9","62014e0904f12d7fa5489ecf","0","0","49","51","","",""
"3287","key"," "," ","16.68030612244898","500","250","psychophysics","9","32612","0.0-9.0","5f467b0a0d1aef037515c8c9","62014e0904f12d7fa5489ecf","","","","","","",""
"3633","key"," "," ","16.680276497695864","500","250","psychophysics","10","36245","0.0-10.0","5f467b0a0d1aef037515c8c9","62014e0904f12d7fa5489ecf","","","","","","",""
"4016","key"," "," ","16.68033333333333","500","250","psychophysics","11","40263","0.0-11.0","5f467b0a0d1aef037515c8c9","62014e0904f12d7fa5489ecf","","","","","","",""
"3802","key"," "," ","16.680264317180608","500","250","psychophysics","12","44065","0.0-12.0","5f467b0a0d1aef037515c8c9","62014e0904f12d7fa5489ecf","","","","","","",""
"2260","key"," "," ","16.68029850746266","500","250","psychophysics","13","46327","0.0-13.0","5f467b0a0d1aef037515c8c9","62014e0904f12d7fa5489ecf","","","","","","",""
"3227","key"," "," ","16.68031088082903","500","250","psychophysics","14","49554","0.0-14.0","5f467b0a0d1aef037515c8c9","62014e0904f12d7fa5489ecf","","","","","","",""
"3484","key"," "," ","16.68028846153846","500","250","psychophysics","15","53039","0.0-15.0","5f467b0a0d1aef037515c8c9","62014e0904f12d7fa5489ecf","","","","","","",""
"1527","key"," "," ","16.680222222222234","500","250","psychophysics","16","54567","0.0-16.0","5f467b0a0d1aef037515c8c9","62014e0904f12d7fa5489ecf","","","","","","",""
"3023","key"," "," ","16.680222222222195","500","250","psychophysics","17","57590","0.0-17.0","5f467b0a0d1aef037515c8c9","62014e0904f12d7fa5489ecf","1","0","59","59","","",""
"763","key"," "," ","16.680444444444504","500","250","psychophysics","18","58356","0.0-18.0","5f467b0a0d1aef037515c8c9","62014e0904f12d7fa5489ecf","1","5","32","10","","",""
"4165","key"," "," ","16.680321285140568","500","250","psychophysics","19","62523","0.0-19.0","5f467b0a0d1aef037515c8c9","62014e0904f12d7fa5489ecf","1","0","24","21","","",""
"2822","key"," "," ","16.68023809523809","500","250","psychophysics","20","65344","0.0-20.0","5f467b0a0d1aef037515c8c9","62014e0904f12d7fa5489ecf","1","5","45","38","","",""
"4945","key"," "," ","16.680270270270274","500","250","psychophysics","21","70292","0.0-21.0","5f467b0a0d1aef037515c8c9","62014e0904f12d7fa5489ecf","1","0","57","75","","",""
"2997","key"," "," ","16.68033519553072","500","250","psychophysics","22","73292","0.0-22.0","5f467b0a0d1aef037515c8c9","62014e0904f12d7fa5489ecf","1","5","58","63","","",""
"2611","key"," "," ","16.680258064516146","500","250","psychophysics","23","75904","0.0-23.0","5f467b0a0d1aef037515c8c9","62014e0904f12d7fa5489ecf","1","0","34","39","","",""
"2010","key"," "," ","16.68033333333333","500","250","psychophysics","24","77915","0.0-24.0","5f467b0a0d1aef037515c8c9","62014e0904f12d7fa5489ecf","1","5","47","40","","",""
"2751","key"," "," ","16.68024390243901","500","250","psychophysics","25","80668","0.0-25.0","5f467b0a0d1aef037515c8c9","62014e0904f12d7fa5489ecf","1","0","22","38","","",""
"2904","key"," "," ","16.68034682080923","500","250","psychophysics","26","83574","0.0-26.0","5f467b0a0d1aef037515c8c9","62014e0904f12d7fa5489ecf","1","5","60","54","","",""
"2683","key"," "," ","16.68024999999998","500","250","psychophysics","27","86259","0.0-27.0","5f467b0a0d1aef037515c8c9","62014e0904f12d7fa5489ecf","1","0","32","42","","",""
"2652","key"," "," ","16.680379746835442","500","250","psychophysics","28","88912","0.0-28.0","5f467b0a0d1aef037515c8c9","62014e0904f12d7fa5489ecf","1","5","42","36","","",""
"3264","key"," "," ","16.680205128205124","500","250","psychophysics","29","92177","0.0-29.0","5f467b0a0d1aef037515c8c9","62014e0904f12d7fa5489ecf","1","0","32","57","","",""
"3711","key"," "," ","16.680361990950228","500","250","psychophysics","30","95888","0.0-30.0","5f467b0a0d1aef037515c8c9","62014e0904f12d7fa5489ecf","1","5","60","54","","",""
"2957","key"," "," ","16.68022598870053","500","250","psychophysics","31","98848","0.0-31.0","5f467b0a0d1aef037515c8c9","62014e0904f12d7fa5489ecf","1","0","34","46","","",""
"1968","key"," "," ","16.680341880341807","500","250","psychophysics","32","100817","0.0-32.0","5f467b0a0d1aef037515c8c9","62014e0904f12d7fa5489ecf","1","5","29","31","","",""
"3127","key"," "," ","16.680322580645125","500","250","psychophysics","33","103945","0.0-33.0","5f467b0a0d1aef037515c8c9","62014e0904f12d7fa5489ecf","1","0","60","72","","",""
"2336","key"," "," ","16.68028571428565","500","250","psychophysics","34","106284","0.0-34.0","5f467b0a0d1aef037515c8c9","62014e0904f12d7fa5489ecf","1","5","44","51","","",""
"2493","key"," "," ","16.680270270270224","500","250","psychophysics","35","108778","0.0-35.0","5f467b0a0d1aef037515c8c9","62014e0904f12d7fa5489ecf","1","0","39","57","","",""
"1526","key"," "," ","16.680219780219716","500","250","psychophysics","36","110306","0.0-36.0","5f467b0a0d1aef037515c8c9","62014e0904f12d7fa5489ecf","1","5","35","32","","",""
"2319","key"," "," ","16.68028985507239","500","250","psychophysics","37","112626","0.0-37.0","5f467b0a0d1aef037515c8c9","62014e0904f12d7fa5489ecf","","","","","","",""
"2908","key"," "," ","16.68034682080923","500","250","psychophysics","38","115533","0.0-38.0","5f467b0a0d1aef037515c8c9","62014e0904f12d7fa5489ecf","","","","","","",""
"1089","key"," "," ","16.68030769230771","500","250","psychophysics","39","116624","0.0-39.0","5f467b0a0d1aef037515c8c9","62014e0904f12d7fa5489ecf","","","","","","",""
"3602","key"," "," ","16.68027906976742","500","250","psychophysics","40","120226","0.0-40.0","5f467b0a0d1aef037515c8c9","62014e0904f12d7fa5489ecf","2","0","57","79","","",""
"4882","key"," "," ","16.68027491408932","500","250","psychophysics","41","125109","0.0-41.0","5f467b0a0d1aef037515c8c9","62014e0904f12d7fa5489ecf","","","","","","",""
"5467","key"," "," ","16.680305810397527","500","250","psychophysics","42","130577","0.0-42.0","5f467b0a0d1aef037515c8c9","62014e0904f12d7fa5489ecf","2","0","55","73","","",""
"2009","key"," "," ","16.68016666666687","500","250","psychophysics","43","132587","0.0-43.0","5f467b0a0d1aef037515c8c9","62014e0904f12d7fa5489ecf","","","","","","",""
"2880","key"," "," ","16.68035087719296","500","250","psychophysics","44","135469","0.0-44.0","5f467b0a0d1aef037515c8c9","62014e0904f12d7fa5489ecf","2","0","45","56","","",""
"1277","key"," "," ","16.68026315789489","500","250","psychophysics","45","136746","0.0-45.0","5f467b0a0d1aef037515c8c9","62014e0904f12d7fa5489ecf","","","","","","",""
"2196","key"," "," ","16.680305343511414","500","250","psychophysics","46","138943","0.0-46.0","5f467b0a0d1aef037515c8c9","62014e0904f12d7fa5489ecf","2","0","38","45","","",""
"989","key"," "," ","16.68034482758657","500","250","psychophysics","47","139933","0.0-47.0","5f467b0a0d1aef037515c8c9","62014e0904f12d7fa5489ecf","","","","","","",""
"2447","key"," "," ","16.680273972602787","500","250","psychophysics","48","142382","0.0-48.0","5f467b0a0d1aef037515c8c9","62014e0904f12d7fa5489ecf","2","0","57","60","","",""
"753","key"," "," ","16.67999999999963","500","250","psychophysics","49","143134","0.0-49.0","5f467b0a0d1aef037515c8c9","62014e0904f12d7fa5489ecf","","","","","","",""
"2977","key"," "," ","16.680338983050756","500","250","psychophysics","50","146112","0.0-50.0","5f467b0a0d1aef037515c8c9","62014e0904f12d7fa5489ecf","2","0","50","64","","",""
"787","key"," "," ","16.680425531915116","500","250","psychophysics","51","146900","0.0-51.0","5f467b0a0d1aef037515c8c9","62014e0904f12d7fa5489ecf","","","","","","",""
"1850","key"," "," ","16.680181818181882","500","250","psychophysics","52","148752","0.0-52.0","5f467b0a0d1aef037515c8c9","62014e0904f12d7fa5489ecf","2","0","26","35","","",""
"974","key"," "," ","16.68035087719296","500","250","psychophysics","53","149727","0.0-53.0","5f467b0a0d1aef037515c8c9","62014e0904f12d7fa5489ecf","","","","","","",""
"2444","key"," "," ","16.68027397260259","500","250","psychophysics","54","152171","0.0-54.0","5f467b0a0d1aef037515c8c9","62014e0904f12d7fa5489ecf","2","0","44","47","","",""
"669","key"," "," ","16.680512820512284","500","250","psychophysics","55","152842","0.0-55.0","5f467b0a0d1aef037515c8c9","62014e0904f12d7fa5489ecf","","","","","","",""
"2054","key"," "," ","16.68032786885246","500","250","psychophysics","56","154897","0.0-56.0","5f467b0a0d1aef037515c8c9","62014e0904f12d7fa5489ecf","2","0","28","41","","",""
"714","key"," "," ","16.679999999999943","500","250","psychophysics","57","155613","0.0-57.0","5f467b0a0d1aef037515c8c9","62014e0904f12d7fa5489ecf","","","","","","",""
"2215","key"," "," ","16.68030303030316","500","250","psychophysics","58","157829","0.0-58.0","5f467b0a0d1aef037515c8c9","62014e0904f12d7fa5489ecf","2","0","38","48","","",""
"820","key"," "," ","16.68041666666674","500","250","psychophysics","59","158650","0.0-59.0","5f467b0a0d1aef037515c8c9","62014e0904f12d7fa5489ecf","","","","","","",""
"2105","key"," "," ","16.680320000000066","500","250","psychophysics","60","160756","0.0-60.0","5f467b0a0d1aef037515c8c9","62014e0904f12d7fa5489ecf","2","0","28","39","","",""
"698","key"," "," ","16.680000000000113","500","250","psychophysics","61","161455","0.0-61.0","5f467b0a0d1aef037515c8c9","62014e0904f12d7fa5489ecf","","","","","","",""
"1935","key"," "," ","16.680347826086876","500","250","psychophysics","62","163392","0.0-62.0","5f467b0a0d1aef037515c8c9","62014e0904f12d7fa5489ecf","2","0","27","41","","",""
"711","key"," "," ","16.680476190475886","500","250","psychophysics","63","164103","0.0-63.0","5f467b0a0d1aef037515c8c9","62014e0904f12d7fa5489ecf","","","","","","",""
"2397","key"," "," ","16.680279720279714","500","250","psychophysics","64","166502","0.0-64.0","5f467b0a0d1aef037515c8c9","62014e0904f12d7fa5489ecf","2","0","45","57","","",""
"757","key"," "," ","16.68000000000029","500","250","psychophysics","65","167259","0.0-65.0","5f467b0a0d1aef037515c8c9","62014e0904f12d7fa5489ecf","","","","","","",""
"2684","key"," "," ","16.680375000000094","500","250","psychophysics","66","169945","0.0-66.0","5f467b0a0d1aef037515c8c9","62014e0904f12d7fa5489ecf","2","0","52","62","","",""
"674","key"," "," ","16.68000000000029","500","250","psychophysics","67","170620","0.0-67.0","5f467b0a0d1aef037515c8c9","62014e0904f12d7fa5489ecf","","","","","","",""
"2594","key"," "," ","16.6802597402598","500","250","psychophysics","68","173213","0.0-68.0","5f467b0a0d1aef037515c8c9","62014e0904f12d7fa5489ecf","2","0","39","57","","",""
"816","key"," "," ","16.68041666666674","500","250","psychophysics","69","174030","0.0-69.0","5f467b0a0d1aef037515c8c9","62014e0904f12d7fa5489ecf","","","","","","",""
"1572","key"," "," ","16.68021505376354","500","250","psychophysics","70","175603","0.0-70.0","5f467b0a0d1aef037515c8c9","62014e0904f12d7fa5489ecf","","","","","","",""
"706","key"," "," ","16.680476190475886","500","250","psychophysics","71","176309","0.0-71.0","5f467b0a0d1aef037515c8c9","62014e0904f12d7fa5489ecf","","","","","","",""
"2051","key"," "," ","16.68032786885246","500","250","psychophysics","72","178360","0.0-72.0","5f467b0a0d1aef037515c8c9","62014e0904f12d7fa5489ecf","3","5","33","28","","",""
"1791","key"," "," ","16.680188679245337","500","250","psychophysics","73","180153","0.0-73.0","5f467b0a0d1aef037515c8c9","62014e0904f12d7fa5489ecf","3","0","24","38","","",""
"1608","key"," "," ","16.68041666666674","500","250","psychophysics","74","181762","0.0-74.0","5f467b0a0d1aef037515c8c9","62014e0904f12d7fa5489ecf","3","5","22","28","","",""
"3128","key"," "," ","16.680215053763384","500","250","psychophysics","75","184889","0.0-75.0","5f467b0a0d1aef037515c8c9","62014e0904f12d7fa5489ecf","3","0","60","77","","",""
"3123","key"," "," ","16.680215053763384","500","250","psychophysics","76","188013","0.0-76.0","5f467b0a0d1aef037515c8c9","62014e0904f12d7fa5489ecf","3","5","49","51","","",""
"3033","key"," "," ","16.680331491712785","500","250","psychophysics","77","191045","0.0-77.0","5f467b0a0d1aef037515c8c9","62014e0904f12d7fa5489ecf","3","0","49","72","","",""
"2379","key"," "," ","16.680281690140887","500","250","psychophysics","78","193424","0.0-78.0","5f467b0a0d1aef037515c8c9","62014e0904f12d7fa5489ecf","3","5","60","54","","",""
"2325","key"," "," ","16.6802898550725","500","250","psychophysics","79","195750","0.0-79.0","5f467b0a0d1aef037515c8c9","62014e0904f12d7fa5489ecf","3","0","39","57","","",""
"2036","key"," "," ","16.680330578512454","500","250","psychophysics","80","197788","0.0-80.0","5f467b0a0d1aef037515c8c9","62014e0904f12d7fa5489ecf","3","5","32","45","","",""
"2550","key"," "," ","16.6802631578947","500","250","psychophysics","81","200341","0.0-81.0","5f467b0a0d1aef037515c8c9","62014e0904f12d7fa5489ecf","3","0","40","56","","",""
"1826","key"," "," ","16.680183486238395","500","250","psychophysics","82","202169","0.0-82.0","5f467b0a0d1aef037515c8c9","62014e0904f12d7fa5489ecf","3","5","39","40","","",""
"1887","key"," "," ","16.680357142857247","500","250","psychophysics","83","204057","0.0-83.0","5f467b0a0d1aef037515c8c9","62014e0904f12d7fa5489ecf","3","0","34","43","","",""
"1745","key"," "," ","16.680384615384703","500","250","psychophysics","84","205802","0.0-84.0","5f467b0a0d1aef037515c8c9","62014e0904f12d7fa5489ecf","3","5","46","39","","",""
"2083","key"," "," ","16.680161290322552","500","250","psychophysics","85","207887","0.0-85.0","5f467b0a0d1aef037515c8c9","62014e0904f12d7fa5489ecf","3","0","42","49","","",""
"2097","key"," "," ","16.68031999999983","500","250","psychophysics","86","209984","0.0-86.0","5f467b0a0d1aef037515c8c9","62014e0904f12d7fa5489ecf","3","5","51","46","","",""
"2092","key"," "," ","16.680322580645285","500","250","psychophysics","87","212076","0.0-87.0","5f467b0a0d1aef037515c8c9","62014e0904f12d7fa5489ecf","3","0","25","47","","",""
"1726","key"," "," ","16.680194174757258","500","250","psychophysics","88","213804","0.0-88.0","5f467b0a0d1aef037515c8c9","62014e0904f12d7fa5489ecf","3","5","31","38","","",""
"2261","key"," "," ","16.68014925373123","500","250","psychophysics","89","216066","0.0-89.0","5f467b0a0d1aef037515c8c9","62014e0904f12d7fa5489ecf","3","0","55","52","","",""
"1877","key"," "," ","16.680357142856987","500","250","psychophysics","90","217944","0.0-90.0","5f467b0a0d1aef037515c8c9","62014e0904f12d7fa5489ecf","3","5","31","41","","",""
"1850","key"," "," ","16.680363636363868","500","250","psychophysics","91","219796","0.0-91.0","5f467b0a0d1aef037515c8c9","62014e0904f12d7fa5489ecf","3","0","36","42","","",""
"1470","key"," "," ","16.68022988505739","500","250","psychophysics","92","221268","0.0-92.0","5f467b0a0d1aef037515c8c9","62014e0904f12d7fa5489ecf","","","","","","",""
"27786","","","v","","","","html-keyboard-response","93","249054","0.0-93.0","5f467b0a0d1aef037515c8c9","62014e0904f12d7fa5489ecf","","","","","<p> In this part of the experiment, we are going present digits 1, 2, 3, 4, 6, 7, 8, and 9.  Notice that 5 is missing.  Your job is to say whether the presented digit is less than or greater than 5.  For example, 3 is less than 5 and 7 is greater than 5.  If the digit is less than 5, press the v key; if it is greater than 5, press the n key. We are going to do 200 of these in total, but only 50 righ now. They go real fast.</p>  <br><br>  Ready? (press v or n)","",""
"3041","key","n","n","16.644615384615424","500","250","psychophysics","94","252098","0.0-94.0","5f467b0a0d1aef037515c8c9","62014e0904f12d7fa5489ecf","4","","","","","1","3"
"null","","","null","","","","html-keyboard-response","95","252612","0.0-95.0","5f467b0a0d1aef037515c8c9","62014e0904f12d7fa5489ecf","","","","","<p style=""color:red;font-size:24px;"">Error :(</p>","",""
"2734","key","v","v","16.605000000000008","500","250","psychophysics","96","255349","0.0-96.0","5f467b0a0d1aef037515c8c9","62014e0904f12d7fa5489ecf","4","","","","","1","2"
"null","","","null","","","","html-keyboard-response","97","255863","0.0-97.0","5f467b0a0d1aef037515c8c9","62014e0904f12d7fa5489ecf","","","","","<p style=""color:darkgreen;font-size:24px;"">Correct :)</p>","",""
"2624","key","n","n","16.612784810126442","500","250","psychophysics","98","258491","0.0-98.0","5f467b0a0d1aef037515c8c9","62014e0904f12d7fa5489ecf","4","","","","","1","6"
"null","","","null","","","","html-keyboard-response","99","259002","0.0-99.0","5f467b0a0d1aef037515c8c9","62014e0904f12d7fa5489ecf","","","","","<p style=""color:darkgreen;font-size:24px;"">Correct :)</p>","",""
"2677","key","v","v","16.50086419753095","500","250","psychophysics","100","261681","0.0-100.0","5f467b0a0d1aef037515c8c9","62014e0904f12d7fa5489ecf","4","","","","","1","3"
"null","","","null","","","","html-keyboard-response","101","262188","0.0-101.0","5f467b0a0d1aef037515c8c9","62014e0904f12d7fa5489ecf","","","","","<p style=""color:darkgreen;font-size:24px;"">Correct :)</p>","",""
"2535","key","v","v","16.590789473684133","500","250","psychophysics","102","264726","0.0-102.0","5f467b0a0d1aef037515c8c9","62014e0904f12d7fa5489ecf","4","","","","","1","2"
"null","","","null","","","","html-keyboard-response","103","265237","0.0-103.0","5f467b0a0d1aef037515c8c9","62014e0904f12d7fa5489ecf","","","","","<p style=""color:darkgreen;font-size:24px;"">Correct :)</p>","",""
"2545","key","v","v","16.507402597402688","500","250","psychophysics","104","267785","0.0-104.0","5f467b0a0d1aef037515c8c9","62014e0904f12d7fa5489ecf","4","","","","","1","1"
"null","","","null","","","","html-keyboard-response","105","268295","0.0-105.0","5f467b0a0d1aef037515c8c9","62014e0904f12d7fa5489ecf","","","","","<p style=""color:darkgreen;font-size:24px;"">Correct :)</p>","",""
"2589","key","n","n","16.58653846153846","500","250","psychophysics","106","270886","0.0-106.0","5f467b0a0d1aef037515c8c9","62014e0904f12d7fa5489ecf","4","","","","","1","8"
"null","","","null","","","","html-keyboard-response","107","271389","0.0-107.0","5f467b0a0d1aef037515c8c9","62014e0904f12d7fa5489ecf","","","","","<p style=""color:darkgreen;font-size:24px;"">Correct :)</p>","",""
"2713","key","n","n","16.54280487804854","500","250","psychophysics","108","274104","0.0-108.0","5f467b0a0d1aef037515c8c9","62014e0904f12d7fa5489ecf","4","","","","","1","9"
"null","","","null","","","","html-keyboard-response","109","274611","0.0-109.0","5f467b0a0d1aef037515c8c9","62014e0904f12d7fa5489ecf","","","","","<p style=""color:darkgreen;font-size:24px;"">Correct :)</p>","",""
"2676","key","v","v","16.518271604938402","500","250","psychophysics","110","277291","0.0-110.0","5f467b0a0d1aef037515c8c9","62014e0904f12d7fa5489ecf","4","","","","","1","3"
"null","","","null","","","","html-keyboard-response","111","277793","0.0-111.0","5f467b0a0d1aef037515c8c9","62014e0904f12d7fa5489ecf","","","","","<p style=""color:darkgreen;font-size:24px;"">Correct :)</p>","",""
"2733","key","n","n","16.550909090909233","500","250","psychophysics","112","280528","0.0-112.0","5f467b0a0d1aef037515c8c9","62014e0904f12d7fa5489ecf","4","","","","","1","9"
"null","","","null","","","","html-keyboard-response","113","281039","0.0-113.0","5f467b0a0d1aef037515c8c9","62014e0904f12d7fa5489ecf","","","","","<p style=""color:darkgreen;font-size:24px;"">Correct :)</p>","",""
"2500","key","n","n","16.582399999999907","500","250","psychophysics","114","283541","0.0-114.0","5f467b0a0d1aef037515c8c9","62014e0904f12d7fa5489ecf","4","","","","","1","9"
"null","","","null","","","","html-keyboard-response","115","284054","0.0-115.0","5f467b0a0d1aef037515c8c9","62014e0904f12d7fa5489ecf","","","","","<p style=""color:darkgreen;font-size:24px;"">Correct :)</p>","",""
"2572","key","v","v","16.498451612903285","500","250","psychophysics","116","286628","0.0-116.0","5f467b0a0d1aef037515c8c9","62014e0904f12d7fa5489ecf","4","","","","","1","2"
"null","","","null","","","","html-keyboard-response","117","287130","0.0-117.0","5f467b0a0d1aef037515c8c9","62014e0904f12d7fa5489ecf","","","","","<p style=""color:darkgreen;font-size:24px;"">Correct :)</p>","",""
"3153","key","n","n","16.583789473684124","500","250","psychophysics","118","290285","0.0-118.0","5f467b0a0d1aef037515c8c9","62014e0904f12d7fa5489ecf","4","","","","","1","9"
"null","","","null","","","","html-keyboard-response","119","290786","0.0-119.0","5f467b0a0d1aef037515c8c9","62014e0904f12d7fa5489ecf","","","","","<p style=""color:darkgreen;font-size:24px;"">Correct :)</p>","",""
"2620","key","v","v","16.545696202531836","500","250","psychophysics","120","293408","0.0-120.0","5f467b0a0d1aef037515c8c9","62014e0904f12d7fa5489ecf","4","","","","","1","4"
"null","","","null","","","","html-keyboard-response","121","293911","0.0-121.0","5f467b0a0d1aef037515c8c9","62014e0904f12d7fa5489ecf","","","","","<p style=""color:darkgreen;font-size:24px;"">Correct :)</p>","",""
"2600","key","n","n","16.512866242037965","500","250","psychophysics","122","296514","0.0-122.0","5f467b0a0d1aef037515c8c9","62014e0904f12d7fa5489ecf","4","","","","","1","6"
"null","","","null","","","","html-keyboard-response","123","297021","0.0-123.0","5f467b0a0d1aef037515c8c9","62014e0904f12d7fa5489ecf","","","","","<p style=""color:darkgreen;font-size:24px;"">Correct :)</p>","",""
"2581","key","n","n","16.565032258064623","500","250","psychophysics","124","299606","0.0-124.0","5f467b0a0d1aef037515c8c9","62014e0904f12d7fa5489ecf","4","","","","","1","7"
"null","","","null","","","","html-keyboard-response","125","300110","0.0-125.0","5f467b0a0d1aef037515c8c9","62014e0904f12d7fa5489ecf","","","","","<p style=""color:darkgreen;font-size:24px;"">Correct :)</p>","",""
"2638","key","v","v","16.546918238993843","500","250","psychophysics","126","302752","0.0-126.0","5f467b0a0d1aef037515c8c9","62014e0904f12d7fa5489ecf","4","","","","","1","2"
"null","","","null","","","","html-keyboard-response","127","303265","0.0-127.0","5f467b0a0d1aef037515c8c9","62014e0904f12d7fa5489ecf","","","","","<p style=""color:darkgreen;font-size:24px;"">Correct :)</p>","",""
"2539","key","n","n","16.533594771241923","500","250","psychophysics","128","305806","0.0-128.0","5f467b0a0d1aef037515c8c9","62014e0904f12d7fa5489ecf","4","","","","","1","7"
"null","","","null","","","","html-keyboard-response","129","306315","0.0-129.0","5f467b0a0d1aef037515c8c9","62014e0904f12d7fa5489ecf","","","","","<p style=""color:darkgreen;font-size:24px;"">Correct :)</p>","",""
"2636","key","v","v","16.55484276729579","500","250","psychophysics","130","308953","0.0-130.0","5f467b0a0d1aef037515c8c9","62014e0904f12d7fa5489ecf","4","","","","","1","3"
"null","","","null","","","","html-keyboard-response","131","309457","0.0-131.0","5f467b0a0d1aef037515c8c9","62014e0904f12d7fa5489ecf","","","","","<p style=""color:darkgreen;font-size:24px;"">Correct :)</p>","",""
"2676","key","v","v","16.519753086419826","500","250","psychophysics","132","312135","0.0-132.0","5f467b0a0d1aef037515c8c9","62014e0904f12d7fa5489ecf","4","","","","","1","2"
"null","","","null","","","","html-keyboard-response","133","312640","0.0-133.0","5f467b0a0d1aef037515c8c9","62014e0904f12d7fa5489ecf","","","","","<p style=""color:darkgreen;font-size:24px;"">Correct :)</p>","",""
"2706","key","v","v","16.53251533742324","500","250","psychophysics","134","315349","0.0-134.0","5f467b0a0d1aef037515c8c9","62014e0904f12d7fa5489ecf","4","","","","","1","3"
"null","","","null","","","","html-keyboard-response","135","315852","0.0-135.0","5f467b0a0d1aef037515c8c9","62014e0904f12d7fa5489ecf","","","","","<p style=""color:darkgreen;font-size:24px;"">Correct :)</p>","",""
"2873","key","n","n","16.589132947976786","500","250","psychophysics","136","318728","0.0-136.0","5f467b0a0d1aef037515c8c9","62014e0904f12d7fa5489ecf","4","","","","","1","9"
"null","","","null","","","","html-keyboard-response","137","319237","0.0-137.0","5f467b0a0d1aef037515c8c9","62014e0904f12d7fa5489ecf","","","","","<p style=""color:darkgreen;font-size:24px;"">Correct :)</p>","",""
"3287","key","v","v","16.60616161616171","500","250","psychophysics","138","322525","0.0-138.0","5f467b0a0d1aef037515c8c9","62014e0904f12d7fa5489ecf","4","","","","","1","4"
"null","","","null","","","","html-keyboard-response","139","323034","0.0-139.0","5f467b0a0d1aef037515c8c9","62014e0904f12d7fa5489ecf","","","","","<p style=""color:darkgreen;font-size:24px;"">Correct :)</p>","",""
"2808","key","v","v","16.53082352941171","500","250","psychophysics","140","325845","0.0-140.0","5f467b0a0d1aef037515c8c9","62014e0904f12d7fa5489ecf","4","","","","","1","1"
"null","","","null","","","","html-keyboard-response","141","326347","0.0-141.0","5f467b0a0d1aef037515c8c9","62014e0904f12d7fa5489ecf","","","","","<p style=""color:darkgreen;font-size:24px;"">Correct :)</p>","",""
"2927","key","n","n","16.56647727272734","500","250","psychophysics","142","329278","0.0-142.0","5f467b0a0d1aef037515c8c9","62014e0904f12d7fa5489ecf","4","","","","","1","8"
"null","","","null","","","","html-keyboard-response","143","329785","0.0-143.0","5f467b0a0d1aef037515c8c9","62014e0904f12d7fa5489ecf","","","","","<p style=""color:darkgreen;font-size:24px;"">Correct :)</p>","",""
"2746","key","v","v","16.65548780487805","500","250","psychophysics","144","332532","0.0-144.0","5f467b0a0d1aef037515c8c9","62014e0904f12d7fa5489ecf","4","","","","","1","2"
"null","","","null","","","","html-keyboard-response","145","333041","0.0-145.0","5f467b0a0d1aef037515c8c9","62014e0904f12d7fa5489ecf","","","","","<p style=""color:darkgreen;font-size:24px;"">Correct :)</p>","",""
"2693","key","v","v","16.629876543209747","500","250","psychophysics","146","335737","0.0-146.0","5f467b0a0d1aef037515c8c9","62014e0904f12d7fa5489ecf","4","","","","","1","4"
"null","","","null","","","","html-keyboard-response","147","336238","0.0-147.0","5f467b0a0d1aef037515c8c9","62014e0904f12d7fa5489ecf","","","","","<p style=""color:darkgreen;font-size:24px;"">Correct :)</p>","",""
"2698","key","v","v","16.560864197530776","500","250","psychophysics","148","338938","0.0-148.0","5f467b0a0d1aef037515c8c9","62014e0904f12d7fa5489ecf","4","","","","","1","3"
"null","","","null","","","","html-keyboard-response","149","339443","0.0-149.0","5f467b0a0d1aef037515c8c9","62014e0904f12d7fa5489ecf","","","","","<p style=""color:darkgreen;font-size:24px;"">Correct :)</p>","",""
"2677","key","v","v","16.551428571428744","500","250","psychophysics","150","342120","0.0-150.0","5f467b0a0d1aef037515c8c9","62014e0904f12d7fa5489ecf","4","","","","","1","2"
"null","","","null","","","","html-keyboard-response","151","342622","0.0-151.0","5f467b0a0d1aef037515c8c9","62014e0904f12d7fa5489ecf","","","","","<p style=""color:darkgreen;font-size:24px;"">Correct :)</p>","",""
"2634","key","n","n","16.58670886075957","500","250","psychophysics","152","345258","0.0-152.0","5f467b0a0d1aef037515c8c9","62014e0904f12d7fa5489ecf","4","","","","","1","8"
"null","","","null","","","","html-keyboard-response","153","345767","0.0-153.0","5f467b0a0d1aef037515c8c9","62014e0904f12d7fa5489ecf","","","","","<p style=""color:darkgreen;font-size:24px;"">Correct :)</p>","",""
"2570","key","v","v","16.526322580645267","500","250","psychophysics","154","348340","0.0-154.0","5f467b0a0d1aef037515c8c9","62014e0904f12d7fa5489ecf","4","","","","","1","3"
"null","","","null","","","","html-keyboard-response","155","348854","0.0-155.0","5f467b0a0d1aef037515c8c9","62014e0904f12d7fa5489ecf","","","","","<p style=""color:darkgreen;font-size:24px;"">Correct :)</p>","",""
"2706","key","n","n","16.526748466257583","500","250","psychophysics","156","351563","0.0-156.0","5f467b0a0d1aef037515c8c9","62014e0904f12d7fa5489ecf","4","","","","","1","9"
"null","","","null","","","","html-keyboard-response","157","352079","0.0-157.0","5f467b0a0d1aef037515c8c9","62014e0904f12d7fa5489ecf","","","","","<p style=""color:darkgreen;font-size:24px;"">Correct :)</p>","",""
"2679","key","n","n","16.496666666666798","500","250","psychophysics","158","354759","0.0-158.0","5f467b0a0d1aef037515c8c9","62014e0904f12d7fa5489ecf","4","","","","","1","6"
"null","","","null","","","","html-keyboard-response","159","355269","0.0-159.0","5f467b0a0d1aef037515c8c9","62014e0904f12d7fa5489ecf","","","","","<p style=""color:darkgreen;font-size:24px;"">Correct :)</p>","",""
"2552","key","n","n","16.562857142857098","500","250","psychophysics","160","357825","0.0-160.0","5f467b0a0d1aef037515c8c9","62014e0904f12d7fa5489ecf","4","","","","","1","9"
"null","","","null","","","","html-keyboard-response","161","358331","0.0-161.0","5f467b0a0d1aef037515c8c9","62014e0904f12d7fa5489ecf","","","","","<p style=""color:darkgreen;font-size:24px;"">Correct :)</p>","",""
"2586","key","n","n","16.507435897436107","500","250","psychophysics","162","360920","0.0-162.0","5f467b0a0d1aef037515c8c9","62014e0904f12d7fa5489ecf","4","","","","","1","9"
"null","","","null","","","","html-keyboard-response","163","361422","0.0-163.0","5f467b0a0d1aef037515c8c9","62014e0904f12d7fa5489ecf","","","","","<p style=""color:darkgreen;font-size:24px;"">Correct :)</p>","",""
"2632","key","v","v","16.584177215190167","500","250","psychophysics","164","364057","0.0-164.0","5f467b0a0d1aef037515c8c9","62014e0904f12d7fa5489ecf","4","","","","","1","4"
"null","","","null","","","","html-keyboard-response","165","364570","0.0-165.0","5f467b0a0d1aef037515c8c9","62014e0904f12d7fa5489ecf","","","","","<p style=""color:darkgreen;font-size:24px;"">Correct :)</p>","",""
"2653","key","n","n","16.509749999999986","500","250","psychophysics","166","367226","0.0-166.0","5f467b0a0d1aef037515c8c9","62014e0904f12d7fa5489ecf","4","","","","","1","6"
"null","","","null","","","","html-keyboard-response","167","367728","0.0-167.0","5f467b0a0d1aef037515c8c9","62014e0904f12d7fa5489ecf","","","","","<p style=""color:darkgreen;font-size:24px;"">Correct :)</p>","",""
"2591","key","n","n","16.57192307692327","500","250","psychophysics","168","370322","0.0-168.0","5f467b0a0d1aef037515c8c9","62014e0904f12d7fa5489ecf","4","","","","","1","7"
"null","","","null","","","","html-keyboard-response","169","370825","0.0-169.0","5f467b0a0d1aef037515c8c9","62014e0904f12d7fa5489ecf","","","","","<p style=""color:darkgreen;font-size:24px;"">Correct :)</p>","",""
"2659","key","v","v","16.506335403726823","500","250","psychophysics","170","373488","0.0-170.0","5f467b0a0d1aef037515c8c9","62014e0904f12d7fa5489ecf","4","","","","","1","2"
"null","","","null","","","","html-keyboard-response","171","373995","0.0-171.0","5f467b0a0d1aef037515c8c9","62014e0904f12d7fa5489ecf","","","","","<p style=""color:darkgreen;font-size:24px;"">Correct :)</p>","",""
"2732","key","v","v","16.51260606060581","500","250","psychophysics","172","376729","0.0-172.0","5f467b0a0d1aef037515c8c9","62014e0904f12d7fa5489ecf","4","","","","","1","4"
"null","","","null","","","","html-keyboard-response","173","377229","0.0-173.0","5f467b0a0d1aef037515c8c9","62014e0904f12d7fa5489ecf","","","","","<p style=""color:darkgreen;font-size:24px;"">Correct :)</p>","",""
"3172","key","n","n","16.53937172774879","500","250","psychophysics","174","380404","0.0-174.0","5f467b0a0d1aef037515c8c9","62014e0904f12d7fa5489ecf","4","","","","","1","6"
"null","","","null","","","","html-keyboard-response","175","380910","0.0-175.0","5f467b0a0d1aef037515c8c9","62014e0904f12d7fa5489ecf","","","","","<p style=""color:darkgreen;font-size:24px;"">Correct :)</p>","",""
"2597","key","n","n","16.550445859872507","500","250","psychophysics","176","383509","0.0-176.0","5f467b0a0d1aef037515c8c9","62014e0904f12d7fa5489ecf","4","","","","","1","9"
"null","","","null","","","","html-keyboard-response","177","384017","0.0-177.0","5f467b0a0d1aef037515c8c9","62014e0904f12d7fa5489ecf","","","","","<p style=""color:darkgreen;font-size:24px;"">Correct :)</p>","",""
"2749","key","n","n","16.524819277108406","500","250","psychophysics","178","386769","0.0-178.0","5f467b0a0d1aef037515c8c9","62014e0904f12d7fa5489ecf","4","","","","","1","8"
"null","","","null","","","","html-keyboard-response","179","387284","0.0-179.0","5f467b0a0d1aef037515c8c9","62014e0904f12d7fa5489ecf","","","","","<p style=""color:darkgreen;font-size:24px;"">Correct :)</p>","",""
"2780","key","v","v","16.54047619047612","500","250","psychophysics","180","390066","0.0-180.0","5f467b0a0d1aef037515c8c9","62014e0904f12d7fa5489ecf","4","","","","","1","4"
"null","","","null","","","","html-keyboard-response","181","390566","0.0-181.0","5f467b0a0d1aef037515c8c9","62014e0904f12d7fa5489ecf","","","","","<p style=""color:darkgreen;font-size:24px;"">Correct :)</p>","",""
"2611","key","n","n","16.66243589743569","500","250","psychophysics","182","393181","0.0-182.0","5f467b0a0d1aef037515c8c9","62014e0904f12d7fa5489ecf","4","","","","","1","9"
"null","","","null","","","","html-keyboard-response","183","393683","0.0-183.0","5f467b0a0d1aef037515c8c9","62014e0904f12d7fa5489ecf","","","","","<p style=""color:darkgreen;font-size:24px;"">Correct :)</p>","",""
"2576","key","v","v","16.57200000000021","500","250","psychophysics","184","396262","0.0-184.0","5f467b0a0d1aef037515c8c9","62014e0904f12d7fa5489ecf","4","","","","","1","2"
"null","","","null","","","","html-keyboard-response","185","396766","0.0-185.0","5f467b0a0d1aef037515c8c9","62014e0904f12d7fa5489ecf","","","","","<p style=""color:darkgreen;font-size:24px;"">Correct :)</p>","",""
"2685","key","v","v","16.59118012422356","500","250","psychophysics","186","399453","0.0-186.0","5f467b0a0d1aef037515c8c9","62014e0904f12d7fa5489ecf","4","","","","","1","2"
"null","","","null","","","","html-keyboard-response","187","399965","0.0-187.0","5f467b0a0d1aef037515c8c9","62014e0904f12d7fa5489ecf","","","","","<p style=""color:darkgreen;font-size:24px;"">Correct :)</p>","",""
"2750","key","v","v","16.517590361446036","500","250","psychophysics","188","402716","0.0-188.0","5f467b0a0d1aef037515c8c9","62014e0904f12d7fa5489ecf","4","","","","","1","4"
"null","","","null","","","","html-keyboard-response","189","403220","0.0-189.0","5f467b0a0d1aef037515c8c9","62014e0904f12d7fa5489ecf","","","","","<p style=""color:darkgreen;font-size:24px;"">Correct :)</p>","",""
"2606","key","n","n","16.498101265822857","500","250","psychophysics","190","405827","0.0-190.0","5f467b0a0d1aef037515c8c9","62014e0904f12d7fa5489ecf","4","","","","","1","9"
"null","","","null","","","","html-keyboard-response","191","406336","0.0-191.0","5f467b0a0d1aef037515c8c9","62014e0904f12d7fa5489ecf","","","","","<p style=""color:darkgreen;font-size:24px;"">Correct :)</p>","",""
"2620","key","n","n","16.512531645569872","500","250","psychophysics","192","408959","0.0-192.0","5f467b0a0d1aef037515c8c9","62014e0904f12d7fa5489ecf","4","","","","","1","8"
"null","","","null","","","","html-keyboard-response","193","409476","0.0-193.0","5f467b0a0d1aef037515c8c9","62014e0904f12d7fa5489ecf","","","","","<p style=""color:darkgreen;font-size:24px;"">Correct :)</p>","",""
"5269","","","n","","","","html-keyboard-response","194","414745","0.0-194.0","5f467b0a0d1aef037515c8c9","62014e0904f12d7fa5489ecf","","","","","<p> Ok, now we are going present the same digits as before.  Your job is to say whether the digit is even or odd  If the digit is odd, press to v key; if it is even, press the n key. We are going to do 50 of these.  </p>  <br><br>  Ready? (press v or n)","",""
"2697","key","v","v","16.5068711656445","500","250","psychophysics","195","417444","0.0-195.0","5f467b0a0d1aef037515c8c9","62014e0904f12d7fa5489ecf","5","","","","","0","4"
"null","","","null","","","","html-keyboard-response","196","417950","0.0-196.0","5f467b0a0d1aef037515c8c9","62014e0904f12d7fa5489ecf","","","","","<p style=""color:red;font-size:24px;"">Error :(</p>","",""
"3115","key","v","v","16.603743315508147","500","250","psychophysics","197","421069","0.0-197.0","5f467b0a0d1aef037515c8c9","62014e0904f12d7fa5489ecf","5","","","","","0","1"
"null","","","null","","","","html-keyboard-response","198","421580","0.0-198.0","5f467b0a0d1aef037515c8c9","62014e0904f12d7fa5489ecf","","","","","<p style=""color:darkgreen;font-size:24px;"">Correct :)</p>","",""
"3147","key","v","v","16.550526315789657","500","250","psychophysics","199","424729","0.0-199.0","5f467b0a0d1aef037515c8c9","62014e0904f12d7fa5489ecf","5","","","","","0","7"
"null","","","null","","","","html-keyboard-response","200","425237","0.0-200.0","5f467b0a0d1aef037515c8c9","62014e0904f12d7fa5489ecf","","","","","<p style=""color:darkgreen;font-size:24px;"">Correct :)</p>","",""
"2641","key","v","v","16.508749999999782","500","250","psychophysics","201","427880","0.0-201.0","5f467b0a0d1aef037515c8c9","62014e0904f12d7fa5489ecf","5","","","","","0","3"
"null","","","null","","","","html-keyboard-response","202","428392","0.0-202.0","5f467b0a0d1aef037515c8c9","62014e0904f12d7fa5489ecf","","","","","<p style=""color:darkgreen;font-size:24px;"">Correct :)</p>","",""
"2495","key","v","v","16.586933333333192","500","250","psychophysics","203","430889","0.0-203.0","5f467b0a0d1aef037515c8c9","62014e0904f12d7fa5489ecf","5","","","","","0","1"
"null","","","null","","","","html-keyboard-response","204","431392","0.0-204.0","5f467b0a0d1aef037515c8c9","62014e0904f12d7fa5489ecf","","","","","<p style=""color:darkgreen;font-size:24px;"">Correct :)</p>","",""
"3127","key","v","v","16.528465608465634","500","250","psychophysics","205","434522","0.0-205.0","5f467b0a0d1aef037515c8c9","62014e0904f12d7fa5489ecf","5","","","","","0","9"
"null","","","null","","","","html-keyboard-response","206","435033","0.0-206.0","5f467b0a0d1aef037515c8c9","62014e0904f12d7fa5489ecf","","","","","<p style=""color:darkgreen;font-size:24px;"">Correct :)</p>","",""
"2729","key","v","v","16.57902439024403","500","250","psychophysics","207","437764","0.0-207.0","5f467b0a0d1aef037515c8c9","62014e0904f12d7fa5489ecf","5","","","","","0","9"
"null","","","null","","","","html-keyboard-response","208","438274","0.0-208.0","5f467b0a0d1aef037515c8c9","62014e0904f12d7fa5489ecf","","","","","<p style=""color:darkgreen;font-size:24px;"">Correct :)</p>","",""
"2845","key","n","n","16.650941176470436","500","250","psychophysics","209","441120","0.0-209.0","5f467b0a0d1aef037515c8c9","62014e0904f12d7fa5489ecf","5","","","","","0","8"
"null","","","null","","","","html-keyboard-response","210","441636","0.0-210.0","5f467b0a0d1aef037515c8c9","62014e0904f12d7fa5489ecf","","","","","<p style=""color:darkgreen;font-size:24px;"">Correct :)</p>","",""
"2903","key","v","v","16.50937142857151","500","250","psychophysics","211","444540","0.0-211.0","5f467b0a0d1aef037515c8c9","62014e0904f12d7fa5489ecf","5","","","","","0","9"
"null","","","null","","","","html-keyboard-response","212","445047","0.0-212.0","5f467b0a0d1aef037515c8c9","62014e0904f12d7fa5489ecf","","","","","<p style=""color:darkgreen;font-size:24px;"">Correct :)</p>","",""
"3476","key","v","v","16.573301435406734","500","250","psychophysics","213","448525","0.0-213.0","5f467b0a0d1aef037515c8c9","62014e0904f12d7fa5489ecf","5","","","","","0","9"
"null","","","null","","","","html-keyboard-response","214","449036","0.0-214.0","5f467b0a0d1aef037515c8c9","62014e0904f12d7fa5489ecf","","","","","<p style=""color:darkgreen;font-size:24px;"">Correct :)</p>","",""
"3503","key","n","n","16.646190476190533","500","250","psychophysics","215","452542","0.0-215.0","5f467b0a0d1aef037515c8c9","62014e0904f12d7fa5489ecf","5","","","","","0","6"
"null","","","null","","","","html-keyboard-response","216","453048","0.0-216.0","5f467b0a0d1aef037515c8c9","62014e0904f12d7fa5489ecf","","","","","<p style=""color:darkgreen;font-size:24px;"">Correct :)</p>","",""
"3739","key","n","n","16.60977777777783","500","250","psychophysics","217","456788","0.0-217.0","5f467b0a0d1aef037515c8c9","62014e0904f12d7fa5489ecf","5","","","","","0","9"
"null","","","null","","","","html-keyboard-response","218","457297","0.0-218.0","5f467b0a0d1aef037515c8c9","62014e0904f12d7fa5489ecf","","","","","<p style=""color:red;font-size:24px;"">Error :(</p>","",""
"3031","key","v","v","16.52163934426209","500","250","psychophysics","219","460330","0.0-219.0","5f467b0a0d1aef037515c8c9","62014e0904f12d7fa5489ecf","5","","","","","0","1"
"null","","","null","","","","html-keyboard-response","220","460841","0.0-220.0","5f467b0a0d1aef037515c8c9","62014e0904f12d7fa5489ecf","","","","","<p style=""color:darkgreen;font-size:24px;"">Correct :)</p>","",""
"2628","key","v","v","16.55848101265817","500","250","psychophysics","221","463472","0.0-221.0","5f467b0a0d1aef037515c8c9","62014e0904f12d7fa5489ecf","5","","","","","0","3"
"null","","","null","","","","html-keyboard-response","222","463987","0.0-222.0","5f467b0a0d1aef037515c8c9","62014e0904f12d7fa5489ecf","","","","","<p style=""color:darkgreen;font-size:24px;"">Correct :)</p>","",""
"3012","key","v","v","16.60519337016563","500","250","psychophysics","223","467001","0.0-223.0","5f467b0a0d1aef037515c8c9","62014e0904f12d7fa5489ecf","5","","","","","0","3"
"null","","","null","","","","html-keyboard-response","224","467506","0.0-224.0","5f467b0a0d1aef037515c8c9","62014e0904f12d7fa5489ecf","","","","","<p style=""color:darkgreen;font-size:24px;"">Correct :)</p>","",""
"3217","key","n","n","16.527216494845504","500","250","psychophysics","225","470726","0.0-225.0","5f467b0a0d1aef037515c8c9","62014e0904f12d7fa5489ecf","5","","","","","0","6"
"null","","","null","","","","html-keyboard-response","226","471237","0.0-226.0","5f467b0a0d1aef037515c8c9","62014e0904f12d7fa5489ecf","","","","","<p style=""color:darkgreen;font-size:24px;"">Correct :)</p>","",""
"3563","key","n","n","16.567441860465117","500","250","psychophysics","227","474802","0.0-227.0","5f467b0a0d1aef037515c8c9","62014e0904f12d7fa5489ecf","5","","","","","0","6"
"null","","","null","","","","html-keyboard-response","228","475318","0.0-228.0","5f467b0a0d1aef037515c8c9","62014e0904f12d7fa5489ecf","","","","","<p style=""color:darkgreen;font-size:24px;"">Correct :)</p>","",""
"2935","key","v","v","16.58079096045191","500","250","psychophysics","229","478254","0.0-229.0","5f467b0a0d1aef037515c8c9","62014e0904f12d7fa5489ecf","5","","","","","0","3"
"null","","","null","","","","html-keyboard-response","230","478768","0.0-230.0","5f467b0a0d1aef037515c8c9","62014e0904f12d7fa5489ecf","","","","","<p style=""color:darkgreen;font-size:24px;"">Correct :)</p>","",""
"2772","key","n","n","16.585868263473206","500","250","psychophysics","231","481541","0.0-231.0","5f467b0a0d1aef037515c8c9","62014e0904f12d7fa5489ecf","5","","","","","0","8"
"null","","","null","","","","html-keyboard-response","232","482049","0.0-232.0","5f467b0a0d1aef037515c8c9","62014e0904f12d7fa5489ecf","","","","","<p style=""color:darkgreen;font-size:24px;"">Correct :)</p>","",""
"2828","key","v","v","16.51988304093581","500","250","psychophysics","233","484878","0.0-233.0","5f467b0a0d1aef037515c8c9","62014e0904f12d7fa5489ecf","5","","","","","0","7"
"null","","","null","","","","html-keyboard-response","234","485388","0.0-234.0","5f467b0a0d1aef037515c8c9","62014e0904f12d7fa5489ecf","","","","","<p style=""color:darkgreen;font-size:24px;"">Correct :)</p>","",""
"2981","key","n","n","16.516222222222133","500","250","psychophysics","235","488370","0.0-235.0","5f467b0a0d1aef037515c8c9","62014e0904f12d7fa5489ecf","5","","","","","0","2"
"null","","","null","","","","html-keyboard-response","236","488880","0.0-236.0","5f467b0a0d1aef037515c8c9","62014e0904f12d7fa5489ecf","","","","","<p style=""color:darkgreen;font-size:24px;"">Correct :)</p>","",""
"2854","key","n","n","16.669590643274855","500","250","psychophysics","237","491734","0.0-237.0","5f467b0a0d1aef037515c8c9","62014e0904f12d7fa5489ecf","5","","","","","0","6"
"null","","","null","","","","html-keyboard-response","238","492249","0.0-238.0","5f467b0a0d1aef037515c8c9","62014e0904f12d7fa5489ecf","","","","","<p style=""color:darkgreen;font-size:24px;"">Correct :)</p>","",""
"2844","key","v","v","16.569122807017585","500","250","psychophysics","239","495094","0.0-239.0","5f467b0a0d1aef037515c8c9","62014e0904f12d7fa5489ecf","5","","","","","0","2"
"null","","","null","","","","html-keyboard-response","240","495596","0.0-240.0","5f467b0a0d1aef037515c8c9","62014e0904f12d7fa5489ecf","","","","","<p style=""color:red;font-size:24px;"">Error :(</p>","",""
"2867","key","n","n","16.60860465116275","500","250","psychophysics","241","498464","0.0-241.0","5f467b0a0d1aef037515c8c9","62014e0904f12d7fa5489ecf","5","","","","","0","2"
"null","","","null","","","","html-keyboard-response","242","498979","0.0-242.0","5f467b0a0d1aef037515c8c9","62014e0904f12d7fa5489ecf","","","","","<p style=""color:darkgreen;font-size:24px;"">Correct :)</p>","",""
"2884","key","v","v","16.525862068965516","500","250","psychophysics","243","501866","0.0-243.0","5f467b0a0d1aef037515c8c9","62014e0904f12d7fa5489ecf","5","","","","","0","9"
"null","","","null","","","","html-keyboard-response","244","502377","0.0-244.0","5f467b0a0d1aef037515c8c9","62014e0904f12d7fa5489ecf","","","","","<p style=""color:darkgreen;font-size:24px;"">Correct :)</p>","",""
"2586","key","v","v","16.53884615384614","500","250","psychophysics","245","504966","0.0-245.0","5f467b0a0d1aef037515c8c9","62014e0904f12d7fa5489ecf","5","","","","","0","3"
"null","","","null","","","","html-keyboard-response","246","505476","0.0-246.0","5f467b0a0d1aef037515c8c9","62014e0904f12d7fa5489ecf","","","","","<p style=""color:darkgreen;font-size:24px;"">Correct :)</p>","",""
"2911","key","n","n","16.575314285714246","500","250","psychophysics","247","508390","0.0-247.0","5f467b0a0d1aef037515c8c9","62014e0904f12d7fa5489ecf","5","","","","","0","4"
"null","","","null","","","","html-keyboard-response","248","508892","0.0-248.0","5f467b0a0d1aef037515c8c9","62014e0904f12d7fa5489ecf","","","","","<p style=""color:darkgreen;font-size:24px;"">Correct :)</p>","",""
"2688","key","n","n","16.59086419753105","500","250","psychophysics","249","511582","0.0-249.0","5f467b0a0d1aef037515c8c9","62014e0904f12d7fa5489ecf","5","","","","","0","4"
"null","","","null","","","","html-keyboard-response","250","512090","0.0-250.0","5f467b0a0d1aef037515c8c9","62014e0904f12d7fa5489ecf","","","","","<p style=""color:darkgreen;font-size:24px;"">Correct :)</p>","",""
"2881","key","n","n","16.524597701149585","500","250","psychophysics","251","514974","0.0-251.0","5f467b0a0d1aef037515c8c9","62014e0904f12d7fa5489ecf","5","","","","","0","4"
"null","","","null","","","","html-keyboard-response","252","515487","0.0-252.0","5f467b0a0d1aef037515c8c9","62014e0904f12d7fa5489ecf","","","","","<p style=""color:darkgreen;font-size:24px;"">Correct :)</p>","",""
"3305","key","v","v","16.572964824120696","500","250","psychophysics","253","518796","0.0-253.0","5f467b0a0d1aef037515c8c9","62014e0904f12d7fa5489ecf","5","","","","","0","7"
"null","","","null","","","","html-keyboard-response","254","519300","0.0-254.0","5f467b0a0d1aef037515c8c9","62014e0904f12d7fa5489ecf","","","","","<p style=""color:darkgreen;font-size:24px;"">Correct :)</p>","",""
"3387","key","v","v","16.61235294117639","500","250","psychophysics","255","522690","0.0-255.0","5f467b0a0d1aef037515c8c9","62014e0904f12d7fa5489ecf","5","","","","","0","7"
"null","","","null","","","","html-keyboard-response","256","523206","0.0-256.0","5f467b0a0d1aef037515c8c9","62014e0904f12d7fa5489ecf","","","","","<p style=""color:darkgreen;font-size:24px;"">Correct :)</p>","",""
"2799","key","v","v","16.582619047619076","500","250","psychophysics","257","526008","0.0-257.0","5f467b0a0d1aef037515c8c9","62014e0904f12d7fa5489ecf","5","","","","","0","1"
"null","","","null","","","","html-keyboard-response","258","526521","0.0-258.0","5f467b0a0d1aef037515c8c9","62014e0904f12d7fa5489ecf","","","","","<p style=""color:darkgreen;font-size:24px;"">Correct :)</p>","",""
"2718","key","n","n","16.507195121951533","500","250","psychophysics","259","529240","0.0-259.0","5f467b0a0d1aef037515c8c9","62014e0904f12d7fa5489ecf","5","","","","","0","8"
"null","","","null","","","","html-keyboard-response","260","529754","0.0-260.0","5f467b0a0d1aef037515c8c9","62014e0904f12d7fa5489ecf","","","","","<p style=""color:darkgreen;font-size:24px;"">Correct :)</p>","",""
"3005","key","v","v","16.536795580110677","500","250","psychophysics","261","532760","0.0-261.0","5f467b0a0d1aef037515c8c9","62014e0904f12d7fa5489ecf","5","","","","","0","9"
"null","","","null","","","","html-keyboard-response","262","533265","0.0-262.0","5f467b0a0d1aef037515c8c9","62014e0904f12d7fa5489ecf","","","","","<p style=""color:darkgreen;font-size:24px;"">Correct :)</p>","",""
"3328","key","n","n","16.589500000000115","500","250","psychophysics","263","536595","0.0-263.0","5f467b0a0d1aef037515c8c9","62014e0904f12d7fa5489ecf","5","","","","","0","4"
"null","","","null","","","","html-keyboard-response","264","537100","0.0-264.0","5f467b0a0d1aef037515c8c9","62014e0904f12d7fa5489ecf","","","","","<p style=""color:darkgreen;font-size:24px;"">Correct :)</p>","",""
"2912","key","n","n","16.590171428571587","500","250","psychophysics","265","540014","0.0-265.0","5f467b0a0d1aef037515c8c9","62014e0904f12d7fa5489ecf","5","","","","","0","6"
"null","","","null","","","","html-keyboard-response","266","540520","0.0-266.0","5f467b0a0d1aef037515c8c9","62014e0904f12d7fa5489ecf","","","","","<p style=""color:darkgreen;font-size:24px;"">Correct :)</p>","",""
"2930","key","v","v","16.587840909090698","500","250","psychophysics","267","543451","0.0-267.0","5f467b0a0d1aef037515c8c9","62014e0904f12d7fa5489ecf","5","","","","","0","9"
"null","","","null","","","","html-keyboard-response","268","543958","0.0-268.0","5f467b0a0d1aef037515c8c9","62014e0904f12d7fa5489ecf","","","","","<p style=""color:darkgreen;font-size:24px;"">Correct :)</p>","",""
"3665","key","n","n","16.598727272727146","500","250","psychophysics","269","547624","0.0-269.0","5f467b0a0d1aef037515c8c9","62014e0904f12d7fa5489ecf","5","","","","","0","2"
"null","","","null","","","","html-keyboard-response","270","548136","0.0-270.0","5f467b0a0d1aef037515c8c9","62014e0904f12d7fa5489ecf","","","","","<p style=""color:darkgreen;font-size:24px;"">Correct :)</p>","",""
"2978","key","n","n","16.530111111111346","500","250","psychophysics","271","551117","0.0-271.0","5f467b0a0d1aef037515c8c9","62014e0904f12d7fa5489ecf","5","","","","","0","4"
"null","","","null","","","","html-keyboard-response","272","551625","0.0-272.0","5f467b0a0d1aef037515c8c9","62014e0904f12d7fa5489ecf","","","","","<p style=""color:darkgreen;font-size:24px;"">Correct :)</p>","",""
"2883","key","v","v","16.51298850574718","500","250","psychophysics","273","554510","0.0-273.0","5f467b0a0d1aef037515c8c9","62014e0904f12d7fa5489ecf","5","","","","","0","3"
"null","","","null","","","","html-keyboard-response","274","555019","0.0-274.0","5f467b0a0d1aef037515c8c9","62014e0904f12d7fa5489ecf","","","","","<p style=""color:darkgreen;font-size:24px;"">Correct :)</p>","",""
"3690","key","n","n","16.586846846846974","500","250","psychophysics","275","558711","0.0-275.0","5f467b0a0d1aef037515c8c9","62014e0904f12d7fa5489ecf","5","","","","","0","2"
"null","","","null","","","","html-keyboard-response","276","559223","0.0-276.0","5f467b0a0d1aef037515c8c9","62014e0904f12d7fa5489ecf","","","","","<p style=""color:darkgreen;font-size:24px;"">Correct :)</p>","",""
"2791","key","n","n","16.55892857142871","500","250","psychophysics","277","562017","0.0-277.0","5f467b0a0d1aef037515c8c9","62014e0904f12d7fa5489ecf","5","","","","","0","6"
"null","","","null","","","","html-keyboard-response","278","562525","0.0-278.0","5f467b0a0d1aef037515c8c9","62014e0904f12d7fa5489ecf","","","","","<p style=""color:darkgreen;font-size:24px;"">Correct :)</p>","",""
"2766","key","n","n","16.562275449101936","500","250","psychophysics","279","565291","0.0-279.0","5f467b0a0d1aef037515c8c9","62014e0904f12d7fa5489ecf","5","","","","","0","6"
"null","","","null","","","","html-keyboard-response","280","565794","0.0-280.0","5f467b0a0d1aef037515c8c9","62014e0904f12d7fa5489ecf","","","","","<p style=""color:darkgreen;font-size:24px;"">Correct :)</p>","",""
"3069","key","n","n","16.567675675675776","500","250","psychophysics","281","568867","0.0-281.0","5f467b0a0d1aef037515c8c9","62014e0904f12d7fa5489ecf","5","","","","","0","4"
"null","","","null","","","","html-keyboard-response","282","569376","0.0-282.0","5f467b0a0d1aef037515c8c9","62014e0904f12d7fa5489ecf","","","","","<p style=""color:darkgreen;font-size:24px;"">Correct :)</p>","",""
"3396","key","n","n","16.601568627450842","500","250","psychophysics","283","572775","0.0-283.0","5f467b0a0d1aef037515c8c9","62014e0904f12d7fa5489ecf","5","","","","","0","9"
"null","","","null","","","","html-keyboard-response","284","573280","0.0-284.0","5f467b0a0d1aef037515c8c9","62014e0904f12d7fa5489ecf","","","","","<p style=""color:red;font-size:24px;"">Error :(</p>","",""
"3273","key","n","n","16.595431472081454","500","250","psychophysics","285","576555","0.0-285.0","5f467b0a0d1aef037515c8c9","62014e0904f12d7fa5489ecf","5","","","","","0","6"
"null","","","null","","","","html-keyboard-response","286","577068","0.0-286.0","5f467b0a0d1aef037515c8c9","62014e0904f12d7fa5489ecf","","","","","<p style=""color:darkgreen;font-size:24px;"">Correct :)</p>","",""
"2918","key","n","n","16.57568181818219","500","250","psychophysics","287","579989","0.0-287.0","5f467b0a0d1aef037515c8c9","62014e0904f12d7fa5489ecf","5","","","","","0","2"
"null","","","null","","","","html-keyboard-response","288","580500","0.0-288.0","5f467b0a0d1aef037515c8c9","62014e0904f12d7fa5489ecf","","","","","<p style=""color:darkgreen;font-size:24px;"">Correct :)</p>","",""
"2648","key","n","n","16.590440251572357","500","250","psychophysics","289","583150","0.0-289.0","5f467b0a0d1aef037515c8c9","62014e0904f12d7fa5489ecf","5","","","","","0","8"
"null","","","null","","","","html-keyboard-response","290","583663","0.0-290.0","5f467b0a0d1aef037515c8c9","62014e0904f12d7fa5489ecf","","","","","<p style=""color:darkgreen;font-size:24px;"">Correct :)</p>","",""
"2762","key","n","n","16.532335329341457","500","250","psychophysics","291","586428","0.0-291.0","5f467b0a0d1aef037515c8c9","62014e0904f12d7fa5489ecf","5","","","","","0","2"
"null","","","null","","","","html-keyboard-response","292","586933","0.0-292.0","5f467b0a0d1aef037515c8c9","62014e0904f12d7fa5489ecf","","","","","<p style=""color:darkgreen;font-size:24px;"">Correct :)</p>","",""
"2971","key","n","n","16.54223463687182","500","250","psychophysics","293","589906","0.0-293.0","5f467b0a0d1aef037515c8c9","62014e0904f12d7fa5489ecf","5","","","","","0","9"
"null","","","null","","","","html-keyboard-response","294","590417","0.0-294.0","5f467b0a0d1aef037515c8c9","62014e0904f12d7fa5489ecf","","","","","<p style=""color:red;font-size:24px;"">Error :(</p>","",""
"8311","","","n","","","","html-keyboard-response","295","598728","0.0-295.0","5f467b0a0d1aef037515c8c9","62014e0904f12d7fa5489ecf","","","","","<p> Here, the tasks are going to switch.  For some trials, your job is to decide if the digit is less than or greater than 5.  For others, it is to decide if the digit is even or odd.  You will be told which type of trial the current one is.  But, pay attention, the type of trial changes too.  We are going to do 50 of these.  </p>  <br><br>  Ready? (press v or n)","",""
"3034","key","v","v","16.535081967213344","500","250","psychophysics","296","601764","0.0-296.0","5f467b0a0d1aef037515c8c9","62014e0904f12d7fa5489ecf","6","","","","","1","1"
"null","","","null","","","","html-keyboard-response","297","602267","0.0-297.0","5f467b0a0d1aef037515c8c9","62014e0904f12d7fa5489ecf","","","","","<p style=""color:darkgreen;font-size:24px;"">Correct :)</p>","",""
"2592","key","n","n","16.59320512820462","500","250","psychophysics","298","604862","0.0-298.0","5f467b0a0d1aef037515c8c9","62014e0904f12d7fa5489ecf","6","","","","","1","9"
"null","","","null","","","","html-keyboard-response","299","605362","0.0-299.0","5f467b0a0d1aef037515c8c9","62014e0904f12d7fa5489ecf","","","","","<p style=""color:darkgreen;font-size:24px;"">Correct :)</p>","",""
"3971","key","n","n","16.58518828451877","500","250","psychophysics","300","609336","0.0-300.0","5f467b0a0d1aef037515c8c9","62014e0904f12d7fa5489ecf","6","","","","","0","6"
"null","","","null","","","","html-keyboard-response","301","609839","0.0-301.0","5f467b0a0d1aef037515c8c9","62014e0904f12d7fa5489ecf","","","","","<p style=""color:darkgreen;font-size:24px;"">Correct :)</p>","",""
"2994","key","v","v","16.611444444444754","500","250","psychophysics","302","612836","0.0-302.0","5f467b0a0d1aef037515c8c9","62014e0904f12d7fa5489ecf","6","","","","","0","1"
"null","","","null","","","","html-keyboard-response","303","613343","0.0-303.0","5f467b0a0d1aef037515c8c9","62014e0904f12d7fa5489ecf","","","","","<p style=""color:darkgreen;font-size:24px;"">Correct :)</p>","",""
"2563","key","n","n","16.591038961039082","500","250","psychophysics","304","615909","0.0-304.0","5f467b0a0d1aef037515c8c9","62014e0904f12d7fa5489ecf","6","","","","","1","9"
"null","","","null","","","","html-keyboard-response","305","616424","0.0-305.0","5f467b0a0d1aef037515c8c9","62014e0904f12d7fa5489ecf","","","","","<p style=""color:darkgreen;font-size:24px;"">Correct :)</p>","",""
"2723","key","n","n","16.52560975609728","500","250","psychophysics","306","619148","0.0-306.0","5f467b0a0d1aef037515c8c9","62014e0904f12d7fa5489ecf","6","","","","","1","8"
"null","","","null","","","","html-keyboard-response","307","619657","0.0-307.0","5f467b0a0d1aef037515c8c9","62014e0904f12d7fa5489ecf","","","","","<p style=""color:darkgreen;font-size:24px;"">Correct :)</p>","",""
"3257","key","v","v","16.564489795917844","500","250","psychophysics","308","622917","0.0-308.0","5f467b0a0d1aef037515c8c9","62014e0904f12d7fa5489ecf","6","","","","","1","3"
"null","","","null","","","","html-keyboard-response","309","623424","0.0-309.0","5f467b0a0d1aef037515c8c9","62014e0904f12d7fa5489ecf","","","","","<p style=""color:darkgreen;font-size:24px;"">Correct :)</p>","",""
"2717","key","n","n","16.565975609756496","500","250","psychophysics","310","626143","0.0-310.0","5f467b0a0d1aef037515c8c9","62014e0904f12d7fa5489ecf","6","","","","","1","7"
"null","","","null","","","","html-keyboard-response","311","626643","0.0-311.0","5f467b0a0d1aef037515c8c9","62014e0904f12d7fa5489ecf","","","","","<p style=""color:darkgreen;font-size:24px;"">Correct :)</p>","",""
"2545","key","n","n","16.66223684210548","500","250","psychophysics","312","629192","0.0-312.0","5f467b0a0d1aef037515c8c9","62014e0904f12d7fa5489ecf","6","","","","","1","7"
"null","","","null","","","","html-keyboard-response","313","629704","0.0-313.0","5f467b0a0d1aef037515c8c9","62014e0904f12d7fa5489ecf","","","","","<p style=""color:darkgreen;font-size:24px;"">Correct :)</p>","",""
"2628","key","v","v","16.613164556962055","500","250","psychophysics","314","632335","0.0-314.0","5f467b0a0d1aef037515c8c9","62014e0904f12d7fa5489ecf","6","","","","","0","1"
"null","","","null","","","","html-keyboard-response","315","632850","0.0-315.0","5f467b0a0d1aef037515c8c9","62014e0904f12d7fa5489ecf","","","","","<p style=""color:darkgreen;font-size:24px;"">Correct :)</p>","",""
"2571","key","v","v","16.544645161289843","500","250","psychophysics","316","635424","0.0-316.0","5f467b0a0d1aef037515c8c9","62014e0904f12d7fa5489ecf","6","","","","","1","1"
"null","","","null","","","","html-keyboard-response","317","635938","0.0-317.0","5f467b0a0d1aef037515c8c9","62014e0904f12d7fa5489ecf","","","","","<p style=""color:darkgreen;font-size:24px;"">Correct :)</p>","",""
"2978","key","n","n","16.552555555555347","500","250","psychophysics","318","638919","0.0-318.0","5f467b0a0d1aef037515c8c9","62014e0904f12d7fa5489ecf","6","","","","","1","8"
"null","","","null","","","","html-keyboard-response","319","639433","0.0-319.0","5f467b0a0d1aef037515c8c9","62014e0904f12d7fa5489ecf","","","","","<p style=""color:darkgreen;font-size:24px;"">Correct :)</p>","",""
"2814","key","v","v","16.58781065088738","500","250","psychophysics","320","642250","0.0-320.0","5f467b0a0d1aef037515c8c9","62014e0904f12d7fa5489ecf","6","","","","","0","1"
"null","","","null","","","","html-keyboard-response","321","642760","0.0-321.0","5f467b0a0d1aef037515c8c9","62014e0904f12d7fa5489ecf","","","","","<p style=""color:darkgreen;font-size:24px;"">Correct :)</p>","",""
"2696","key","n","n","16.539877300613497","500","250","psychophysics","322","645458","0.0-322.0","5f467b0a0d1aef037515c8c9","62014e0904f12d7fa5489ecf","6","","","","","1","9"
"null","","","null","","","","html-keyboard-response","323","645973","0.0-323.0","5f467b0a0d1aef037515c8c9","62014e0904f12d7fa5489ecf","","","","","<p style=""color:darkgreen;font-size:24px;"">Correct :)</p>","",""
"3297","key","n","n","16.595252525252455","500","250","psychophysics","324","649272","0.0-324.0","5f467b0a0d1aef037515c8c9","62014e0904f12d7fa5489ecf","6","","","","","0","4"
"null","","","null","","","","html-keyboard-response","325","649782","0.0-325.0","5f467b0a0d1aef037515c8c9","62014e0904f12d7fa5489ecf","","","","","<p style=""color:darkgreen;font-size:24px;"">Correct :)</p>","",""
"4077","key","v","v","16.58718367346933","500","250","psychophysics","326","653861","0.0-326.0","5f467b0a0d1aef037515c8c9","62014e0904f12d7fa5489ecf","6","","","","","0","3"
"null","","","null","","","","html-keyboard-response","327","654376","0.0-327.0","5f467b0a0d1aef037515c8c9","62014e0904f12d7fa5489ecf","","","","","<p style=""color:darkgreen;font-size:24px;"">Correct :)</p>","",""
"3533","key","v","v","16.543849765258063","500","250","psychophysics","328","657912","0.0-328.0","5f467b0a0d1aef037515c8c9","62014e0904f12d7fa5489ecf","6","","","","","0","3"
"null","","","null","","","","html-keyboard-response","329","658420","0.0-329.0","5f467b0a0d1aef037515c8c9","62014e0904f12d7fa5489ecf","","","","","<p style=""color:darkgreen;font-size:24px;"">Correct :)</p>","",""
"2893","key","n","n","16.56666666666653","500","250","psychophysics","330","661315","0.0-330.0","5f467b0a0d1aef037515c8c9","62014e0904f12d7fa5489ecf","6","","","","","0","8"
"null","","","null","","","","html-keyboard-response","331","661817","0.0-331.0","5f467b0a0d1aef037515c8c9","62014e0904f12d7fa5489ecf","","","","","<p style=""color:darkgreen;font-size:24px;"">Correct :)</p>","",""
"3430","key","v","v","16.614466019417836","500","250","psychophysics","332","665249","0.0-332.0","5f467b0a0d1aef037515c8c9","62014e0904f12d7fa5489ecf","6","","","","","1","1"
"null","","","null","","","","html-keyboard-response","333","665761","0.0-333.0","5f467b0a0d1aef037515c8c9","62014e0904f12d7fa5489ecf","","","","","<p style=""color:darkgreen;font-size:24px;"">Correct :)</p>","",""
"3112","key","n","n","16.562566844919537","500","250","psychophysics","334","668875","0.0-334.0","5f467b0a0d1aef037515c8c9","62014e0904f12d7fa5489ecf","6","","","","","0","4"
"null","","","null","","","","html-keyboard-response","335","669387","0.0-335.0","5f467b0a0d1aef037515c8c9","62014e0904f12d7fa5489ecf","","","","","<p style=""color:darkgreen;font-size:24px;"">Correct :)</p>","",""
"2890","key","v","v","16.618381502890067","500","250","psychophysics","336","672279","0.0-336.0","5f467b0a0d1aef037515c8c9","62014e0904f12d7fa5489ecf","6","","","","","0","1"
"null","","","null","","","","html-keyboard-response","337","672782","0.0-337.0","5f467b0a0d1aef037515c8c9","62014e0904f12d7fa5489ecf","","","","","<p style=""color:darkgreen;font-size:24px;"">Correct :)</p>","",""
"2697","key","v","v","16.553865030675016","500","250","psychophysics","338","675481","0.0-338.0","5f467b0a0d1aef037515c8c9","62014e0904f12d7fa5489ecf","6","","","","","0","1"
"null","","","null","","","","html-keyboard-response","339","675986","0.0-339.0","5f467b0a0d1aef037515c8c9","62014e0904f12d7fa5489ecf","","","","","<p style=""color:darkgreen;font-size:24px;"">Correct :)</p>","",""
"2861","key","v","v","16.55290697674405","500","250","psychophysics","340","678849","0.0-340.0","5f467b0a0d1aef037515c8c9","62014e0904f12d7fa5489ecf","6","","","","","1","1"
"null","","","null","","","","html-keyboard-response","341","679351","0.0-341.0","5f467b0a0d1aef037515c8c9","62014e0904f12d7fa5489ecf","","","","","<p style=""color:darkgreen;font-size:24px;"">Correct :)</p>","",""
"2593","key","n","n","16.56884615384684","500","250","psychophysics","342","681948","0.0-342.0","5f467b0a0d1aef037515c8c9","62014e0904f12d7fa5489ecf","6","","","","","1","9"
"null","","","null","","","","html-keyboard-response","343","682455","0.0-343.0","5f467b0a0d1aef037515c8c9","62014e0904f12d7fa5489ecf","","","","","<p style=""color:darkgreen;font-size:24px;"">Correct :)</p>","",""
"2821","key","v","v","16.57458823529442","500","250","psychophysics","344","685278","0.0-344.0","5f467b0a0d1aef037515c8c9","62014e0904f12d7fa5489ecf","6","","","","","0","3"
"null","","","null","","","","html-keyboard-response","345","685785","0.0-345.0","5f467b0a0d1aef037515c8c9","62014e0904f12d7fa5489ecf","","","","","<p style=""color:darkgreen;font-size:24px;"">Correct :)</p>","",""
"2866","key","n","n","16.602209302326013","500","250","psychophysics","346","688655","0.0-346.0","5f467b0a0d1aef037515c8c9","62014e0904f12d7fa5489ecf","6","","","","","1","4"
"null","","","null","","","","html-keyboard-response","347","689165","0.0-347.0","5f467b0a0d1aef037515c8c9","62014e0904f12d7fa5489ecf","","","","","<p style=""color:red;font-size:24px;"">Error :(</p>","",""
"2694","key","v","v","16.644197530864112","500","250","psychophysics","348","691862","0.0-348.0","5f467b0a0d1aef037515c8c9","62014e0904f12d7fa5489ecf","6","","","","","1","6"
"null","","","null","","","","html-keyboard-response","349","692376","0.0-349.0","5f467b0a0d1aef037515c8c9","62014e0904f12d7fa5489ecf","","","","","<p style=""color:red;font-size:24px;"">Error :(</p>","",""
"2709","key","n","n","16.593006134969524","500","250","psychophysics","350","695087","0.0-350.0","5f467b0a0d1aef037515c8c9","62014e0904f12d7fa5489ecf","6","","","","","0","4"
"null","","","null","","","","html-keyboard-response","351","695600","0.0-351.0","5f467b0a0d1aef037515c8c9","62014e0904f12d7fa5489ecf","","","","","<p style=""color:darkgreen;font-size:24px;"">Correct :)</p>","",""
"3171","key","v","v","16.581570680628662","500","250","psychophysics","352","698772","0.0-352.0","5f467b0a0d1aef037515c8c9","62014e0904f12d7fa5489ecf","6","","","","","0","9"
"null","","","null","","","","html-keyboard-response","353","699283","0.0-353.0","5f467b0a0d1aef037515c8c9","62014e0904f12d7fa5489ecf","","","","","<p style=""color:darkgreen;font-size:24px;"">Correct :)</p>","",""
"2629","key","v","v","16.57569620253141","500","250","psychophysics","354","701916","0.0-354.0","5f467b0a0d1aef037515c8c9","62014e0904f12d7fa5489ecf","6","","","","","1","3"
"null","","","null","","","","html-keyboard-response","355","702430","0.0-355.0","5f467b0a0d1aef037515c8c9","62014e0904f12d7fa5489ecf","","","","","<p style=""color:darkgreen;font-size:24px;"">Correct :)</p>","",""
"2819","key","n","n","16.522588235293927","500","250","psychophysics","356","705250","0.0-356.0","5f467b0a0d1aef037515c8c9","62014e0904f12d7fa5489ecf","6","","","","","1","4"
"null","","","null","","","","html-keyboard-response","357","705757","0.0-357.0","5f467b0a0d1aef037515c8c9","62014e0904f12d7fa5489ecf","","","","","<p style=""color:red;font-size:24px;"">Error :(</p>","",""
"2821","key","v","v","16.573529411764707","500","250","psychophysics","358","708579","0.0-358.0","5f467b0a0d1aef037515c8c9","62014e0904f12d7fa5489ecf","6","","","","","1","8"
"null","","","null","","","","html-keyboard-response","359","709092","0.0-359.0","5f467b0a0d1aef037515c8c9","62014e0904f12d7fa5489ecf","","","","","<p style=""color:red;font-size:24px;"">Error :(</p>","",""
"3257","key","v","v","16.676307692307716","500","250","psychophysics","360","712353","0.0-360.0","5f467b0a0d1aef037515c8c9","62014e0904f12d7fa5489ecf","6","","","","","1","2"
"null","","","null","","","","html-keyboard-response","361","712863","0.0-361.0","5f467b0a0d1aef037515c8c9","62014e0904f12d7fa5489ecf","","","","","<p style=""color:darkgreen;font-size:24px;"">Correct :)</p>","",""
"3386","key","v","v","16.588431372549202","500","250","psychophysics","362","716251","0.0-362.0","5f467b0a0d1aef037515c8c9","62014e0904f12d7fa5489ecf","6","","","","","0","9"
"null","","","null","","","","html-keyboard-response","363","716753","0.0-363.0","5f467b0a0d1aef037515c8c9","62014e0904f12d7fa5489ecf","","","","","<p style=""color:darkgreen;font-size:24px;"">Correct :)</p>","",""
"3427","key","v","v","16.57796116504825","500","250","psychophysics","364","720182","0.0-364.0","5f467b0a0d1aef037515c8c9","62014e0904f12d7fa5489ecf","6","","","","","1","1"
"null","","","null","","","","html-keyboard-response","365","720686","0.0-365.0","5f467b0a0d1aef037515c8c9","62014e0904f12d7fa5489ecf","","","","","<p style=""color:darkgreen;font-size:24px;"">Correct :)</p>","",""
"3557","key","v","v","16.596448598130905","500","250","psychophysics","366","724246","0.0-366.0","5f467b0a0d1aef037515c8c9","62014e0904f12d7fa5489ecf","6","","","","","0","7"
"null","","","null","","","","html-keyboard-response","367","724750","0.0-367.0","5f467b0a0d1aef037515c8c9","62014e0904f12d7fa5489ecf","","","","","<p style=""color:darkgreen;font-size:24px;"">Correct :)</p>","",""
"2569","key","v","v","16.490967741935332","500","250","psychophysics","368","727321","0.0-368.0","5f467b0a0d1aef037515c8c9","62014e0904f12d7fa5489ecf","6","","","","","1","2"
"null","","","null","","","","html-keyboard-response","369","727830","0.0-369.0","5f467b0a0d1aef037515c8c9","62014e0904f12d7fa5489ecf","","","","","<p style=""color:darkgreen;font-size:24px;"">Correct :)</p>","",""
"2978","key","n","n","16.55022222222243","500","250","psychophysics","370","730811","0.0-370.0","5f467b0a0d1aef037515c8c9","62014e0904f12d7fa5489ecf","6","","","","","1","9"
"null","","","null","","","","html-keyboard-response","371","731321","0.0-371.0","5f467b0a0d1aef037515c8c9","62014e0904f12d7fa5489ecf","","","","","<p style=""color:darkgreen;font-size:24px;"">Correct :)</p>","",""
"2758","key","n","n","16.51712574850291","500","250","psychophysics","372","734081","0.0-372.0","5f467b0a0d1aef037515c8c9","62014e0904f12d7fa5489ecf","6","","","","","0","9"
"null","","","null","","","","html-keyboard-response","373","734597","0.0-373.0","5f467b0a0d1aef037515c8c9","62014e0904f12d7fa5489ecf","","","","","<p style=""color:red;font-size:24px;"">Error :(</p>","",""
"3104","key","n","n","16.58705882352956","500","250","psychophysics","374","737703","0.0-374.0","5f467b0a0d1aef037515c8c9","62014e0904f12d7fa5489ecf","6","","","","","1","9"
"null","","","null","","","","html-keyboard-response","375","738206","0.0-375.0","5f467b0a0d1aef037515c8c9","62014e0904f12d7fa5489ecf","","","","","<p style=""color:darkgreen;font-size:24px;"">Correct :)</p>","",""
"2761","key","n","n","16.533532934131596","500","250","psychophysics","376","740970","0.0-376.0","5f467b0a0d1aef037515c8c9","62014e0904f12d7fa5489ecf","6","","","","","0","6"
"null","","","null","","","","html-keyboard-response","377","741484","0.0-377.0","5f467b0a0d1aef037515c8c9","62014e0904f12d7fa5489ecf","","","","","<p style=""color:darkgreen;font-size:24px;"">Correct :)</p>","",""
"3118","key","v","v","16.594042553191763","500","250","psychophysics","378","744606","0.0-378.0","5f467b0a0d1aef037515c8c9","62014e0904f12d7fa5489ecf","6","","","","","0","2"
"null","","","null","","","","html-keyboard-response","379","745112","0.0-379.0","5f467b0a0d1aef037515c8c9","62014e0904f12d7fa5489ecf","","","","","<p style=""color:red;font-size:24px;"">Error :(</p>","",""
"3050","key","n","n","16.64207650273224","500","250","psychophysics","380","748164","0.0-380.0","5f467b0a0d1aef037515c8c9","62014e0904f12d7fa5489ecf","6","","","","","0","8"
"null","","","null","","","","html-keyboard-response","381","748671","0.0-381.0","5f467b0a0d1aef037515c8c9","62014e0904f12d7fa5489ecf","","","","","<p style=""color:darkgreen;font-size:24px;"">Correct :)</p>","",""
"2962","key","v","v","16.601348314606952","500","250","psychophysics","382","751636","0.0-382.0","5f467b0a0d1aef037515c8c9","62014e0904f12d7fa5489ecf","6","","","","","0","9"
"null","","","null","","","","html-keyboard-response","383","752140","0.0-383.0","5f467b0a0d1aef037515c8c9","62014e0904f12d7fa5489ecf","","","","","<p style=""color:darkgreen;font-size:24px;"">Correct :)</p>","",""
"3017","key","n","n","16.60585635359134","500","250","psychophysics","384","755158","0.0-384.0","5f467b0a0d1aef037515c8c9","62014e0904f12d7fa5489ecf","6","","","","","1","7"
"null","","","null","","","","html-keyboard-response","385","755665","0.0-385.0","5f467b0a0d1aef037515c8c9","62014e0904f12d7fa5489ecf","","","","","<p style=""color:darkgreen;font-size:24px;"">Correct :)</p>","",""
"4973","key","n","n","16.62033444816086","500","250","psychophysics","386","760639","0.0-386.0","5f467b0a0d1aef037515c8c9","62014e0904f12d7fa5489ecf","6","","","","","1","7"
"null","","","null","","","","html-keyboard-response","387","761149","0.0-387.0","5f467b0a0d1aef037515c8c9","62014e0904f12d7fa5489ecf","","","","","<p style=""color:darkgreen;font-size:24px;"">Correct :)</p>","",""
"3125","key","n","n","16.60457446808528","500","250","psychophysics","388","764275","0.0-388.0","5f467b0a0d1aef037515c8c9","62014e0904f12d7fa5489ecf","6","","","","","1","9"
"null","","","null","","","","html-keyboard-response","389","764780","0.0-389.0","5f467b0a0d1aef037515c8c9","62014e0904f12d7fa5489ecf","","","","","<p style=""color:darkgreen;font-size:24px;"">Correct :)</p>","",""
"3979","key","v","v","16.63949790795014","500","250","psychophysics","390","768762","0.0-390.0","5f467b0a0d1aef037515c8c9","62014e0904f12d7fa5489ecf","6","","","","","0","7"
"null","","","null","","","","html-keyboard-response","391","769269","0.0-391.0","5f467b0a0d1aef037515c8c9","62014e0904f12d7fa5489ecf","","","","","<p style=""color:darkgreen;font-size:24px;"">Correct :)</p>","",""
"3195","key","n","n","16.537512953367827","500","250","psychophysics","392","772465","0.0-392.0","5f467b0a0d1aef037515c8c9","62014e0904f12d7fa5489ecf","6","","","","","0","1"
"null","","","null","","","","html-keyboard-response","393","772980","0.0-393.0","5f467b0a0d1aef037515c8c9","62014e0904f12d7fa5489ecf","","","","","<p style=""color:red;font-size:24px;"">Error :(</p>","",""
"3889","key","n","n","16.671587982832538","500","250","psychophysics","394","776871","0.0-394.0","5f467b0a0d1aef037515c8c9","62014e0904f12d7fa5489ecf","6","","","","","1","8"
"null","","","null","","","","html-keyboard-response","395","777377","0.0-395.0","5f467b0a0d1aef037515c8c9","62014e0904f12d7fa5489ecf","","","","","<p style=""color:darkgreen;font-size:24px;"">Correct :)</p>","",""
"12647","","","n","","","","html-keyboard-response","396","790024","0.0-396.0","5f467b0a0d1aef037515c8c9","62014e0904f12d7fa5489ecf","","","","","<p> Last set of trials.  Here, the tasks are going to switch once again.  We are going to do 50 of these.  And then you are done with the experiment.  </p>  <br><br>  Ready? (press v or n)","",""
"2791","key","v","v","16.58773809523804","500","250","psychophysics","397","792817","0.0-397.0","5f467b0a0d1aef037515c8c9","62014e0904f12d7fa5489ecf","7","","","","","0","7"
"null","","","null","","","","html-keyboard-response","398","793320","0.0-398.0","5f467b0a0d1aef037515c8c9","62014e0904f12d7fa5489ecf","","","","","<p style=""color:darkgreen;font-size:24px;"">Correct :)</p>","",""
"2979","key","n","n","16.537444444444393","500","250","psychophysics","399","796301","0.0-399.0","5f467b0a0d1aef037515c8c9","62014e0904f12d7fa5489ecf","7","","","","","0","2"
"null","","","null","","","","html-keyboard-response","400","796815","0.0-400.0","5f467b0a0d1aef037515c8c9","62014e0904f12d7fa5489ecf","","","","","<p style=""color:darkgreen;font-size:24px;"">Correct :)</p>","",""
"3643","key","n","n","16.595342465753447","500","250","psychophysics","401","800461","0.0-401.0","5f467b0a0d1aef037515c8c9","62014e0904f12d7fa5489ecf","7","","","","","1","6"
"null","","","null","","","","html-keyboard-response","402","800970","0.0-402.0","5f467b0a0d1aef037515c8c9","62014e0904f12d7fa5489ecf","","","","","<p style=""color:darkgreen;font-size:24px;"">Correct :)</p>","",""
"3675","key","v","v","16.594027149320866","500","250","psychophysics","403","804648","0.0-403.0","5f467b0a0d1aef037515c8c9","62014e0904f12d7fa5489ecf","7","","","","","1","3"
"null","","","null","","","","html-keyboard-response","404","805160","0.0-404.0","5f467b0a0d1aef037515c8c9","62014e0904f12d7fa5489ecf","","","","","<p style=""color:darkgreen;font-size:24px;"">Correct :)</p>","",""
"2924","key","v","v","16.547613636363664","500","250","psychophysics","405","808087","0.0-405.0","5f467b0a0d1aef037515c8c9","62014e0904f12d7fa5489ecf","7","","","","","0","3"
"null","","","null","","","","html-keyboard-response","406","808595","0.0-406.0","5f467b0a0d1aef037515c8c9","62014e0904f12d7fa5489ecf","","","","","<p style=""color:darkgreen;font-size:24px;"">Correct :)</p>","",""
"2911","key","n","n","16.556914285714072","500","250","psychophysics","407","811509","0.0-407.0","5f467b0a0d1aef037515c8c9","62014e0904f12d7fa5489ecf","7","","","","","1","4"
"null","","","null","","","","html-keyboard-response","408","812018","0.0-408.0","5f467b0a0d1aef037515c8c9","62014e0904f12d7fa5489ecf","","","","","<p style=""color:red;font-size:24px;"">Error :(</p>","",""
"4319","key","n","n","16.648108108108055","500","250","psychophysics","409","816339","0.0-409.0","5f467b0a0d1aef037515c8c9","62014e0904f12d7fa5489ecf","7","","","","","0","7"
"null","","","null","","","","html-keyboard-response","410","816846","0.0-410.0","5f467b0a0d1aef037515c8c9","62014e0904f12d7fa5489ecf","","","","","<p style=""color:red;font-size:24px;"">Error :(</p>","",""
"3377","key","v","v","16.600492610837552","500","250","psychophysics","411","820225","0.0-411.0","5f467b0a0d1aef037515c8c9","62014e0904f12d7fa5489ecf","7","","","","","0","3"
"null","","","null","","","","html-keyboard-response","412","820737","0.0-412.0","5f467b0a0d1aef037515c8c9","62014e0904f12d7fa5489ecf","","","","","<p style=""color:darkgreen;font-size:24px;"">Correct :)</p>","",""
"3409","key","v","v","16.659607843136957","500","250","psychophysics","413","824148","0.0-413.0","5f467b0a0d1aef037515c8c9","62014e0904f12d7fa5489ecf","7","","","","","0","3"
"null","","","null","","","","html-keyboard-response","414","824660","0.0-414.0","5f467b0a0d1aef037515c8c9","62014e0904f12d7fa5489ecf","","","","","<p style=""color:darkgreen;font-size:24px;"">Correct :)</p>","",""
"2986","key","n","n","16.639217877094556","500","250","psychophysics","415","827647","0.0-415.0","5f467b0a0d1aef037515c8c9","62014e0904f12d7fa5489ecf","7","","","","","0","4"
"null","","","null","","","","html-keyboard-response","416","828155","0.0-416.0","5f467b0a0d1aef037515c8c9","62014e0904f12d7fa5489ecf","","","","","<p style=""color:darkgreen;font-size:24px;"">Correct :)</p>","",""
"3125","key","v","v","16.594148936170583","500","250","psychophysics","417","831283","0.0-417.0","5f467b0a0d1aef037515c8c9","62014e0904f12d7fa5489ecf","7","","","","","0","7"
"null","","","null","","","","html-keyboard-response","418","831794","0.0-418.0","5f467b0a0d1aef037515c8c9","62014e0904f12d7fa5489ecf","","","","","<p style=""color:darkgreen;font-size:24px;"">Correct :)</p>","",""
"4265","key","v","v","16.606093750000127","500","250","psychophysics","419","836062","0.0-419.0","5f467b0a0d1aef037515c8c9","62014e0904f12d7fa5489ecf","7","","","","","1","1"
"null","","","null","","","","html-keyboard-response","420","836574","0.0-420.0","5f467b0a0d1aef037515c8c9","62014e0904f12d7fa5489ecf","","","","","<p style=""color:darkgreen;font-size:24px;"">Correct :)</p>","",""
"4575","key","v","v","16.581811594202748","500","250","psychophysics","421","841150","0.0-421.0","5f467b0a0d1aef037515c8c9","62014e0904f12d7fa5489ecf","7","","","","","0","3"
"null","","","null","","","","html-keyboard-response","422","841659","0.0-422.0","5f467b0a0d1aef037515c8c9","62014e0904f12d7fa5489ecf","","","","","<p style=""color:darkgreen;font-size:24px;"">Correct :)</p>","",""
"23989","key","v","v","16.663015983321802","500","250","psychophysics","423","865649","0.0-423.0","5f467b0a0d1aef037515c8c9","62014e0904f12d7fa5489ecf","7","","","","","1","2"
"null","","","null","","","","html-keyboard-response","424","866158","0.0-424.0","5f467b0a0d1aef037515c8c9","62014e0904f12d7fa5489ecf","","","","","<p style=""color:darkgreen;font-size:24px;"">Correct :)</p>","",""
"8753","key","v","v","16.639543726235786","500","250","psychophysics","425","874915","0.0-425.0","5f467b0a0d1aef037515c8c9","62014e0904f12d7fa5489ecf","7","","","","","1","1"
"null","","","null","","","","html-keyboard-response","426","875423","0.0-426.0","5f467b0a0d1aef037515c8c9","62014e0904f12d7fa5489ecf","","","","","<p style=""color:darkgreen;font-size:24px;"">Correct :)</p>","",""
"6154","key","n","n","16.602702702702704","500","250","psychophysics","427","881580","0.0-427.0","5f467b0a0d1aef037515c8c9","62014e0904f12d7fa5489ecf","7","","","","","0","3"
"null","","","null","","","","html-keyboard-response","428","882095","0.0-428.0","5f467b0a0d1aef037515c8c9","62014e0904f12d7fa5489ecf","","","","","<p style=""color:red;font-size:24px;"">Error :(</p>","",""
"11076","key","v","v","16.637353383458773","500","250","psychophysics","429","893175","0.0-429.0","5f467b0a0d1aef037515c8c9","62014e0904f12d7fa5489ecf","7","","","","","0","7"
"null","","","null","","","","html-keyboard-response","430","893688","0.0-430.0","5f467b0a0d1aef037515c8c9","62014e0904f12d7fa5489ecf","","","","","<p style=""color:darkgreen;font-size:24px;"">Correct :)</p>","",""
"3060","key","n","n","16.525405405405152","500","250","psychophysics","431","896751","0.0-431.0","5f467b0a0d1aef037515c8c9","62014e0904f12d7fa5489ecf","7","","","","","0","4"
"null","","","null","","","","html-keyboard-response","432","897264","0.0-432.0","5f467b0a0d1aef037515c8c9","62014e0904f12d7fa5489ecf","","","","","<p style=""color:darkgreen;font-size:24px;"">Correct :)</p>","",""
"2906","key","v","v","16.580800000000078","500","250","psychophysics","433","900172","0.0-433.0","5f467b0a0d1aef037515c8c9","62014e0904f12d7fa5489ecf","7","","","","","0","2"
"null","","","null","","","","html-keyboard-response","434","900675","0.0-434.0","5f467b0a0d1aef037515c8c9","62014e0904f12d7fa5489ecf","","","","","<p style=""color:red;font-size:24px;"">Error :(</p>","",""
"2892","key","v","v","16.528342857142643","500","250","psychophysics","435","903570","0.0-435.0","5f467b0a0d1aef037515c8c9","62014e0904f12d7fa5489ecf","7","","","","","1","1"
"null","","","null","","","","html-keyboard-response","436","904081","0.0-436.0","5f467b0a0d1aef037515c8c9","62014e0904f12d7fa5489ecf","","","","","<p style=""color:darkgreen;font-size:24px;"">Correct :)</p>","",""
"4043","key","v","v","16.561475409836067","500","250","psychophysics","437","908126","0.0-437.0","5f467b0a0d1aef037515c8c9","62014e0904f12d7fa5489ecf","7","","","","","1","1"
"null","","","null","","","","html-keyboard-response","438","908633","0.0-438.0","5f467b0a0d1aef037515c8c9","62014e0904f12d7fa5489ecf","","","","","<p style=""color:darkgreen;font-size:24px;"">Correct :)</p>","",""
"4487","key","n","n","16.576370370370352","500","250","psychophysics","439","913123","0.0-439.0","5f467b0a0d1aef037515c8c9","62014e0904f12d7fa5489ecf","7","","","","","0","4"
"null","","","null","","","","html-keyboard-response","440","913633","0.0-440.0","5f467b0a0d1aef037515c8c9","62014e0904f12d7fa5489ecf","","","","","<p style=""color:darkgreen;font-size:24px;"">Correct :)</p>","",""
"4221","key","v","v","16.58590551181082","500","250","psychophysics","441","917857","0.0-441.0","5f467b0a0d1aef037515c8c9","62014e0904f12d7fa5489ecf","7","","","","","1","4"
"null","","","null","","","","html-keyboard-response","442","918362","0.0-442.0","5f467b0a0d1aef037515c8c9","62014e0904f12d7fa5489ecf","","","","","<p style=""color:darkgreen;font-size:24px;"">Correct :)</p>","",""
"2819","key","v","v","16.689166666666832","500","250","psychophysics","443","921182","0.0-443.0","5f467b0a0d1aef037515c8c9","62014e0904f12d7fa5489ecf","7","","","","","0","7"
"null","","","null","","","","html-keyboard-response","444","921697","0.0-444.0","5f467b0a0d1aef037515c8c9","62014e0904f12d7fa5489ecf","","","","","<p style=""color:darkgreen;font-size:24px;"">Correct :)</p>","",""
"4735","key","v","v","16.628661971831118","500","250","psychophysics","445","926435","0.0-445.0","5f467b0a0d1aef037515c8c9","62014e0904f12d7fa5489ecf","7","","","","","1","3"
"null","","","null","","","","html-keyboard-response","446","926941","0.0-446.0","5f467b0a0d1aef037515c8c9","62014e0904f12d7fa5489ecf","","","","","<p style=""color:darkgreen;font-size:24px;"">Correct :)</p>","",""
"2839","key","n","n","16.561871345029676","500","250","psychophysics","447","929783","0.0-447.0","5f467b0a0d1aef037515c8c9","62014e0904f12d7fa5489ecf","7","","","","","0","2"
"null","","","null","","","","html-keyboard-response","448","930288","0.0-448.0","5f467b0a0d1aef037515c8c9","62014e0904f12d7fa5489ecf","","","","","<p style=""color:darkgreen;font-size:24px;"">Correct :)</p>","",""
"2868","key","v","v","16.597209302325417","500","250","psychophysics","449","933158","0.0-449.0","5f467b0a0d1aef037515c8c9","62014e0904f12d7fa5489ecf","7","","","","","1","3"
"null","","","null","","","","html-keyboard-response","450","933672","0.0-450.0","5f467b0a0d1aef037515c8c9","62014e0904f12d7fa5489ecf","","","","","<p style=""color:darkgreen;font-size:24px;"">Correct :)</p>","",""
"2864","key","n","n","16.601046511627935","500","250","psychophysics","451","936538","0.0-451.0","5f467b0a0d1aef037515c8c9","62014e0904f12d7fa5489ecf","7","","","","","0","2"
"null","","","null","","","","html-keyboard-response","452","937044","0.0-452.0","5f467b0a0d1aef037515c8c9","62014e0904f12d7fa5489ecf","","","","","<p style=""color:darkgreen;font-size:24px;"">Correct :)</p>","",""
"3113","key","n","n","16.601604278074866","500","250","psychophysics","453","940160","0.0-453.0","5f467b0a0d1aef037515c8c9","62014e0904f12d7fa5489ecf","7","","","","","1","7"
"null","","","null","","","","html-keyboard-response","454","940673","0.0-454.0","5f467b0a0d1aef037515c8c9","62014e0904f12d7fa5489ecf","","","","","<p style=""color:darkgreen;font-size:24px;"">Correct :)</p>","",""
"2923","key","v","v","16.53602272727254","500","250","psychophysics","455","943599","0.0-455.0","5f467b0a0d1aef037515c8c9","62014e0904f12d7fa5489ecf","7","","","","","1","1"
"null","","","null","","","","html-keyboard-response","456","944111","0.0-456.0","5f467b0a0d1aef037515c8c9","62014e0904f12d7fa5489ecf","","","","","<p style=""color:darkgreen;font-size:24px;"">Correct :)</p>","",""
"2766","key","n","n","16.517964071856287","500","250","psychophysics","457","946878","0.0-457.0","5f467b0a0d1aef037515c8c9","62014e0904f12d7fa5489ecf","7","","","","","0","1"
"null","","","null","","","","html-keyboard-response","458","947394","0.0-458.0","5f467b0a0d1aef037515c8c9","62014e0904f12d7fa5489ecf","","","","","<p style=""color:red;font-size:24px;"">Error :(</p>","",""
"2922","key","n","n","16.54977272727278","500","250","psychophysics","459","950318","0.0-459.0","5f467b0a0d1aef037515c8c9","62014e0904f12d7fa5489ecf","7","","","","","1","7"
"null","","","null","","","","html-keyboard-response","460","950820","0.0-460.0","5f467b0a0d1aef037515c8c9","62014e0904f12d7fa5489ecf","","","","","<p style=""color:darkgreen;font-size:24px;"">Correct :)</p>","",""
"3537","key","n","n","16.61547169811312","500","250","psychophysics","461","954359","0.0-461.0","5f467b0a0d1aef037515c8c9","62014e0904f12d7fa5489ecf","7","","","","","1","3"
"null","","","null","","","","html-keyboard-response","462","954864","0.0-462.0","5f467b0a0d1aef037515c8c9","62014e0904f12d7fa5489ecf","","","","","<p style=""color:red;font-size:24px;"">Error :(</p>","",""
"3834","key","v","v","16.593073593073594","500","250","psychophysics","463","958700","0.0-463.0","5f467b0a0d1aef037515c8c9","62014e0904f12d7fa5489ecf","7","","","","","0","3"
"null","","","null","","","","html-keyboard-response","464","959213","0.0-464.0","5f467b0a0d1aef037515c8c9","62014e0904f12d7fa5489ecf","","","","","<p style=""color:darkgreen;font-size:24px;"">Correct :)</p>","",""
"3862","key","v","v","16.608879310344868","500","250","psychophysics","465","963078","0.0-465.0","5f467b0a0d1aef037515c8c9","62014e0904f12d7fa5489ecf","7","","","","","1","7"
"null","","","null","","","","html-keyboard-response","466","963581","0.0-466.0","5f467b0a0d1aef037515c8c9","62014e0904f12d7fa5489ecf","","","","","<p style=""color:red;font-size:24px;"">Error :(</p>","",""
"2801","key","v","v","16.595357142857253","500","250","psychophysics","467","966384","0.0-467.0","5f467b0a0d1aef037515c8c9","62014e0904f12d7fa5489ecf","7","","","","","0","4"
"null","","","null","","","","html-keyboard-response","468","966894","0.0-468.0","5f467b0a0d1aef037515c8c9","62014e0904f12d7fa5489ecf","","","","","<p style=""color:red;font-size:24px;"">Error :(</p>","",""
"2742","key","n","n","16.531272727272924","500","250","psychophysics","469","969638","0.0-469.0","5f467b0a0d1aef037515c8c9","62014e0904f12d7fa5489ecf","7","","","","","1","7"
"null","","","null","","","","html-keyboard-response","470","970140","0.0-470.0","5f467b0a0d1aef037515c8c9","62014e0904f12d7fa5489ecf","","","","","<p style=""color:darkgreen;font-size:24px;"">Correct :)</p>","",""
"3241","key","n","n","16.593538461538415","500","250","psychophysics","471","973383","0.0-471.0","5f467b0a0d1aef037515c8c9","62014e0904f12d7fa5489ecf","7","","","","","0","6"
"null","","","null","","","","html-keyboard-response","472","973888","0.0-472.0","5f467b0a0d1aef037515c8c9","62014e0904f12d7fa5489ecf","","","","","<p style=""color:darkgreen;font-size:24px;"">Correct :)</p>","",""
"3209","key","n","n","16.527216494844904","500","250","psychophysics","473","977100","0.0-473.0","5f467b0a0d1aef037515c8c9","62014e0904f12d7fa5489ecf","7","","","","","1","7"
"null","","","null","","","","html-keyboard-response","474","977605","0.0-474.0","5f467b0a0d1aef037515c8c9","62014e0904f12d7fa5489ecf","","","","","<p style=""color:darkgreen;font-size:24px;"">Correct :)</p>","",""
"3023","key","n","n","16.53406593406632","500","250","psychophysics","475","980631","0.0-475.0","5f467b0a0d1aef037515c8c9","62014e0904f12d7fa5489ecf","7","","","","","1","6"
"null","","","null","","","","html-keyboard-response","476","981137","0.0-476.0","5f467b0a0d1aef037515c8c9","62014e0904f12d7fa5489ecf","","","","","<p style=""color:darkgreen;font-size:24px;"">Correct :)</p>","",""
"3460","key","v","v","16.571826923077214","500","250","psychophysics","477","984599","0.0-477.0","5f467b0a0d1aef037515c8c9","62014e0904f12d7fa5489ecf","7","","","","","0","3"
"null","","","null","","","","html-keyboard-response","478","985103","0.0-478.0","5f467b0a0d1aef037515c8c9","62014e0904f12d7fa5489ecf","","","","","<p style=""color:darkgreen;font-size:24px;"">Correct :)</p>","",""
"6372","key","v","v","16.6316449086163","500","250","psychophysics","479","991478","0.0-479.0","5f467b0a0d1aef037515c8c9","62014e0904f12d7fa5489ecf","7","","","","","0","7"
"null","","","null","","","","html-keyboard-response","480","991983","0.0-480.0","5f467b0a0d1aef037515c8c9","62014e0904f12d7fa5489ecf","","","","","<p style=""color:darkgreen;font-size:24px;"">Correct :)</p>","",""
"3024","key","v","v","16.5410989010988","500","250","psychophysics","481","995009","0.0-481.0","5f467b0a0d1aef037515c8c9","62014e0904f12d7fa5489ecf","7","","","","","1","1"
"null","","","null","","","","html-keyboard-response","482","995518","0.0-482.0","5f467b0a0d1aef037515c8c9","62014e0904f12d7fa5489ecf","","","","","<p style=""color:darkgreen;font-size:24px;"">Correct :)</p>","",""
"2603","key","v","v","16.52050955413995","500","250","psychophysics","483","998125","0.0-483.0","5f467b0a0d1aef037515c8c9","62014e0904f12d7fa5489ecf","7","","","","","0","7"
"null","","","null","","","","html-keyboard-response","484","998630","0.0-484.0","5f467b0a0d1aef037515c8c9","62014e0904f12d7fa5489ecf","","","","","<p style=""color:darkgreen;font-size:24px;"">Correct :)</p>","",""
"4773","key","v","v","16.621184668989645","500","250","psychophysics","485","1003405","0.0-485.0","5f467b0a0d1aef037515c8c9","62014e0904f12d7fa5489ecf","7","","","","","1","3"
"null","","","null","","","","html-keyboard-response","486","1003920","0.0-486.0","5f467b0a0d1aef037515c8c9","62014e0904f12d7fa5489ecf","","","","","<p style=""color:darkgreen;font-size:24px;"">Correct :)</p>","",""
"5027","key","n","n","16.613311258278053","500","250","psychophysics","487","1008950","0.0-487.0","5f467b0a0d1aef037515c8c9","62014e0904f12d7fa5489ecf","7","","","","","1","6"
"null","","","null","","","","html-keyboard-response","488","1009457","0.0-488.0","5f467b0a0d1aef037515c8c9","62014e0904f12d7fa5489ecf","","","","","<p style=""color:darkgreen;font-size:24px;"">Correct :)</p>","",""
"2908","key","v","v","16.664942528735363","500","250","psychophysics","489","1012368","0.0-489.0","5f467b0a0d1aef037515c8c9","62014e0904f12d7fa5489ecf","7","","","","","0","7"
"null","","","null","","","","html-keyboard-response","490","1012876","0.0-490.0","5f467b0a0d1aef037515c8c9","62014e0904f12d7fa5489ecf","","","","","<p style=""color:darkgreen;font-size:24px;"">Correct :)</p>","",""
"3190","key","n","n","16.582187500000146","500","250","psychophysics","491","1016068","0.0-491.0","5f467b0a0d1aef037515c8c9","62014e0904f12d7fa5489ecf","7","","","","","0","3"
"null","","","null","","","","html-keyboard-response","492","1016581","0.0-492.0","5f467b0a0d1aef037515c8c9","62014e0904f12d7fa5489ecf","","","","","<p style=""color:red;font-size:24px;"">Error :(</p>","",""
"7918","key","n","n","16.636470588235216","500","250","psychophysics","493","1024502","0.0-493.0","5f467b0a0d1aef037515c8c9","62014e0904f12d7fa5489ecf","7","","","","","1","6"
"null","","","null","","","","html-keyboard-response","494","1025009","0.0-494.0","5f467b0a0d1aef037515c8c9","62014e0904f12d7fa5489ecf","","","","","<p style=""color:darkgreen;font-size:24px;"">Correct :)</p>","",""
"2690","key","v","v","16.52950617283896","500","250","psychophysics","495","1027701","0.0-495.0","5f467b0a0d1aef037515c8c9","62014e0904f12d7fa5489ecf","7","","","","","0","7"
"null","","","null","","","","html-keyboard-response","496","1028215","0.0-496.0","5f467b0a0d1aef037515c8c9","62014e0904f12d7fa5489ecf","","","","","<p style=""color:darkgreen;font-size:24px;"">Correct :)</p>","",""
