"rt","response_type","key_press","response","avg_frame_time","center_x","center_y","trial_type","trial_index","time_elapsed","internal_node_id","pid","sid","phase","guide","targ","resp","stimulus","is5","stim"
"6159","key"," "," ","16.756330623306233","500","250","psychophysics","0","6202","0.0-0.0","55895b93fdf99b6bd06017c4","6213cbf3306309c3662060a6","","","","","","",""
"4495","key"," "," ","16.665999999999997","500","250","psychophysics","1","10708","0.0-1.0","55895b93fdf99b6bd06017c4","6213cbf3306309c3662060a6","","","","","","",""
"6143","key"," "," ","16.71141144414169","500","250","psychophysics","2","16859","0.0-2.0","55895b93fdf99b6bd06017c4","6213cbf3306309c3662060a6","","","","","","",""
"14437","key"," "," ","16.666","500","250","psychophysics","3","31307","0.0-3.0","55895b93fdf99b6bd06017c4","6213cbf3306309c3662060a6","","","","","","",""
"7223","key"," "," ","16.665999999999993","500","250","psychophysics","4","38542","0.0-4.0","55895b93fdf99b6bd06017c4","6213cbf3306309c3662060a6","","","","","","",""
"22953","key"," "," ","16.666","500","250","psychophysics","5","61505","0.0-5.0","55895b93fdf99b6bd06017c4","6213cbf3306309c3662060a6","","","","","","",""
"8056","key"," "," ","16.665999999999986","500","250","psychophysics","6","69572","0.0-6.0","55895b93fdf99b6bd06017c4","6213cbf3306309c3662060a6","","","","","","",""
"5023","key"," "," ","16.666","500","250","psychophysics","7","74603","0.0-7.0","55895b93fdf99b6bd06017c4","6213cbf3306309c3662060a6","","","","","","",""
"11361","key"," "," ","16.666","500","250","psychophysics","8","85976","0.0-8.0","55895b93fdf99b6bd06017c4","6213cbf3306309c3662060a6","0","0","50","44","","",""
"10378","key"," "," ","16.692837359098217","500","250","psychophysics","9","96359","0.0-9.0","55895b93fdf99b6bd06017c4","6213cbf3306309c3662060a6","","","","","","",""
"36234","key"," "," ","16.681353293413178","500","250","psychophysics","10","132601","0.0-10.0","55895b93fdf99b6bd06017c4","6213cbf3306309c3662060a6","","","","","","",""
"4735","key"," "," ","16.666","500","250","psychophysics","11","137341","0.0-11.0","55895b93fdf99b6bd06017c4","6213cbf3306309c3662060a6","","","","","","",""
"4406","key"," "," ","16.729610687022884","500","250","psychophysics","12","141751","0.0-12.0","55895b93fdf99b6bd06017c4","6213cbf3306309c3662060a6","","","","","","",""
"2871","key"," "," ","16.665999999999976","500","250","psychophysics","13","144633","0.0-13.0","55895b93fdf99b6bd06017c4","6213cbf3306309c3662060a6","","","","","","",""
"4608","key"," "," ","16.66599999999997","500","250","psychophysics","14","149245","0.0-14.0","55895b93fdf99b6bd06017c4","6213cbf3306309c3662060a6","","","","","","",""
"5856","key"," "," ","16.665999999999933","500","250","psychophysics","15","155105","0.0-15.0","55895b93fdf99b6bd06017c4","6213cbf3306309c3662060a6","","","","","","",""
"6078","key"," "," ","16.66600000000007","500","250","psychophysics","16","161196","0.0-16.0","55895b93fdf99b6bd06017c4","6213cbf3306309c3662060a6","","","","","","",""
"12163","key"," "," ","16.665999999999993","500","250","psychophysics","17","173363","0.0-17.0","55895b93fdf99b6bd06017c4","6213cbf3306309c3662060a6","1","0","53","73","","",""
"8723","key"," "," ","16.666","500","250","psychophysics","18","182091","0.0-18.0","55895b93fdf99b6bd06017c4","6213cbf3306309c3662060a6","1","5","60","62","","",""
"12213","key"," "," ","16.665999999999983","500","250","psychophysics","19","194308","0.0-19.0","55895b93fdf99b6bd06017c4","6213cbf3306309c3662060a6","1","0","41","53","","",""
"6159","key"," "," ","16.666000000000043","500","250","psychophysics","20","200471","0.0-20.0","55895b93fdf99b6bd06017c4","6213cbf3306309c3662060a6","1","5","22","24","","",""
"3896","key"," "," ","16.66600000000006","500","250","psychophysics","21","204373","0.0-21.0","55895b93fdf99b6bd06017c4","6213cbf3306309c3662060a6","1","0","27","33","","",""
"7939","key"," "," ","16.66599999999995","500","250","psychophysics","22","212316","0.0-22.0","55895b93fdf99b6bd06017c4","6213cbf3306309c3662060a6","1","5","35","37","","",""
"10694","key"," "," ","16.665999999999983","500","250","psychophysics","23","223019","0.0-23.0","55895b93fdf99b6bd06017c4","6213cbf3306309c3662060a6","1","0","47","59","","",""
"7206","key"," "," ","16.665999999999993","500","250","psychophysics","24","230237","0.0-24.0","55895b93fdf99b6bd06017c4","6213cbf3306309c3662060a6","1","5","50","51","","",""
"4895","key"," "," ","16.66600000000002","500","250","psychophysics","25","235138","0.0-25.0","55895b93fdf99b6bd06017c4","6213cbf3306309c3662060a6","1","0","38","49","","",""
"5884","key"," "," ","16.666","500","250","psychophysics","26","241027","0.0-26.0","55895b93fdf99b6bd06017c4","6213cbf3306309c3662060a6","1","5","49","54","","",""
"6055","key"," "," ","16.758332409972304","500","250","psychophysics","27","247088","0.0-27.0","55895b93fdf99b6bd06017c4","6213cbf3306309c3662060a6","1","0","29","41","","",""
"10198","key"," "," ","16.693321311475422","500","250","psychophysics","28","257292","0.0-28.0","55895b93fdf99b6bd06017c4","6213cbf3306309c3662060a6","1","5","39","41","","",""
"8379","key"," "," ","16.666000000000047","500","250","psychophysics","29","265676","0.0-29.0","55895b93fdf99b6bd06017c4","6213cbf3306309c3662060a6","1","0","32","42","","",""
"6882","key"," "," ","16.665999999999983","500","250","psychophysics","30","272562","0.0-30.0","55895b93fdf99b6bd06017c4","6213cbf3306309c3662060a6","1","5","32","35","","",""
"10842","key"," "," ","16.665999999999947","500","250","psychophysics","31","283409","0.0-31.0","55895b93fdf99b6bd06017c4","6213cbf3306309c3662060a6","1","0","38","51","","",""
"8193","key"," "," ","16.665999999999986","500","250","psychophysics","32","291606","0.0-32.0","55895b93fdf99b6bd06017c4","6213cbf3306309c3662060a6","1","5","60","65","","",""
"8742","key"," "," ","16.665999999999993","500","250","psychophysics","33","300352","0.0-33.0","55895b93fdf99b6bd06017c4","6213cbf3306309c3662060a6","1","0","35","49","","",""
"8042","key"," "," ","16.66600000000004","500","250","psychophysics","34","308398","0.0-34.0","55895b93fdf99b6bd06017c4","6213cbf3306309c3662060a6","1","5","37","41","","",""
"8788","key"," "," ","16.666000000000036","500","250","psychophysics","35","317194","0.0-35.0","55895b93fdf99b6bd06017c4","6213cbf3306309c3662060a6","1","0","47","58","","",""
"10435","key"," "," ","16.66599999999995","500","250","psychophysics","36","327632","0.0-36.0","55895b93fdf99b6bd06017c4","6213cbf3306309c3662060a6","1","5","27","29","","",""
"4604","key"," "," ","16.665999999999872","500","250","psychophysics","37","332241","0.0-37.0","55895b93fdf99b6bd06017c4","6213cbf3306309c3662060a6","","","","","","",""
"8968","key"," "," ","16.665999999999986","500","250","psychophysics","38","341212","0.0-38.0","55895b93fdf99b6bd06017c4","6213cbf3306309c3662060a6","","","","","","",""
"2090","key"," "," ","16.666","500","250","psychophysics","39","343311","0.0-39.0","55895b93fdf99b6bd06017c4","6213cbf3306309c3662060a6","","","","","","",""
"9277","key"," "," ","16.696028828828887","500","250","psychophysics","40","352597","0.0-40.0","55895b93fdf99b6bd06017c4","6213cbf3306309c3662060a6","2","0","27","34","","",""
"6079","key"," "," ","16.66600000000007","500","250","psychophysics","41","358687","0.0-41.0","55895b93fdf99b6bd06017c4","6213cbf3306309c3662060a6","","","","","","",""
"10995","key"," "," ","16.665999999999997","500","250","psychophysics","42","369701","0.0-42.0","55895b93fdf99b6bd06017c4","6213cbf3306309c3662060a6","2","0","54","64","","",""
"4778","key"," "," ","16.66599999999988","500","250","psychophysics","43","374483","0.0-43.0","55895b93fdf99b6bd06017c4","6213cbf3306309c3662060a6","","","","","","",""
"6065","key"," "," ","16.665999999999926","500","250","psychophysics","44","380551","0.0-44.0","55895b93fdf99b6bd06017c4","6213cbf3306309c3662060a6","2","0","33","38","","",""
"3651","key"," "," ","16.66600000000011","500","250","psychophysics","45","384205","0.0-45.0","55895b93fdf99b6bd06017c4","6213cbf3306309c3662060a6","","","","","","",""
"9826","key"," "," ","16.665999999999958","500","250","psychophysics","46","394035","0.0-46.0","55895b93fdf99b6bd06017c4","6213cbf3306309c3662060a6","2","0","23","30","","",""
"3025","key"," "," ","16.66600000000017","500","250","psychophysics","47","397063","0.0-47.0","55895b93fdf99b6bd06017c4","6213cbf3306309c3662060a6","","","","","","",""
"8098","key"," "," ","16.666000000000018","500","250","psychophysics","48","405170","0.0-48.0","55895b93fdf99b6bd06017c4","6213cbf3306309c3662060a6","2","0","40","55","","",""
"2190","key"," "," ","16.666000000000327","500","250","psychophysics","49","407364","0.0-49.0","55895b93fdf99b6bd06017c4","6213cbf3306309c3662060a6","","","","","","",""
"5651","key"," "," ","16.66600000000002","500","250","psychophysics","50","413023","0.0-50.0","55895b93fdf99b6bd06017c4","6213cbf3306309c3662060a6","2","0","36","42","","",""
"2502","key"," "," ","16.665999999999766","500","250","psychophysics","51","415530","0.0-51.0","55895b93fdf99b6bd06017c4","6213cbf3306309c3662060a6","","","","","","",""
"3778","key"," "," ","16.666000000000015","500","250","psychophysics","52","419313","0.0-52.0","55895b93fdf99b6bd06017c4","6213cbf3306309c3662060a6","2","0","30","33","","",""
"4264","key"," "," ","16.666000000000064","500","250","psychophysics","53","423580","0.0-53.0","55895b93fdf99b6bd06017c4","6213cbf3306309c3662060a6","","","","","","",""
"8513","key"," "," ","16.66599999999995","500","250","psychophysics","54","432100","0.0-54.0","55895b93fdf99b6bd06017c4","6213cbf3306309c3662060a6","2","0","36","32","","",""
"2257","key"," "," ","16.66599999999961","500","250","psychophysics","55","434361","0.0-55.0","55895b93fdf99b6bd06017c4","6213cbf3306309c3662060a6","","","","","","",""
"3524","key"," "," ","16.66600000000006","500","250","psychophysics","56","437891","0.0-56.0","55895b93fdf99b6bd06017c4","6213cbf3306309c3662060a6","2","0","26","33","","",""
"1831","key"," "," ","16.666000000000086","500","250","psychophysics","57","439734","0.0-57.0","55895b93fdf99b6bd06017c4","6213cbf3306309c3662060a6","","","","","","",""
"6070","key"," "," ","16.665999999999926","500","250","psychophysics","58","445808","0.0-58.0","55895b93fdf99b6bd06017c4","6213cbf3306309c3662060a6","2","0","24","31","","",""
"1600","key"," "," ","16.665999999999865","500","250","psychophysics","59","447417","0.0-59.0","55895b93fdf99b6bd06017c4","6213cbf3306309c3662060a6","","","","","","",""
"7668","key"," "," ","16.66600000000004","500","250","psychophysics","60","455089","0.0-60.0","55895b93fdf99b6bd06017c4","6213cbf3306309c3662060a6","2","0","46","42","","",""
"2071","key"," "," ","16.665999999999787","500","250","psychophysics","61","457168","0.0-61.0","55895b93fdf99b6bd06017c4","6213cbf3306309c3662060a6","","","","","","",""
"3997","key"," "," ","16.665999999999997","500","250","psychophysics","62","461170","0.0-62.0","55895b93fdf99b6bd06017c4","6213cbf3306309c3662060a6","2","0","35","41","","",""
"3063","key"," "," ","16.666000000000142","500","250","psychophysics","63","464237","0.0-63.0","55895b93fdf99b6bd06017c4","6213cbf3306309c3662060a6","","","","","","",""
"6733","key"," "," ","16.66600000000011","500","250","psychophysics","64","470974","0.0-64.0","55895b93fdf99b6bd06017c4","6213cbf3306309c3662060a6","2","0","25","28","","",""
"2006","key"," "," ","16.665999999999865","500","250","psychophysics","65","472986","0.0-65.0","55895b93fdf99b6bd06017c4","6213cbf3306309c3662060a6","","","","","","",""
"11762","key"," "," ","16.665999999999958","500","250","psychophysics","66","484752","0.0-66.0","55895b93fdf99b6bd06017c4","6213cbf3306309c3662060a6","2","0","44","47","","",""
"2032","key"," "," ","16.666000000000086","500","250","psychophysics","67","486791","0.0-67.0","55895b93fdf99b6bd06017c4","6213cbf3306309c3662060a6","","","","","","",""
"6387","key"," "," ","16.6660000000001","500","250","psychophysics","68","493186","0.0-68.0","55895b93fdf99b6bd06017c4","6213cbf3306309c3662060a6","2","0","20","27","","",""
"1605","key"," "," ","16.66600000000047","500","250","psychophysics","69","494796","0.0-69.0","55895b93fdf99b6bd06017c4","6213cbf3306309c3662060a6","","","","","","",""
"4740","key"," "," ","16.66600000000001","500","250","psychophysics","70","499540","0.0-70.0","55895b93fdf99b6bd06017c4","6213cbf3306309c3662060a6","","","","","","",""
"3231","key"," "," ","16.66599999999984","500","250","psychophysics","71","502779","0.0-71.0","55895b93fdf99b6bd06017c4","6213cbf3306309c3662060a6","","","","","","",""
"11589","key"," "," ","16.665999999999954","500","250","psychophysics","72","514373","0.0-72.0","55895b93fdf99b6bd06017c4","6213cbf3306309c3662060a6","3","5","59","44","","",""
"14117","key"," "," ","16.666000000000015","500","250","psychophysics","73","528498","0.0-73.0","55895b93fdf99b6bd06017c4","6213cbf3306309c3662060a6","3","0","53","51","","",""
"11796","key"," "," ","16.68960623229457","500","250","psychophysics","74","540298","0.0-74.0","55895b93fdf99b6bd06017c4","6213cbf3306309c3662060a6","3","5","26","25","","",""
"7543","key"," "," ","16.665999999999944","500","250","psychophysics","75","547857","0.0-75.0","55895b93fdf99b6bd06017c4","6213cbf3306309c3662060a6","3","0","23","34","","",""
"8339","key"," "," ","16.666000000000064","500","250","psychophysics","76","556202","0.0-76.0","55895b93fdf99b6bd06017c4","6213cbf3306309c3662060a6","3","5","34","31","","",""
"11705","key"," "," ","16.66600000000001","500","250","psychophysics","77","567914","0.0-77.0","55895b93fdf99b6bd06017c4","6213cbf3306309c3662060a6","3","0","43","45","","",""
"16334","key"," "," ","16.683040899795586","500","250","psychophysics","78","584252","0.0-78.0","55895b93fdf99b6bd06017c4","6213cbf3306309c3662060a6","3","5","60","57","","",""
"10201","key"," "," ","16.66599999999991","500","250","psychophysics","79","594463","0.0-79.0","55895b93fdf99b6bd06017c4","6213cbf3306309c3662060a6","3","0","29","37","","",""
"8737","key"," "," ","16.665999999999944","500","250","psychophysics","80","603204","0.0-80.0","55895b93fdf99b6bd06017c4","6213cbf3306309c3662060a6","3","5","39","43","","",""
"8781","key"," "," ","16.665999999999926","500","250","psychophysics","81","611995","0.0-81.0","55895b93fdf99b6bd06017c4","6213cbf3306309c3662060a6","3","0","44","51","","",""
"10060","key"," "," ","16.665999999999997","500","250","psychophysics","82","622060","0.0-82.0","55895b93fdf99b6bd06017c4","6213cbf3306309c3662060a6","3","5","32","31","","",""
"8055","key"," "," ","16.665999999999908","500","250","psychophysics","83","630121","0.0-83.0","55895b93fdf99b6bd06017c4","6213cbf3306309c3662060a6","3","0","27","34","","",""
"14793","key"," "," ","16.665999999999965","500","250","psychophysics","84","644919","0.0-84.0","55895b93fdf99b6bd06017c4","6213cbf3306309c3662060a6","3","5","57","56","","",""
"10469","key"," "," ","16.666000000000086","500","250","psychophysics","85","655392","0.0-85.0","55895b93fdf99b6bd06017c4","6213cbf3306309c3662060a6","3","0","37","45","","",""
"14661","key"," "," ","16.66599999999999","500","250","psychophysics","86","670056","0.0-86.0","55895b93fdf99b6bd06017c4","6213cbf3306309c3662060a6","3","5","46","51","","",""
"11971","key"," "," ","16.689276536312846","500","250","psychophysics","87","682031","0.0-87.0","55895b93fdf99b6bd06017c4","6213cbf3306309c3662060a6","3","0","34","43","","",""
"7231","key"," "," ","16.665999999999986","500","250","psychophysics","88","689273","0.0-88.0","55895b93fdf99b6bd06017c4","6213cbf3306309c3662060a6","3","5","27","31","","",""
"10989","key"," "," ","16.665999999999958","500","250","psychophysics","89","700268","0.0-89.0","55895b93fdf99b6bd06017c4","6213cbf3306309c3662060a6","3","0","34","47","","",""
"9548","key"," "," ","16.66599999999988","500","250","psychophysics","90","709823","0.0-90.0","55895b93fdf99b6bd06017c4","6213cbf3306309c3662060a6","3","5","25","28","","",""
"9081","key"," "," ","16.666000000000007","500","250","psychophysics","91","718908","0.0-91.0","55895b93fdf99b6bd06017c4","6213cbf3306309c3662060a6","3","0","43","52","","",""
"2815","key"," "," ","16.665999999999517","500","250","psychophysics","92","721726","0.0-92.0","55895b93fdf99b6bd06017c4","6213cbf3306309c3662060a6","","","","","","",""
"60537","","","n","","","","html-keyboard-response","93","782265","0.0-93.0","55895b93fdf99b6bd06017c4","6213cbf3306309c3662060a6","","","","","<p> In this part of the experiment, we are going present digits 1, 2, 3, 4, 6, 7, 8, and 9.  Notice that 5 is missing.  Your job is to say whether the presented digit is less than or greater than 5.  For example, 3 is less than 5 and 7 is greater than 5.  If the digit is less than 5, press the v key; if it is greater than 5, press the n key. We are going to do 200 of these in total, but only 50 righ now. They go real fast.</p>  <br><br>  Ready? (press v or n)","",""
"2981","key","n","n","16.75962921348335","500","250","psychophysics","94","785257","0.0-94.0","55895b93fdf99b6bd06017c4","6213cbf3306309c3662060a6","4","","","","","1","6"
"null","","","null","","","","html-keyboard-response","95","785760","0.0-95.0","55895b93fdf99b6bd06017c4","6213cbf3306309c3662060a6","","","","","<p style=""color:darkgreen;font-size:24px;"">Correct :)</p>","",""
"2770","key","v","v","16.665999999999894","500","250","psychophysics","96","788535","0.0-96.0","55895b93fdf99b6bd06017c4","6213cbf3306309c3662060a6","4","","","","","1","1"
"null","","","null","","","","html-keyboard-response","97","789036","0.0-97.0","55895b93fdf99b6bd06017c4","6213cbf3306309c3662060a6","","","","","<p style=""color:darkgreen;font-size:24px;"">Correct :)</p>","",""
"2685","key","n","n","16.66600000000015","500","250","psychophysics","98","791726","0.0-98.0","55895b93fdf99b6bd06017c4","6213cbf3306309c3662060a6","4","","","","","1","7"
"null","","","null","","","","html-keyboard-response","99","792229","0.0-99.0","55895b93fdf99b6bd06017c4","6213cbf3306309c3662060a6","","","","","<p style=""color:darkgreen;font-size:24px;"">Correct :)</p>","",""
"2677","key","n","n","16.66600000000035","500","250","psychophysics","100","794911","0.0-100.0","55895b93fdf99b6bd06017c4","6213cbf3306309c3662060a6","4","","","","","1","8"
"null","","","null","","","","html-keyboard-response","101","795412","0.0-101.0","55895b93fdf99b6bd06017c4","6213cbf3306309c3662060a6","","","","","<p style=""color:darkgreen;font-size:24px;"">Correct :)</p>","",""
"2623","key","v","v","16.66600000000022","500","250","psychophysics","102","798040","0.0-102.0","55895b93fdf99b6bd06017c4","6213cbf3306309c3662060a6","4","","","","","1","3"
"null","","","null","","","","html-keyboard-response","103","798542","0.0-103.0","55895b93fdf99b6bd06017c4","6213cbf3306309c3662060a6","","","","","<p style=""color:darkgreen;font-size:24px;"">Correct :)</p>","",""
"2659","key","v","v","16.66599999999962","500","250","psychophysics","104","801206","0.0-104.0","55895b93fdf99b6bd06017c4","6213cbf3306309c3662060a6","4","","","","","1","2"
"null","","","null","","","","html-keyboard-response","105","801708","0.0-105.0","55895b93fdf99b6bd06017c4","6213cbf3306309c3662060a6","","","","","<p style=""color:darkgreen;font-size:24px;"">Correct :)</p>","",""
"2815","key","n","n","16.66600000000021","500","250","psychophysics","106","804525","0.0-106.0","55895b93fdf99b6bd06017c4","6213cbf3306309c3662060a6","4","","","","","1","8"
"null","","","null","","","","html-keyboard-response","107","805027","0.0-107.0","55895b93fdf99b6bd06017c4","6213cbf3306309c3662060a6","","","","","<p style=""color:darkgreen;font-size:24px;"">Correct :)</p>","",""
"2582","key","n","n","16.66599999999988","500","250","psychophysics","108","807614","0.0-108.0","55895b93fdf99b6bd06017c4","6213cbf3306309c3662060a6","4","","","","","1","9"
"null","","","null","","","","html-keyboard-response","109","808116","0.0-109.0","55895b93fdf99b6bd06017c4","6213cbf3306309c3662060a6","","","","","<p style=""color:darkgreen;font-size:24px;"">Correct :)</p>","",""
"2562","key","v","v","16.666000000000086","500","250","psychophysics","110","810683","0.0-110.0","55895b93fdf99b6bd06017c4","6213cbf3306309c3662060a6","4","","","","","1","1"
"null","","","null","","","","html-keyboard-response","111","811184","0.0-111.0","55895b93fdf99b6bd06017c4","6213cbf3306309c3662060a6","","","","","<p style=""color:darkgreen;font-size:24px;"">Correct :)</p>","",""
"2444","key","n","n","16.66600000000001","500","250","psychophysics","112","813634","0.0-112.0","55895b93fdf99b6bd06017c4","6213cbf3306309c3662060a6","4","","","","","1","8"
"null","","","null","","","","html-keyboard-response","113","814135","0.0-113.0","55895b93fdf99b6bd06017c4","6213cbf3306309c3662060a6","","","","","<p style=""color:darkgreen;font-size:24px;"">Correct :)</p>","",""
"2591","key","n","n","16.665999999999677","500","250","psychophysics","114","816731","0.0-114.0","55895b93fdf99b6bd06017c4","6213cbf3306309c3662060a6","4","","","","","1","6"
"null","","","null","","","","html-keyboard-response","115","817233","0.0-115.0","55895b93fdf99b6bd06017c4","6213cbf3306309c3662060a6","","","","","<p style=""color:darkgreen;font-size:24px;"">Correct :)</p>","",""
"2497","key","n","n","16.666000000000157","500","250","psychophysics","116","819735","0.0-116.0","55895b93fdf99b6bd06017c4","6213cbf3306309c3662060a6","4","","","","","1","8"
"null","","","null","","","","html-keyboard-response","117","820237","0.0-117.0","55895b93fdf99b6bd06017c4","6213cbf3306309c3662060a6","","","","","<p style=""color:darkgreen;font-size:24px;"">Correct :)</p>","",""
"2435","key","n","n","16.66600000000023","500","250","psychophysics","118","822676","0.0-118.0","55895b93fdf99b6bd06017c4","6213cbf3306309c3662060a6","4","","","","","1","9"
"null","","","null","","","","html-keyboard-response","119","823178","0.0-119.0","55895b93fdf99b6bd06017c4","6213cbf3306309c3662060a6","","","","","<p style=""color:darkgreen;font-size:24px;"">Correct :)</p>","",""
"2513","key","n","n","16.665999999999944","500","250","psychophysics","120","825695","0.0-120.0","55895b93fdf99b6bd06017c4","6213cbf3306309c3662060a6","4","","","","","1","8"
"null","","","null","","","","html-keyboard-response","121","826197","0.0-121.0","55895b93fdf99b6bd06017c4","6213cbf3306309c3662060a6","","","","","<p style=""color:darkgreen;font-size:24px;"">Correct :)</p>","",""
"2466","key","n","n","16.666000000000587","500","250","psychophysics","122","828668","0.0-122.0","55895b93fdf99b6bd06017c4","6213cbf3306309c3662060a6","4","","","","","1","9"
"null","","","null","","","","html-keyboard-response","123","829170","0.0-123.0","55895b93fdf99b6bd06017c4","6213cbf3306309c3662060a6","","","","","<p style=""color:darkgreen;font-size:24px;"">Correct :)</p>","",""
"2564","key","v","v","16.666000000000086","500","250","psychophysics","124","831738","0.0-124.0","55895b93fdf99b6bd06017c4","6213cbf3306309c3662060a6","4","","","","","1","3"
"null","","","null","","","","html-keyboard-response","125","832240","0.0-125.0","55895b93fdf99b6bd06017c4","6213cbf3306309c3662060a6","","","","","<p style=""color:darkgreen;font-size:24px;"">Correct :)</p>","",""
"2618","key","n","n","16.666000000000018","500","250","psychophysics","126","834862","0.0-126.0","55895b93fdf99b6bd06017c4","6213cbf3306309c3662060a6","4","","","","","1","9"
"null","","","null","","","","html-keyboard-response","127","835364","0.0-127.0","55895b93fdf99b6bd06017c4","6213cbf3306309c3662060a6","","","","","<p style=""color:darkgreen;font-size:24px;"">Correct :)</p>","",""
"2495","key","n","n","16.666000000000157","500","250","psychophysics","128","837865","0.0-128.0","55895b93fdf99b6bd06017c4","6213cbf3306309c3662060a6","4","","","","","1","9"
"null","","","null","","","","html-keyboard-response","129","838368","0.0-129.0","55895b93fdf99b6bd06017c4","6213cbf3306309c3662060a6","","","","","<p style=""color:darkgreen;font-size:24px;"">Correct :)</p>","",""
"2481","key","v","v","16.66600000000037","500","250","psychophysics","130","840854","0.0-130.0","55895b93fdf99b6bd06017c4","6213cbf3306309c3662060a6","4","","","","","1","2"
"null","","","null","","","","html-keyboard-response","131","841355","0.0-131.0","55895b93fdf99b6bd06017c4","6213cbf3306309c3662060a6","","","","","<p style=""color:darkgreen;font-size:24px;"">Correct :)</p>","",""
"2475","key","n","n","16.66599999999959","500","250","psychophysics","132","843834","0.0-132.0","55895b93fdf99b6bd06017c4","6213cbf3306309c3662060a6","4","","","","","1","8"
"null","","","null","","","","html-keyboard-response","133","844338","0.0-133.0","55895b93fdf99b6bd06017c4","6213cbf3306309c3662060a6","","","","","<p style=""color:darkgreen;font-size:24px;"">Correct :)</p>","",""
"2596","key","v","v","16.666000000000423","500","250","psychophysics","134","846938","0.0-134.0","55895b93fdf99b6bd06017c4","6213cbf3306309c3662060a6","4","","","","","1","1"
"null","","","null","","","","html-keyboard-response","135","847440","0.0-135.0","55895b93fdf99b6bd06017c4","6213cbf3306309c3662060a6","","","","","<p style=""color:darkgreen;font-size:24px;"">Correct :)</p>","",""
"2563","key","n","n","16.666000000000086","500","250","psychophysics","136","850008","0.0-136.0","55895b93fdf99b6bd06017c4","6213cbf3306309c3662060a6","4","","","","","1","6"
"null","","","null","","","","html-keyboard-response","137","850509","0.0-137.0","55895b93fdf99b6bd06017c4","6213cbf3306309c3662060a6","","","","","<p style=""color:darkgreen;font-size:24px;"">Correct :)</p>","",""
"2567","key","n","n","16.666000000000086","500","250","psychophysics","138","853087","0.0-138.0","55895b93fdf99b6bd06017c4","6213cbf3306309c3662060a6","4","","","","","1","9"
"null","","","null","","","","html-keyboard-response","139","853588","0.0-139.0","55895b93fdf99b6bd06017c4","6213cbf3306309c3662060a6","","","","","<p style=""color:darkgreen;font-size:24px;"">Correct :)</p>","",""
"2455","key","n","n","16.666000000000587","500","250","psychophysics","140","856048","0.0-140.0","55895b93fdf99b6bd06017c4","6213cbf3306309c3662060a6","4","","","","","1","7"
"null","","","null","","","","html-keyboard-response","141","856550","0.0-141.0","55895b93fdf99b6bd06017c4","6213cbf3306309c3662060a6","","","","","<p style=""color:darkgreen;font-size:24px;"">Correct :)</p>","",""
"2597","key","v","v","16.665999999999677","500","250","psychophysics","142","859149","0.0-142.0","55895b93fdf99b6bd06017c4","6213cbf3306309c3662060a6","4","","","","","1","4"
"null","","","null","","","","html-keyboard-response","143","859651","0.0-143.0","55895b93fdf99b6bd06017c4","6213cbf3306309c3662060a6","","","","","<p style=""color:darkgreen;font-size:24px;"">Correct :)</p>","",""
"2479","key","n","n","16.66600000000037","500","250","psychophysics","144","862135","0.0-144.0","55895b93fdf99b6bd06017c4","6213cbf3306309c3662060a6","4","","","","","1","9"
"null","","","null","","","","html-keyboard-response","145","862637","0.0-145.0","55895b93fdf99b6bd06017c4","6213cbf3306309c3662060a6","","","","","<p style=""color:darkgreen;font-size:24px;"">Correct :)</p>","",""
"2509","key","v","v","16.665999999999944","500","250","psychophysics","146","865150","0.0-146.0","55895b93fdf99b6bd06017c4","6213cbf3306309c3662060a6","4","","","","","1","4"
"null","","","null","","","","html-keyboard-response","147","865651","0.0-147.0","55895b93fdf99b6bd06017c4","6213cbf3306309c3662060a6","","","","","<p style=""color:darkgreen;font-size:24px;"">Correct :)</p>","",""
"2416","key","n","n","16.666000000000448","500","250","psychophysics","148","868070","0.0-148.0","55895b93fdf99b6bd06017c4","6213cbf3306309c3662060a6","4","","","","","1","8"
"null","","","null","","","","html-keyboard-response","149","868571","0.0-149.0","55895b93fdf99b6bd06017c4","6213cbf3306309c3662060a6","","","","","<p style=""color:darkgreen;font-size:24px;"">Correct :)</p>","",""
"2435","key","n","n","16.66600000000001","500","250","psychophysics","150","871011","0.0-150.0","55895b93fdf99b6bd06017c4","6213cbf3306309c3662060a6","4","","","","","1","8"
"null","","","null","","","","html-keyboard-response","151","871513","0.0-151.0","55895b93fdf99b6bd06017c4","6213cbf3306309c3662060a6","","","","","<p style=""color:darkgreen;font-size:24px;"">Correct :)</p>","",""
"2455","key","n","n","16.66600000000001","500","250","psychophysics","152","873972","0.0-152.0","55895b93fdf99b6bd06017c4","6213cbf3306309c3662060a6","4","","","","","1","9"
"null","","","null","","","","html-keyboard-response","153","874473","0.0-153.0","55895b93fdf99b6bd06017c4","6213cbf3306309c3662060a6","","","","","<p style=""color:darkgreen;font-size:24px;"">Correct :)</p>","",""
"2493","key","v","v","16.666000000000157","500","250","psychophysics","154","876971","0.0-154.0","55895b93fdf99b6bd06017c4","6213cbf3306309c3662060a6","4","","","","","1","1"
"null","","","null","","","","html-keyboard-response","155","877472","0.0-155.0","55895b93fdf99b6bd06017c4","6213cbf3306309c3662060a6","","","","","<p style=""color:darkgreen;font-size:24px;"">Correct :)</p>","",""
"2508","key","n","n","16.665999999999944","500","250","psychophysics","156","879984","0.0-156.0","55895b93fdf99b6bd06017c4","6213cbf3306309c3662060a6","4","","","","","1","6"
"null","","","null","","","","html-keyboard-response","157","880486","0.0-157.0","55895b93fdf99b6bd06017c4","6213cbf3306309c3662060a6","","","","","<p style=""color:darkgreen;font-size:24px;"">Correct :)</p>","",""
"2453","key","n","n","16.666000000000587","500","250","psychophysics","158","882943","0.0-158.0","55895b93fdf99b6bd06017c4","6213cbf3306309c3662060a6","4","","","","","1","8"
"null","","","null","","","","html-keyboard-response","159","883445","0.0-159.0","55895b93fdf99b6bd06017c4","6213cbf3306309c3662060a6","","","","","<p style=""color:darkgreen;font-size:24px;"">Correct :)</p>","",""
"2526","key","v","v","16.665999999999944","500","250","psychophysics","160","885975","0.0-160.0","55895b93fdf99b6bd06017c4","6213cbf3306309c3662060a6","4","","","","","1","3"
"null","","","null","","","","html-keyboard-response","161","886477","0.0-161.0","55895b93fdf99b6bd06017c4","6213cbf3306309c3662060a6","","","","","<p style=""color:darkgreen;font-size:24px;"">Correct :)</p>","",""
"2564","key","v","v","16.666000000000086","500","250","psychophysics","162","889048","0.0-162.0","55895b93fdf99b6bd06017c4","6213cbf3306309c3662060a6","4","","","","","1","4"
"null","","","null","","","","html-keyboard-response","163","889550","0.0-163.0","55895b93fdf99b6bd06017c4","6213cbf3306309c3662060a6","","","","","<p style=""color:darkgreen;font-size:24px;"">Correct :)</p>","",""
"2628","key","n","n","16.666000000000018","500","250","psychophysics","164","892182","0.0-164.0","55895b93fdf99b6bd06017c4","6213cbf3306309c3662060a6","4","","","","","1","9"
"null","","","null","","","","html-keyboard-response","165","892684","0.0-165.0","55895b93fdf99b6bd06017c4","6213cbf3306309c3662060a6","","","","","<p style=""color:darkgreen;font-size:24px;"">Correct :)</p>","",""
"2600","key","n","n","16.666000000000423","500","250","psychophysics","166","895289","0.0-166.0","55895b93fdf99b6bd06017c4","6213cbf3306309c3662060a6","4","","","","","1","7"
"null","","","null","","","","html-keyboard-response","167","895791","0.0-167.0","55895b93fdf99b6bd06017c4","6213cbf3306309c3662060a6","","","","","<p style=""color:darkgreen;font-size:24px;"">Correct :)</p>","",""
"2409","key","n","n","16.666000000000672","500","250","psychophysics","168","898205","0.0-168.0","55895b93fdf99b6bd06017c4","6213cbf3306309c3662060a6","4","","","","","1","9"
"null","","","null","","","","html-keyboard-response","169","898706","0.0-169.0","55895b93fdf99b6bd06017c4","6213cbf3306309c3662060a6","","","","","<p style=""color:darkgreen;font-size:24px;"">Correct :)</p>","",""
"2641","key","v","v","16.666000000000018","500","250","psychophysics","170","901351","0.0-170.0","55895b93fdf99b6bd06017c4","6213cbf3306309c3662060a6","4","","","","","1","4"
"null","","","null","","","","html-keyboard-response","171","901853","0.0-171.0","55895b93fdf99b6bd06017c4","6213cbf3306309c3662060a6","","","","","<p style=""color:darkgreen;font-size:24px;"">Correct :)</p>","",""
"2573","key","n","n","16.66599999999988","500","250","psychophysics","172","904430","0.0-172.0","55895b93fdf99b6bd06017c4","6213cbf3306309c3662060a6","4","","","","","1","8"
"null","","","null","","","","html-keyboard-response","173","904932","0.0-173.0","55895b93fdf99b6bd06017c4","6213cbf3306309c3662060a6","","","","","<p style=""color:darkgreen;font-size:24px;"">Correct :)</p>","",""
"2585","key","v","v","16.66600000000063","500","250","psychophysics","174","907522","0.0-174.0","55895b93fdf99b6bd06017c4","6213cbf3306309c3662060a6","4","","","","","1","2"
"null","","","null","","","","html-keyboard-response","175","908023","0.0-175.0","55895b93fdf99b6bd06017c4","6213cbf3306309c3662060a6","","","","","<p style=""color:darkgreen;font-size:24px;"">Correct :)</p>","",""
"2630","key","n","n","16.666000000000018","500","250","psychophysics","176","910659","0.0-176.0","55895b93fdf99b6bd06017c4","6213cbf3306309c3662060a6","4","","","","","1","6"
"null","","","null","","","","html-keyboard-response","177","911161","0.0-177.0","55895b93fdf99b6bd06017c4","6213cbf3306309c3662060a6","","","","","<p style=""color:darkgreen;font-size:24px;"">Correct :)</p>","",""
"2499","key","v","v","16.666000000000157","500","250","psychophysics","178","913666","0.0-178.0","55895b93fdf99b6bd06017c4","6213cbf3306309c3662060a6","4","","","","","1","2"
"null","","","null","","","","html-keyboard-response","179","914168","0.0-179.0","55895b93fdf99b6bd06017c4","6213cbf3306309c3662060a6","","","","","<p style=""color:darkgreen;font-size:24px;"">Correct :)</p>","",""
"2538","key","n","n","16.66600000000029","500","250","psychophysics","180","916712","0.0-180.0","55895b93fdf99b6bd06017c4","6213cbf3306309c3662060a6","4","","","","","1","7"
"null","","","null","","","","html-keyboard-response","181","917213","0.0-181.0","55895b93fdf99b6bd06017c4","6213cbf3306309c3662060a6","","","","","<p style=""color:darkgreen;font-size:24px;"">Correct :)</p>","",""
"2456","key","n","n","16.665999999999798","500","250","psychophysics","182","919675","0.0-182.0","55895b93fdf99b6bd06017c4","6213cbf3306309c3662060a6","4","","","","","1","8"
"null","","","null","","","","html-keyboard-response","183","920177","0.0-183.0","55895b93fdf99b6bd06017c4","6213cbf3306309c3662060a6","","","","","<p style=""color:darkgreen;font-size:24px;"">Correct :)</p>","",""
"2494","key","v","v","16.666000000000157","500","250","psychophysics","184","922677","0.0-184.0","55895b93fdf99b6bd06017c4","6213cbf3306309c3662060a6","4","","","","","1","2"
"null","","","null","","","","html-keyboard-response","185","923178","0.0-185.0","55895b93fdf99b6bd06017c4","6213cbf3306309c3662060a6","","","","","<p style=""color:darkgreen;font-size:24px;"">Correct :)</p>","",""
"2470","key","n","n","16.666000000000587","500","250","psychophysics","186","925651","0.0-186.0","55895b93fdf99b6bd06017c4","6213cbf3306309c3662060a6","4","","","","","1","8"
"null","","","null","","","","html-keyboard-response","187","926153","0.0-187.0","55895b93fdf99b6bd06017c4","6213cbf3306309c3662060a6","","","","","<p style=""color:darkgreen;font-size:24px;"">Correct :)</p>","",""
"2667","key","v","v","16.77081761006251","500","250","psychophysics","188","928824","0.0-188.0","55895b93fdf99b6bd06017c4","6213cbf3306309c3662060a6","4","","","","","1","4"
"null","","","null","","","","html-keyboard-response","189","929329","0.0-189.0","55895b93fdf99b6bd06017c4","6213cbf3306309c3662060a6","","","","","<p style=""color:darkgreen;font-size:24px;"">Correct :)</p>","",""
"2393","key","v","v","16.665999999999865","500","250","psychophysics","190","931726","0.0-190.0","55895b93fdf99b6bd06017c4","6213cbf3306309c3662060a6","4","","","","","1","4"
"null","","","null","","","","html-keyboard-response","191","932227","0.0-191.0","55895b93fdf99b6bd06017c4","6213cbf3306309c3662060a6","","","","","<p style=""color:darkgreen;font-size:24px;"">Correct :)</p>","",""
"2562","key","v","v","16.666000000000086","500","250","psychophysics","192","934792","0.0-192.0","55895b93fdf99b6bd06017c4","6213cbf3306309c3662060a6","4","","","","","1","3"
"null","","","null","","","","html-keyboard-response","193","935293","0.0-193.0","55895b93fdf99b6bd06017c4","6213cbf3306309c3662060a6","","","","","<p style=""color:darkgreen;font-size:24px;"">Correct :)</p>","",""
"15277","","","n","","","","html-keyboard-response","194","950572","0.0-194.0","55895b93fdf99b6bd06017c4","6213cbf3306309c3662060a6","","","","","<p> Ok, now we are going present the same digits as before.  Your job is to say whether the digit is even or odd  If the digit is odd, press to v key; if it is even, press the n key. We are going to do 50 of these.  </p>  <br><br>  Ready? (press v or n)","",""
"3002","key","n","n","16.666000000000025","500","250","psychophysics","195","953579","0.0-195.0","55895b93fdf99b6bd06017c4","6213cbf3306309c3662060a6","5","","","","","0","7"
"null","","","null","","","","html-keyboard-response","196","954081","0.0-196.0","55895b93fdf99b6bd06017c4","6213cbf3306309c3662060a6","","","","","<p style=""color:red;font-size:24px;"">Error :(</p>","",""
"3065","key","n","n","16.66599999999997","500","250","psychophysics","197","957150","0.0-197.0","55895b93fdf99b6bd06017c4","6213cbf3306309c3662060a6","5","","","","","0","2"
"null","","","null","","","","html-keyboard-response","198","957652","0.0-198.0","55895b93fdf99b6bd06017c4","6213cbf3306309c3662060a6","","","","","<p style=""color:darkgreen;font-size:24px;"">Correct :)</p>","",""
"2659","key","v","v","16.77081761006251","500","250","psychophysics","199","960316","0.0-199.0","55895b93fdf99b6bd06017c4","6213cbf3306309c3662060a6","5","","","","","0","3"
"null","","","null","","","","html-keyboard-response","200","960823","0.0-200.0","55895b93fdf99b6bd06017c4","6213cbf3306309c3662060a6","","","","","<p style=""color:darkgreen;font-size:24px;"">Correct :)</p>","",""
"2517","key","v","v","17.47615277777772","500","250","psychophysics","201","963343","0.0-201.0","55895b93fdf99b6bd06017c4","6213cbf3306309c3662060a6","5","","","","","0","3"
"null","","","null","","","","html-keyboard-response","202","963847","0.0-202.0","55895b93fdf99b6bd06017c4","6213cbf3306309c3662060a6","","","","","<p style=""color:darkgreen;font-size:24px;"">Correct :)</p>","",""
"2542","key","v","v","16.8867417218546","500","250","psychophysics","203","966395","0.0-203.0","55895b93fdf99b6bd06017c4","6213cbf3306309c3662060a6","5","","","","","0","3"
"null","","","null","","","","html-keyboard-response","204","966897","0.0-204.0","55895b93fdf99b6bd06017c4","6213cbf3306309c3662060a6","","","","","<p style=""color:darkgreen;font-size:24px;"">Correct :)</p>","",""
"2713","key","v","v","16.768876543209636","500","250","psychophysics","205","969612","0.0-205.0","55895b93fdf99b6bd06017c4","6213cbf3306309c3662060a6","5","","","","","0","1"
"null","","","null","","","","html-keyboard-response","206","970114","0.0-206.0","55895b93fdf99b6bd06017c4","6213cbf3306309c3662060a6","","","","","<p style=""color:darkgreen;font-size:24px;"">Correct :)</p>","",""
"2569","key","v","v","16.885289473684296","500","250","psychophysics","207","972685","0.0-207.0","55895b93fdf99b6bd06017c4","6213cbf3306309c3662060a6","5","","","","","0","3"
"null","","","null","","","","html-keyboard-response","208","973186","0.0-208.0","55895b93fdf99b6bd06017c4","6213cbf3306309c3662060a6","","","","","<p style=""color:darkgreen;font-size:24px;"">Correct :)</p>","",""
"2462","key","n","n","16.66600000000001","500","250","psychophysics","209","975652","0.0-209.0","55895b93fdf99b6bd06017c4","6213cbf3306309c3662060a6","5","","","","","0","2"
"null","","","null","","","","html-keyboard-response","210","976153","0.0-210.0","55895b93fdf99b6bd06017c4","6213cbf3306309c3662060a6","","","","","<p style=""color:darkgreen;font-size:24px;"">Correct :)</p>","",""
"2658","key","v","v","16.66599999999982","500","250","psychophysics","211","978816","0.0-211.0","55895b93fdf99b6bd06017c4","6213cbf3306309c3662060a6","5","","","","","0","7"
"null","","","null","","","","html-keyboard-response","212","979317","0.0-212.0","55895b93fdf99b6bd06017c4","6213cbf3306309c3662060a6","","","","","<p style=""color:darkgreen;font-size:24px;"">Correct :)</p>","",""
"2531","key","v","v","16.77637086092766","500","250","psychophysics","213","981855","0.0-213.0","55895b93fdf99b6bd06017c4","6213cbf3306309c3662060a6","5","","","","","0","1"
"null","","","null","","","","html-keyboard-response","214","982357","0.0-214.0","55895b93fdf99b6bd06017c4","6213cbf3306309c3662060a6","","","","","<p style=""color:darkgreen;font-size:24px;"">Correct :)</p>","",""
"2669","key","v","v","16.77016250000015","500","250","psychophysics","215","985051","0.0-215.0","55895b93fdf99b6bd06017c4","6213cbf3306309c3662060a6","5","","","","","0","9"
"null","","","null","","","","html-keyboard-response","216","985556","0.0-216.0","55895b93fdf99b6bd06017c4","6213cbf3306309c3662060a6","","","","","<p style=""color:darkgreen;font-size:24px;"">Correct :)</p>","",""
"2533","key","v","v","16.6660000000005","500","250","psychophysics","217","988094","0.0-217.0","55895b93fdf99b6bd06017c4","6213cbf3306309c3662060a6","5","","","","","0","7"
"null","","","null","","","","html-keyboard-response","218","988595","0.0-218.0","55895b93fdf99b6bd06017c4","6213cbf3306309c3662060a6","","","","","<p style=""color:darkgreen;font-size:24px;"">Correct :)</p>","",""
"2576","key","v","v","16.883856209150206","500","250","psychophysics","219","991176","0.0-219.0","55895b93fdf99b6bd06017c4","6213cbf3306309c3662060a6","5","","","","","0","1"
"null","","","null","","","","html-keyboard-response","220","991677","0.0-220.0","55895b93fdf99b6bd06017c4","6213cbf3306309c3662060a6","","","","","<p style=""color:darkgreen;font-size:24px;"">Correct :)</p>","",""
"2480","key","v","v","16.66600000000037","500","250","psychophysics","221","994163","0.0-221.0","55895b93fdf99b6bd06017c4","6213cbf3306309c3662060a6","5","","","","","0","9"
"null","","","null","","","","html-keyboard-response","222","994664","0.0-222.0","55895b93fdf99b6bd06017c4","6213cbf3306309c3662060a6","","","","","<p style=""color:darkgreen;font-size:24px;"">Correct :)</p>","",""
"2622","key","n","n","16.666000000000018","500","250","psychophysics","223","997291","0.0-223.0","55895b93fdf99b6bd06017c4","6213cbf3306309c3662060a6","5","","","","","0","8"
"null","","","null","","","","html-keyboard-response","224","997793","0.0-224.0","55895b93fdf99b6bd06017c4","6213cbf3306309c3662060a6","","","","","<p style=""color:darkgreen;font-size:24px;"">Correct :)</p>","",""
"2479","key","v","v","16.66600000000037","500","250","psychophysics","225","1000277","0.0-225.0","55895b93fdf99b6bd06017c4","6213cbf3306309c3662060a6","5","","","","","0","7"
"null","","","null","","","","html-keyboard-response","226","1000778","0.0-226.0","55895b93fdf99b6bd06017c4","6213cbf3306309c3662060a6","","","","","<p style=""color:darkgreen;font-size:24px;"">Correct :)</p>","",""
"2653","key","v","v","16.66599999999982","500","250","psychophysics","227","1003436","0.0-227.0","55895b93fdf99b6bd06017c4","6213cbf3306309c3662060a6","5","","","","","0","9"
"null","","","null","","","","html-keyboard-response","228","1003937","0.0-228.0","55895b93fdf99b6bd06017c4","6213cbf3306309c3662060a6","","","","","<p style=""color:darkgreen;font-size:24px;"">Correct :)</p>","",""
"2525","key","v","v","16.665999999999944","500","250","psychophysics","229","1006467","0.0-229.0","55895b93fdf99b6bd06017c4","6213cbf3306309c3662060a6","5","","","","","0","9"
"null","","","null","","","","html-keyboard-response","230","1006969","0.0-230.0","55895b93fdf99b6bd06017c4","6213cbf3306309c3662060a6","","","","","<p style=""color:darkgreen;font-size:24px;"">Correct :)</p>","",""
"2514","key","v","v","16.666000000000157","500","250","psychophysics","231","1009488","0.0-231.0","55895b93fdf99b6bd06017c4","6213cbf3306309c3662060a6","5","","","","","0","7"
"null","","","null","","","","html-keyboard-response","232","1009990","0.0-232.0","55895b93fdf99b6bd06017c4","6213cbf3306309c3662060a6","","","","","<p style=""color:darkgreen;font-size:24px;"">Correct :)</p>","",""
"2468","key","v","v","16.77937414965966","500","250","psychophysics","233","1012463","0.0-233.0","55895b93fdf99b6bd06017c4","6213cbf3306309c3662060a6","5","","","","","0","7"
"null","","","null","","","","html-keyboard-response","234","1012965","0.0-234.0","55895b93fdf99b6bd06017c4","6213cbf3306309c3662060a6","","","","","<p style=""color:darkgreen;font-size:24px;"">Correct :)</p>","",""
"2749","key","n","n","16.66599999999938","500","250","psychophysics","235","1015718","0.0-235.0","55895b93fdf99b6bd06017c4","6213cbf3306309c3662060a6","5","","","","","0","6"
"null","","","null","","","","html-keyboard-response","236","1016220","0.0-236.0","55895b93fdf99b6bd06017c4","6213cbf3306309c3662060a6","","","","","<p style=""color:darkgreen;font-size:24px;"">Correct :)</p>","",""
"2516","key","n","n","16.665999999999944","500","250","psychophysics","237","1018746","0.0-237.0","55895b93fdf99b6bd06017c4","6213cbf3306309c3662060a6","5","","","","","0","6"
"null","","","null","","","","html-keyboard-response","238","1019248","0.0-238.0","55895b93fdf99b6bd06017c4","6213cbf3306309c3662060a6","","","","","<p style=""color:darkgreen;font-size:24px;"">Correct :)</p>","",""
"2611","key","n","n","16.66600000000022","500","250","psychophysics","239","1021867","0.0-239.0","55895b93fdf99b6bd06017c4","6213cbf3306309c3662060a6","5","","","","","0","8"
"null","","","null","","","","html-keyboard-response","240","1022368","0.0-240.0","55895b93fdf99b6bd06017c4","6213cbf3306309c3662060a6","","","","","<p style=""color:darkgreen;font-size:24px;"">Correct :)</p>","",""
"2593","key","v","v","16.66599999999988","500","250","psychophysics","241","1024969","0.0-241.0","55895b93fdf99b6bd06017c4","6213cbf3306309c3662060a6","5","","","","","0","9"
"null","","","null","","","","html-keyboard-response","242","1025470","0.0-242.0","55895b93fdf99b6bd06017c4","6213cbf3306309c3662060a6","","","","","<p style=""color:darkgreen;font-size:24px;"">Correct :)</p>","",""
"2554","key","v","v","16.66599999999953","500","250","psychophysics","243","1028029","0.0-243.0","55895b93fdf99b6bd06017c4","6213cbf3306309c3662060a6","5","","","","","0","3"
"null","","","null","","","","html-keyboard-response","244","1028531","0.0-244.0","55895b93fdf99b6bd06017c4","6213cbf3306309c3662060a6","","","","","<p style=""color:darkgreen;font-size:24px;"">Correct :)</p>","",""
"2712","key","n","n","16.66599999999976","500","250","psychophysics","245","1031248","0.0-245.0","55895b93fdf99b6bd06017c4","6213cbf3306309c3662060a6","5","","","","","0","2"
"null","","","null","","","","html-keyboard-response","246","1031750","0.0-246.0","55895b93fdf99b6bd06017c4","6213cbf3306309c3662060a6","","","","","<p style=""color:darkgreen;font-size:24px;"">Correct :)</p>","",""
"2420","key","n","n","16.66600000000023","500","250","psychophysics","247","1034175","0.0-247.0","55895b93fdf99b6bd06017c4","6213cbf3306309c3662060a6","5","","","","","0","4"
"null","","","null","","","","html-keyboard-response","248","1034677","0.0-248.0","55895b93fdf99b6bd06017c4","6213cbf3306309c3662060a6","","","","","<p style=""color:darkgreen;font-size:24px;"">Correct :)</p>","",""
"2455","key","v","v","16.665999999999798","500","250","psychophysics","249","1037140","0.0-249.0","55895b93fdf99b6bd06017c4","6213cbf3306309c3662060a6","5","","","","","0","3"
"null","","","null","","","","html-keyboard-response","250","1037642","0.0-250.0","55895b93fdf99b6bd06017c4","6213cbf3306309c3662060a6","","","","","<p style=""color:darkgreen;font-size:24px;"">Correct :)</p>","",""
"2479","key","n","n","16.66600000000037","500","250","psychophysics","251","1040125","0.0-251.0","55895b93fdf99b6bd06017c4","6213cbf3306309c3662060a6","5","","","","","0","8"
"null","","","null","","","","html-keyboard-response","252","1040627","0.0-252.0","55895b93fdf99b6bd06017c4","6213cbf3306309c3662060a6","","","","","<p style=""color:darkgreen;font-size:24px;"">Correct :)</p>","",""
"2515","key","v","v","16.665999999999944","500","250","psychophysics","253","1043147","0.0-253.0","55895b93fdf99b6bd06017c4","6213cbf3306309c3662060a6","5","","","","","0","9"
"null","","","null","","","","html-keyboard-response","254","1043648","0.0-254.0","55895b93fdf99b6bd06017c4","6213cbf3306309c3662060a6","","","","","<p style=""color:darkgreen;font-size:24px;"">Correct :)</p>","",""
"2604","key","n","n","16.66600000000022","500","250","psychophysics","255","1046259","0.0-255.0","55895b93fdf99b6bd06017c4","6213cbf3306309c3662060a6","5","","","","","0","2"
"null","","","null","","","","html-keyboard-response","256","1046761","0.0-256.0","55895b93fdf99b6bd06017c4","6213cbf3306309c3662060a6","","","","","<p style=""color:darkgreen;font-size:24px;"">Correct :)</p>","",""
"2680","key","v","v","16.66600000000015","500","250","psychophysics","257","1049444","0.0-257.0","55895b93fdf99b6bd06017c4","6213cbf3306309c3662060a6","5","","","","","0","1"
"null","","","null","","","","html-keyboard-response","258","1049946","0.0-258.0","55895b93fdf99b6bd06017c4","6213cbf3306309c3662060a6","","","","","<p style=""color:darkgreen;font-size:24px;"">Correct :)</p>","",""
"2486","key","n","n","16.66599999999938","500","250","psychophysics","259","1052437","0.0-259.0","55895b93fdf99b6bd06017c4","6213cbf3306309c3662060a6","5","","","","","0","8"
"null","","","null","","","","html-keyboard-response","260","1052939","0.0-260.0","55895b93fdf99b6bd06017c4","6213cbf3306309c3662060a6","","","","","<p style=""color:darkgreen;font-size:24px;"">Correct :)</p>","",""
"2477","key","n","n","16.66599999999959","500","250","psychophysics","261","1055419","0.0-261.0","55895b93fdf99b6bd06017c4","6213cbf3306309c3662060a6","5","","","","","0","8"
"null","","","null","","","","html-keyboard-response","262","1055923","0.0-262.0","55895b93fdf99b6bd06017c4","6213cbf3306309c3662060a6","","","","","<p style=""color:darkgreen;font-size:24px;"">Correct :)</p>","",""
"2531","key","n","n","16.6660000000005","500","250","psychophysics","263","1058459","0.0-263.0","55895b93fdf99b6bd06017c4","6213cbf3306309c3662060a6","5","","","","","0","2"
"null","","","null","","","","html-keyboard-response","264","1058961","0.0-264.0","55895b93fdf99b6bd06017c4","6213cbf3306309c3662060a6","","","","","<p style=""color:darkgreen;font-size:24px;"">Correct :)</p>","",""
"2749","key","v","v","16.66599999999938","500","250","psychophysics","265","1061712","0.0-265.0","55895b93fdf99b6bd06017c4","6213cbf3306309c3662060a6","5","","","","","0","9"
"null","","","null","","","","html-keyboard-response","266","1062213","0.0-266.0","55895b93fdf99b6bd06017c4","6213cbf3306309c3662060a6","","","","","<p style=""color:darkgreen;font-size:24px;"">Correct :)</p>","",""
"2619","key","v","v","16.666000000000754","500","250","psychophysics","267","1064838","0.0-267.0","55895b93fdf99b6bd06017c4","6213cbf3306309c3662060a6","5","","","","","0","9"
"null","","","null","","","","html-keyboard-response","268","1065340","0.0-268.0","55895b93fdf99b6bd06017c4","6213cbf3306309c3662060a6","","","","","<p style=""color:darkgreen;font-size:24px;"">Correct :)</p>","",""
"2613","key","v","v","16.77283333333281","500","250","psychophysics","269","1067959","0.0-269.0","55895b93fdf99b6bd06017c4","6213cbf3306309c3662060a6","5","","","","","0","7"
"null","","","null","","","","html-keyboard-response","270","1068462","0.0-270.0","55895b93fdf99b6bd06017c4","6213cbf3306309c3662060a6","","","","","<p style=""color:darkgreen;font-size:24px;"">Correct :)</p>","",""
"2536","key","v","v","16.66600000000029","500","250","psychophysics","271","1071010","0.0-271.0","55895b93fdf99b6bd06017c4","6213cbf3306309c3662060a6","5","","","","","0","7"
"null","","","null","","","","html-keyboard-response","272","1071512","0.0-272.0","55895b93fdf99b6bd06017c4","6213cbf3306309c3662060a6","","","","","<p style=""color:darkgreen;font-size:24px;"">Correct :)</p>","",""
"2444","key","v","v","16.66600000000001","500","250","psychophysics","273","1073961","0.0-273.0","55895b93fdf99b6bd06017c4","6213cbf3306309c3662060a6","5","","","","","0","7"
"null","","","null","","","","html-keyboard-response","274","1074463","0.0-274.0","55895b93fdf99b6bd06017c4","6213cbf3306309c3662060a6","","","","","<p style=""color:darkgreen;font-size:24px;"">Correct :)</p>","",""
"2472","key","n","n","16.66599999999959","500","250","psychophysics","275","1076941","0.0-275.0","55895b93fdf99b6bd06017c4","6213cbf3306309c3662060a6","5","","","","","0","4"
"null","","","null","","","","html-keyboard-response","276","1077442","0.0-276.0","55895b93fdf99b6bd06017c4","6213cbf3306309c3662060a6","","","","","<p style=""color:darkgreen;font-size:24px;"">Correct :)</p>","",""
"2447","key","n","n","16.66600000000001","500","250","psychophysics","277","1079892","0.0-277.0","55895b93fdf99b6bd06017c4","6213cbf3306309c3662060a6","5","","","","","0","2"
"null","","","null","","","","html-keyboard-response","278","1080393","0.0-278.0","55895b93fdf99b6bd06017c4","6213cbf3306309c3662060a6","","","","","<p style=""color:darkgreen;font-size:24px;"">Correct :)</p>","",""
"2554","key","n","n","16.665999999998572","500","250","psychophysics","279","1082952","0.0-279.0","55895b93fdf99b6bd06017c4","6213cbf3306309c3662060a6","5","","","","","0","6"
"null","","","null","","","","html-keyboard-response","280","1083453","0.0-280.0","55895b93fdf99b6bd06017c4","6213cbf3306309c3662060a6","","","","","<p style=""color:darkgreen;font-size:24px;"">Correct :)</p>","",""
"2548","key","v","v","16.66599999999877","500","250","psychophysics","281","1086006","0.0-281.0","55895b93fdf99b6bd06017c4","6213cbf3306309c3662060a6","5","","","","","0","7"
"null","","","null","","","","html-keyboard-response","282","1086507","0.0-282.0","55895b93fdf99b6bd06017c4","6213cbf3306309c3662060a6","","","","","<p style=""color:darkgreen;font-size:24px;"">Correct :)</p>","",""
"2573","key","n","n","16.666000000001382","500","250","psychophysics","283","1089110","0.0-283.0","55895b93fdf99b6bd06017c4","6213cbf3306309c3662060a6","5","","","","","0","2"
"null","","","null","","","","html-keyboard-response","284","1089612","0.0-284.0","55895b93fdf99b6bd06017c4","6213cbf3306309c3662060a6","","","","","<p style=""color:darkgreen;font-size:24px;"">Correct :)</p>","",""
"2492","key","n","n","16.66599999999938","500","250","psychophysics","285","1092109","0.0-285.0","55895b93fdf99b6bd06017c4","6213cbf3306309c3662060a6","5","","","","","0","6"
"null","","","null","","","","html-keyboard-response","286","1092611","0.0-286.0","55895b93fdf99b6bd06017c4","6213cbf3306309c3662060a6","","","","","<p style=""color:darkgreen;font-size:24px;"">Correct :)</p>","",""
"2436","key","n","n","16.66600000000001","500","250","psychophysics","287","1095052","0.0-287.0","55895b93fdf99b6bd06017c4","6213cbf3306309c3662060a6","5","","","","","0","6"
"null","","","null","","","","html-keyboard-response","288","1095554","0.0-288.0","55895b93fdf99b6bd06017c4","6213cbf3306309c3662060a6","","","","","<p style=""color:darkgreen;font-size:24px;"">Correct :)</p>","",""
"2678","key","v","v","16.66600000000015","500","250","psychophysics","289","1098236","0.0-289.0","55895b93fdf99b6bd06017c4","6213cbf3306309c3662060a6","5","","","","","0","9"
"null","","","null","","","","html-keyboard-response","290","1098737","0.0-290.0","55895b93fdf99b6bd06017c4","6213cbf3306309c3662060a6","","","","","<p style=""color:darkgreen;font-size:24px;"">Correct :)</p>","",""
"2521","key","v","v","16.666000000000714","500","250","psychophysics","291","1101264","0.0-291.0","55895b93fdf99b6bd06017c4","6213cbf3306309c3662060a6","5","","","","","0","9"
"null","","","null","","","","html-keyboard-response","292","1101765","0.0-292.0","55895b93fdf99b6bd06017c4","6213cbf3306309c3662060a6","","","","","<p style=""color:darkgreen;font-size:24px;"">Correct :)</p>","",""
"2461","key","n","n","16.66600000000001","500","250","psychophysics","293","1104231","0.0-293.0","55895b93fdf99b6bd06017c4","6213cbf3306309c3662060a6","5","","","","","0","6"
"null","","","null","","","","html-keyboard-response","294","1104733","0.0-294.0","55895b93fdf99b6bd06017c4","6213cbf3306309c3662060a6","","","","","<p style=""color:darkgreen;font-size:24px;"">Correct :)</p>","",""
"28256","","","n","","","","html-keyboard-response","295","1132991","0.0-295.0","55895b93fdf99b6bd06017c4","6213cbf3306309c3662060a6","","","","","<p> Here, the tasks are going to switch.  For some trials, your job is to decide if the digit is less than or greater than 5.  For others, it is to decide if the digit is even or odd.  You will be told which type of trial the current one is.  But, pay attention, the type of trial changes too.  We are going to do 50 of these.  </p>  <br><br>  Ready? (press v or n)","",""
"2990","key","v","v","17.14217142857079","500","250","psychophysics","296","1135986","0.0-296.0","55895b93fdf99b6bd06017c4","6213cbf3306309c3662060a6","6","","","","","0","3"
"null","","","null","","","","html-keyboard-response","297","1136487","0.0-297.0","55895b93fdf99b6bd06017c4","6213cbf3306309c3662060a6","","","","","<p style=""color:darkgreen;font-size:24px;"">Correct :)</p>","",""
"3381","key","v","v","16.666000000000448","500","250","psychophysics","298","1139873","0.0-298.0","55895b93fdf99b6bd06017c4","6213cbf3306309c3662060a6","6","","","","","1","2"
"null","","","null","","","","html-keyboard-response","299","1140374","0.0-299.0","55895b93fdf99b6bd06017c4","6213cbf3306309c3662060a6","","","","","<p style=""color:darkgreen;font-size:24px;"">Correct :)</p>","",""
"3032","key","v","v","16.666000000000317","500","250","psychophysics","300","1143412","0.0-300.0","55895b93fdf99b6bd06017c4","6213cbf3306309c3662060a6","6","","","","","0","2"
"null","","","null","","","","html-keyboard-response","301","1143914","0.0-301.0","55895b93fdf99b6bd06017c4","6213cbf3306309c3662060a6","","","","","<p style=""color:red;font-size:24px;"">Error :(</p>","",""
"3986","key","v","v","16.73602521008354","500","250","psychophysics","302","1147904","0.0-302.0","55895b93fdf99b6bd06017c4","6213cbf3306309c3662060a6","6","","","","","1","3"
"null","","","null","","","","html-keyboard-response","303","1148406","0.0-303.0","55895b93fdf99b6bd06017c4","6213cbf3306309c3662060a6","","","","","<p style=""color:darkgreen;font-size:24px;"">Correct :)</p>","",""
"3487","key","v","v","16.665999999999528","500","250","psychophysics","304","1151897","0.0-304.0","55895b93fdf99b6bd06017c4","6213cbf3306309c3662060a6","6","","","","","0","3"
"null","","","null","","","","html-keyboard-response","305","1152399","0.0-305.0","55895b93fdf99b6bd06017c4","6213cbf3306309c3662060a6","","","","","<p style=""color:darkgreen;font-size:24px;"">Correct :)</p>","",""
"3163","key","n","n","16.666000000000196","500","250","psychophysics","306","1155568","0.0-306.0","55895b93fdf99b6bd06017c4","6213cbf3306309c3662060a6","6","","","","","0","4"
"null","","","null","","","","html-keyboard-response","307","1156069","0.0-307.0","55895b93fdf99b6bd06017c4","6213cbf3306309c3662060a6","","","","","<p style=""color:darkgreen;font-size:24px;"">Correct :)</p>","",""
"2971","key","n","n","16.665999999999727","500","250","psychophysics","308","1159046","0.0-308.0","55895b93fdf99b6bd06017c4","6213cbf3306309c3662060a6","6","","","","","1","8"
"null","","","null","","","","html-keyboard-response","309","1159547","0.0-309.0","55895b93fdf99b6bd06017c4","6213cbf3306309c3662060a6","","","","","<p style=""color:darkgreen;font-size:24px;"">Correct :)</p>","",""
"4657","key","v","v","16.66599999999921","500","250","psychophysics","310","1164208","0.0-310.0","55895b93fdf99b6bd06017c4","6213cbf3306309c3662060a6","6","","","","","0","2"
"null","","","null","","","","html-keyboard-response","311","1164710","0.0-311.0","55895b93fdf99b6bd06017c4","6213cbf3306309c3662060a6","","","","","<p style=""color:red;font-size:24px;"">Error :(</p>","",""
"3592","key","v","v","16.665999999999595","500","250","psychophysics","312","1168307","0.0-312.0","55895b93fdf99b6bd06017c4","6213cbf3306309c3662060a6","6","","","","","0","3"
"null","","","null","","","","html-keyboard-response","313","1168808","0.0-313.0","55895b93fdf99b6bd06017c4","6213cbf3306309c3662060a6","","","","","<p style=""color:darkgreen;font-size:24px;"">Correct :)</p>","",""
"3994","key","n","n","16.66600000000035","500","250","psychophysics","314","1172807","0.0-314.0","55895b93fdf99b6bd06017c4","6213cbf3306309c3662060a6","6","","","","","1","6"
"null","","","null","","","","html-keyboard-response","315","1173308","0.0-315.0","55895b93fdf99b6bd06017c4","6213cbf3306309c3662060a6","","","","","<p style=""color:darkgreen;font-size:24px;"">Correct :)</p>","",""
"2982","key","v","v","16.665999999999553","500","250","psychophysics","316","1176295","0.0-316.0","55895b93fdf99b6bd06017c4","6213cbf3306309c3662060a6","6","","","","","1","1"
"null","","","null","","","","html-keyboard-response","317","1176796","0.0-317.0","55895b93fdf99b6bd06017c4","6213cbf3306309c3662060a6","","","","","<p style=""color:darkgreen;font-size:24px;"">Correct :)</p>","",""
"3989","key","n","n","16.666000000000484","500","250","psychophysics","318","1180790","0.0-318.0","55895b93fdf99b6bd06017c4","6213cbf3306309c3662060a6","6","","","","","0","8"
"null","","","null","","","","html-keyboard-response","319","1181292","0.0-319.0","55895b93fdf99b6bd06017c4","6213cbf3306309c3662060a6","","","","","<p style=""color:darkgreen;font-size:24px;"">Correct :)</p>","",""
"3441","key","v","v","16.66599999999983","500","250","psychophysics","320","1184738","0.0-320.0","55895b93fdf99b6bd06017c4","6213cbf3306309c3662060a6","6","","","","","1","3"
"null","","","null","","","","html-keyboard-response","321","1185240","0.0-321.0","55895b93fdf99b6bd06017c4","6213cbf3306309c3662060a6","","","","","<p style=""color:darkgreen;font-size:24px;"">Correct :)</p>","",""
"3909","key","n","n","16.66600000000004","500","250","psychophysics","322","1189153","0.0-322.0","55895b93fdf99b6bd06017c4","6213cbf3306309c3662060a6","6","","","","","0","4"
"null","","","null","","","","html-keyboard-response","323","1189656","0.0-323.0","55895b93fdf99b6bd06017c4","6213cbf3306309c3662060a6","","","","","<p style=""color:darkgreen;font-size:24px;"">Correct :)</p>","",""
"3203","key","v","v","16.665999999999865","500","250","psychophysics","324","1192863","0.0-324.0","55895b93fdf99b6bd06017c4","6213cbf3306309c3662060a6","6","","","","","0","7"
"null","","","null","","","","html-keyboard-response","325","1193364","0.0-325.0","55895b93fdf99b6bd06017c4","6213cbf3306309c3662060a6","","","","","<p style=""color:darkgreen;font-size:24px;"">Correct :)</p>","",""
"2833","key","n","n","16.666000000001205","500","250","psychophysics","326","1196203","0.0-326.0","55895b93fdf99b6bd06017c4","6213cbf3306309c3662060a6","6","","","","","1","8"
"null","","","null","","","","html-keyboard-response","327","1196704","0.0-327.0","55895b93fdf99b6bd06017c4","6213cbf3306309c3662060a6","","","","","<p style=""color:darkgreen;font-size:24px;"">Correct :)</p>","",""
"3029","key","n","n","16.665999999999038","500","250","psychophysics","328","1199739","0.0-328.0","55895b93fdf99b6bd06017c4","6213cbf3306309c3662060a6","6","","","","","0","8"
"null","","","null","","","","html-keyboard-response","329","1200240","0.0-329.0","55895b93fdf99b6bd06017c4","6213cbf3306309c3662060a6","","","","","<p style=""color:darkgreen;font-size:24px;"">Correct :)</p>","",""
"3032","key","v","v","16.666000000000317","500","250","psychophysics","330","1203278","0.0-330.0","55895b93fdf99b6bd06017c4","6213cbf3306309c3662060a6","6","","","","","0","1"
"null","","","null","","","","html-keyboard-response","331","1203779","0.0-331.0","55895b93fdf99b6bd06017c4","6213cbf3306309c3662060a6","","","","","<p style=""color:darkgreen;font-size:24px;"">Correct :)</p>","",""
"3052","key","n","n","16.666000000000142","500","250","psychophysics","332","1206838","0.0-332.0","55895b93fdf99b6bd06017c4","6213cbf3306309c3662060a6","6","","","","","0","6"
"null","","","null","","","","html-keyboard-response","333","1207340","0.0-333.0","55895b93fdf99b6bd06017c4","6213cbf3306309c3662060a6","","","","","<p style=""color:darkgreen;font-size:24px;"">Correct :)</p>","",""
"2935","key","v","v","16.665999999999904","500","250","psychophysics","334","1210280","0.0-334.0","55895b93fdf99b6bd06017c4","6213cbf3306309c3662060a6","6","","","","","0","9"
"null","","","null","","","","html-keyboard-response","335","1210782","0.0-335.0","55895b93fdf99b6bd06017c4","6213cbf3306309c3662060a6","","","","","<p style=""color:darkgreen;font-size:24px;"">Correct :)</p>","",""
"2754","key","v","v","16.66599999999938","500","250","psychophysics","336","1213541","0.0-336.0","55895b93fdf99b6bd06017c4","6213cbf3306309c3662060a6","6","","","","","1","3"
"null","","","null","","","","html-keyboard-response","337","1214043","0.0-337.0","55895b93fdf99b6bd06017c4","6213cbf3306309c3662060a6","","","","","<p style=""color:darkgreen;font-size:24px;"">Correct :)</p>","",""
"2711","key","n","n","16.665999999999954","500","250","psychophysics","338","1216758","0.0-338.0","55895b93fdf99b6bd06017c4","6213cbf3306309c3662060a6","6","","","","","1","9"
"null","","","null","","","","html-keyboard-response","339","1217264","0.0-339.0","55895b93fdf99b6bd06017c4","6213cbf3306309c3662060a6","","","","","<p style=""color:darkgreen;font-size:24px;"">Correct :)</p>","",""
"2601","key","v","v","16.66600000000117","500","250","psychophysics","340","1219869","0.0-340.0","55895b93fdf99b6bd06017c4","6213cbf3306309c3662060a6","6","","","","","0","1"
"null","","","null","","","","html-keyboard-response","341","1220371","0.0-341.0","55895b93fdf99b6bd06017c4","6213cbf3306309c3662060a6","","","","","<p style=""color:darkgreen;font-size:24px;"">Correct :)</p>","",""
"2685","key","v","v","16.66600000000015","500","250","psychophysics","342","1223060","0.0-342.0","55895b93fdf99b6bd06017c4","6213cbf3306309c3662060a6","6","","","","","0","1"
"null","","","null","","","","html-keyboard-response","343","1223562","0.0-343.0","55895b93fdf99b6bd06017c4","6213cbf3306309c3662060a6","","","","","<p style=""color:darkgreen;font-size:24px;"">Correct :)</p>","",""
"2609","key","v","v","16.665999999999677","500","250","psychophysics","344","1226175","0.0-344.0","55895b93fdf99b6bd06017c4","6213cbf3306309c3662060a6","6","","","","","1","3"
"null","","","null","","","","html-keyboard-response","345","1226677","0.0-345.0","55895b93fdf99b6bd06017c4","6213cbf3306309c3662060a6","","","","","<p style=""color:darkgreen;font-size:24px;"">Correct :)</p>","",""
"2994","key","n","n","16.666000000000853","500","250","psychophysics","346","1229675","0.0-346.0","55895b93fdf99b6bd06017c4","6213cbf3306309c3662060a6","6","","","","","0","4"
"null","","","null","","","","html-keyboard-response","347","1230177","0.0-347.0","55895b93fdf99b6bd06017c4","6213cbf3306309c3662060a6","","","","","<p style=""color:darkgreen;font-size:24px;"">Correct :)</p>","",""
"2557","key","n","n","16.66600000000029","500","250","psychophysics","348","1232739","0.0-348.0","55895b93fdf99b6bd06017c4","6213cbf3306309c3662060a6","6","","","","","0","4"
"null","","","null","","","","html-keyboard-response","349","1233241","0.0-349.0","55895b93fdf99b6bd06017c4","6213cbf3306309c3662060a6","","","","","<p style=""color:darkgreen;font-size:24px;"">Correct :)</p>","",""
"2504","key","n","n","16.665999999999173","500","250","psychophysics","350","1235751","0.0-350.0","55895b93fdf99b6bd06017c4","6213cbf3306309c3662060a6","6","","","","","1","6"
"null","","","null","","","","html-keyboard-response","351","1236252","0.0-351.0","55895b93fdf99b6bd06017c4","6213cbf3306309c3662060a6","","","","","<p style=""color:darkgreen;font-size:24px;"">Correct :)</p>","",""
"2675","key","v","v","16.66600000000015","500","250","psychophysics","352","1238933","0.0-352.0","55895b93fdf99b6bd06017c4","6213cbf3306309c3662060a6","6","","","","","1","4"
"null","","","null","","","","html-keyboard-response","353","1239435","0.0-353.0","55895b93fdf99b6bd06017c4","6213cbf3306309c3662060a6","","","","","<p style=""color:darkgreen;font-size:24px;"">Correct :)</p>","",""
"2875","key","n","n","16.666000000000636","500","250","psychophysics","354","1242315","0.0-354.0","55895b93fdf99b6bd06017c4","6213cbf3306309c3662060a6","6","","","","","0","2"
"null","","","null","","","","html-keyboard-response","355","1242817","0.0-355.0","55895b93fdf99b6bd06017c4","6213cbf3306309c3662060a6","","","","","<p style=""color:darkgreen;font-size:24px;"">Correct :)</p>","",""
"2660","key","v","v","16.66600000000035","500","250","psychophysics","356","1245480","0.0-356.0","55895b93fdf99b6bd06017c4","6213cbf3306309c3662060a6","6","","","","","0","3"
"null","","","null","","","","html-keyboard-response","357","1245981","0.0-357.0","55895b93fdf99b6bd06017c4","6213cbf3306309c3662060a6","","","","","<p style=""color:darkgreen;font-size:24px;"">Correct :)</p>","",""
"2706","key","n","n","16.665999999999954","500","250","psychophysics","358","1248691","0.0-358.0","55895b93fdf99b6bd06017c4","6213cbf3306309c3662060a6","6","","","","","1","8"
"null","","","null","","","","html-keyboard-response","359","1249192","0.0-359.0","55895b93fdf99b6bd06017c4","6213cbf3306309c3662060a6","","","","","<p style=""color:darkgreen;font-size:24px;"">Correct :)</p>","",""
"2707","key","n","n","16.665999999999954","500","250","psychophysics","360","1251904","0.0-360.0","55895b93fdf99b6bd06017c4","6213cbf3306309c3662060a6","6","","","","","0","6"
"null","","","null","","","","html-keyboard-response","361","1252405","0.0-361.0","55895b93fdf99b6bd06017c4","6213cbf3306309c3662060a6","","","","","<p style=""color:darkgreen;font-size:24px;"">Correct :)</p>","",""
"3787","key","v","v","16.665999999999993","500","250","psychophysics","362","1256197","0.0-362.0","55895b93fdf99b6bd06017c4","6213cbf3306309c3662060a6","6","","","","","1","2"
"null","","","null","","","","html-keyboard-response","363","1256698","0.0-363.0","55895b93fdf99b6bd06017c4","6213cbf3306309c3662060a6","","","","","<p style=""color:darkgreen;font-size:24px;"">Correct :)</p>","",""
"2515","key","n","n","16.666000000000714","500","250","psychophysics","364","1259218","0.0-364.0","55895b93fdf99b6bd06017c4","6213cbf3306309c3662060a6","6","","","","","0","8"
"null","","","null","","","","html-keyboard-response","365","1259719","0.0-365.0","55895b93fdf99b6bd06017c4","6213cbf3306309c3662060a6","","","","","<p style=""color:darkgreen;font-size:24px;"">Correct :)</p>","",""
"3315","key","v","v","16.665999999999926","500","250","psychophysics","366","1263039","0.0-366.0","55895b93fdf99b6bd06017c4","6213cbf3306309c3662060a6","6","","","","","1","1"
"null","","","null","","","","html-keyboard-response","367","1263541","0.0-367.0","55895b93fdf99b6bd06017c4","6213cbf3306309c3662060a6","","","","","<p style=""color:darkgreen;font-size:24px;"">Correct :)</p>","",""
"3313","key","v","v","16.665999999999926","500","250","psychophysics","368","1266860","0.0-368.0","55895b93fdf99b6bd06017c4","6213cbf3306309c3662060a6","6","","","","","0","7"
"null","","","null","","","","html-keyboard-response","369","1267362","0.0-369.0","55895b93fdf99b6bd06017c4","6213cbf3306309c3662060a6","","","","","<p style=""color:darkgreen;font-size:24px;"">Correct :)</p>","",""
"2824","key","v","v","16.66600000000002","500","250","psychophysics","370","1270191","0.0-370.0","55895b93fdf99b6bd06017c4","6213cbf3306309c3662060a6","6","","","","","1","3"
"null","","","null","","","","html-keyboard-response","371","1270698","0.0-371.0","55895b93fdf99b6bd06017c4","6213cbf3306309c3662060a6","","","","","<p style=""color:darkgreen;font-size:24px;"">Correct :)</p>","",""
"2735","key","n","n","16.666000000000988","500","250","psychophysics","372","1273438","0.0-372.0","55895b93fdf99b6bd06017c4","6213cbf3306309c3662060a6","6","","","","","0","6"
"null","","","null","","","","html-keyboard-response","373","1273939","0.0-373.0","55895b93fdf99b6bd06017c4","6213cbf3306309c3662060a6","","","","","<p style=""color:darkgreen;font-size:24px;"">Correct :)</p>","",""
"2508","key","v","v","16.665999999999173","500","250","psychophysics","374","1276452","0.0-374.0","55895b93fdf99b6bd06017c4","6213cbf3306309c3662060a6","6","","","","","0","7"
"null","","","null","","","","html-keyboard-response","375","1276953","0.0-375.0","55895b93fdf99b6bd06017c4","6213cbf3306309c3662060a6","","","","","<p style=""color:darkgreen;font-size:24px;"">Correct :)</p>","",""
"2611","key","n","n","16.66600000000096","500","250","psychophysics","376","1279570","0.0-376.0","55895b93fdf99b6bd06017c4","6213cbf3306309c3662060a6","6","","","","","0","4"
"null","","","null","","","","html-keyboard-response","377","1280071","0.0-377.0","55895b93fdf99b6bd06017c4","6213cbf3306309c3662060a6","","","","","<p style=""color:darkgreen;font-size:24px;"">Correct :)</p>","",""
"2589","key","n","n","16.665999999999677","500","250","psychophysics","378","1282662","0.0-378.0","55895b93fdf99b6bd06017c4","6213cbf3306309c3662060a6","6","","","","","1","9"
"null","","","null","","","","html-keyboard-response","379","1283164","0.0-379.0","55895b93fdf99b6bd06017c4","6213cbf3306309c3662060a6","","","","","<p style=""color:darkgreen;font-size:24px;"">Correct :)</p>","",""
"2930","key","n","n","16.666000000000086","500","250","psychophysics","380","1286099","0.0-380.0","55895b93fdf99b6bd06017c4","6213cbf3306309c3662060a6","6","","","","","1","9"
"null","","","null","","","","html-keyboard-response","381","1286600","0.0-381.0","55895b93fdf99b6bd06017c4","6213cbf3306309c3662060a6","","","","","<p style=""color:darkgreen;font-size:24px;"">Correct :)</p>","",""
"2764","key","n","n","16.666000000000594","500","250","psychophysics","382","1289366","0.0-382.0","55895b93fdf99b6bd06017c4","6213cbf3306309c3662060a6","6","","","","","1","7"
"null","","","null","","","","html-keyboard-response","383","1289868","0.0-383.0","55895b93fdf99b6bd06017c4","6213cbf3306309c3662060a6","","","","","<p style=""color:darkgreen;font-size:24px;"">Correct :)</p>","",""
"2716","key","n","n","16.66599999999976","500","250","psychophysics","384","1292589","0.0-384.0","55895b93fdf99b6bd06017c4","6213cbf3306309c3662060a6","6","","","","","1","8"
"null","","","null","","","","html-keyboard-response","385","1293090","0.0-385.0","55895b93fdf99b6bd06017c4","6213cbf3306309c3662060a6","","","","","<p style=""color:darkgreen;font-size:24px;"">Correct :)</p>","",""
"2672","key","v","v","16.770817610063244","500","250","psychophysics","386","1295767","0.0-386.0","55895b93fdf99b6bd06017c4","6213cbf3306309c3662060a6","6","","","","","0","1"
"null","","","null","","","","html-keyboard-response","387","1296268","0.0-387.0","55895b93fdf99b6bd06017c4","6213cbf3306309c3662060a6","","","","","<p style=""color:darkgreen;font-size:24px;"">Correct :)</p>","",""
"2807","key","n","n","16.66600000000002","500","250","psychophysics","388","1299078","0.0-388.0","55895b93fdf99b6bd06017c4","6213cbf3306309c3662060a6","6","","","","","0","6"
"null","","","null","","","","html-keyboard-response","389","1299579","0.0-389.0","55895b93fdf99b6bd06017c4","6213cbf3306309c3662060a6","","","","","<p style=""color:darkgreen;font-size:24px;"">Correct :)</p>","",""
"2728","key","v","v","16.665999999999567","500","250","psychophysics","390","1302312","0.0-390.0","55895b93fdf99b6bd06017c4","6213cbf3306309c3662060a6","6","","","","","0","9"
"null","","","null","","","","html-keyboard-response","391","1302815","0.0-391.0","55895b93fdf99b6bd06017c4","6213cbf3306309c3662060a6","","","","","<p style=""color:darkgreen;font-size:24px;"">Correct :)</p>","",""
"2680","key","v","v","16.665999999998704","500","250","psychophysics","392","1305500","0.0-392.0","55895b93fdf99b6bd06017c4","6213cbf3306309c3662060a6","6","","","","","0","1"
"null","","","null","","","","html-keyboard-response","393","1306001","0.0-393.0","55895b93fdf99b6bd06017c4","6213cbf3306309c3662060a6","","","","","<p style=""color:darkgreen;font-size:24px;"">Correct :)</p>","",""
"2729","key","v","v","16.665999999999567","500","250","psychophysics","394","1308735","0.0-394.0","55895b93fdf99b6bd06017c4","6213cbf3306309c3662060a6","6","","","","","1","4"
"null","","","null","","","","html-keyboard-response","395","1309236","0.0-395.0","55895b93fdf99b6bd06017c4","6213cbf3306309c3662060a6","","","","","<p style=""color:darkgreen;font-size:24px;"">Correct :)</p>","",""
"11507","","","n","","","","html-keyboard-response","396","1320745","0.0-396.0","55895b93fdf99b6bd06017c4","6213cbf3306309c3662060a6","","","","","<p> Last set of trials.  Here, the tasks are going to switch once again.  We are going to do 50 of these.  And then you are done with the experiment.  </p>  <br><br>  Ready? (press v or n)","",""
"2769","key","n","n","17.18357763975072","500","250","psychophysics","397","1323520","0.0-397.0","55895b93fdf99b6bd06017c4","6213cbf3306309c3662060a6","7","","","","","0","6"
"null","","","null","","","","html-keyboard-response","398","1324021","0.0-398.0","55895b93fdf99b6bd06017c4","6213cbf3306309c3662060a6","","","","","<p style=""color:darkgreen;font-size:24px;"">Correct :)</p>","",""
"2512","key","n","n","16.665999999999173","500","250","psychophysics","399","1326538","0.0-399.0","55895b93fdf99b6bd06017c4","6213cbf3306309c3662060a6","7","","","","","1","6"
"null","","","null","","","","html-keyboard-response","400","1327040","0.0-400.0","55895b93fdf99b6bd06017c4","6213cbf3306309c3662060a6","","","","","<p style=""color:darkgreen;font-size:24px;"">Correct :)</p>","",""
"2985","key","n","n","16.666000000000853","500","250","psychophysics","401","1330029","0.0-401.0","55895b93fdf99b6bd06017c4","6213cbf3306309c3662060a6","7","","","","","0","4"
"null","","","null","","","","html-keyboard-response","402","1330531","0.0-402.0","55895b93fdf99b6bd06017c4","6213cbf3306309c3662060a6","","","","","<p style=""color:darkgreen;font-size:24px;"">Correct :)</p>","",""
"2777","key","v","v","16.665999999999006","500","250","psychophysics","403","1333314","0.0-403.0","55895b93fdf99b6bd06017c4","6213cbf3306309c3662060a6","7","","","","","0","1"
"null","","","null","","","","html-keyboard-response","404","1333816","0.0-404.0","55895b93fdf99b6bd06017c4","6213cbf3306309c3662060a6","","","","","<p style=""color:darkgreen;font-size:24px;"">Correct :)</p>","",""
"2497","key","v","v","16.66599999999938","500","250","psychophysics","405","1336319","0.0-405.0","55895b93fdf99b6bd06017c4","6213cbf3306309c3662060a6","7","","","","","1","1"
"null","","","null","","","","html-keyboard-response","406","1336820","0.0-406.0","55895b93fdf99b6bd06017c4","6213cbf3306309c3662060a6","","","","","<p style=""color:darkgreen;font-size:24px;"">Correct :)</p>","",""
"2470","key","n","n","16.66599999999959","500","250","psychophysics","407","1339296","0.0-407.0","55895b93fdf99b6bd06017c4","6213cbf3306309c3662060a6","7","","","","","1","7"
"null","","","null","","","","html-keyboard-response","408","1339798","0.0-408.0","55895b93fdf99b6bd06017c4","6213cbf3306309c3662060a6","","","","","<p style=""color:darkgreen;font-size:24px;"">Correct :)</p>","",""
"2621","key","v","v","16.66600000000096","500","250","psychophysics","409","1342423","0.0-409.0","55895b93fdf99b6bd06017c4","6213cbf3306309c3662060a6","7","","","","","1","4"
"null","","","null","","","","html-keyboard-response","410","1342925","0.0-410.0","55895b93fdf99b6bd06017c4","6213cbf3306309c3662060a6","","","","","<p style=""color:darkgreen;font-size:24px;"">Correct :)</p>","",""
"2634","key","n","n","16.66599999999928","500","250","psychophysics","411","1345564","0.0-411.0","55895b93fdf99b6bd06017c4","6213cbf3306309c3662060a6","7","","","","","1","6"
"null","","","null","","","","html-keyboard-response","412","1346065","0.0-412.0","55895b93fdf99b6bd06017c4","6213cbf3306309c3662060a6","","","","","<p style=""color:darkgreen;font-size:24px;"">Correct :)</p>","",""
"2595","key","n","n","16.66600000000117","500","250","psychophysics","413","1348665","0.0-413.0","55895b93fdf99b6bd06017c4","6213cbf3306309c3662060a6","7","","","","","0","2"
"null","","","null","","","","html-keyboard-response","414","1349166","0.0-414.0","55895b93fdf99b6bd06017c4","6213cbf3306309c3662060a6","","","","","<p style=""color:darkgreen;font-size:24px;"">Correct :)</p>","",""
"2736","key","v","v","16.66599999999938","500","250","psychophysics","415","1351910","0.0-415.0","55895b93fdf99b6bd06017c4","6213cbf3306309c3662060a6","7","","","","","0","3"
"null","","","null","","","","html-keyboard-response","416","1352411","0.0-416.0","55895b93fdf99b6bd06017c4","6213cbf3306309c3662060a6","","","","","<p style=""color:darkgreen;font-size:24px;"">Correct :)</p>","",""
"2618","key","v","v","16.66600000000096","500","250","psychophysics","417","1355034","0.0-417.0","55895b93fdf99b6bd06017c4","6213cbf3306309c3662060a6","7","","","","","0","1"
"null","","","null","","","","html-keyboard-response","418","1355536","0.0-418.0","55895b93fdf99b6bd06017c4","6213cbf3306309c3662060a6","","","","","<p style=""color:darkgreen;font-size:24px;"">Correct :)</p>","",""
"2433","key","n","n","16.66600000000023","500","250","psychophysics","419","1357973","0.0-419.0","55895b93fdf99b6bd06017c4","6213cbf3306309c3662060a6","7","","","","","0","4"
"null","","","null","","","","html-keyboard-response","420","1358476","0.0-420.0","55895b93fdf99b6bd06017c4","6213cbf3306309c3662060a6","","","","","<p style=""color:darkgreen;font-size:24px;"">Correct :)</p>","",""
"2494","key","n","n","16.66599999999938","500","250","psychophysics","421","1360975","0.0-421.0","55895b93fdf99b6bd06017c4","6213cbf3306309c3662060a6","7","","","","","0","6"
"null","","","null","","","","html-keyboard-response","422","1361477","0.0-422.0","55895b93fdf99b6bd06017c4","6213cbf3306309c3662060a6","","","","","<p style=""color:darkgreen;font-size:24px;"">Correct :)</p>","",""
"2546","key","v","v","16.66600000000029","500","250","psychophysics","423","1364026","0.0-423.0","55895b93fdf99b6bd06017c4","6213cbf3306309c3662060a6","7","","","","","0","3"
"null","","","null","","","","html-keyboard-response","424","1364527","0.0-424.0","55895b93fdf99b6bd06017c4","6213cbf3306309c3662060a6","","","","","<p style=""color:darkgreen;font-size:24px;"">Correct :)</p>","",""
"2443","key","v","v","16.66600000000001","500","250","psychophysics","425","1366977","0.0-425.0","55895b93fdf99b6bd06017c4","6213cbf3306309c3662060a6","7","","","","","1","1"
"null","","","null","","","","html-keyboard-response","426","1367478","0.0-426.0","55895b93fdf99b6bd06017c4","6213cbf3306309c3662060a6","","","","","<p style=""color:darkgreen;font-size:24px;"">Correct :)</p>","",""
"2570","key","v","v","16.666000000000086","500","250","psychophysics","427","1370051","0.0-427.0","55895b93fdf99b6bd06017c4","6213cbf3306309c3662060a6","7","","","","","1","3"
"null","","","null","","","","html-keyboard-response","428","1370552","0.0-428.0","55895b93fdf99b6bd06017c4","6213cbf3306309c3662060a6","","","","","<p style=""color:darkgreen;font-size:24px;"">Correct :)</p>","",""
"2426","key","n","n","16.66600000000023","500","250","psychophysics","429","1372982","0.0-429.0","55895b93fdf99b6bd06017c4","6213cbf3306309c3662060a6","7","","","","","0","4"
"null","","","null","","","","html-keyboard-response","430","1373484","0.0-430.0","55895b93fdf99b6bd06017c4","6213cbf3306309c3662060a6","","","","","<p style=""color:darkgreen;font-size:24px;"">Correct :)</p>","",""
"2476","key","v","v","16.66599999999959","500","250","psychophysics","431","1375965","0.0-431.0","55895b93fdf99b6bd06017c4","6213cbf3306309c3662060a6","7","","","","","1","1"
"null","","","null","","","","html-keyboard-response","432","1376466","0.0-432.0","55895b93fdf99b6bd06017c4","6213cbf3306309c3662060a6","","","","","<p style=""color:darkgreen;font-size:24px;"">Correct :)</p>","",""
"2490","key","n","n","16.66599999999938","500","250","psychophysics","433","1378960","0.0-433.0","55895b93fdf99b6bd06017c4","6213cbf3306309c3662060a6","7","","","","","1","7"
"null","","","null","","","","html-keyboard-response","434","1379461","0.0-434.0","55895b93fdf99b6bd06017c4","6213cbf3306309c3662060a6","","","","","<p style=""color:darkgreen;font-size:24px;"">Correct :)</p>","",""
"2511","key","v","v","16.666000000000714","500","250","psychophysics","435","1381977","0.0-435.0","55895b93fdf99b6bd06017c4","6213cbf3306309c3662060a6","7","","","","","1","3"
"null","","","null","","","","html-keyboard-response","436","1382479","0.0-436.0","55895b93fdf99b6bd06017c4","6213cbf3306309c3662060a6","","","","","<p style=""color:darkgreen;font-size:24px;"">Correct :)</p>","",""
"2485","key","n","n","16.66599999999959","500","250","psychophysics","437","1384970","0.0-437.0","55895b93fdf99b6bd06017c4","6213cbf3306309c3662060a6","7","","","","","1","7"
"null","","","null","","","","html-keyboard-response","438","1385471","0.0-438.0","55895b93fdf99b6bd06017c4","6213cbf3306309c3662060a6","","","","","<p style=""color:darkgreen;font-size:24px;"">Correct :)</p>","",""
"2461","key","n","n","16.66600000000001","500","250","psychophysics","439","1387938","0.0-439.0","55895b93fdf99b6bd06017c4","6213cbf3306309c3662060a6","7","","","","","0","7"
"null","","","null","","","","html-keyboard-response","440","1388439","0.0-440.0","55895b93fdf99b6bd06017c4","6213cbf3306309c3662060a6","","","","","<p style=""color:red;font-size:24px;"">Error :(</p>","",""
"2854","key","v","v","16.666000000001013","500","250","psychophysics","441","1391298","0.0-441.0","55895b93fdf99b6bd06017c4","6213cbf3306309c3662060a6","7","","","","","1","4"
"null","","","null","","","","html-keyboard-response","442","1391799","0.0-442.0","55895b93fdf99b6bd06017c4","6213cbf3306309c3662060a6","","","","","<p style=""color:darkgreen;font-size:24px;"">Correct :)</p>","",""
"2745","key","n","n","16.66599999999938","500","250","psychophysics","443","1394550","0.0-443.0","55895b93fdf99b6bd06017c4","6213cbf3306309c3662060a6","7","","","","","0","2"
"null","","","null","","","","html-keyboard-response","444","1395051","0.0-444.0","55895b93fdf99b6bd06017c4","6213cbf3306309c3662060a6","","","","","<p style=""color:darkgreen;font-size:24px;"">Correct :)</p>","",""
"2681","key","v","v","16.66600000000015","500","250","psychophysics","445","1397738","0.0-445.0","55895b93fdf99b6bd06017c4","6213cbf3306309c3662060a6","7","","","","","0","3"
"null","","","null","","","","html-keyboard-response","446","1398239","0.0-446.0","55895b93fdf99b6bd06017c4","6213cbf3306309c3662060a6","","","","","<p style=""color:darkgreen;font-size:24px;"">Correct :)</p>","",""
"2634","key","n","n","16.666000000000754","500","250","psychophysics","447","1400878","0.0-447.0","55895b93fdf99b6bd06017c4","6213cbf3306309c3662060a6","7","","","","","0","6"
"null","","","null","","","","html-keyboard-response","448","1401380","0.0-448.0","55895b93fdf99b6bd06017c4","6213cbf3306309c3662060a6","","","","","<p style=""color:darkgreen;font-size:24px;"">Correct :)</p>","",""
"2642","key","n","n","16.665999999999087","500","250","psychophysics","449","1404027","0.0-449.0","55895b93fdf99b6bd06017c4","6213cbf3306309c3662060a6","7","","","","","0","4"
"null","","","null","","","","html-keyboard-response","450","1404529","0.0-450.0","55895b93fdf99b6bd06017c4","6213cbf3306309c3662060a6","","","","","<p style=""color:darkgreen;font-size:24px;"">Correct :)</p>","",""
"2555","key","v","v","16.666000000000086","500","250","psychophysics","451","1407089","0.0-451.0","55895b93fdf99b6bd06017c4","6213cbf3306309c3662060a6","7","","","","","1","2"
"null","","","null","","","","html-keyboard-response","452","1407590","0.0-452.0","55895b93fdf99b6bd06017c4","6213cbf3306309c3662060a6","","","","","<p style=""color:darkgreen;font-size:24px;"">Correct :)</p>","",""
"2580","key","v","v","16.77422077922066","500","250","psychophysics","453","1410175","0.0-453.0","55895b93fdf99b6bd06017c4","6213cbf3306309c3662060a6","7","","","","","1","1"
"null","","","null","","","","html-keyboard-response","454","1410677","0.0-454.0","55895b93fdf99b6bd06017c4","6213cbf3306309c3662060a6","","","","","<p style=""color:darkgreen;font-size:24px;"">Correct :)</p>","",""
"2731","key","v","v","16.665999999999567","500","250","psychophysics","455","1413414","0.0-455.0","55895b93fdf99b6bd06017c4","6213cbf3306309c3662060a6","7","","","","","0","3"
"null","","","null","","","","html-keyboard-response","456","1413915","0.0-456.0","55895b93fdf99b6bd06017c4","6213cbf3306309c3662060a6","","","","","<p style=""color:darkgreen;font-size:24px;"">Correct :)</p>","",""
"2763","key","v","v","16.66600000000079","500","250","psychophysics","457","1416682","0.0-457.0","55895b93fdf99b6bd06017c4","6213cbf3306309c3662060a6","7","","","","","1","2"
"null","","","null","","","","html-keyboard-response","458","1417183","0.0-458.0","55895b93fdf99b6bd06017c4","6213cbf3306309c3662060a6","","","","","<p style=""color:darkgreen;font-size:24px;"">Correct :)</p>","",""
"2596","key","v","v","16.665999999999677","500","250","psychophysics","459","1419785","0.0-459.0","55895b93fdf99b6bd06017c4","6213cbf3306309c3662060a6","7","","","","","0","1"
"null","","","null","","","","html-keyboard-response","460","1420288","0.0-460.0","55895b93fdf99b6bd06017c4","6213cbf3306309c3662060a6","","","","","<p style=""color:darkgreen;font-size:24px;"">Correct :)</p>","",""
"2490","key","n","n","16.66599999999959","500","250","psychophysics","461","1422783","0.0-461.0","55895b93fdf99b6bd06017c4","6213cbf3306309c3662060a6","7","","","","","0","2"
"null","","","null","","","","html-keyboard-response","462","1423285","0.0-462.0","55895b93fdf99b6bd06017c4","6213cbf3306309c3662060a6","","","","","<p style=""color:darkgreen;font-size:24px;"">Correct :)</p>","",""
"2561","key","n","n","16.666000000000086","500","250","psychophysics","463","1425850","0.0-463.0","55895b93fdf99b6bd06017c4","6213cbf3306309c3662060a6","7","","","","","0","4"
"null","","","null","","","","html-keyboard-response","464","1426351","0.0-464.0","55895b93fdf99b6bd06017c4","6213cbf3306309c3662060a6","","","","","<p style=""color:darkgreen;font-size:24px;"">Correct :)</p>","",""
"2812","key","v","v","16.66600000000021","500","250","psychophysics","465","1429169","0.0-465.0","55895b93fdf99b6bd06017c4","6213cbf3306309c3662060a6","7","","","","","0","7"
"null","","","null","","","","html-keyboard-response","466","1429671","0.0-466.0","55895b93fdf99b6bd06017c4","6213cbf3306309c3662060a6","","","","","<p style=""color:darkgreen;font-size:24px;"">Correct :)</p>","",""
"2629","key","v","v","16.665999999999478","500","250","psychophysics","467","1432302","0.0-467.0","55895b93fdf99b6bd06017c4","6213cbf3306309c3662060a6","7","","","","","0","1"
"null","","","null","","","","html-keyboard-response","468","1432803","0.0-468.0","55895b93fdf99b6bd06017c4","6213cbf3306309c3662060a6","","","","","<p style=""color:darkgreen;font-size:24px;"">Correct :)</p>","",""
"2636","key","n","n","16.666000000000754","500","250","psychophysics","469","1435441","0.0-469.0","55895b93fdf99b6bd06017c4","6213cbf3306309c3662060a6","7","","","","","0","6"
"null","","","null","","","","html-keyboard-response","470","1435943","0.0-470.0","55895b93fdf99b6bd06017c4","6213cbf3306309c3662060a6","","","","","<p style=""color:darkgreen;font-size:24px;"">Correct :)</p>","",""
"2540","key","v","v","16.66600000000029","500","250","psychophysics","471","1438489","0.0-471.0","55895b93fdf99b6bd06017c4","6213cbf3306309c3662060a6","7","","","","","0","3"
"null","","","null","","","","html-keyboard-response","472","1438991","0.0-472.0","55895b93fdf99b6bd06017c4","6213cbf3306309c3662060a6","","","","","<p style=""color:darkgreen;font-size:24px;"">Correct :)</p>","",""
"2463","key","v","v","16.665999999999798","500","250","psychophysics","473","1441457","0.0-473.0","55895b93fdf99b6bd06017c4","6213cbf3306309c3662060a6","7","","","","","1","1"
"null","","","null","","","","html-keyboard-response","474","1441958","0.0-474.0","55895b93fdf99b6bd06017c4","6213cbf3306309c3662060a6","","","","","<p style=""color:darkgreen;font-size:24px;"">Correct :)</p>","",""
"2756","key","v","v","16.66599999999938","500","250","psychophysics","475","1444718","0.0-475.0","55895b93fdf99b6bd06017c4","6213cbf3306309c3662060a6","7","","","","","1","1"
"null","","","null","","","","html-keyboard-response","476","1445220","0.0-476.0","55895b93fdf99b6bd06017c4","6213cbf3306309c3662060a6","","","","","<p style=""color:darkgreen;font-size:24px;"">Correct :)</p>","",""
"2691","key","n","n","16.66600000000015","500","250","psychophysics","477","1447916","0.0-477.0","55895b93fdf99b6bd06017c4","6213cbf3306309c3662060a6","7","","","","","0","6"
"null","","","null","","","","html-keyboard-response","478","1448418","0.0-478.0","55895b93fdf99b6bd06017c4","6213cbf3306309c3662060a6","","","","","<p style=""color:darkgreen;font-size:24px;"">Correct :)</p>","",""
"2712","key","v","v","16.665999999999954","500","250","psychophysics","479","1451135","0.0-479.0","55895b93fdf99b6bd06017c4","6213cbf3306309c3662060a6","7","","","","","0","3"
"null","","","null","","","","html-keyboard-response","480","1451637","0.0-480.0","55895b93fdf99b6bd06017c4","6213cbf3306309c3662060a6","","","","","<p style=""color:darkgreen;font-size:24px;"">Correct :)</p>","",""
"2513","key","n","n","16.666000000000714","500","250","psychophysics","481","1454155","0.0-481.0","55895b93fdf99b6bd06017c4","6213cbf3306309c3662060a6","7","","","","","1","6"
"null","","","null","","","","html-keyboard-response","482","1454656","0.0-482.0","55895b93fdf99b6bd06017c4","6213cbf3306309c3662060a6","","","","","<p style=""color:darkgreen;font-size:24px;"">Correct :)</p>","",""
"2596","key","v","v","16.665999999999677","500","250","psychophysics","483","1457257","0.0-483.0","55895b93fdf99b6bd06017c4","6213cbf3306309c3662060a6","7","","","","","0","3"
"null","","","null","","","","html-keyboard-response","484","1457758","0.0-484.0","55895b93fdf99b6bd06017c4","6213cbf3306309c3662060a6","","","","","<p style=""color:darkgreen;font-size:24px;"">Correct :)</p>","",""
"2866","key","v","v","16.66599999999947","500","250","psychophysics","485","1460629","0.0-485.0","55895b93fdf99b6bd06017c4","6213cbf3306309c3662060a6","7","","","","","1","3"
"null","","","null","","","","html-keyboard-response","486","1461130","0.0-486.0","55895b93fdf99b6bd06017c4","6213cbf3306309c3662060a6","","","","","<p style=""color:darkgreen;font-size:24px;"">Correct :)</p>","",""
"2698","key","n","n","16.665999999999954","500","250","psychophysics","487","1463833","0.0-487.0","55895b93fdf99b6bd06017c4","6213cbf3306309c3662060a6","7","","","","","0","6"
"null","","","null","","","","html-keyboard-response","488","1464334","0.0-488.0","55895b93fdf99b6bd06017c4","6213cbf3306309c3662060a6","","","","","<p style=""color:darkgreen;font-size:24px;"">Correct :)</p>","",""
"2605","key","v","v","16.665999999999677","500","250","psychophysics","489","1466944","0.0-489.0","55895b93fdf99b6bd06017c4","6213cbf3306309c3662060a6","7","","","","","0","7"
"null","","","null","","","","html-keyboard-response","490","1467446","0.0-490.0","55895b93fdf99b6bd06017c4","6213cbf3306309c3662060a6","","","","","<p style=""color:darkgreen;font-size:24px;"">Correct :)</p>","",""
"2609","key","v","v","16.665999999999478","500","250","psychophysics","491","1470062","0.0-491.0","55895b93fdf99b6bd06017c4","6213cbf3306309c3662060a6","7","","","","","1","2"
"null","","","null","","","","html-keyboard-response","492","1470563","0.0-492.0","55895b93fdf99b6bd06017c4","6213cbf3306309c3662060a6","","","","","<p style=""color:darkgreen;font-size:24px;"">Correct :)</p>","",""
"2567","key","v","v","16.77492810457525","500","250","psychophysics","493","1473134","0.0-493.0","55895b93fdf99b6bd06017c4","6213cbf3306309c3662060a6","7","","","","","1","2"
"null","","","null","","","","html-keyboard-response","494","1473636","0.0-494.0","55895b93fdf99b6bd06017c4","6213cbf3306309c3662060a6","","","","","<p style=""color:darkgreen;font-size:24px;"">Correct :)</p>","",""
"2606","key","n","n","16.665999999999677","500","250","psychophysics","495","1476246","0.0-495.0","55895b93fdf99b6bd06017c4","6213cbf3306309c3662060a6","7","","","","","1","6"
"null","","","null","","","","html-keyboard-response","496","1476747","0.0-496.0","55895b93fdf99b6bd06017c4","6213cbf3306309c3662060a6","","","","","<p style=""color:darkgreen;font-size:24px;"">Correct :)</p>","",""
