"rt","response_type","key_press","response","avg_frame_time","center_x","center_y","trial_type","trial_index","time_elapsed","internal_node_id","pid","sid","phase","guide","targ","resp","stimulus","is5","stim"
"2246","key"," "," ","16.78971111111111","500","250","psychophysics","0","2292","0.0-0.0","5f29109240b4f4000bfd5a06","6213d240de1b61594b08e896","","","","","","",""
"1148","key"," "," ","16.66601428571428","500","250","psychophysics","1","3459","0.0-1.0","5f29109240b4f4000bfd5a06","6213d240de1b61594b08e896","","","","","","",""
"1805","key"," "," ","16.665102803738318","500","250","psychophysics","2","5269","0.0-2.0","5f29109240b4f4000bfd5a06","6213d240de1b61594b08e896","","","","","","",""
"664","key"," "," ","16.667124999999988","500","250","psychophysics","3","5944","0.0-3.0","5f29109240b4f4000bfd5a06","6213d240de1b61594b08e896","","","","","","",""
"1873","key"," "," ","16.66600892857142","500","250","psychophysics","4","7824","0.0-4.0","5f29109240b4f4000bfd5a06","6213d240de1b61594b08e896","","","","","","",""
"13519","key"," "," ","16.66564938271605","500","250","psychophysics","5","21350","0.0-5.0","5f29109240b4f4000bfd5a06","6213d240de1b61594b08e896","","","","","","",""
"5711","key"," "," ","16.66563848396501","500","250","psychophysics","6","27077","0.0-6.0","5f29109240b4f4000bfd5a06","6213d240de1b61594b08e896","","","","","","",""
"1951","key"," "," ","16.665827586206873","500","250","psychophysics","7","29033","0.0-7.0","5f29109240b4f4000bfd5a06","6213d240de1b61594b08e896","","","","","","",""
"7924","key"," "," ","16.665616842105266","500","250","psychophysics","8","36969","0.0-8.0","5f29109240b4f4000bfd5a06","6213d240de1b61594b08e896","0","0","22","21","","",""
"2126","key"," "," ","16.666015625","500","250","psychophysics","9","39110","0.0-9.0","5f29109240b4f4000bfd5a06","6213d240de1b61594b08e896","","","","","","",""
"1847","key"," "," ","17.120490909090915","500","250","psychophysics","10","41007","0.0-10.0","5f29109240b4f4000bfd5a06","6213d240de1b61594b08e896","","","","","","",""
"4067","key"," "," ","16.665967078189308","500","250","psychophysics","11","45084","0.0-11.0","5f29109240b4f4000bfd5a06","6213d240de1b61594b08e896","","","","","","",""
"2348","key"," "," ","16.665697183098555","500","250","psychophysics","12","47456","0.0-12.0","5f29109240b4f4000bfd5a06","6213d240de1b61594b08e896","","","","","","",""
"1834","key"," "," ","16.665972477064223","500","250","psychophysics","13","49302","0.0-13.0","5f29109240b4f4000bfd5a06","6213d240de1b61594b08e896","","","","","","",""
"2323","key"," "," ","16.66556428571426","500","250","psychophysics","14","51640","0.0-14.0","5f29109240b4f4000bfd5a06","6213d240de1b61594b08e896","","","","","","",""
"2148","key"," "," ","16.666039062499976","500","250","psychophysics","15","53794","0.0-15.0","5f29109240b4f4000bfd5a06","6213d240de1b61594b08e896","","","","","","",""
"913","key"," "," ","16.665763636363607","500","250","psychophysics","16","54722","0.0-16.0","5f29109240b4f4000bfd5a06","6213d240de1b61594b08e896","","","","","","",""
"4995","key"," "," ","16.665772575250855","500","250","psychophysics","17","59723","0.0-17.0","5f29109240b4f4000bfd5a06","6213d240de1b61594b08e896","1","0","28","27","","",""
"5372","key"," "," ","16.665866459627352","500","250","psychophysics","18","65105","0.0-18.0","5f29109240b4f4000bfd5a06","6213d240de1b61594b08e896","1","5","60","54","","",""
"3871","key"," "," ","16.665705627705588","500","250","psychophysics","19","68983","0.0-19.0","5f29109240b4f4000bfd5a06","6213d240de1b61594b08e896","1","0","30","26","","",""
"4737","key"," "," ","16.66570070422533","500","250","psychophysics","20","73731","0.0-20.0","5f29109240b4f4000bfd5a06","6213d240de1b61594b08e896","1","5","33","30","","",""
"6330","key"," "," ","16.66573684210529","500","250","psychophysics","21","80073","0.0-21.0","5f29109240b4f4000bfd5a06","6213d240de1b61594b08e896","1","0","43","40","","",""
"4567","key"," "," ","16.66595620437954","500","250","psychophysics","22","84653","0.0-22.0","5f29109240b4f4000bfd5a06","6213d240de1b61594b08e896","1","5","22","21","","",""
"4057","key"," "," ","16.665991735537183","500","250","psychophysics","23","88717","0.0-23.0","5f29109240b4f4000bfd5a06","6213d240de1b61594b08e896","1","0","34","31","","",""
"2011","key"," "," ","16.666049586776893","500","250","psychophysics","24","90739","0.0-24.0","5f29109240b4f4000bfd5a06","6213d240de1b61594b08e896","1","5","20","19","","",""
"2241","key"," "," ","16.66620895522386","500","250","psychophysics","25","92987","0.0-25.0","5f29109240b4f4000bfd5a06","6213d240de1b61594b08e896","1","0","27","22","","",""
"2891","key"," "," ","16.66605202312138","500","250","psychophysics","26","95887","0.0-26.0","5f29109240b4f4000bfd5a06","6213d240de1b61594b08e896","1","5","37","39","","",""
"4270","key"," "," ","16.665937254901955","500","250","psychophysics","27","100164","0.0-27.0","5f29109240b4f4000bfd5a06","6213d240de1b61594b08e896","1","0","54","47","","",""
"3861","key"," "," ","16.665767241379307","500","250","psychophysics","28","104036","0.0-28.0","5f29109240b4f4000bfd5a06","6213d240de1b61594b08e896","1","5","56","54","","",""
"3065","key"," "," ","16.665923497267766","500","250","psychophysics","29","107111","0.0-29.0","5f29109240b4f4000bfd5a06","6213d240de1b61594b08e896","1","0","44","39","","",""
"2593","key"," "," ","16.665941935483808","500","250","psychophysics","30","109716","0.0-30.0","5f29109240b4f4000bfd5a06","6213d240de1b61594b08e896","1","5","51","50","","",""
"2580","key"," "," ","16.665806451612884","500","250","psychophysics","31","112305","0.0-31.0","5f29109240b4f4000bfd5a06","6213d240de1b61594b08e896","1","0","32","31","","",""
"2133","key"," "," ","16.66616535433073","500","250","psychophysics","32","114444","0.0-32.0","5f29109240b4f4000bfd5a06","6213d240de1b61594b08e896","1","5","27","26","","",""
"5045","key"," "," ","16.72081788079472","500","250","psychophysics","33","119500","0.0-33.0","5f29109240b4f4000bfd5a06","6213d240de1b61594b08e896","1","0","40","41","","",""
"3183","key"," "," ","16.665821052631625","500","250","psychophysics","34","122690","0.0-34.0","5f29109240b4f4000bfd5a06","6213d240de1b61594b08e896","1","5","33","34","","",""
"5809","key"," "," ","16.66558045977008","500","250","psychophysics","35","128506","0.0-35.0","5f29109240b4f4000bfd5a06","6213d240de1b61594b08e896","1","0","22","22","","",""
"10805","key"," "," ","16.665624999999995","500","250","psychophysics","36","139317","0.0-36.0","5f29109240b4f4000bfd5a06","6213d240de1b61594b08e896","1","5","35","36","","",""
"1808","key"," "," ","16.664981481481476","500","250","psychophysics","37","141132","0.0-37.0","5f29109240b4f4000bfd5a06","6213d240de1b61594b08e896","","","","","","",""
"1187","key"," "," ","16.666942857142672","500","250","psychophysics","38","142326","0.0-38.0","5f29109240b4f4000bfd5a06","6213d240de1b61594b08e896","","","","","","",""
"596","key"," "," ","16.665972222222383","500","250","psychophysics","39","142934","0.0-39.0","5f29109240b4f4000bfd5a06","6213d240de1b61594b08e896","","","","","","",""
"3298","key"," "," ","16.66538578680206","500","250","psychophysics","40","146240","0.0-40.0","5f29109240b4f4000bfd5a06","6213d240de1b61594b08e896","2","0","41","35","","",""
"2111","key"," "," ","16.665755905511865","500","250","psychophysics","41","148371","0.0-41.0","5f29109240b4f4000bfd5a06","6213d240de1b61594b08e896","","","","","","",""
"3365","key"," "," ","16.66540298507455","500","250","psychophysics","42","151743","0.0-42.0","5f29109240b4f4000bfd5a06","6213d240de1b61594b08e896","2","0","56","48","","",""
"954","key"," "," ","16.66658620689624","500","250","psychophysics","43","152716","0.0-43.0","5f29109240b4f4000bfd5a06","6213d240de1b61594b08e896","","","","","","",""
"3329","key"," "," ","16.666104999999952","500","250","psychophysics","44","156066","0.0-44.0","5f29109240b4f4000bfd5a06","6213d240de1b61594b08e896","2","0","23","24","","",""
"1326","key"," "," ","16.665860759493707","500","250","psychophysics","45","157399","0.0-45.0","5f29109240b4f4000bfd5a06","6213d240de1b61594b08e896","","","","","","",""
"3207","key"," "," ","16.665734374999982","500","250","psychophysics","46","160615","0.0-46.0","5f29109240b4f4000bfd5a06","6213d240de1b61594b08e896","2","0","20","17","","",""
"856","key"," "," ","16.66576000000001","500","250","psychophysics","47","161477","0.0-47.0","5f29109240b4f4000bfd5a06","6213d240de1b61594b08e896","","","","","","",""
"4574","key"," "," ","16.665369565217365","500","250","psychophysics","48","166088","0.0-48.0","5f29109240b4f4000bfd5a06","6213d240de1b61594b08e896","2","0","36","30","","",""
"835","key"," "," ","16.668571428571024","500","250","psychophysics","49","166926","0.0-49.0","5f29109240b4f4000bfd5a06","6213d240de1b61594b08e896","","","","","","",""
"2489","key"," "," ","16.66546308724819","500","250","psychophysics","50","169425","0.0-50.0","5f29109240b4f4000bfd5a06","6213d240de1b61594b08e896","2","0","27","23","","",""
"979","key"," "," ","16.66644067796622","500","250","psychophysics","51","170414","0.0-51.0","5f29109240b4f4000bfd5a06","6213d240de1b61594b08e896","","","","","","",""
"3468","key"," "," ","16.665509615384646","500","250","psychophysics","52","173899","0.0-52.0","5f29109240b4f4000bfd5a06","6213d240de1b61594b08e896","2","0","26","23","","",""
"944","key"," "," ","16.666464285714028","500","250","psychophysics","53","174846","0.0-53.0","5f29109240b4f4000bfd5a06","6213d240de1b61594b08e896","","","","","","",""
"3785","key"," "," ","16.66584070796452","500","250","psychophysics","54","178636","0.0-54.0","5f29109240b4f4000bfd5a06","6213d240de1b61594b08e896","2","0","30","28","","",""
"701","key"," "," ","16.666341463414806","500","250","psychophysics","55","179340","0.0-55.0","5f29109240b4f4000bfd5a06","6213d240de1b61594b08e896","","","","","","",""
"4321","key"," "," ","16.66619305019303","500","250","psychophysics","56","183671","0.0-56.0","5f29109240b4f4000bfd5a06","6213d240de1b61594b08e896","2","0","25","26","","",""
"1174","key"," "," ","16.665999999999933","500","250","psychophysics","57","184854","0.0-57.0","5f29109240b4f4000bfd5a06","6213d240de1b61594b08e896","","","","","","",""
"2234","key"," "," ","16.6655820895522","500","250","psychophysics","58","187098","0.0-58.0","5f29109240b4f4000bfd5a06","6213d240de1b61594b08e896","2","0","21","16","","",""
"779","key"," "," ","16.666326086956794","500","250","psychophysics","59","187885","0.0-59.0","5f29109240b4f4000bfd5a06","6213d240de1b61594b08e896","","","","","","",""
"2247","key"," "," ","16.7897686567164","500","250","psychophysics","60","190147","0.0-60.0","5f29109240b4f4000bfd5a06","6213d240de1b61594b08e896","2","0","29","26","","",""
"756","key"," "," ","16.666111111111242","500","250","psychophysics","61","190913","0.0-61.0","5f29109240b4f4000bfd5a06","6213d240de1b61594b08e896","","","","","","",""
"3694","key"," "," ","16.665801801801756","500","250","psychophysics","62","194630","0.0-62.0","5f29109240b4f4000bfd5a06","6213d240de1b61594b08e896","2","0","38","37","","",""
"1144","key"," "," ","16.66429411764736","500","250","psychophysics","63","195780","0.0-63.0","5f29109240b4f4000bfd5a06","6213d240de1b61594b08e896","","","","","","",""
"2660","key"," "," ","16.66567295597487","500","250","psychophysics","64","198446","0.0-64.0","5f29109240b4f4000bfd5a06","6213d240de1b61594b08e896","2","0","38","31","","",""
"734","key"," "," ","16.66583720930286","500","250","psychophysics","65","199187","0.0-65.0","5f29109240b4f4000bfd5a06","6213d240de1b61594b08e896","","","","","","",""
"2210","key"," "," ","16.66583333333344","500","250","psychophysics","66","201409","0.0-66.0","5f29109240b4f4000bfd5a06","6213d240de1b61594b08e896","2","0","49","40","","",""
"718","key"," "," ","16.66674418604613","500","250","psychophysics","67","202137","0.0-67.0","5f29109240b4f4000bfd5a06","6213d240de1b61594b08e896","","","","","","",""
"2866","key"," "," ","16.665790697674268","500","250","psychophysics","68","205015","0.0-68.0","5f29109240b4f4000bfd5a06","6213d240de1b61594b08e896","2","0","50","51","","",""
"950","key"," "," ","16.667142857143126","500","250","psychophysics","69","205974","0.0-69.0","5f29109240b4f4000bfd5a06","6213d240de1b61594b08e896","","","","","","",""
"2426","key"," "," ","16.665821917808362","500","250","psychophysics","70","208412","0.0-70.0","5f29109240b4f4000bfd5a06","6213d240de1b61594b08e896","","","","","","",""
"1252","key"," "," ","16.66649999999995","500","250","psychophysics","71","209670","0.0-71.0","5f29109240b4f4000bfd5a06","6213d240de1b61594b08e896","","","","","","",""
"2984","key"," "," ","16.66555865921793","500","250","psychophysics","72","212665","0.0-72.0","5f29109240b4f4000bfd5a06","6213d240de1b61594b08e896","3","5","55","61","","",""
"3095","key"," "," ","16.666059459459408","500","250","psychophysics","73","215766","0.0-73.0","5f29109240b4f4000bfd5a06","6213d240de1b61594b08e896","3","0","60","54","","",""
"2289","key"," "," ","16.665854014598604","500","250","psychophysics","74","218062","0.0-74.0","5f29109240b4f4000bfd5a06","6213d240de1b61594b08e896","3","5","20","19","","",""
"2348","key"," "," ","16.66565000000015","500","250","psychophysics","75","220416","0.0-75.0","5f29109240b4f4000bfd5a06","6213d240de1b61594b08e896","3","0","45","44","","",""
"2306","key"," "," ","16.665594202898436","500","250","psychophysics","76","222728","0.0-76.0","5f29109240b4f4000bfd5a06","6213d240de1b61594b08e896","3","5","40","48","","",""
"2696","key"," "," ","16.665515527950227","500","250","psychophysics","77","225430","0.0-77.0","5f29109240b4f4000bfd5a06","6213d240de1b61594b08e896","3","0","55","50","","",""
"2433","key"," "," ","16.66562758620692","500","250","psychophysics","78","227870","0.0-78.0","5f29109240b4f4000bfd5a06","6213d240de1b61594b08e896","3","5","51","55","","",""
"2723","key"," "," ","16.665846625766847","500","250","psychophysics","79","230604","0.0-79.0","5f29109240b4f4000bfd5a06","6213d240de1b61594b08e896","3","0","57","43","","",""
"1925","key"," "," ","16.66605172413808","500","250","psychophysics","80","232544","0.0-80.0","5f29109240b4f4000bfd5a06","6213d240de1b61594b08e896","3","5","27","25","","",""
"2192","key"," "," ","16.66612213740471","500","250","psychophysics","81","234744","0.0-81.0","5f29109240b4f4000bfd5a06","6213d240de1b61594b08e896","3","0","57","48","","",""
"2318","key"," "," ","16.66561594202885","500","250","psychophysics","82","237068","0.0-82.0","5f29109240b4f4000bfd5a06","6213d240de1b61594b08e896","3","5","51","50","","",""
"1963","key"," "," ","16.665677966101597","500","250","psychophysics","83","239043","0.0-83.0","5f29109240b4f4000bfd5a06","6213d240de1b61594b08e896","3","0","48","39","","",""
"2773","key"," "," ","16.66555151515164","500","250","psychophysics","84","241823","0.0-84.0","5f29109240b4f4000bfd5a06","6213d240de1b61594b08e896","3","5","55","66","","",""
"2527","key"," "," ","16.665717105263244","500","250","psychophysics","85","244362","0.0-85.0","5f29109240b4f4000bfd5a06","6213d240de1b61594b08e896","3","0","33","32","","",""
"1735","key"," "," ","16.66533009708747","500","250","psychophysics","86","246103","0.0-86.0","5f29109240b4f4000bfd5a06","6213d240de1b61594b08e896","3","5","30","33","","",""
"2777","key"," "," ","16.665844311377224","500","250","psychophysics","87","248893","0.0-87.0","5f29109240b4f4000bfd5a06","6213d240de1b61594b08e896","3","0","22","24","","",""
"2443","key"," "," ","16.66586986301373","500","250","psychophysics","88","251342","0.0-88.0","5f29109240b4f4000bfd5a06","6213d240de1b61594b08e896","3","5","53","52","","",""
"3015","key"," "," ","16.66583888888886","500","250","psychophysics","89","254363","0.0-89.0","5f29109240b4f4000bfd5a06","6213d240de1b61594b08e896","3","0","53","45","","",""
"2182","key"," "," ","16.665453846154","500","250","psychophysics","90","256551","0.0-90.0","5f29109240b4f4000bfd5a06","6213d240de1b61594b08e896","3","5","32","34","","",""
"1944","key"," "," ","16.666034188034246","500","250","psychophysics","91","258508","0.0-91.0","5f29109240b4f4000bfd5a06","6213d240de1b61594b08e896","3","0","27","23","","",""
"1349","key"," "," ","16.66578750000008","500","250","psychophysics","92","259864","0.0-92.0","5f29109240b4f4000bfd5a06","6213d240de1b61594b08e896","","","","","","",""
"17878","","","v","","","","html-keyboard-response","93","277745","0.0-93.0","5f29109240b4f4000bfd5a06","6213d240de1b61594b08e896","","","","","<p> In this part of the experiment, we are going present digits 1, 2, 3, 4, 6, 7, 8, and 9.  Notice that 5 is missing.  Your job is to say whether the presented digit is less than or greater than 5.  For example, 3 is less than 5 and 7 is greater than 5.  If the digit is less than 5, press the v key; if it is greater than 5, press the n key. We are going to do 200 of these in total, but only 50 righ now. They go real fast.</p>  <br><br>  Ready? (press v or n)","",""
"2863","key","v","v","18.252227848101352","500","250","psychophysics","94","280630","0.0-94.0","5f29109240b4f4000bfd5a06","6213d240de1b61594b08e896","4","","","","","1","2"
"null","","","null","","","","html-keyboard-response","95","281133","0.0-95.0","5f29109240b4f4000bfd5a06","6213d240de1b61594b08e896","","","","","<p style=""color:darkgreen;font-size:24px;"">Correct :)</p>","",""
"2421","key","v","v","16.665390410958885","500","250","psychophysics","96","283560","0.0-96.0","5f29109240b4f4000bfd5a06","6213d240de1b61594b08e896","4","","","","","1","4"
"null","","","null","","","","html-keyboard-response","97","284063","0.0-97.0","5f29109240b4f4000bfd5a06","6213d240de1b61594b08e896","","","","","<p style=""color:darkgreen;font-size:24px;"">Correct :)</p>","",""
"2422","key","n","n","16.665842465753347","500","250","psychophysics","98","286493","0.0-98.0","5f29109240b4f4000bfd5a06","6213d240de1b61594b08e896","4","","","","","1","9"
"null","","","null","","","","html-keyboard-response","99","286996","0.0-99.0","5f29109240b4f4000bfd5a06","6213d240de1b61594b08e896","","","","","<p style=""color:darkgreen;font-size:24px;"">Correct :)</p>","",""
"3004","key","v","v","16.665911602210098","500","250","psychophysics","100","290007","0.0-100.0","5f29109240b4f4000bfd5a06","6213d240de1b61594b08e896","4","","","","","1","2"
"null","","","null","","","","html-keyboard-response","101","290509","0.0-101.0","5f29109240b4f4000bfd5a06","6213d240de1b61594b08e896","","","","","<p style=""color:darkgreen;font-size:24px;"">Correct :)</p>","",""
"3136","key","v","v","16.665638297872416","500","250","psychophysics","102","293653","0.0-102.0","5f29109240b4f4000bfd5a06","6213d240de1b61594b08e896","4","","","","","1","2"
"null","","","null","","","","html-keyboard-response","103","294157","0.0-103.0","5f29109240b4f4000bfd5a06","6213d240de1b61594b08e896","","","","","<p style=""color:darkgreen;font-size:24px;"">Correct :)</p>","",""
"2980","key","n","n","16.66564804469248","500","250","psychophysics","104","297144","0.0-104.0","5f29109240b4f4000bfd5a06","6213d240de1b61594b08e896","4","","","","","1","9"
"null","","","null","","","","html-keyboard-response","105","297655","0.0-105.0","5f29109240b4f4000bfd5a06","6213d240de1b61594b08e896","","","","","<p style=""color:darkgreen;font-size:24px;"">Correct :)</p>","",""
"2995","key","v","v","16.665749999999793","500","250","psychophysics","106","300658","0.0-106.0","5f29109240b4f4000bfd5a06","6213d240de1b61594b08e896","4","","","","","1","3"
"null","","","null","","","","html-keyboard-response","107","301160","0.0-107.0","5f29109240b4f4000bfd5a06","6213d240de1b61594b08e896","","","","","<p style=""color:darkgreen;font-size:24px;"">Correct :)</p>","",""
"2772","key","v","v","16.66600598802394","500","250","psychophysics","108","303940","0.0-108.0","5f29109240b4f4000bfd5a06","6213d240de1b61594b08e896","4","","","","","1","4"
"null","","","null","","","","html-keyboard-response","109","304443","0.0-109.0","5f29109240b4f4000bfd5a06","6213d240de1b61594b08e896","","","","","<p style=""color:darkgreen;font-size:24px;"">Correct :)</p>","",""
"4201","key","v","v","16.666015873015915","500","250","psychophysics","110","308651","0.0-110.0","5f29109240b4f4000bfd5a06","6213d240de1b61594b08e896","4","","","","","1","2"
"null","","","null","","","","html-keyboard-response","111","309155","0.0-111.0","5f29109240b4f4000bfd5a06","6213d240de1b61594b08e896","","","","","<p style=""color:darkgreen;font-size:24px;"">Correct :)</p>","",""
"2575","key","v","v","16.66592258064512","500","250","psychophysics","112","311741","0.0-112.0","5f29109240b4f4000bfd5a06","6213d240de1b61594b08e896","4","","","","","1","4"
"null","","","null","","","","html-keyboard-response","113","312245","0.0-113.0","5f29109240b4f4000bfd5a06","6213d240de1b61594b08e896","","","","","<p style=""color:darkgreen;font-size:24px;"">Correct :)</p>","",""
"3854","key","n","n","16.665696969697024","500","250","psychophysics","114","316104","0.0-114.0","5f29109240b4f4000bfd5a06","6213d240de1b61594b08e896","4","","","","","1","8"
"null","","","null","","","","html-keyboard-response","115","316608","0.0-115.0","5f29109240b4f4000bfd5a06","6213d240de1b61594b08e896","","","","","<p style=""color:darkgreen;font-size:24px;"">Correct :)</p>","",""
"3486","key","n","n","16.665784688995377","500","250","psychophysics","116","320101","0.0-116.0","5f29109240b4f4000bfd5a06","6213d240de1b61594b08e896","4","","","","","1","7"
"null","","","null","","","","html-keyboard-response","117","320606","0.0-117.0","5f29109240b4f4000bfd5a06","6213d240de1b61594b08e896","","","","","<p style=""color:darkgreen;font-size:24px;"">Correct :)</p>","",""
"2869","key","v","v","16.66569186046484","500","250","psychophysics","118","323483","0.0-118.0","5f29109240b4f4000bfd5a06","6213d240de1b61594b08e896","4","","","","","1","2"
"null","","","null","","","","html-keyboard-response","119","323986","0.0-119.0","5f29109240b4f4000bfd5a06","6213d240de1b61594b08e896","","","","","<p style=""color:darkgreen;font-size:24px;"">Correct :)</p>","",""
"2955","key","n","n","16.66572316384172","500","250","psychophysics","120","326948","0.0-120.0","5f29109240b4f4000bfd5a06","6213d240de1b61594b08e896","4","","","","","1","6"
"null","","","null","","","","html-keyboard-response","121","327452","0.0-121.0","5f29109240b4f4000bfd5a06","6213d240de1b61594b08e896","","","","","<p style=""color:darkgreen;font-size:24px;"">Correct :)</p>","",""
"4301","key","v","v","16.73059922178998","500","250","psychophysics","122","331760","0.0-122.0","5f29109240b4f4000bfd5a06","6213d240de1b61594b08e896","4","","","","","1","4"
"null","","","null","","","","html-keyboard-response","123","332264","0.0-123.0","5f29109240b4f4000bfd5a06","6213d240de1b61594b08e896","","","","","<p style=""color:darkgreen;font-size:24px;"">Correct :)</p>","",""
"2534","key","v","v","16.66541830065365","500","250","psychophysics","124","334805","0.0-124.0","5f29109240b4f4000bfd5a06","6213d240de1b61594b08e896","4","","","","","1","2"
"null","","","null","","","","html-keyboard-response","125","335307","0.0-125.0","5f29109240b4f4000bfd5a06","6213d240de1b61594b08e896","","","","","<p style=""color:darkgreen;font-size:24px;"">Correct :)</p>","",""
"3278","key","n","n","16.66577664974617","500","250","psychophysics","126","338592","0.0-126.0","5f29109240b4f4000bfd5a06","6213d240de1b61594b08e896","4","","","","","1","6"
"null","","","null","","","","html-keyboard-response","127","339097","0.0-127.0","5f29109240b4f4000bfd5a06","6213d240de1b61594b08e896","","","","","<p style=""color:darkgreen;font-size:24px;"">Correct :)</p>","",""
"6412","key","n","n","16.66561818181812","500","250","psychophysics","128","345515","0.0-128.0","5f29109240b4f4000bfd5a06","6213d240de1b61594b08e896","4","","","","","1","9"
"null","","","null","","","","html-keyboard-response","129","346019","0.0-129.0","5f29109240b4f4000bfd5a06","6213d240de1b61594b08e896","","","","","<p style=""color:darkgreen;font-size:24px;"">Correct :)</p>","",""
"2879","key","v","v","16.665641618497208","500","250","psychophysics","130","348905","0.0-130.0","5f29109240b4f4000bfd5a06","6213d240de1b61594b08e896","4","","","","","1","3"
"null","","","null","","","","html-keyboard-response","131","349408","0.0-131.0","5f29109240b4f4000bfd5a06","6213d240de1b61594b08e896","","","","","<p style=""color:darkgreen;font-size:24px;"">Correct :)</p>","",""
"5853","key","v","v","16.71298005698004","500","250","psychophysics","132","355267","0.0-132.0","5f29109240b4f4000bfd5a06","6213d240de1b61594b08e896","4","","","","","1","3"
"null","","","null","","","","html-keyboard-response","133","355770","0.0-133.0","5f29109240b4f4000bfd5a06","6213d240de1b61594b08e896","","","","","<p style=""color:darkgreen;font-size:24px;"">Correct :)</p>","",""
"2611","key","v","v","16.665815286624177","500","250","psychophysics","134","358388","0.0-134.0","5f29109240b4f4000bfd5a06","6213d240de1b61594b08e896","4","","","","","1","1"
"null","","","null","","","","html-keyboard-response","135","358891","0.0-135.0","5f29109240b4f4000bfd5a06","6213d240de1b61594b08e896","","","","","<p style=""color:darkgreen;font-size:24px;"">Correct :)</p>","",""
"2645","key","v","v","16.666050314465053","500","250","psychophysics","136","361543","0.0-136.0","5f29109240b4f4000bfd5a06","6213d240de1b61594b08e896","4","","","","","1","4"
"null","","","null","","","","html-keyboard-response","137","362047","0.0-137.0","5f29109240b4f4000bfd5a06","6213d240de1b61594b08e896","","","","","<p style=""color:darkgreen;font-size:24px;"">Correct :)</p>","",""
"2637","key","v","v","16.665911949685565","500","250","psychophysics","138","364691","0.0-138.0","5f29109240b4f4000bfd5a06","6213d240de1b61594b08e896","4","","","","","1","1"
"null","","","null","","","","html-keyboard-response","139","365194","0.0-139.0","5f29109240b4f4000bfd5a06","6213d240de1b61594b08e896","","","","","<p style=""color:darkgreen;font-size:24px;"">Correct :)</p>","",""
"2680","key","v","v","16.66581366459625","500","250","psychophysics","140","367881","0.0-140.0","5f29109240b4f4000bfd5a06","6213d240de1b61594b08e896","4","","","","","1","4"
"null","","","null","","","","html-keyboard-response","141","368386","0.0-141.0","5f29109240b4f4000bfd5a06","6213d240de1b61594b08e896","","","","","<p style=""color:darkgreen;font-size:24px;"">Correct :)</p>","",""
"2926","key","v","v","16.66568181818167","500","250","psychophysics","142","371322","0.0-142.0","5f29109240b4f4000bfd5a06","6213d240de1b61594b08e896","4","","","","","1","2"
"null","","","null","","","","html-keyboard-response","143","371825","0.0-143.0","5f29109240b4f4000bfd5a06","6213d240de1b61594b08e896","","","","","<p style=""color:darkgreen;font-size:24px;"">Correct :)</p>","",""
"2779","key","v","v","16.665874251497012","500","250","psychophysics","144","374610","0.0-144.0","5f29109240b4f4000bfd5a06","6213d240de1b61594b08e896","4","","","","","1","4"
"null","","","null","","","","html-keyboard-response","145","375113","0.0-145.0","5f29109240b4f4000bfd5a06","6213d240de1b61594b08e896","","","","","<p style=""color:darkgreen;font-size:24px;"">Correct :)</p>","",""
"2765","key","v","v","16.66560606060613","500","250","psychophysics","146","377883","0.0-146.0","5f29109240b4f4000bfd5a06","6213d240de1b61594b08e896","4","","","","","1","1"
"null","","","null","","","","html-keyboard-response","147","378387","0.0-147.0","5f29109240b4f4000bfd5a06","6213d240de1b61594b08e896","","","","","<p style=""color:darkgreen;font-size:24px;"">Correct :)</p>","",""
"3457","key","n","n","16.665399038461775","500","250","psychophysics","148","381852","0.0-148.0","5f29109240b4f4000bfd5a06","6213d240de1b61594b08e896","4","","","","","1","7"
"null","","","null","","","","html-keyboard-response","149","382356","0.0-149.0","5f29109240b4f4000bfd5a06","6213d240de1b61594b08e896","","","","","<p style=""color:darkgreen;font-size:24px;"">Correct :)</p>","",""
"3291","key","v","v","16.66576262626261","500","250","psychophysics","150","385654","0.0-150.0","5f29109240b4f4000bfd5a06","6213d240de1b61594b08e896","4","","","","","1","3"
"null","","","null","","","","html-keyboard-response","151","386165","0.0-151.0","5f29109240b4f4000bfd5a06","6213d240de1b61594b08e896","","","","","<p style=""color:darkgreen;font-size:24px;"">Correct :)</p>","",""
"6282","key","v","v","16.665761273209622","500","250","psychophysics","152","392454","0.0-152.0","5f29109240b4f4000bfd5a06","6213d240de1b61594b08e896","4","","","","","1","4"
"null","","","null","","","","html-keyboard-response","153","392958","0.0-153.0","5f29109240b4f4000bfd5a06","6213d240de1b61594b08e896","","","","","<p style=""color:darkgreen;font-size:24px;"">Correct :)</p>","",""
"7000","key","v","v","16.6657695961995","500","250","psychophysics","154","399965","0.0-154.0","5f29109240b4f4000bfd5a06","6213d240de1b61594b08e896","4","","","","","1","1"
"null","","","null","","","","html-keyboard-response","155","400469","0.0-155.0","5f29109240b4f4000bfd5a06","6213d240de1b61594b08e896","","","","","<p style=""color:darkgreen;font-size:24px;"">Correct :)</p>","",""
"2970","key","v","v","16.666022471909926","500","250","psychophysics","156","403446","0.0-156.0","5f29109240b4f4000bfd5a06","6213d240de1b61594b08e896","4","","","","","1","3"
"null","","","null","","","","html-keyboard-response","157","403950","0.0-157.0","5f29109240b4f4000bfd5a06","6213d240de1b61594b08e896","","","","","<p style=""color:darkgreen;font-size:24px;"">Correct :)</p>","",""
"3096","key","n","n","16.665833333333495","500","250","psychophysics","158","407054","0.0-158.0","5f29109240b4f4000bfd5a06","6213d240de1b61594b08e896","4","","","","","1","8"
"null","","","null","","","","html-keyboard-response","159","407558","0.0-159.0","5f29109240b4f4000bfd5a06","6213d240de1b61594b08e896","","","","","<p style=""color:darkgreen;font-size:24px;"">Correct :)</p>","",""
"2657","key","n","n","16.66589375000003","500","250","psychophysics","160","410221","0.0-160.0","5f29109240b4f4000bfd5a06","6213d240de1b61594b08e896","4","","","","","1","8"
"null","","","null","","","","html-keyboard-response","161","410725","0.0-161.0","5f29109240b4f4000bfd5a06","6213d240de1b61594b08e896","","","","","<p style=""color:darkgreen;font-size:24px;"">Correct :)</p>","",""
"2812","key","v","v","16.665798816568156","500","250","psychophysics","162","413543","0.0-162.0","5f29109240b4f4000bfd5a06","6213d240de1b61594b08e896","4","","","","","1","2"
"null","","","null","","","","html-keyboard-response","163","414047","0.0-163.0","5f29109240b4f4000bfd5a06","6213d240de1b61594b08e896","","","","","<p style=""color:darkgreen;font-size:24px;"">Correct :)</p>","",""
"3018","key","v","v","16.665635359115917","500","250","psychophysics","164","417073","0.0-164.0","5f29109240b4f4000bfd5a06","6213d240de1b61594b08e896","4","","","","","1","4"
"null","","","null","","","","html-keyboard-response","165","417577","0.0-165.0","5f29109240b4f4000bfd5a06","6213d240de1b61594b08e896","","","","","<p style=""color:darkgreen;font-size:24px;"">Correct :)</p>","",""
"2825","key","v","v","16.66569411764709","500","250","psychophysics","166","420408","0.0-166.0","5f29109240b4f4000bfd5a06","6213d240de1b61594b08e896","4","","","","","1","3"
"null","","","null","","","","html-keyboard-response","167","420911","0.0-167.0","5f29109240b4f4000bfd5a06","6213d240de1b61594b08e896","","","","","<p style=""color:darkgreen;font-size:24px;"">Correct :)</p>","",""
"2815","key","n","n","16.66602366863882","500","250","psychophysics","168","423737","0.0-168.0","5f29109240b4f4000bfd5a06","6213d240de1b61594b08e896","4","","","","","1","7"
"null","","","null","","","","html-keyboard-response","169","424239","0.0-169.0","5f29109240b4f4000bfd5a06","6213d240de1b61594b08e896","","","","","<p style=""color:darkgreen;font-size:24px;"">Correct :)</p>","",""
"3456","key","v","v","16.66578365384619","500","250","psychophysics","170","427702","0.0-170.0","5f29109240b4f4000bfd5a06","6213d240de1b61594b08e896","4","","","","","1","3"
"null","","","null","","","","html-keyboard-response","171","428206","0.0-171.0","5f29109240b4f4000bfd5a06","6213d240de1b61594b08e896","","","","","<p style=""color:darkgreen;font-size:24px;"">Correct :)</p>","",""
"2702","key","v","v","16.665852760736104","500","250","psychophysics","172","430915","0.0-172.0","5f29109240b4f4000bfd5a06","6213d240de1b61594b08e896","4","","","","","1","2"
"null","","","null","","","","html-keyboard-response","173","431419","0.0-173.0","5f29109240b4f4000bfd5a06","6213d240de1b61594b08e896","","","","","<p style=""color:darkgreen;font-size:24px;"">Correct :)</p>","",""
"2967","key","n","n","16.66590449438212","500","250","psychophysics","174","434395","0.0-174.0","5f29109240b4f4000bfd5a06","6213d240de1b61594b08e896","4","","","","","1","7"
"null","","","null","","","","html-keyboard-response","175","434898","0.0-175.0","5f29109240b4f4000bfd5a06","6213d240de1b61594b08e896","","","","","<p style=""color:darkgreen;font-size:24px;"">Correct :)</p>","",""
"2959","key","n","n","16.665567415730447","500","250","psychophysics","176","437865","0.0-176.0","5f29109240b4f4000bfd5a06","6213d240de1b61594b08e896","4","","","","","1","8"
"null","","","null","","","","html-keyboard-response","177","438371","0.0-177.0","5f29109240b4f4000bfd5a06","6213d240de1b61594b08e896","","","","","<p style=""color:darkgreen;font-size:24px;"">Correct :)</p>","",""
"2622","key","v","v","16.665841772152138","500","250","psychophysics","178","441000","0.0-178.0","5f29109240b4f4000bfd5a06","6213d240de1b61594b08e896","4","","","","","1","3"
"null","","","null","","","","html-keyboard-response","179","441504","0.0-179.0","5f29109240b4f4000bfd5a06","6213d240de1b61594b08e896","","","","","<p style=""color:darkgreen;font-size:24px;"">Correct :)</p>","",""
"3122","key","n","n","16.665696808510706","500","250","psychophysics","180","444632","0.0-180.0","5f29109240b4f4000bfd5a06","6213d240de1b61594b08e896","4","","","","","1","7"
"null","","","null","","","","html-keyboard-response","181","445136","0.0-181.0","5f29109240b4f4000bfd5a06","6213d240de1b61594b08e896","","","","","<p style=""color:darkgreen;font-size:24px;"">Correct :)</p>","",""
"2670","key","n","n","16.66540993788816","500","250","psychophysics","182","447813","0.0-182.0","5f29109240b4f4000bfd5a06","6213d240de1b61594b08e896","4","","","","","1","7"
"null","","","null","","","","html-keyboard-response","183","448316","0.0-183.0","5f29109240b4f4000bfd5a06","6213d240de1b61594b08e896","","","","","<p style=""color:darkgreen;font-size:24px;"">Correct :)</p>","",""
"2851","key","v","v","16.665847953216293","500","250","psychophysics","184","451175","0.0-184.0","5f29109240b4f4000bfd5a06","6213d240de1b61594b08e896","4","","","","","1","2"
"null","","","null","","","","html-keyboard-response","185","451679","0.0-185.0","5f29109240b4f4000bfd5a06","6213d240de1b61594b08e896","","","","","<p style=""color:darkgreen;font-size:24px;"">Correct :)</p>","",""
"3021","key","n","n","16.665723756905994","500","250","psychophysics","186","454707","0.0-186.0","5f29109240b4f4000bfd5a06","6213d240de1b61594b08e896","4","","","","","1","6"
"null","","","null","","","","html-keyboard-response","187","455210","0.0-187.0","5f29109240b4f4000bfd5a06","6213d240de1b61594b08e896","","","","","<p style=""color:darkgreen;font-size:24px;"">Correct :)</p>","",""
"2873","key","v","v","16.665924418604593","500","250","psychophysics","188","458090","0.0-188.0","5f29109240b4f4000bfd5a06","6213d240de1b61594b08e896","4","","","","","1","4"
"null","","","null","","","","html-keyboard-response","189","458595","0.0-189.0","5f29109240b4f4000bfd5a06","6213d240de1b61594b08e896","","","","","<p style=""color:darkgreen;font-size:24px;"">Correct :)</p>","",""
"2684","key","n","n","16.66569565217407","500","250","psychophysics","190","461286","0.0-190.0","5f29109240b4f4000bfd5a06","6213d240de1b61594b08e896","4","","","","","1","8"
"null","","","null","","","","html-keyboard-response","191","461788","0.0-191.0","5f29109240b4f4000bfd5a06","6213d240de1b61594b08e896","","","","","<p style=""color:darkgreen;font-size:24px;"">Correct :)</p>","",""
"3036","key","n","n","16.6654754098361","500","250","psychophysics","192","464831","0.0-192.0","5f29109240b4f4000bfd5a06","6213d240de1b61594b08e896","4","","","","","1","6"
"null","","","null","","","","html-keyboard-response","193","465334","0.0-193.0","5f29109240b4f4000bfd5a06","6213d240de1b61594b08e896","","","","","<p style=""color:darkgreen;font-size:24px;"">Correct :)</p>","",""
"2442523","","","v","","","","html-keyboard-response","194","2907858","0.0-194.0","5f29109240b4f4000bfd5a06","6213d240de1b61594b08e896","","","","","<p> Ok, now we are going present the same digits as before.  Your job is to say whether the digit is even or odd  If the digit is odd, press to v key; if it is even, press the n key. We are going to do 50 of these.  </p>  <br><br>  Ready? (press v or n)","",""
"3440","key","n","n","22.370980645163407","500","250","psychophysics","195","2911314","0.0-195.0","5f29109240b4f4000bfd5a06","6213d240de1b61594b08e896","5","","","","","0","8"
"null","","","null","","","","html-keyboard-response","196","2911818","0.0-196.0","5f29109240b4f4000bfd5a06","6213d240de1b61594b08e896","","","","","<p style=""color:darkgreen;font-size:24px;"">Correct :)</p>","",""
"2540","key","v","v","16.665980392156985","500","250","psychophysics","197","2914366","0.0-197.0","5f29109240b4f4000bfd5a06","6213d240de1b61594b08e896","5","","","","","0","7"
"null","","","null","","","","html-keyboard-response","198","2914868","0.0-198.0","5f29109240b4f4000bfd5a06","6213d240de1b61594b08e896","","","","","<p style=""color:darkgreen;font-size:24px;"">Correct :)</p>","",""
"2483","key","n","n","16.665852348995237","500","250","psychophysics","199","2917358","0.0-199.0","5f29109240b4f4000bfd5a06","6213d240de1b61594b08e896","5","","","","","0","8"
"null","","","null","","","","html-keyboard-response","200","2917861","0.0-200.0","5f29109240b4f4000bfd5a06","6213d240de1b61594b08e896","","","","","<p style=""color:darkgreen;font-size:24px;"">Correct :)</p>","",""
"2435","key","n","n","16.666136986301726","500","250","psychophysics","201","2920303","0.0-201.0","5f29109240b4f4000bfd5a06","6213d240de1b61594b08e896","5","","","","","0","9"
"null","","","null","","","","html-keyboard-response","202","2920806","0.0-202.0","5f29109240b4f4000bfd5a06","6213d240de1b61594b08e896","","","","","<p style=""color:red;font-size:24px;"">Error :(</p>","",""
"2450","key","n","n","16.665912162160147","500","250","psychophysics","203","2923264","0.0-203.0","5f29109240b4f4000bfd5a06","6213d240de1b61594b08e896","5","","","","","0","2"
"null","","","null","","","","html-keyboard-response","204","2923767","0.0-204.0","5f29109240b4f4000bfd5a06","6213d240de1b61594b08e896","","","","","<p style=""color:darkgreen;font-size:24px;"">Correct :)</p>","",""
"2763","key","v","v","16.666018072288505","500","250","psychophysics","205","2926536","0.0-205.0","5f29109240b4f4000bfd5a06","6213d240de1b61594b08e896","5","","","","","0","1"
"null","","","null","","","","html-keyboard-response","206","2927041","0.0-206.0","5f29109240b4f4000bfd5a06","6213d240de1b61594b08e896","","","","","<p style=""color:darkgreen;font-size:24px;"">Correct :)</p>","",""
"2655","key","n","n","16.665949999997974","500","250","psychophysics","207","2929703","0.0-207.0","5f29109240b4f4000bfd5a06","6213d240de1b61594b08e896","5","","","","","0","8"
"null","","","null","","","","html-keyboard-response","208","2930206","0.0-208.0","5f29109240b4f4000bfd5a06","6213d240de1b61594b08e896","","","","","<p style=""color:darkgreen;font-size:24px;"">Correct :)</p>","",""
"2499","key","n","n","16.66550331125776","500","250","psychophysics","209","2932712","0.0-209.0","5f29109240b4f4000bfd5a06","6213d240de1b61594b08e896","5","","","","","0","2"
"null","","","null","","","","html-keyboard-response","210","2933216","0.0-210.0","5f29109240b4f4000bfd5a06","6213d240de1b61594b08e896","","","","","<p style=""color:darkgreen;font-size:24px;"">Correct :)</p>","",""
"2548","key","n","n","16.665692810459195","500","250","psychophysics","211","2935771","0.0-211.0","5f29109240b4f4000bfd5a06","6213d240de1b61594b08e896","5","","","","","0","4"
"null","","","null","","","","html-keyboard-response","212","2936274","0.0-212.0","5f29109240b4f4000bfd5a06","6213d240de1b61594b08e896","","","","","<p style=""color:darkgreen;font-size:24px;"">Correct :)</p>","",""
"2591","key","v","v","16.66592307692358","500","250","psychophysics","213","2938872","0.0-213.0","5f29109240b4f4000bfd5a06","6213d240de1b61594b08e896","5","","","","","0","3"
"null","","","null","","","","html-keyboard-response","214","2939374","0.0-214.0","5f29109240b4f4000bfd5a06","6213d240de1b61594b08e896","","","","","<p style=""color:darkgreen;font-size:24px;"">Correct :)</p>","",""
"2848","key","v","v","16.66563372093058","500","250","psychophysics","215","2942229","0.0-215.0","5f29109240b4f4000bfd5a06","6213d240de1b61594b08e896","5","","","","","0","9"
"null","","","null","","","","html-keyboard-response","216","2942732","0.0-216.0","5f29109240b4f4000bfd5a06","6213d240de1b61594b08e896","","","","","<p style=""color:darkgreen;font-size:24px;"">Correct :)</p>","",""
"2791","key","v","v","16.665380952380865","500","250","psychophysics","217","2945531","0.0-217.0","5f29109240b4f4000bfd5a06","6213d240de1b61594b08e896","5","","","","","0","1"
"null","","","null","","","","html-keyboard-response","218","2946033","0.0-218.0","5f29109240b4f4000bfd5a06","6213d240de1b61594b08e896","","","","","<p style=""color:darkgreen;font-size:24px;"">Correct :)</p>","",""
"2696","key","v","v","16.665901234568913","500","250","psychophysics","219","2948736","0.0-219.0","5f29109240b4f4000bfd5a06","6213d240de1b61594b08e896","5","","","","","0","9"
"null","","","null","","","","html-keyboard-response","220","2949239","0.0-220.0","5f29109240b4f4000bfd5a06","6213d240de1b61594b08e896","","","","","<p style=""color:darkgreen;font-size:24px;"">Correct :)</p>","",""
"3334","key","n","n","16.665676616915313","500","250","psychophysics","221","2952582","0.0-221.0","5f29109240b4f4000bfd5a06","6213d240de1b61594b08e896","5","","","","","0","8"
"null","","","null","","","","html-keyboard-response","222","2953087","0.0-222.0","5f29109240b4f4000bfd5a06","6213d240de1b61594b08e896","","","","","<p style=""color:darkgreen;font-size:24px;"">Correct :)</p>","",""
"2976","key","n","n","16.665608938546676","500","250","psychophysics","223","2956070","0.0-223.0","5f29109240b4f4000bfd5a06","6213d240de1b61594b08e896","5","","","","","0","8"
"null","","","null","","","","html-keyboard-response","224","2956573","0.0-224.0","5f29109240b4f4000bfd5a06","6213d240de1b61594b08e896","","","","","<p style=""color:darkgreen;font-size:24px;"">Correct :)</p>","",""
"3422","key","v","v","16.665669902912747","500","250","psychophysics","225","2960002","0.0-225.0","5f29109240b4f4000bfd5a06","6213d240de1b61594b08e896","5","","","","","0","1"
"null","","","null","","","","html-keyboard-response","226","2960505","0.0-226.0","5f29109240b4f4000bfd5a06","6213d240de1b61594b08e896","","","","","<p style=""color:darkgreen;font-size:24px;"">Correct :)</p>","",""
"3422","key","n","n","16.665927184465367","500","250","psychophysics","227","2963934","0.0-227.0","5f29109240b4f4000bfd5a06","6213d240de1b61594b08e896","5","","","","","0","6"
"null","","","null","","","","html-keyboard-response","228","2964437","0.0-228.0","5f29109240b4f4000bfd5a06","6213d240de1b61594b08e896","","","","","<p style=""color:darkgreen;font-size:24px;"">Correct :)</p>","",""
"3120","key","n","n","16.66579787234003","500","250","psychophysics","229","2967564","0.0-229.0","5f29109240b4f4000bfd5a06","6213d240de1b61594b08e896","5","","","","","0","2"
"null","","","null","","","","html-keyboard-response","230","2968068","0.0-230.0","5f29109240b4f4000bfd5a06","6213d240de1b61594b08e896","","","","","<p style=""color:darkgreen;font-size:24px;"">Correct :)</p>","",""
"3116","key","v","v","16.665882352941278","500","250","psychophysics","231","2971191","0.0-231.0","5f29109240b4f4000bfd5a06","6213d240de1b61594b08e896","5","","","","","0","7"
"null","","","null","","","","html-keyboard-response","232","2971696","0.0-232.0","5f29109240b4f4000bfd5a06","6213d240de1b61594b08e896","","","","","<p style=""color:darkgreen;font-size:24px;"">Correct :)</p>","",""
"4566","key","v","v","16.665748175182618","500","250","psychophysics","233","2976270","0.0-233.0","5f29109240b4f4000bfd5a06","6213d240de1b61594b08e896","5","","","","","0","7"
"null","","","null","","","","html-keyboard-response","234","2976772","0.0-234.0","5f29109240b4f4000bfd5a06","6213d240de1b61594b08e896","","","","","<p style=""color:darkgreen;font-size:24px;"">Correct :)</p>","",""
"2757","key","v","v","16.665686746989095","500","250","psychophysics","235","2979537","0.0-235.0","5f29109240b4f4000bfd5a06","6213d240de1b61594b08e896","5","","","","","0","9"
"null","","","null","","","","html-keyboard-response","236","2980041","0.0-236.0","5f29109240b4f4000bfd5a06","6213d240de1b61594b08e896","","","","","<p style=""color:darkgreen;font-size:24px;"">Correct :)</p>","",""
"2558","key","n","n","16.665555555556043","500","250","psychophysics","237","2982606","0.0-237.0","5f29109240b4f4000bfd5a06","6213d240de1b61594b08e896","5","","","","","0","2"
"null","","","null","","","","html-keyboard-response","238","2983110","0.0-238.0","5f29109240b4f4000bfd5a06","6213d240de1b61594b08e896","","","","","<p style=""color:darkgreen;font-size:24px;"">Correct :)</p>","",""
"2789","key","v","v","16.66582035928028","500","250","psychophysics","239","2985906","0.0-239.0","5f29109240b4f4000bfd5a06","6213d240de1b61594b08e896","5","","","","","0","9"
"null","","","null","","","","html-keyboard-response","240","2986410","0.0-240.0","5f29109240b4f4000bfd5a06","6213d240de1b61594b08e896","","","","","<p style=""color:darkgreen;font-size:24px;"">Correct :)</p>","",""
"2510","key","n","n","16.665549668872","500","250","psychophysics","241","2988927","0.0-241.0","5f29109240b4f4000bfd5a06","6213d240de1b61594b08e896","5","","","","","0","2"
"null","","","null","","","","html-keyboard-response","242","2989430","0.0-242.0","5f29109240b4f4000bfd5a06","6213d240de1b61594b08e896","","","","","<p style=""color:darkgreen;font-size:24px;"">Correct :)</p>","",""
"2700","key","n","n","16.665740740741317","500","250","psychophysics","243","2992137","0.0-243.0","5f29109240b4f4000bfd5a06","6213d240de1b61594b08e896","5","","","","","0","4"
"null","","","null","","","","html-keyboard-response","244","2992640","0.0-244.0","5f29109240b4f4000bfd5a06","6213d240de1b61594b08e896","","","","","<p style=""color:darkgreen;font-size:24px;"">Correct :)</p>","",""
"2897","key","n","n","16.66564367816184","500","250","psychophysics","245","2995544","0.0-245.0","5f29109240b4f4000bfd5a06","6213d240de1b61594b08e896","5","","","","","0","2"
"null","","","null","","","","html-keyboard-response","246","2996047","0.0-246.0","5f29109240b4f4000bfd5a06","6213d240de1b61594b08e896","","","","","<p style=""color:darkgreen;font-size:24px;"">Correct :)</p>","",""
"3111","key","n","n","16.665828877006643","500","250","psychophysics","247","2999166","0.0-247.0","5f29109240b4f4000bfd5a06","6213d240de1b61594b08e896","5","","","","","0","4"
"null","","","null","","","","html-keyboard-response","248","2999668","0.0-248.0","5f29109240b4f4000bfd5a06","6213d240de1b61594b08e896","","","","","<p style=""color:darkgreen;font-size:24px;"">Correct :)</p>","",""
"2633","key","n","n","16.665823899370576","500","250","psychophysics","249","3002308","0.0-249.0","5f29109240b4f4000bfd5a06","6213d240de1b61594b08e896","5","","","","","0","2"
"null","","","null","","","","html-keyboard-response","250","3002811","0.0-250.0","5f29109240b4f4000bfd5a06","6213d240de1b61594b08e896","","","","","<p style=""color:darkgreen;font-size:24px;"">Correct :)</p>","",""
"2479","key","v","v","16.665798657720647","500","250","psychophysics","251","3005297","0.0-251.0","5f29109240b4f4000bfd5a06","6213d240de1b61594b08e896","5","","","","","0","1"
"null","","","null","","","","html-keyboard-response","252","3005800","0.0-252.0","5f29109240b4f4000bfd5a06","6213d240de1b61594b08e896","","","","","<p style=""color:darkgreen;font-size:24px;"">Correct :)</p>","",""
"2582","key","v","v","16.66592903225833","500","250","psychophysics","253","3008389","0.0-253.0","5f29109240b4f4000bfd5a06","6213d240de1b61594b08e896","5","","","","","0","9"
"null","","","null","","","","html-keyboard-response","254","3008892","0.0-254.0","5f29109240b4f4000bfd5a06","6213d240de1b61594b08e896","","","","","<p style=""color:darkgreen;font-size:24px;"">Correct :)</p>","",""
"2535","key","n","n","16.665684210525605","500","250","psychophysics","255","3011434","0.0-255.0","5f29109240b4f4000bfd5a06","6213d240de1b61594b08e896","5","","","","","0","6"
"null","","","null","","","","html-keyboard-response","256","3011937","0.0-256.0","5f29109240b4f4000bfd5a06","6213d240de1b61594b08e896","","","","","<p style=""color:darkgreen;font-size:24px;"">Correct :)</p>","",""
"3169","key","v","v","16.665868421053318","500","250","psychophysics","257","3015114","0.0-257.0","5f29109240b4f4000bfd5a06","6213d240de1b61594b08e896","5","","","","","0","7"
"null","","","null","","","","html-keyboard-response","258","3015617","0.0-258.0","5f29109240b4f4000bfd5a06","6213d240de1b61594b08e896","","","","","<p style=""color:darkgreen;font-size:24px;"">Correct :)</p>","",""
"2462","key","n","n","16.6656756756758","500","250","psychophysics","259","3018086","0.0-259.0","5f29109240b4f4000bfd5a06","6213d240de1b61594b08e896","5","","","","","0","4"
"null","","","null","","","","html-keyboard-response","260","3018590","0.0-260.0","5f29109240b4f4000bfd5a06","6213d240de1b61594b08e896","","","","","<p style=""color:darkgreen;font-size:24px;"">Correct :)</p>","",""
"2420","key","n","n","16.666268965518423","500","250","psychophysics","261","3021017","0.0-261.0","5f29109240b4f4000bfd5a06","6213d240de1b61594b08e896","5","","","","","0","8"
"null","","","null","","","","html-keyboard-response","262","3021520","0.0-262.0","5f29109240b4f4000bfd5a06","6213d240de1b61594b08e896","","","","","<p style=""color:darkgreen;font-size:24px;"">Correct :)</p>","",""
"2553","key","n","n","16.665681818179642","500","250","psychophysics","263","3024079","0.0-263.0","5f29109240b4f4000bfd5a06","6213d240de1b61594b08e896","5","","","","","0","6"
"null","","","null","","","","html-keyboard-response","264","3024583","0.0-264.0","5f29109240b4f4000bfd5a06","6213d240de1b61594b08e896","","","","","<p style=""color:darkgreen;font-size:24px;"">Correct :)</p>","",""
"2345","key","n","n","16.665879432623875","500","250","psychophysics","265","3026935","0.0-265.0","5f29109240b4f4000bfd5a06","6213d240de1b61594b08e896","5","","","","","0","6"
"null","","","null","","","","html-keyboard-response","266","3027438","0.0-266.0","5f29109240b4f4000bfd5a06","6213d240de1b61594b08e896","","","","","<p style=""color:darkgreen;font-size:24px;"">Correct :)</p>","",""
"2380","key","n","n","16.66539860140024","500","250","psychophysics","267","3029826","0.0-267.0","5f29109240b4f4000bfd5a06","6213d240de1b61594b08e896","5","","","","","0","6"
"null","","","null","","","","html-keyboard-response","268","3030329","0.0-268.0","5f29109240b4f4000bfd5a06","6213d240de1b61594b08e896","","","","","<p style=""color:darkgreen;font-size:24px;"">Correct :)</p>","",""
"2383","key","n","n","16.665839160838118","500","250","psychophysics","269","3032719","0.0-269.0","5f29109240b4f4000bfd5a06","6213d240de1b61594b08e896","5","","","","","0","4"
"null","","","null","","","","html-keyboard-response","270","3033222","0.0-270.0","5f29109240b4f4000bfd5a06","6213d240de1b61594b08e896","","","","","<p style=""color:darkgreen;font-size:24px;"">Correct :)</p>","",""
"2478","key","v","v","16.6657114093967","500","250","psychophysics","271","3035707","0.0-271.0","5f29109240b4f4000bfd5a06","6213d240de1b61594b08e896","5","","","","","0","3"
"null","","","null","","","","html-keyboard-response","272","3036210","0.0-272.0","5f29109240b4f4000bfd5a06","6213d240de1b61594b08e896","","","","","<p style=""color:darkgreen;font-size:24px;"">Correct :)</p>","",""
"2577","key","v","v","16.665980645161003","500","250","psychophysics","273","3038794","0.0-273.0","5f29109240b4f4000bfd5a06","6213d240de1b61594b08e896","5","","","","","0","7"
"null","","","null","","","","html-keyboard-response","274","3039297","0.0-274.0","5f29109240b4f4000bfd5a06","6213d240de1b61594b08e896","","","","","<p style=""color:darkgreen;font-size:24px;"">Correct :)</p>","",""
"2582","key","v","v","16.665967741936086","500","250","psychophysics","275","3041886","0.0-275.0","5f29109240b4f4000bfd5a06","6213d240de1b61594b08e896","5","","","","","0","1"
"null","","","null","","","","html-keyboard-response","276","3042390","0.0-276.0","5f29109240b4f4000bfd5a06","6213d240de1b61594b08e896","","","","","<p style=""color:darkgreen;font-size:24px;"">Correct :)</p>","",""
"2502","key","n","n","16.665760000000397","500","250","psychophysics","277","3044900","0.0-277.0","5f29109240b4f4000bfd5a06","6213d240de1b61594b08e896","5","","","","","0","6"
"null","","","null","","","","html-keyboard-response","278","3045403","0.0-278.0","5f29109240b4f4000bfd5a06","6213d240de1b61594b08e896","","","","","<p style=""color:darkgreen;font-size:24px;"">Correct :)</p>","",""
"2622","key","n","n","16.665592356688776","500","250","psychophysics","279","3048036","0.0-279.0","5f29109240b4f4000bfd5a06","6213d240de1b61594b08e896","5","","","","","0","6"
"null","","","null","","","","html-keyboard-response","280","3048540","0.0-280.0","5f29109240b4f4000bfd5a06","6213d240de1b61594b08e896","","","","","<p style=""color:darkgreen;font-size:24px;"">Correct :)</p>","",""
"2497","key","n","n","16.66535333333537","500","250","psychophysics","281","3051045","0.0-281.0","5f29109240b4f4000bfd5a06","6213d240de1b61594b08e896","5","","","","","0","2"
"null","","","null","","","","html-keyboard-response","282","3051547","0.0-282.0","5f29109240b4f4000bfd5a06","6213d240de1b61594b08e896","","","","","<p style=""color:darkgreen;font-size:24px;"">Correct :)</p>","",""
"2737","key","v","v","16.665818181820214","500","250","psychophysics","283","3054291","0.0-283.0","5f29109240b4f4000bfd5a06","6213d240de1b61594b08e896","5","","","","","0","3"
"null","","","null","","","","html-keyboard-response","284","3054794","0.0-284.0","5f29109240b4f4000bfd5a06","6213d240de1b61594b08e896","","","","","<p style=""color:darkgreen;font-size:24px;"">Correct :)</p>","",""
"2856","key","v","v","16.665627906976137","500","250","psychophysics","285","3057657","0.0-285.0","5f29109240b4f4000bfd5a06","6213d240de1b61594b08e896","5","","","","","0","3"
"null","","","null","","","","html-keyboard-response","286","3058162","0.0-286.0","5f29109240b4f4000bfd5a06","6213d240de1b61594b08e896","","","","","<p style=""color:darkgreen;font-size:24px;"">Correct :)</p>","",""
"3782","key","v","v","16.66567841409562","500","250","psychophysics","287","3061952","0.0-287.0","5f29109240b4f4000bfd5a06","6213d240de1b61594b08e896","5","","","","","0","9"
"null","","","null","","","","html-keyboard-response","288","3062455","0.0-288.0","5f29109240b4f4000bfd5a06","6213d240de1b61594b08e896","","","","","<p style=""color:darkgreen;font-size:24px;"">Correct :)</p>","",""
"3110","key","v","v","16.665433155078897","500","250","psychophysics","289","3065572","0.0-289.0","5f29109240b4f4000bfd5a06","6213d240de1b61594b08e896","5","","","","","0","1"
"null","","","null","","","","html-keyboard-response","290","3066075","0.0-290.0","5f29109240b4f4000bfd5a06","6213d240de1b61594b08e896","","","","","<p style=""color:darkgreen;font-size:24px;"">Correct :)</p>","",""
"2583","key","n","n","16.665858974357924","500","250","psychophysics","291","3068673","0.0-291.0","5f29109240b4f4000bfd5a06","6213d240de1b61594b08e896","5","","","","","0","2"
"null","","","null","","","","html-keyboard-response","292","3069176","0.0-292.0","5f29109240b4f4000bfd5a06","6213d240de1b61594b08e896","","","","","<p style=""color:darkgreen;font-size:24px;"">Correct :)</p>","",""
"3305","key","v","v","16.66567839195849","500","250","psychophysics","293","3072489","0.0-293.0","5f29109240b4f4000bfd5a06","6213d240de1b61594b08e896","5","","","","","0","9"
"null","","","null","","","","html-keyboard-response","294","3072992","0.0-294.0","5f29109240b4f4000bfd5a06","6213d240de1b61594b08e896","","","","","<p style=""color:darkgreen;font-size:24px;"">Correct :)</p>","",""
"26039","","","v","","","","html-keyboard-response","295","3099032","0.0-295.0","5f29109240b4f4000bfd5a06","6213d240de1b61594b08e896","","","","","<p> Here, the tasks are going to switch.  For some trials, your job is to decide if the digit is less than or greater than 5.  For others, it is to decide if the digit is even or odd.  You will be told which type of trial the current one is.  But, pay attention, the type of trial changes too.  We are going to do 50 of these.  </p>  <br><br>  Ready? (press v or n)","",""
"2795","key","v","v","24.21092173913089","500","250","psychophysics","296","3101832","0.0-296.0","5f29109240b4f4000bfd5a06","6213d240de1b61594b08e896","6","","","","","0","1"
"null","","","null","","","","html-keyboard-response","297","3102336","0.0-297.0","5f29109240b4f4000bfd5a06","6213d240de1b61594b08e896","","","","","<p style=""color:darkgreen;font-size:24px;"">Correct :)</p>","",""
"2532","key","n","n","16.665598684211115","500","250","psychophysics","298","3104875","0.0-298.0","5f29109240b4f4000bfd5a06","6213d240de1b61594b08e896","6","","","","","0","4"
"null","","","null","","","","html-keyboard-response","299","3105378","0.0-299.0","5f29109240b4f4000bfd5a06","6213d240de1b61594b08e896","","","","","<p style=""color:darkgreen;font-size:24px;"">Correct :)</p>","",""
"3068","key","v","v","16.665881081079007","500","250","psychophysics","300","3108453","0.0-300.0","5f29109240b4f4000bfd5a06","6213d240de1b61594b08e896","6","","","","","1","1"
"null","","","null","","","","html-keyboard-response","301","3108957","0.0-301.0","5f29109240b4f4000bfd5a06","6213d240de1b61594b08e896","","","","","<p style=""color:darkgreen;font-size:24px;"">Correct :)</p>","",""
"2489","key","n","n","16.665766666665053","500","250","psychophysics","302","3111453","0.0-302.0","5f29109240b4f4000bfd5a06","6213d240de1b61594b08e896","6","","","","","1","8"
"null","","","null","","","","html-keyboard-response","303","3111957","0.0-303.0","5f29109240b4f4000bfd5a06","6213d240de1b61594b08e896","","","","","<p style=""color:darkgreen;font-size:24px;"">Correct :)</p>","",""
"2650","key","n","n","16.66589308176014","500","250","psychophysics","304","3114614","0.0-304.0","5f29109240b4f4000bfd5a06","6213d240de1b61594b08e896","6","","","","","0","2"
"null","","","null","","","","html-keyboard-response","305","3115116","0.0-305.0","5f29109240b4f4000bfd5a06","6213d240de1b61594b08e896","","","","","<p style=""color:darkgreen;font-size:24px;"">Correct :)</p>","",""
"2496","key","v","v","16.66551999999831","500","250","psychophysics","306","3117619","0.0-306.0","5f29109240b4f4000bfd5a06","6213d240de1b61594b08e896","6","","","","","0","3"
"null","","","null","","","","html-keyboard-response","307","3118122","0.0-307.0","5f29109240b4f4000bfd5a06","6213d240de1b61594b08e896","","","","","<p style=""color:darkgreen;font-size:24px;"">Correct :)</p>","",""
"2738","key","n","n","16.66578048780254","500","250","psychophysics","308","3120867","0.0-308.0","5f29109240b4f4000bfd5a06","6213d240de1b61594b08e896","6","","","","","1","6"
"null","","","null","","","","html-keyboard-response","309","3121370","0.0-309.0","5f29109240b4f4000bfd5a06","6213d240de1b61594b08e896","","","","","<p style=""color:darkgreen;font-size:24px;"">Correct :)</p>","",""
"2664","key","v","v","16.66575625000114","500","250","psychophysics","310","3124041","0.0-310.0","5f29109240b4f4000bfd5a06","6213d240de1b61594b08e896","6","","","","","0","3"
"null","","","null","","","","html-keyboard-response","311","3124544","0.0-311.0","5f29109240b4f4000bfd5a06","6213d240de1b61594b08e896","","","","","<p style=""color:darkgreen;font-size:24px;"">Correct :)</p>","",""
"3019","key","n","n","16.66560989010895","500","250","psychophysics","312","3127573","0.0-312.0","5f29109240b4f4000bfd5a06","6213d240de1b61594b08e896","6","","","","","1","8"
"null","","","null","","","","html-keyboard-response","313","3128077","0.0-313.0","5f29109240b4f4000bfd5a06","6213d240de1b61594b08e896","","","","","<p style=""color:darkgreen;font-size:24px;"">Correct :)</p>","",""
"3584","key","n","n","16.665833333332557","500","250","psychophysics","314","3131668","0.0-314.0","5f29109240b4f4000bfd5a06","6213d240de1b61594b08e896","6","","","","","1","8"
"null","","","null","","","","html-keyboard-response","315","3132171","0.0-315.0","5f29109240b4f4000bfd5a06","6213d240de1b61594b08e896","","","","","<p style=""color:darkgreen;font-size:24px;"">Correct :)</p>","",""
"3174","key","v","v","16.665905759162733","500","250","psychophysics","316","3135355","0.0-316.0","5f29109240b4f4000bfd5a06","6213d240de1b61594b08e896","6","","","","","1","3"
"null","","","null","","","","html-keyboard-response","317","3135858","0.0-317.0","5f29109240b4f4000bfd5a06","6213d240de1b61594b08e896","","","","","<p style=""color:darkgreen;font-size:24px;"">Correct :)</p>","",""
"2521","key","n","n","16.665605263156497","500","250","psychophysics","318","3138385","0.0-318.0","5f29109240b4f4000bfd5a06","6213d240de1b61594b08e896","6","","","","","1","7"
"null","","","null","","","","html-keyboard-response","319","3138888","0.0-319.0","5f29109240b4f4000bfd5a06","6213d240de1b61594b08e896","","","","","<p style=""color:darkgreen;font-size:24px;"">Correct :)</p>","",""
"2992","key","n","n","16.665766666666606","500","250","psychophysics","320","3141887","0.0-320.0","5f29109240b4f4000bfd5a06","6213d240de1b61594b08e896","6","","","","","0","4"
"null","","","null","","","","html-keyboard-response","321","3142390","0.0-321.0","5f29109240b4f4000bfd5a06","6213d240de1b61594b08e896","","","","","<p style=""color:darkgreen;font-size:24px;"">Correct :)</p>","",""
"3268","key","n","n","16.665867346937635","500","250","psychophysics","322","3145665","0.0-322.0","5f29109240b4f4000bfd5a06","6213d240de1b61594b08e896","6","","","","","0","4"
"null","","","null","","","","html-keyboard-response","323","3146169","0.0-323.0","5f29109240b4f4000bfd5a06","6213d240de1b61594b08e896","","","","","<p style=""color:darkgreen;font-size:24px;"">Correct :)</p>","",""
"3571","key","n","n","16.66545327102861","500","250","psychophysics","324","3149747","0.0-324.0","5f29109240b4f4000bfd5a06","6213d240de1b61594b08e896","6","","","","","0","8"
"null","","","null","","","","html-keyboard-response","325","3150250","0.0-325.0","5f29109240b4f4000bfd5a06","6213d240de1b61594b08e896","","","","","<p style=""color:darkgreen;font-size:24px;"">Correct :)</p>","",""
"2721","key","v","v","16.66583435582797","500","250","psychophysics","326","3152978","0.0-326.0","5f29109240b4f4000bfd5a06","6213d240de1b61594b08e896","6","","","","","1","3"
"null","","","null","","","","html-keyboard-response","327","3153481","0.0-327.0","5f29109240b4f4000bfd5a06","6213d240de1b61594b08e896","","","","","<p style=""color:darkgreen;font-size:24px;"">Correct :)</p>","",""
"2903","key","v","v","16.665856321840064","500","250","psychophysics","328","3156390","0.0-328.0","5f29109240b4f4000bfd5a06","6213d240de1b61594b08e896","6","","","","","0","1"
"null","","","null","","","","html-keyboard-response","329","3156893","0.0-329.0","5f29109240b4f4000bfd5a06","6213d240de1b61594b08e896","","","","","<p style=""color:darkgreen;font-size:24px;"">Correct :)</p>","",""
"2699","key","v","v","16.665533742333185","500","250","psychophysics","330","3159599","0.0-330.0","5f29109240b4f4000bfd5a06","6213d240de1b61594b08e896","6","","","","","0","9"
"null","","","null","","","","html-keyboard-response","331","3160102","0.0-331.0","5f29109240b4f4000bfd5a06","6213d240de1b61594b08e896","","","","","<p style=""color:darkgreen;font-size:24px;"">Correct :)</p>","",""
"2594","key","v","v","16.665871794872846","500","250","psychophysics","332","3162702","0.0-332.0","5f29109240b4f4000bfd5a06","6213d240de1b61594b08e896","6","","","","","0","1"
"null","","","null","","","","html-keyboard-response","333","3163205","0.0-333.0","5f29109240b4f4000bfd5a06","6213d240de1b61594b08e896","","","","","<p style=""color:darkgreen;font-size:24px;"">Correct :)</p>","",""
"2610","key","v","v","16.6658598726117","500","250","psychophysics","334","3165822","0.0-334.0","5f29109240b4f4000bfd5a06","6213d240de1b61594b08e896","6","","","","","0","9"
"null","","","null","","","","html-keyboard-response","335","3166325","0.0-335.0","5f29109240b4f4000bfd5a06","6213d240de1b61594b08e896","","","","","<p style=""color:darkgreen;font-size:24px;"">Correct :)</p>","",""
"2750","key","n","n","16.665656626505037","500","250","psychophysics","336","3169082","0.0-336.0","5f29109240b4f4000bfd5a06","6213d240de1b61594b08e896","6","","","","","0","6"
"null","","","null","","","","html-keyboard-response","337","3169584","0.0-337.0","5f29109240b4f4000bfd5a06","6213d240de1b61594b08e896","","","","","<p style=""color:darkgreen;font-size:24px;"">Correct :)</p>","",""
"2876","key","n","n","16.66579768786239","500","250","psychophysics","338","3172467","0.0-338.0","5f29109240b4f4000bfd5a06","6213d240de1b61594b08e896","6","","","","","1","7"
"null","","","null","","","","html-keyboard-response","339","3172970","0.0-339.0","5f29109240b4f4000bfd5a06","6213d240de1b61594b08e896","","","","","<p style=""color:darkgreen;font-size:24px;"">Correct :)</p>","",""
"2901","key","n","n","16.666051724138832","500","250","psychophysics","340","3175878","0.0-340.0","5f29109240b4f4000bfd5a06","6213d240de1b61594b08e896","6","","","","","0","2"
"null","","","null","","","","html-keyboard-response","341","3176383","0.0-341.0","5f29109240b4f4000bfd5a06","6213d240de1b61594b08e896","","","","","<p style=""color:darkgreen;font-size:24px;"">Correct :)</p>","",""
"2803","key","v","v","16.665422619048815","500","250","psychophysics","342","3179192","0.0-342.0","5f29109240b4f4000bfd5a06","6213d240de1b61594b08e896","6","","","","","0","9"
"null","","","null","","","","html-keyboard-response","343","3179697","0.0-343.0","5f29109240b4f4000bfd5a06","6213d240de1b61594b08e896","","","","","<p style=""color:darkgreen;font-size:24px;"">Correct :)</p>","",""
"2663","key","n","n","16.665668750001352","500","250","psychophysics","344","3182369","0.0-344.0","5f29109240b4f4000bfd5a06","6213d240de1b61594b08e896","6","","","","","0","6"
"null","","","null","","","","html-keyboard-response","345","3182872","0.0-345.0","5f29109240b4f4000bfd5a06","6213d240de1b61594b08e896","","","","","<p style=""color:darkgreen;font-size:24px;"">Correct :)</p>","",""
"3932","key","v","v","16.66572033898447","500","250","psychophysics","346","3186812","0.0-346.0","5f29109240b4f4000bfd5a06","6213d240de1b61594b08e896","6","","","","","1","4"
"null","","","null","","","","html-keyboard-response","347","3187316","0.0-347.0","5f29109240b4f4000bfd5a06","6213d240de1b61594b08e896","","","","","<p style=""color:darkgreen;font-size:24px;"">Correct :)</p>","",""
"2726","key","v","v","16.665567073170322","500","250","psychophysics","348","3190049","0.0-348.0","5f29109240b4f4000bfd5a06","6213d240de1b61594b08e896","6","","","","","0","1"
"null","","","null","","","","html-keyboard-response","349","3190552","0.0-349.0","5f29109240b4f4000bfd5a06","6213d240de1b61594b08e896","","","","","<p style=""color:darkgreen;font-size:24px;"">Correct :)</p>","",""
"2907","key","v","v","16.66572000000094","500","250","psychophysics","350","3193468","0.0-350.0","5f29109240b4f4000bfd5a06","6213d240de1b61594b08e896","6","","","","","1","1"
"null","","","null","","","","html-keyboard-response","351","3193970","0.0-351.0","5f29109240b4f4000bfd5a06","6213d240de1b61594b08e896","","","","","<p style=""color:darkgreen;font-size:24px;"">Correct :)</p>","",""
"2986","key","n","n","16.665377777778648","500","250","psychophysics","352","3196964","0.0-352.0","5f29109240b4f4000bfd5a06","6213d240de1b61594b08e896","6","","","","","0","8"
"null","","","null","","","","html-keyboard-response","353","3197466","0.0-353.0","5f29109240b4f4000bfd5a06","6213d240de1b61594b08e896","","","","","<p style=""color:darkgreen;font-size:24px;"">Correct :)</p>","",""
"2966","key","n","n","16.665528089888497","500","250","psychophysics","354","3200440","0.0-354.0","5f29109240b4f4000bfd5a06","6213d240de1b61594b08e896","6","","","","","0","4"
"null","","","null","","","","html-keyboard-response","355","3200943","0.0-355.0","5f29109240b4f4000bfd5a06","6213d240de1b61594b08e896","","","","","<p style=""color:darkgreen;font-size:24px;"">Correct :)</p>","",""
"3050","key","v","v","16.665972677596383","500","250","psychophysics","356","3204000","0.0-356.0","5f29109240b4f4000bfd5a06","6213d240de1b61594b08e896","6","","","","","0","9"
"null","","","null","","","","html-keyboard-response","357","3204503","0.0-357.0","5f29109240b4f4000bfd5a06","6213d240de1b61594b08e896","","","","","<p style=""color:darkgreen;font-size:24px;"">Correct :)</p>","",""
"3200","key","n","n","16.665635416667403","500","250","psychophysics","358","3207710","0.0-358.0","5f29109240b4f4000bfd5a06","6213d240de1b61594b08e896","6","","","","","1","9"
"null","","","null","","","","html-keyboard-response","359","3208214","0.0-359.0","5f29109240b4f4000bfd5a06","6213d240de1b61594b08e896","","","","","<p style=""color:darkgreen;font-size:24px;"">Correct :)</p>","",""
"3248","key","v","v","16.665841025641807","500","250","psychophysics","360","3211469","0.0-360.0","5f29109240b4f4000bfd5a06","6213d240de1b61594b08e896","6","","","","","0","3"
"null","","","null","","","","html-keyboard-response","361","3211972","0.0-361.0","5f29109240b4f4000bfd5a06","6213d240de1b61594b08e896","","","","","<p style=""color:darkgreen;font-size:24px;"">Correct :)</p>","",""
"3424","key","n","n","16.665815533979714","500","250","psychophysics","362","3215403","0.0-362.0","5f29109240b4f4000bfd5a06","6213d240de1b61594b08e896","6","","","","","1","6"
"null","","","null","","","","html-keyboard-response","363","3215906","0.0-363.0","5f29109240b4f4000bfd5a06","6213d240de1b61594b08e896","","","","","<p style=""color:darkgreen;font-size:24px;"">Correct :)</p>","",""
"2783","key","v","v","16.665839285714487","500","250","psychophysics","364","3218704","0.0-364.0","5f29109240b4f4000bfd5a06","6213d240de1b61594b08e896","6","","","","","1","3"
"null","","","null","","","","html-keyboard-response","365","3219207","0.0-365.0","5f29109240b4f4000bfd5a06","6213d240de1b61594b08e896","","","","","<p style=""color:darkgreen;font-size:24px;"">Correct :)</p>","",""
"2781","key","n","n","16.66561904761918","500","250","psychophysics","366","3221995","0.0-366.0","5f29109240b4f4000bfd5a06","6213d240de1b61594b08e896","6","","","","","0","2"
"null","","","null","","","","html-keyboard-response","367","3222497","0.0-367.0","5f29109240b4f4000bfd5a06","6213d240de1b61594b08e896","","","","","<p style=""color:darkgreen;font-size:24px;"">Correct :)</p>","",""
"3122","key","v","v","16.665775401069517","500","250","psychophysics","368","3225626","0.0-368.0","5f29109240b4f4000bfd5a06","6213d240de1b61594b08e896","6","","","","","1","4"
"null","","","null","","","","html-keyboard-response","369","3226130","0.0-369.0","5f29109240b4f4000bfd5a06","6213d240de1b61594b08e896","","","","","<p style=""color:darkgreen;font-size:24px;"">Correct :)</p>","",""
"2850","key","n","n","16.665713450291374","500","250","psychophysics","370","3228987","0.0-370.0","5f29109240b4f4000bfd5a06","6213d240de1b61594b08e896","6","","","","","0","2"
"null","","","null","","","","html-keyboard-response","371","3229490","0.0-371.0","5f29109240b4f4000bfd5a06","6213d240de1b61594b08e896","","","","","<p style=""color:darkgreen;font-size:24px;"">Correct :)</p>","",""
"3060","key","n","n","16.665733695652783","500","250","psychophysics","372","3232557","0.0-372.0","5f29109240b4f4000bfd5a06","6213d240de1b61594b08e896","6","","","","","1","7"
"null","","","null","","","","html-keyboard-response","373","3233059","0.0-373.0","5f29109240b4f4000bfd5a06","6213d240de1b61594b08e896","","","","","<p style=""color:darkgreen;font-size:24px;"">Correct :)</p>","",""
"2775","key","n","n","16.665771084335486","500","250","psychophysics","374","3235841","0.0-374.0","5f29109240b4f4000bfd5a06","6213d240de1b61594b08e896","6","","","","","0","4"
"null","","","null","","","","html-keyboard-response","375","3236345","0.0-375.0","5f29109240b4f4000bfd5a06","6213d240de1b61594b08e896","","","","","<p style=""color:darkgreen;font-size:24px;"">Correct :)</p>","",""
"2946","key","n","n","16.665768361582003","500","250","psychophysics","376","3239298","0.0-376.0","5f29109240b4f4000bfd5a06","6213d240de1b61594b08e896","6","","","","","1","7"
"null","","","null","","","","html-keyboard-response","377","3239801","0.0-377.0","5f29109240b4f4000bfd5a06","6213d240de1b61594b08e896","","","","","<p style=""color:darkgreen;font-size:24px;"">Correct :)</p>","",""
"3153","key","n","n","16.66564210526351","500","250","psychophysics","378","3242961","0.0-378.0","5f29109240b4f4000bfd5a06","6213d240de1b61594b08e896","6","","","","","1","6"
"null","","","null","","","","html-keyboard-response","379","3243464","0.0-379.0","5f29109240b4f4000bfd5a06","6213d240de1b61594b08e896","","","","","<p style=""color:darkgreen;font-size:24px;"">Correct :)</p>","",""
"3421","key","v","v","16.665595121952002","500","250","psychophysics","380","3246892","0.0-380.0","5f29109240b4f4000bfd5a06","6213d240de1b61594b08e896","6","","","","","0","3"
"null","","","null","","","","html-keyboard-response","381","3247396","0.0-381.0","5f29109240b4f4000bfd5a06","6213d240de1b61594b08e896","","","","","<p style=""color:darkgreen;font-size:24px;"">Correct :)</p>","",""
"3379","key","v","v","16.665482758620083","500","250","psychophysics","382","3250782","0.0-382.0","5f29109240b4f4000bfd5a06","6213d240de1b61594b08e896","6","","","","","1","4"
"null","","","null","","","","html-keyboard-response","383","3251287","0.0-383.0","5f29109240b4f4000bfd5a06","6213d240de1b61594b08e896","","","","","<p style=""color:darkgreen;font-size:24px;"">Correct :)</p>","",""
"2722","key","n","n","16.666207317072647","500","250","psychophysics","384","3254019","0.0-384.0","5f29109240b4f4000bfd5a06","6213d240de1b61594b08e896","6","","","","","1","7"
"null","","","null","","","","html-keyboard-response","385","3254522","0.0-385.0","5f29109240b4f4000bfd5a06","6213d240de1b61594b08e896","","","","","<p style=""color:darkgreen;font-size:24px;"">Correct :)</p>","",""
"2827","key","v","v","16.665576470588498","500","250","psychophysics","386","3257356","0.0-386.0","5f29109240b4f4000bfd5a06","6213d240de1b61594b08e896","6","","","","","0","7"
"null","","","null","","","","html-keyboard-response","387","3257860","0.0-387.0","5f29109240b4f4000bfd5a06","6213d240de1b61594b08e896","","","","","<p style=""color:darkgreen;font-size:24px;"">Correct :)</p>","",""
"3246","key","n","n","16.665871794872846","500","250","psychophysics","388","3261113","0.0-388.0","5f29109240b4f4000bfd5a06","6213d240de1b61594b08e896","6","","","","","1","6"
"null","","","null","","","","html-keyboard-response","389","3261616","0.0-389.0","5f29109240b4f4000bfd5a06","6213d240de1b61594b08e896","","","","","<p style=""color:darkgreen;font-size:24px;"">Correct :)</p>","",""
"2857","key","v","v","16.66581395348848","500","250","psychophysics","390","3264483","0.0-390.0","5f29109240b4f4000bfd5a06","6213d240de1b61594b08e896","6","","","","","1","4"
"null","","","null","","","","html-keyboard-response","391","3264987","0.0-391.0","5f29109240b4f4000bfd5a06","6213d240de1b61594b08e896","","","","","<p style=""color:darkgreen;font-size:24px;"">Correct :)</p>","",""
"2733","key","n","n","16.665975757575396","500","250","psychophysics","392","3267727","0.0-392.0","5f29109240b4f4000bfd5a06","6213d240de1b61594b08e896","6","","","","","0","4"
"null","","","null","","","","html-keyboard-response","393","3268229","0.0-393.0","5f29109240b4f4000bfd5a06","6213d240de1b61594b08e896","","","","","<p style=""color:darkgreen;font-size:24px;"">Correct :)</p>","",""
"2726","key","n","n","16.665329268293046","500","250","psychophysics","394","3270962","0.0-394.0","5f29109240b4f4000bfd5a06","6213d240de1b61594b08e896","6","","","","","0","2"
"null","","","null","","","","html-keyboard-response","395","3271465","0.0-395.0","5f29109240b4f4000bfd5a06","6213d240de1b61594b08e896","","","","","<p style=""color:darkgreen;font-size:24px;"">Correct :)</p>","",""
"3096","","","v","","","","html-keyboard-response","396","3274562","0.0-396.0","5f29109240b4f4000bfd5a06","6213d240de1b61594b08e896","","","","","<p> Last set of trials.  Here, the tasks are going to switch once again.  We are going to do 50 of these.  And then you are done with the experiment.  </p>  <br><br>  Ready? (press v or n)","",""
"2658","key","v","v","16.66640625","500","250","psychophysics","397","3277227","0.0-397.0","5f29109240b4f4000bfd5a06","6213d240de1b61594b08e896","7","","","","","1","1"
"null","","","null","","","","html-keyboard-response","398","3277730","0.0-398.0","5f29109240b4f4000bfd5a06","6213d240de1b61594b08e896","","","","","<p style=""color:darkgreen;font-size:24px;"">Correct :)</p>","",""
"2888","key","n","n","16.665948275862068","500","250","psychophysics","399","3280626","0.0-399.0","5f29109240b4f4000bfd5a06","6213d240de1b61594b08e896","7","","","","","1","7"
"null","","","null","","","","html-keyboard-response","400","3281128","0.0-400.0","5f29109240b4f4000bfd5a06","6213d240de1b61594b08e896","","","","","<p style=""color:darkgreen;font-size:24px;"">Correct :)</p>","",""
"2821","key","n","n","16.66590532544482","500","250","psychophysics","401","3283956","0.0-401.0","5f29109240b4f4000bfd5a06","6213d240de1b61594b08e896","7","","","","","0","4"
"null","","","null","","","","html-keyboard-response","402","3284460","0.0-402.0","5f29109240b4f4000bfd5a06","6213d240de1b61594b08e896","","","","","<p style=""color:darkgreen;font-size:24px;"">Correct :)</p>","",""
"2766","key","n","n","16.665602409637096","500","250","psychophysics","403","3287236","0.0-403.0","5f29109240b4f4000bfd5a06","6213d240de1b61594b08e896","7","","","","","1","7"
"null","","","null","","","","html-keyboard-response","404","3287739","0.0-404.0","5f29109240b4f4000bfd5a06","6213d240de1b61594b08e896","","","","","<p style=""color:darkgreen;font-size:24px;"">Correct :)</p>","",""
"2910","key","v","v","16.665752873563303","500","250","psychophysics","405","3290656","0.0-405.0","5f29109240b4f4000bfd5a06","6213d240de1b61594b08e896","7","","","","","0","1"
"null","","","null","","","","html-keyboard-response","406","3291159","0.0-406.0","5f29109240b4f4000bfd5a06","6213d240de1b61594b08e896","","","","","<p style=""color:darkgreen;font-size:24px;"">Correct :)</p>","",""
"2988","key","v","v","16.665832402236635","500","250","psychophysics","407","3294155","0.0-407.0","5f29109240b4f4000bfd5a06","6213d240de1b61594b08e896","7","","","","","0","1"
"null","","","null","","","","html-keyboard-response","408","3294660","0.0-408.0","5f29109240b4f4000bfd5a06","6213d240de1b61594b08e896","","","","","<p style=""color:darkgreen;font-size:24px;"">Correct :)</p>","",""
"2693","key","v","v","16.665962962962595","500","250","psychophysics","409","3297359","0.0-409.0","5f29109240b4f4000bfd5a06","6213d240de1b61594b08e896","7","","","","","0","3"
"null","","","null","","","","html-keyboard-response","410","3297862","0.0-410.0","5f29109240b4f4000bfd5a06","6213d240de1b61594b08e896","","","","","<p style=""color:darkgreen;font-size:24px;"">Correct :)</p>","",""
"2870","key","n","n","16.665809248552545","500","250","psychophysics","411","3300744","0.0-411.0","5f29109240b4f4000bfd5a06","6213d240de1b61594b08e896","7","","","","","1","6"
"null","","","null","","","","html-keyboard-response","412","3301246","0.0-412.0","5f29109240b4f4000bfd5a06","6213d240de1b61594b08e896","","","","","<p style=""color:darkgreen;font-size:24px;"">Correct :)</p>","",""
"4371","key","v","v","16.665517110266006","500","250","psychophysics","413","3305624","0.0-413.0","5f29109240b4f4000bfd5a06","6213d240de1b61594b08e896","7","","","","","0","1"
"null","","","null","","","","html-keyboard-response","414","3306127","0.0-414.0","5f29109240b4f4000bfd5a06","6213d240de1b61594b08e896","","","","","<p style=""color:darkgreen;font-size:24px;"">Correct :)</p>","",""
"3025","key","n","n","16.66580769230847","500","250","psychophysics","415","3309158","0.0-415.0","5f29109240b4f4000bfd5a06","6213d240de1b61594b08e896","7","","","","","0","6"
"null","","","null","","","","html-keyboard-response","416","3309661","0.0-416.0","5f29109240b4f4000bfd5a06","6213d240de1b61594b08e896","","","","","<p style=""color:darkgreen;font-size:24px;"">Correct :)</p>","",""
"2968","key","v","v","16.665536312849454","500","250","psychophysics","417","3312643","0.0-417.0","5f29109240b4f4000bfd5a06","6213d240de1b61594b08e896","7","","","","","1","2"
"null","","","null","","","","html-keyboard-response","418","3313146","0.0-418.0","5f29109240b4f4000bfd5a06","6213d240de1b61594b08e896","","","","","<p style=""color:darkgreen;font-size:24px;"">Correct :)</p>","",""
"3204","key","n","n","16.66590155440339","500","250","psychophysics","419","3316358","0.0-419.0","5f29109240b4f4000bfd5a06","6213d240de1b61594b08e896","7","","","","","1","7"
"null","","","null","","","","html-keyboard-response","420","3316861","0.0-420.0","5f29109240b4f4000bfd5a06","6213d240de1b61594b08e896","","","","","<p style=""color:darkgreen;font-size:24px;"">Correct :)</p>","",""
"2802","key","v","v","16.665952380951715","500","250","psychophysics","421","3319669","0.0-421.0","5f29109240b4f4000bfd5a06","6213d240de1b61594b08e896","7","","","","","1","2"
"null","","","null","","","","html-keyboard-response","422","3320173","0.0-422.0","5f29109240b4f4000bfd5a06","6213d240de1b61594b08e896","","","","","<p style=""color:darkgreen;font-size:24px;"">Correct :)</p>","",""
"3079","key","v","v","16.665799999999738","500","250","psychophysics","423","3323259","0.0-423.0","5f29109240b4f4000bfd5a06","6213d240de1b61594b08e896","7","","","","","0","7"
"null","","","null","","","","html-keyboard-response","424","3323762","0.0-424.0","5f29109240b4f4000bfd5a06","6213d240de1b61594b08e896","","","","","<p style=""color:darkgreen;font-size:24px;"">Correct :)</p>","",""
"2990","key","v","v","16.66543333333296","500","250","psychophysics","425","3326759","0.0-425.0","5f29109240b4f4000bfd5a06","6213d240de1b61594b08e896","7","","","","","0","1"
"null","","","null","","","","html-keyboard-response","426","3327262","0.0-426.0","5f29109240b4f4000bfd5a06","6213d240de1b61594b08e896","","","","","<p style=""color:darkgreen;font-size:24px;"">Correct :)</p>","",""
"3154","key","n","n","16.665647368422267","500","250","psychophysics","427","3330424","0.0-427.0","5f29109240b4f4000bfd5a06","6213d240de1b61594b08e896","7","","","","","0","6"
"null","","","null","","","","html-keyboard-response","428","3330927","0.0-428.0","5f29109240b4f4000bfd5a06","6213d240de1b61594b08e896","","","","","<p style=""color:darkgreen;font-size:24px;"">Correct :)</p>","",""
"2859","key","v","v","16.66576744186107","500","250","psychophysics","429","3333793","0.0-429.0","5f29109240b4f4000bfd5a06","6213d240de1b61594b08e896","7","","","","","0","3"
"null","","","null","","","","html-keyboard-response","430","3334296","0.0-430.0","5f29109240b4f4000bfd5a06","6213d240de1b61594b08e896","","","","","<p style=""color:darkgreen;font-size:24px;"">Correct :)</p>","",""
"2573","key","n","n","16.66567741935592","500","250","psychophysics","431","3336879","0.0-431.0","5f29109240b4f4000bfd5a06","6213d240de1b61594b08e896","7","","","","","1","4"
"null","","","null","","","","html-keyboard-response","432","3337381","0.0-432.0","5f29109240b4f4000bfd5a06","6213d240de1b61594b08e896","","","","","<p style=""color:red;font-size:24px;"">Error :(</p>","",""
"2723","key","v","v","16.665774390243403","500","250","psychophysics","433","3340112","0.0-433.0","5f29109240b4f4000bfd5a06","6213d240de1b61594b08e896","7","","","","","1","4"
"null","","","null","","","","html-keyboard-response","434","3340615","0.0-434.0","5f29109240b4f4000bfd5a06","6213d240de1b61594b08e896","","","","","<p style=""color:darkgreen;font-size:24px;"">Correct :)</p>","",""
"2862","key","v","v","16.665686046509723","500","250","psychophysics","435","3343483","0.0-435.0","5f29109240b4f4000bfd5a06","6213d240de1b61594b08e896","7","","","","","0","3"
"null","","","null","","","","html-keyboard-response","436","3343986","0.0-436.0","5f29109240b4f4000bfd5a06","6213d240de1b61594b08e896","","","","","<p style=""color:darkgreen;font-size:24px;"">Correct :)</p>","",""
"2802","key","n","n","16.66601190476268","500","250","psychophysics","437","3346796","0.0-437.0","5f29109240b4f4000bfd5a06","6213d240de1b61594b08e896","7","","","","","1","6"
"null","","","null","","","","html-keyboard-response","438","3347299","0.0-438.0","5f29109240b4f4000bfd5a06","6213d240de1b61594b08e896","","","","","<p style=""color:darkgreen;font-size:24px;"">Correct :)</p>","",""
"2628","key","v","v","16.665765822782546","500","250","psychophysics","439","3349934","0.0-439.0","5f29109240b4f4000bfd5a06","6213d240de1b61594b08e896","7","","","","","0","3"
"null","","","null","","","","html-keyboard-response","440","3350437","0.0-440.0","5f29109240b4f4000bfd5a06","6213d240de1b61594b08e896","","","","","<p style=""color:darkgreen;font-size:24px;"">Correct :)</p>","",""
"2813","key","v","v","16.665721893492403","500","250","psychophysics","441","3353257","0.0-441.0","5f29109240b4f4000bfd5a06","6213d240de1b61594b08e896","7","","","","","0","1"
"null","","","null","","","","html-keyboard-response","442","3353760","0.0-442.0","5f29109240b4f4000bfd5a06","6213d240de1b61594b08e896","","","","","<p style=""color:darkgreen;font-size:24px;"">Correct :)</p>","",""
"2732","key","n","n","16.66582926829266","500","250","psychophysics","443","3356498","0.0-443.0","5f29109240b4f4000bfd5a06","6213d240de1b61594b08e896","7","","","","","0","4"
"null","","","null","","","","html-keyboard-response","444","3357000","0.0-444.0","5f29109240b4f4000bfd5a06","6213d240de1b61594b08e896","","","","","<p style=""color:darkgreen;font-size:24px;"">Correct :)</p>","",""
"3086","key","v","v","16.665545945944316","500","250","psychophysics","445","3360094","0.0-445.0","5f29109240b4f4000bfd5a06","6213d240de1b61594b08e896","7","","","","","1","4"
"null","","","null","","","","html-keyboard-response","446","3360596","0.0-446.0","5f29109240b4f4000bfd5a06","6213d240de1b61594b08e896","","","","","<p style=""color:darkgreen;font-size:24px;"">Correct :)</p>","",""
"2943","key","v","v","16.66565536723162","500","250","psychophysics","447","3363546","0.0-447.0","5f29109240b4f4000bfd5a06","6213d240de1b61594b08e896","7","","","","","0","3"
"null","","","null","","","","html-keyboard-response","448","3364049","0.0-448.0","5f29109240b4f4000bfd5a06","6213d240de1b61594b08e896","","","","","<p style=""color:darkgreen;font-size:24px;"">Correct :)</p>","",""
"3383","key","n","n","16.665709359605746","500","250","psychophysics","449","3367442","0.0-449.0","5f29109240b4f4000bfd5a06","6213d240de1b61594b08e896","7","","","","","1","7"
"null","","","null","","","","html-keyboard-response","450","3367945","0.0-450.0","5f29109240b4f4000bfd5a06","6213d240de1b61594b08e896","","","","","<p style=""color:darkgreen;font-size:24px;"">Correct :)</p>","",""
"2960","key","v","v","16.665831460675037","500","250","psychophysics","451","3370913","0.0-451.0","5f29109240b4f4000bfd5a06","6213d240de1b61594b08e896","7","","","","","1","4"
"null","","","null","","","","html-keyboard-response","452","3371415","0.0-452.0","5f29109240b4f4000bfd5a06","6213d240de1b61594b08e896","","","","","<p style=""color:darkgreen;font-size:24px;"">Correct :)</p>","",""
"3125","key","v","v","16.66560106382933","500","250","psychophysics","453","3374547","0.0-453.0","5f29109240b4f4000bfd5a06","6213d240de1b61594b08e896","7","","","","","1","1"
"null","","","null","","","","html-keyboard-response","454","3375051","0.0-454.0","5f29109240b4f4000bfd5a06","6213d240de1b61594b08e896","","","","","<p style=""color:darkgreen;font-size:24px;"">Correct :)</p>","",""
"2866","key","v","v","16.665843023255274","500","250","psychophysics","455","3377924","0.0-455.0","5f29109240b4f4000bfd5a06","6213d240de1b61594b08e896","7","","","","","1","3"
"null","","","null","","","","html-keyboard-response","456","3378428","0.0-456.0","5f29109240b4f4000bfd5a06","6213d240de1b61594b08e896","","","","","<p style=""color:darkgreen;font-size:24px;"">Correct :)</p>","",""
"2612","key","v","v","16.666121019106832","500","250","psychophysics","457","3381047","0.0-457.0","5f29109240b4f4000bfd5a06","6213d240de1b61594b08e896","7","","","","","1","1"
"null","","","null","","","","html-keyboard-response","458","3381550","0.0-458.0","5f29109240b4f4000bfd5a06","6213d240de1b61594b08e896","","","","","<p style=""color:darkgreen;font-size:24px;"">Correct :)</p>","",""
"2804","key","n","n","16.6659642857128","500","250","psychophysics","459","3384361","0.0-459.0","5f29109240b4f4000bfd5a06","6213d240de1b61594b08e896","7","","","","","1","6"
"null","","","null","","","","html-keyboard-response","460","3384863","0.0-460.0","5f29109240b4f4000bfd5a06","6213d240de1b61594b08e896","","","","","<p style=""color:darkgreen;font-size:24px;"">Correct :)</p>","",""
"2494","key","n","n","16.665946666666617","500","250","psychophysics","461","3387364","0.0-461.0","5f29109240b4f4000bfd5a06","6213d240de1b61594b08e896","7","","","","","0","6"
"null","","","null","","","","html-keyboard-response","462","3387867","0.0-462.0","5f29109240b4f4000bfd5a06","6213d240de1b61594b08e896","","","","","<p style=""color:darkgreen;font-size:24px;"">Correct :)</p>","",""
"2701","key","v","v","16.66548765432032","500","250","psychophysics","463","3390575","0.0-463.0","5f29109240b4f4000bfd5a06","6213d240de1b61594b08e896","7","","","","","0","3"
"null","","","null","","","","html-keyboard-response","464","3391078","0.0-464.0","5f29109240b4f4000bfd5a06","6213d240de1b61594b08e896","","","","","<p style=""color:darkgreen;font-size:24px;"">Correct :)</p>","",""
"2967","key","v","v","16.665642458100038","500","250","psychophysics","465","3394052","0.0-465.0","5f29109240b4f4000bfd5a06","6213d240de1b61594b08e896","7","","","","","1","4"
"null","","","null","","","","html-keyboard-response","466","3394554","0.0-466.0","5f29109240b4f4000bfd5a06","6213d240de1b61594b08e896","","","","","<p style=""color:darkgreen;font-size:24px;"">Correct :)</p>","",""
"2864","key","v","v","16.66598837209465","500","250","psychophysics","467","3397425","0.0-467.0","5f29109240b4f4000bfd5a06","6213d240de1b61594b08e896","7","","","","","1","2"
"null","","","null","","","","html-keyboard-response","468","3397927","0.0-468.0","5f29109240b4f4000bfd5a06","6213d240de1b61594b08e896","","","","","<p style=""color:darkgreen;font-size:24px;"">Correct :)</p>","",""
"3287","key","n","n","16.66577777777789","500","250","psychophysics","469","3401221","0.0-469.0","5f29109240b4f4000bfd5a06","6213d240de1b61594b08e896","7","","","","","1","6"
"null","","","null","","","","html-keyboard-response","470","3401725","0.0-470.0","5f29109240b4f4000bfd5a06","6213d240de1b61594b08e896","","","","","<p style=""color:darkgreen;font-size:24px;"">Correct :)</p>","",""
"2736","key","v","v","16.665745454544034","500","250","psychophysics","471","3404468","0.0-471.0","5f29109240b4f4000bfd5a06","6213d240de1b61594b08e896","7","","","","","1","2"
"null","","","null","","","","html-keyboard-response","472","3404971","0.0-472.0","5f29109240b4f4000bfd5a06","6213d240de1b61594b08e896","","","","","<p style=""color:darkgreen;font-size:24px;"">Correct :)</p>","",""
"2589","key","n","n","16.665717948717663","500","250","psychophysics","473","3407567","0.0-473.0","5f29109240b4f4000bfd5a06","6213d240de1b61594b08e896","7","","","","","0","4"
"null","","","null","","","","html-keyboard-response","474","3408071","0.0-474.0","5f29109240b4f4000bfd5a06","6213d240de1b61594b08e896","","","","","<p style=""color:darkgreen;font-size:24px;"">Correct :)</p>","",""
"2609","key","n","n","16.665840764331282","500","250","psychophysics","475","3410687","0.0-475.0","5f29109240b4f4000bfd5a06","6213d240de1b61594b08e896","7","","","","","0","2"
"null","","","null","","","","html-keyboard-response","476","3411189","0.0-476.0","5f29109240b4f4000bfd5a06","6213d240de1b61594b08e896","","","","","<p style=""color:darkgreen;font-size:24px;"">Correct :)</p>","",""
"2514","key","n","n","16.776920000001166","500","250","psychophysics","477","3413711","0.0-477.0","5f29109240b4f4000bfd5a06","6213d240de1b61594b08e896","7","","","","","0","6"
"null","","","null","","","","html-keyboard-response","478","3414215","0.0-478.0","5f29109240b4f4000bfd5a06","6213d240de1b61594b08e896","","","","","<p style=""color:darkgreen;font-size:24px;"">Correct :)</p>","",""
"2629","key","v","v","16.665398734176673","500","250","psychophysics","479","3416851","0.0-479.0","5f29109240b4f4000bfd5a06","6213d240de1b61594b08e896","7","","","","","1","1"
"null","","","null","","","","html-keyboard-response","480","3417354","0.0-480.0","5f29109240b4f4000bfd5a06","6213d240de1b61594b08e896","","","","","<p style=""color:darkgreen;font-size:24px;"">Correct :)</p>","",""
"2787","key","n","n","16.66552095808379","500","250","psychophysics","481","3420148","0.0-481.0","5f29109240b4f4000bfd5a06","6213d240de1b61594b08e896","7","","","","","1","6"
"null","","","null","","","","html-keyboard-response","482","3420651","0.0-482.0","5f29109240b4f4000bfd5a06","6213d240de1b61594b08e896","","","","","<p style=""color:darkgreen;font-size:24px;"">Correct :)</p>","",""
"3009","key","n","n","16.66554696132424","500","250","psychophysics","483","3423667","0.0-483.0","5f29109240b4f4000bfd5a06","6213d240de1b61594b08e896","7","","","","","0","2"
"null","","","null","","","","html-keyboard-response","484","3424170","0.0-484.0","5f29109240b4f4000bfd5a06","6213d240de1b61594b08e896","","","","","<p style=""color:darkgreen;font-size:24px;"">Correct :)</p>","",""
"2847","key","n","n","16.66580116959038","500","250","psychophysics","485","3427025","0.0-485.0","5f29109240b4f4000bfd5a06","6213d240de1b61594b08e896","7","","","","","1","6"
"null","","","null","","","","html-keyboard-response","486","3427528","0.0-486.0","5f29109240b4f4000bfd5a06","6213d240de1b61594b08e896","","","","","<p style=""color:darkgreen;font-size:24px;"">Correct :)</p>","",""
"2488","key","n","n","16.666046666667487","500","250","psychophysics","487","3430022","0.0-487.0","5f29109240b4f4000bfd5a06","6213d240de1b61594b08e896","7","","","","","1","6"
"null","","","null","","","","html-keyboard-response","488","3430527","0.0-488.0","5f29109240b4f4000bfd5a06","6213d240de1b61594b08e896","","","","","<p style=""color:darkgreen;font-size:24px;"">Correct :)</p>","",""
"2936","key","n","n","16.665836158192764","500","250","psychophysics","489","3433469","0.0-489.0","5f29109240b4f4000bfd5a06","6213d240de1b61594b08e896","7","","","","","1","6"
"null","","","null","","","","html-keyboard-response","490","3433972","0.0-490.0","5f29109240b4f4000bfd5a06","6213d240de1b61594b08e896","","","","","<p style=""color:darkgreen;font-size:24px;"">Correct :)</p>","",""
"3686","key","v","v","16.66577477477541","500","250","psychophysics","491","3437666","0.0-491.0","5f29109240b4f4000bfd5a06","6213d240de1b61594b08e896","7","","","","","1","2"
"null","","","null","","","","html-keyboard-response","492","3438169","0.0-492.0","5f29109240b4f4000bfd5a06","6213d240de1b61594b08e896","","","","","<p style=""color:darkgreen;font-size:24px;"">Correct :)</p>","",""
"2902","key","v","v","16.665522988505618","500","250","psychophysics","493","3441077","0.0-493.0","5f29109240b4f4000bfd5a06","6213d240de1b61594b08e896","7","","","","","0","1"
"null","","","null","","","","html-keyboard-response","494","3441580","0.0-494.0","5f29109240b4f4000bfd5a06","6213d240de1b61594b08e896","","","","","<p style=""color:darkgreen;font-size:24px;"">Correct :)</p>","",""
"2682","key","n","n","16.665931677020602","500","250","psychophysics","495","3444269","0.0-495.0","5f29109240b4f4000bfd5a06","6213d240de1b61594b08e896","7","","","","","0","4"
"null","","","null","","","","html-keyboard-response","496","3444771","0.0-496.0","5f29109240b4f4000bfd5a06","6213d240de1b61594b08e896","","","","","<p style=""color:darkgreen;font-size:24px;"">Correct :)</p>","",""
