"rt","response_type","key_press","response","avg_frame_time","center_x","center_y","trial_type","trial_index","time_elapsed","internal_node_id","pid","sid","phase","guide","targ","resp","stimulus","is5","stim"
"11898","key"," "," ","19.79829240710824","500","250","psychophysics","0","12248","0.0-0.0","5db222231ff7b4000ab2cfc1","6213ccb4740b1a5bbcd4e864","","","","","","",""
"2125","key"," "," ","23.994340909090894","500","250","psychophysics","1","14376","0.0-1.0","5db222231ff7b4000ab2cfc1","6213ccb4740b1a5bbcd4e864","","","","","","",""
"2708","key"," "," ","16.729267080745345","500","250","psychophysics","2","17087","0.0-2.0","5db222231ff7b4000ab2cfc1","6213ccb4740b1a5bbcd4e864","","","","","","",""
"1548","key"," "," ","16.626000000000005","500","250","psychophysics","3","18637","0.0-3.0","5db222231ff7b4000ab2cfc1","6213ccb4740b1a5bbcd4e864","","","","","","",""
"2206","key"," "," ","16.626000000000012","500","250","psychophysics","4","20847","0.0-4.0","5db222231ff7b4000ab2cfc1","6213ccb4740b1a5bbcd4e864","","","","","","",""
"1766","key"," "," ","16.63445714285713","500","250","psychophysics","5","22616","0.0-5.0","5db222231ff7b4000ab2cfc1","6213ccb4740b1a5bbcd4e864","","","","","","",""
"5083","key"," "," ","16.626","500","250","psychophysics","6","27702","0.0-6.0","5db222231ff7b4000ab2cfc1","6213ccb4740b1a5bbcd4e864","","","","","","",""
"4248","key"," "," ","16.629482352941178","500","250","psychophysics","7","31952","0.0-7.0","5db222231ff7b4000ab2cfc1","6213ccb4740b1a5bbcd4e864","","","","","","",""
"10204","key"," "," ","16.627450244698206","500","250","psychophysics","8","42163","0.0-8.0","5db222231ff7b4000ab2cfc1","6213ccb4740b1a5bbcd4e864","0","0","49","17","","",""
"5944","key"," "," ","16.62599999999999","500","250","psychophysics","9","48112","0.0-9.0","5db222231ff7b4000ab2cfc1","6213ccb4740b1a5bbcd4e864","","","","","","",""
"3780","key"," "," ","16.853668161434953","500","250","psychophysics","10","51897","0.0-10.0","5db222231ff7b4000ab2cfc1","6213ccb4740b1a5bbcd4e864","","","","","","",""
"2138","key"," "," ","16.889904761904738","500","250","psychophysics","11","54040","0.0-11.0","5db222231ff7b4000ab2cfc1","6213ccb4740b1a5bbcd4e864","","","","","","",""
"5504","key"," "," ","16.625999999999994","500","250","psychophysics","12","59551","0.0-12.0","5db222231ff7b4000ab2cfc1","6213ccb4740b1a5bbcd4e864","","","","","","",""
"2464","key"," "," ","16.632238095238083","500","250","psychophysics","13","62020","0.0-13.0","5db222231ff7b4000ab2cfc1","6213ccb4740b1a5bbcd4e864","","","","","","",""
"3302","key"," "," ","16.88178461538456","500","250","psychophysics","14","65324","0.0-14.0","5db222231ff7b4000ab2cfc1","6213ccb4740b1a5bbcd4e864","","","","","","",""
"3478","key"," "," ","16.625999999999994","500","250","psychophysics","15","68804","0.0-15.0","5db222231ff7b4000ab2cfc1","6213ccb4740b1a5bbcd4e864","","","","","","",""
"3336","key"," "," ","16.63029499999997","500","250","psychophysics","16","72141","0.0-16.0","5db222231ff7b4000ab2cfc1","6213ccb4740b1a5bbcd4e864","","","","","","",""
"13946","key"," "," ","16.746962740384614","500","250","psychophysics","17","86091","0.0-17.0","5db222231ff7b4000ab2cfc1","6213ccb4740b1a5bbcd4e864","1","0","58","107","","",""
"8361","key"," "," ","16.627980079681272","500","250","psychophysics","18","94454","0.0-18.0","5db222231ff7b4000ab2cfc1","6213ccb4740b1a5bbcd4e864","1","5","53","51","","",""
"7428","key"," "," ","16.6633617977528","500","250","psychophysics","19","101884","0.0-19.0","5db222231ff7b4000ab2cfc1","6213ccb4740b1a5bbcd4e864","1","0","27","69","","",""
"4608","key"," "," ","16.812036630036637","500","250","psychophysics","20","106494","0.0-20.0","5db222231ff7b4000ab2cfc1","6213ccb4740b1a5bbcd4e864","1","5","33","46","","",""
"4938","key"," "," ","16.62600000000001","500","250","psychophysics","21","111435","0.0-21.0","5db222231ff7b4000ab2cfc1","6213ccb4740b1a5bbcd4e864","1","0","20","49","","",""
"3071","key"," "," ","16.72160655737707","500","250","psychophysics","22","114509","0.0-22.0","5db222231ff7b4000ab2cfc1","6213ccb4740b1a5bbcd4e864","1","5","29","33","","",""
"11956","key"," "," ","16.862081920903965","500","250","psychophysics","23","126467","0.0-23.0","5db222231ff7b4000ab2cfc1","6213ccb4740b1a5bbcd4e864","1","0","60","136","","",""
"3284","key"," "," ","16.626","500","250","psychophysics","24","129753","0.0-24.0","5db222231ff7b4000ab2cfc1","6213ccb4740b1a5bbcd4e864","1","5","23","34","","",""
"11120","key"," "," ","16.627333832335342","500","250","psychophysics","25","140875","0.0-25.0","5db222231ff7b4000ab2cfc1","6213ccb4740b1a5bbcd4e864","1","0","38","119","","",""
"4336","key"," "," ","16.629407692307723","500","250","psychophysics","26","145213","0.0-26.0","5db222231ff7b4000ab2cfc1","6213ccb4740b1a5bbcd4e864","1","5","28","47","","",""
"8878","key"," "," ","16.627664165103212","500","250","psychophysics","27","154093","0.0-27.0","5db222231ff7b4000ab2cfc1","6213ccb4740b1a5bbcd4e864","1","0","43","102","","",""
"5885","key"," "," ","16.62600000000001","500","250","psychophysics","28","159980","0.0-28.0","5db222231ff7b4000ab2cfc1","6213ccb4740b1a5bbcd4e864","1","5","60","66","","",""
"7894","key"," "," ","16.66302748414375","500","250","psychophysics","29","167877","0.0-29.0","5db222231ff7b4000ab2cfc1","6213ccb4740b1a5bbcd4e864","1","0","28","92","","",""
"4520","key"," "," ","16.62600000000003","500","250","psychophysics","30","172399","0.0-30.0","5db222231ff7b4000ab2cfc1","6213ccb4740b1a5bbcd4e864","1","5","33","49","","",""
"12225","key"," "," ","16.62842098092643","500","250","psychophysics","31","184626","0.0-31.0","5db222231ff7b4000ab2cfc1","6213ccb4740b1a5bbcd4e864","1","0","60","144","","",""
"3863","key"," "," ","16.62599999999995","500","250","psychophysics","32","188491","0.0-32.0","5db222231ff7b4000ab2cfc1","6213ccb4740b1a5bbcd4e864","1","5","39","46","","",""
"7198","key"," "," ","16.66670301624134","500","250","psychophysics","33","195691","0.0-33.0","5db222231ff7b4000ab2cfc1","6213ccb4740b1a5bbcd4e864","1","0","35","87","","",""
"3260","key"," "," ","16.626000000000037","500","250","psychophysics","34","198955","0.0-34.0","5db222231ff7b4000ab2cfc1","6213ccb4740b1a5bbcd4e864","1","5","25","38","","",""
"9461","key"," "," ","16.62751760563384","500","250","psychophysics","35","208418","0.0-35.0","5db222231ff7b4000ab2cfc1","6213ccb4740b1a5bbcd4e864","1","0","49","114","","",""
"4718","key"," "," ","16.625999999999983","500","250","psychophysics","36","213138","0.0-36.0","5db222231ff7b4000ab2cfc1","6213ccb4740b1a5bbcd4e864","1","5","43","55","","",""
"2991","key"," "," ","16.630949720670404","500","250","psychophysics","37","216131","0.0-37.0","5db222231ff7b4000ab2cfc1","6213ccb4740b1a5bbcd4e864","","","","","","",""
"5099","key"," "," ","16.62599999999994","500","250","psychophysics","38","221232","0.0-38.0","5db222231ff7b4000ab2cfc1","6213ccb4740b1a5bbcd4e864","","","","","","",""
"1667","key"," "," ","16.625999999999873","500","250","psychophysics","39","222902","0.0-39.0","5db222231ff7b4000ab2cfc1","6213ccb4740b1a5bbcd4e864","","","","","","",""
"7457","key"," "," ","16.665185682326598","500","250","psychophysics","40","230362","0.0-40.0","5db222231ff7b4000ab2cfc1","6213ccb4740b1a5bbcd4e864","2","0","31","82","","",""
"6051","key"," "," ","16.6284435261708","500","250","psychophysics","41","236417","0.0-41.0","5db222231ff7b4000ab2cfc1","6213ccb4740b1a5bbcd4e864","","","","","","",""
"8043","key"," "," ","16.66268257261411","500","250","psychophysics","42","244462","0.0-42.0","5db222231ff7b4000ab2cfc1","6213ccb4740b1a5bbcd4e864","2","0","52","72","","",""
"2796","key"," "," ","16.62599999999992","500","250","psychophysics","43","247260","0.0-43.0","5db222231ff7b4000ab2cfc1","6213ccb4740b1a5bbcd4e864","","","","","","",""
"5374","key"," "," ","16.625999999999955","500","250","psychophysics","44","252637","0.0-44.0","5db222231ff7b4000ab2cfc1","6213ccb4740b1a5bbcd4e864","2","0","42","60","","",""
"1340","key"," "," ","16.83645569620237","500","250","psychophysics","45","253981","0.0-45.0","5db222231ff7b4000ab2cfc1","6213ccb4740b1a5bbcd4e864","","","","","","",""
"5927","key"," "," ","16.62848876404502","500","250","psychophysics","46","259910","0.0-46.0","5db222231ff7b4000ab2cfc1","6213ccb4740b1a5bbcd4e864","2","0","51","69","","",""
"1577","key"," "," ","16.625999999999816","500","250","psychophysics","47","261490","0.0-47.0","5db222231ff7b4000ab2cfc1","6213ccb4740b1a5bbcd4e864","","","","","","",""
"4194","key"," "," ","16.629537848605676","500","250","psychophysics","48","265686","0.0-48.0","5db222231ff7b4000ab2cfc1","6213ccb4740b1a5bbcd4e864","2","0","24","49","","",""
"1302","key"," "," ","16.626000000000484","500","250","psychophysics","49","266991","0.0-49.0","5db222231ff7b4000ab2cfc1","6213ccb4740b1a5bbcd4e864","","","","","","",""
"3291","key"," "," ","16.625999999999927","500","250","psychophysics","50","270285","0.0-50.0","5db222231ff7b4000ab2cfc1","6213ccb4740b1a5bbcd4e864","2","0","26","38","","",""
"1238","key"," "," ","16.626000000000452","500","250","psychophysics","51","271525","0.0-51.0","5db222231ff7b4000ab2cfc1","6213ccb4740b1a5bbcd4e864","","","","","","",""
"4205","key"," "," ","16.6957729083664","500","250","psychophysics","52","275733","0.0-52.0","5db222231ff7b4000ab2cfc1","6213ccb4740b1a5bbcd4e864","2","0","45","49","","",""
"1259","key"," "," ","16.626000000000012","500","250","psychophysics","53","276997","0.0-53.0","5db222231ff7b4000ab2cfc1","6213ccb4740b1a5bbcd4e864","","","","","","",""
"5372","key"," "," ","16.625999999999955","500","250","psychophysics","54","282373","0.0-54.0","5db222231ff7b4000ab2cfc1","6213ccb4740b1a5bbcd4e864","2","0","55","55","","",""
"2192","key"," "," ","16.760907692307732","500","250","psychophysics","55","284567","0.0-55.0","5db222231ff7b4000ab2cfc1","6213ccb4740b1a5bbcd4e864","","","","","","",""
"5291","key"," "," ","16.626000000000122","500","250","psychophysics","56","289860","0.0-56.0","5db222231ff7b4000ab2cfc1","6213ccb4740b1a5bbcd4e864","2","0","41","48","","",""
"1198","key"," "," ","16.625999999999948","500","250","psychophysics","57","291061","0.0-57.0","5db222231ff7b4000ab2cfc1","6213ccb4740b1a5bbcd4e864","","","","","","",""
"3149","key"," "," ","16.62600000000007","500","250","psychophysics","58","294212","0.0-58.0","5db222231ff7b4000ab2cfc1","6213ccb4740b1a5bbcd4e864","2","0","23","37","","",""
"1005","key"," "," ","16.64086440677944","500","250","psychophysics","59","295219","0.0-59.0","5db222231ff7b4000ab2cfc1","6213ccb4740b1a5bbcd4e864","","","","","","",""
"4669","key"," "," ","16.62600000000006","500","250","psychophysics","60","299900","0.0-60.0","5db222231ff7b4000ab2cfc1","6213ccb4740b1a5bbcd4e864","2","0","53","55","","",""
"1550","key"," "," ","16.626000000000044","500","250","psychophysics","61","301453","0.0-61.0","5db222231ff7b4000ab2cfc1","6213ccb4740b1a5bbcd4e864","","","","","","",""
"5378","key"," "," ","16.628712074303476","500","250","psychophysics","62","306836","0.0-62.0","5db222231ff7b4000ab2cfc1","6213ccb4740b1a5bbcd4e864","2","0","57","56","","",""
"1080","key"," "," ","16.626000000000204","500","250","psychophysics","63","307918","0.0-63.0","5db222231ff7b4000ab2cfc1","6213ccb4740b1a5bbcd4e864","","","","","","",""
"4540","key"," "," ","16.62599999999999","500","250","psychophysics","64","312460","0.0-64.0","5db222231ff7b4000ab2cfc1","6213ccb4740b1a5bbcd4e864","2","0","37","53","","",""
"1142","key"," "," ","16.626000000000417","500","250","psychophysics","65","313604","0.0-65.0","5db222231ff7b4000ab2cfc1","6213ccb4740b1a5bbcd4e864","","","","","","",""
"4912","key"," "," ","16.62901355932206","500","250","psychophysics","66","318518","0.0-66.0","5db222231ff7b4000ab2cfc1","6213ccb4740b1a5bbcd4e864","2","0","48","52","","",""
"916","key"," "," ","16.62600000000007","500","250","psychophysics","67","319436","0.0-67.0","5db222231ff7b4000ab2cfc1","6213ccb4740b1a5bbcd4e864","","","","","","",""
"4535","key"," "," ","16.62599999999999","500","250","psychophysics","68","323974","0.0-68.0","5db222231ff7b4000ab2cfc1","6213ccb4740b1a5bbcd4e864","2","0","46","45","","",""
"796","key"," "," ","16.644936170213498","500","250","psychophysics","69","324774","0.0-69.0","5db222231ff7b4000ab2cfc1","6213ccb4740b1a5bbcd4e864","","","","","","",""
"2668","key"," "," ","16.625999999999905","500","250","psychophysics","70","327444","0.0-70.0","5db222231ff7b4000ab2cfc1","6213ccb4740b1a5bbcd4e864","","","","","","",""
"2220","key"," "," ","16.626000000000232","500","250","psychophysics","71","329669","0.0-71.0","5db222231ff7b4000ab2cfc1","6213ccb4740b1a5bbcd4e864","","","","","","",""
"3016","key"," "," ","16.71836666666657","500","250","psychophysics","72","332687","0.0-72.0","5db222231ff7b4000ab2cfc1","6213ccb4740b1a5bbcd4e864","3","5","48","29","","",""
"3562","key"," "," ","16.630164319248717","500","250","psychophysics","73","336252","0.0-73.0","5db222231ff7b4000ab2cfc1","6213ccb4740b1a5bbcd4e864","3","0","26","38","","",""
"2478","key"," "," ","16.62599999999991","500","250","psychophysics","74","338732","0.0-74.0","5db222231ff7b4000ab2cfc1","6213ccb4740b1a5bbcd4e864","3","5","56","28","","",""
"3598","key"," "," ","16.70333023255794","500","250","psychophysics","75","342332","0.0-75.0","5db222231ff7b4000ab2cfc1","6213ccb4740b1a5bbcd4e864","3","0","57","42","","",""
"2629","key"," "," ","16.63165605095531","500","250","psychophysics","76","344963","0.0-76.0","5db222231ff7b4000ab2cfc1","6213ccb4740b1a5bbcd4e864","3","5","55","32","","",""
"2774","key"," "," ","17.036518518518683","500","250","psychophysics","77","347740","0.0-77.0","5db222231ff7b4000ab2cfc1","6213ccb4740b1a5bbcd4e864","3","0","21","31","","",""
"2337","key"," "," ","16.6260000000001","500","250","psychophysics","78","350079","0.0-78.0","5db222231ff7b4000ab2cfc1","6213ccb4740b1a5bbcd4e864","3","5","55","27","","",""
"2834","key"," "," ","16.625999999999966","500","250","psychophysics","79","352915","0.0-79.0","5db222231ff7b4000ab2cfc1","6213ccb4740b1a5bbcd4e864","3","0","24","32","","",""
"2298","key"," "," ","16.632532846715375","500","250","psychophysics","80","355216","0.0-80.0","5db222231ff7b4000ab2cfc1","6213ccb4740b1a5bbcd4e864","3","5","52","27","","",""
"2897","key"," "," ","16.72210404624277","500","250","psychophysics","81","358115","0.0-81.0","5db222231ff7b4000ab2cfc1","6213ccb4740b1a5bbcd4e864","3","0","24","29","","",""
"1689","key"," "," ","16.62600000000024","500","250","psychophysics","82","359806","0.0-82.0","5db222231ff7b4000ab2cfc1","6213ccb4740b1a5bbcd4e864","3","5","30","18","","",""
"3307","key"," "," ","16.710395939086165","500","250","psychophysics","83","363115","0.0-83.0","5db222231ff7b4000ab2cfc1","6213ccb4740b1a5bbcd4e864","3","0","50","37","","",""
"1113","key"," "," ","16.625999999999873","500","250","psychophysics","84","364230","0.0-84.0","5db222231ff7b4000ab2cfc1","6213ccb4740b1a5bbcd4e864","3","5","22","12","","",""
"2667","key"," "," ","16.631591194968614","500","250","psychophysics","85","366899","0.0-85.0","5db222231ff7b4000ab2cfc1","6213ccb4740b1a5bbcd4e864","3","0","27","30","","",""
"1990","key"," "," ","16.62600000000005","500","250","psychophysics","86","368891","0.0-86.0","5db222231ff7b4000ab2cfc1","6213ccb4740b1a5bbcd4e864","3","5","48","24","","",""
"2514","key"," "," ","16.626000000000154","500","250","psychophysics","87","371407","0.0-87.0","5db222231ff7b4000ab2cfc1","6213ccb4740b1a5bbcd4e864","3","0","22","29","","",""
"1971","key"," "," ","21.741692307692375","500","250","psychophysics","88","373389","0.0-88.0","5db222231ff7b4000ab2cfc1","6213ccb4740b1a5bbcd4e864","3","5","48","25","","",""
"3684","key"," "," ","18.11191584158425","500","250","psychophysics","89","377076","0.0-89.0","5db222231ff7b4000ab2cfc1","6213ccb4740b1a5bbcd4e864","3","0","37","42","","",""
"2186","key"," "," ","17.564564516128982","500","250","psychophysics","90","379268","0.0-90.0","5db222231ff7b4000ab2cfc1","6213ccb4740b1a5bbcd4e864","3","5","29","23","","",""
"2895","key"," "," ","16.625999999999934","500","250","psychophysics","91","382188","0.0-91.0","5db222231ff7b4000ab2cfc1","6213ccb4740b1a5bbcd4e864","3","0","59","34","","",""
"1718","key"," "," ","16.626000000000133","500","250","psychophysics","92","383907","0.0-92.0","5db222231ff7b4000ab2cfc1","6213ccb4740b1a5bbcd4e864","","","","","","",""
"184682","","","n","","","","html-keyboard-response","93","568589","0.0-93.0","5db222231ff7b4000ab2cfc1","6213ccb4740b1a5bbcd4e864","","","","","<p> In this part of the experiment, we are going present digits 1, 2, 3, 4, 6, 7, 8, and 9.  Notice that 5 is missing.  Your job is to say whether the presented digit is less than or greater than 5.  For example, 3 is less than 5 and 7 is greater than 5.  If the digit is less than 5, press the v key; if it is greater than 5, press the n key. We are going to do 200 of these in total, but only 50 righ now. They go real fast.</p>  <br><br>  Ready? (press v or n)","",""
"2990","key","v","v","16.630966480446762","500","250","psychophysics","94","571581","0.0-94.0","5db222231ff7b4000ab2cfc1","6213ccb4740b1a5bbcd4e864","4","","","","","1","3"
"null","","","null","","","","html-keyboard-response","95","572085","0.0-95.0","5db222231ff7b4000ab2cfc1","6213ccb4740b1a5bbcd4e864","","","","","<p style=""color:darkgreen;font-size:24px;"">Correct :)</p>","",""
"2479","key","n","n","16.625999999999838","500","250","psychophysics","96","574572","0.0-96.0","5db222231ff7b4000ab2cfc1","6213ccb4740b1a5bbcd4e864","4","","","","","1","9"
"null","","","null","","","","html-keyboard-response","97","575077","0.0-97.0","5db222231ff7b4000ab2cfc1","6213ccb4740b1a5bbcd4e864","","","","","<p style=""color:darkgreen;font-size:24px;"">Correct :)</p>","",""
"2533","key","n","n","16.626000000000012","500","250","psychophysics","98","577614","0.0-98.0","5db222231ff7b4000ab2cfc1","6213ccb4740b1a5bbcd4e864","4","","","","","1","7"
"null","","","null","","","","html-keyboard-response","99","578118","0.0-99.0","5db222231ff7b4000ab2cfc1","6213ccb4740b1a5bbcd4e864","","","","","<p style=""color:darkgreen;font-size:24px;"">Correct :)</p>","",""
"2619","key","n","n","16.631675159236103","500","250","psychophysics","100","580740","0.0-100.0","5db222231ff7b4000ab2cfc1","6213ccb4740b1a5bbcd4e864","4","","","","","1","7"
"null","","","null","","","","html-keyboard-response","101","581244","0.0-101.0","5db222231ff7b4000ab2cfc1","6213ccb4740b1a5bbcd4e864","","","","","<p style=""color:darkgreen;font-size:24px;"">Correct :)</p>","",""
"2667","key","n","n","16.626000000000204","500","250","psychophysics","102","583916","0.0-102.0","5db222231ff7b4000ab2cfc1","6213ccb4740b1a5bbcd4e864","4","","","","","1","6"
"null","","","null","","","","html-keyboard-response","103","584418","0.0-103.0","5db222231ff7b4000ab2cfc1","6213ccb4740b1a5bbcd4e864","","","","","<p style=""color:darkgreen;font-size:24px;"">Correct :)</p>","",""
"2731","key","v","v","16.625999999999937","500","250","psychophysics","104","587150","0.0-104.0","5db222231ff7b4000ab2cfc1","6213ccb4740b1a5bbcd4e864","4","","","","","1","2"
"null","","","null","","","","html-keyboard-response","105","587655","0.0-105.0","5db222231ff7b4000ab2cfc1","6213ccb4740b1a5bbcd4e864","","","","","<p style=""color:darkgreen;font-size:24px;"">Correct :)</p>","",""
"2549","key","n","n","16.631909090909176","500","250","psychophysics","106","590207","0.0-106.0","5db222231ff7b4000ab2cfc1","6213ccb4740b1a5bbcd4e864","4","","","","","1","6"
"null","","","null","","","","html-keyboard-response","107","590711","0.0-107.0","5db222231ff7b4000ab2cfc1","6213ccb4740b1a5bbcd4e864","","","","","<p style=""color:darkgreen;font-size:24px;"">Correct :)</p>","",""
"2707","key","v","v","16.62600000000007","500","250","psychophysics","108","593420","0.0-108.0","5db222231ff7b4000ab2cfc1","6213ccb4740b1a5bbcd4e864","4","","","","","1","3"
"null","","","null","","","","html-keyboard-response","109","593925","0.0-109.0","5db222231ff7b4000ab2cfc1","6213ccb4740b1a5bbcd4e864","","","","","<p style=""color:darkgreen;font-size:24px;"">Correct :)</p>","",""
"2837","key","v","v","16.62599999999984","500","250","psychophysics","110","596764","0.0-110.0","5db222231ff7b4000ab2cfc1","6213ccb4740b1a5bbcd4e864","4","","","","","1","4"
"null","","","null","","","","html-keyboard-response","111","597269","0.0-111.0","5db222231ff7b4000ab2cfc1","6213ccb4740b1a5bbcd4e864","","","","","<p style=""color:darkgreen;font-size:24px;"">Correct :)</p>","",""
"2483","key","v","v","16.631746666666587","500","250","psychophysics","112","599756","0.0-112.0","5db222231ff7b4000ab2cfc1","6213ccb4740b1a5bbcd4e864","4","","","","","1","2"
"null","","","null","","","","html-keyboard-response","113","600261","0.0-113.0","5db222231ff7b4000ab2cfc1","6213ccb4740b1a5bbcd4e864","","","","","<p style=""color:darkgreen;font-size:24px;"">Correct :)</p>","",""
"2709","key","n","n","16.728629629629275","500","250","psychophysics","114","602973","0.0-114.0","5db222231ff7b4000ab2cfc1","6213ccb4740b1a5bbcd4e864","4","","","","","1","7"
"null","","","null","","","","html-keyboard-response","115","603475","0.0-115.0","5db222231ff7b4000ab2cfc1","6213ccb4740b1a5bbcd4e864","","","","","<p style=""color:darkgreen;font-size:24px;"">Correct :)</p>","",""
"2735","key","n","n","17.938578947368352","500","250","psychophysics","116","606213","0.0-116.0","5db222231ff7b4000ab2cfc1","6213ccb4740b1a5bbcd4e864","4","","","","","1","6"
"null","","","null","","","","html-keyboard-response","117","606714","0.0-117.0","5db222231ff7b4000ab2cfc1","6213ccb4740b1a5bbcd4e864","","","","","<p style=""color:darkgreen;font-size:24px;"">Correct :)</p>","",""
"2831","key","n","n","16.631399999999935","500","250","psychophysics","118","609548","0.0-118.0","5db222231ff7b4000ab2cfc1","6213ccb4740b1a5bbcd4e864","4","","","","","1","9"
"null","","","null","","","","html-keyboard-response","119","610051","0.0-119.0","5db222231ff7b4000ab2cfc1","6213ccb4740b1a5bbcd4e864","","","","","<p style=""color:darkgreen;font-size:24px;"">Correct :)</p>","",""
"2614","key","v","v","16.62600000000004","500","250","psychophysics","120","612668","0.0-120.0","5db222231ff7b4000ab2cfc1","6213ccb4740b1a5bbcd4e864","4","","","","","1","2"
"null","","","null","","","","html-keyboard-response","121","613170","0.0-121.0","5db222231ff7b4000ab2cfc1","6213ccb4740b1a5bbcd4e864","","","","","<p style=""color:darkgreen;font-size:24px;"">Correct :)</p>","",""
"2826","key","v","v","16.626000000000246","500","250","psychophysics","122","616000","0.0-122.0","5db222231ff7b4000ab2cfc1","6213ccb4740b1a5bbcd4e864","4","","","","","1","3"
"null","","","null","","","","html-keyboard-response","123","616502","0.0-123.0","5db222231ff7b4000ab2cfc1","6213ccb4740b1a5bbcd4e864","","","","","<p style=""color:darkgreen;font-size:24px;"">Correct :)</p>","",""
"2852","key","n","n","16.631168604651087","500","250","psychophysics","124","619358","0.0-124.0","5db222231ff7b4000ab2cfc1","6213ccb4740b1a5bbcd4e864","4","","","","","1","9"
"null","","","null","","","","html-keyboard-response","125","619862","0.0-125.0","5db222231ff7b4000ab2cfc1","6213ccb4740b1a5bbcd4e864","","","","","<p style=""color:darkgreen;font-size:24px;"">Correct :)</p>","",""
"3138","key","n","n","16.625999999999454","500","250","psychophysics","126","623004","0.0-126.0","5db222231ff7b4000ab2cfc1","6213ccb4740b1a5bbcd4e864","4","","","","","1","7"
"null","","","null","","","","html-keyboard-response","127","623506","0.0-127.0","5db222231ff7b4000ab2cfc1","6213ccb4740b1a5bbcd4e864","","","","","<p style=""color:darkgreen;font-size:24px;"">Correct :)</p>","",""
"2700","key","n","n","16.62600000000036","500","250","psychophysics","128","626213","0.0-128.0","5db222231ff7b4000ab2cfc1","6213ccb4740b1a5bbcd4e864","4","","","","","1","9"
"null","","","null","","","","html-keyboard-response","129","626716","0.0-129.0","5db222231ff7b4000ab2cfc1","6213ccb4740b1a5bbcd4e864","","","","","<p style=""color:darkgreen;font-size:24px;"">Correct :)</p>","",""
"2630","key","v","v","16.631620253164385","500","250","psychophysics","130","629350","0.0-130.0","5db222231ff7b4000ab2cfc1","6213ccb4740b1a5bbcd4e864","4","","","","","1","2"
"null","","","null","","","","html-keyboard-response","131","629854","0.0-131.0","5db222231ff7b4000ab2cfc1","6213ccb4740b1a5bbcd4e864","","","","","<p style=""color:darkgreen;font-size:24px;"">Correct :)</p>","",""
"2571","key","v","v","16.62600000000018","500","250","psychophysics","132","632429","0.0-132.0","5db222231ff7b4000ab2cfc1","6213ccb4740b1a5bbcd4e864","4","","","","","1","3"
"null","","","null","","","","html-keyboard-response","133","632933","0.0-133.0","5db222231ff7b4000ab2cfc1","6213ccb4740b1a5bbcd4e864","","","","","<p style=""color:darkgreen;font-size:24px;"">Correct :)</p>","",""
"3418","key","n","n","16.626000000000026","500","250","psychophysics","134","636355","0.0-134.0","5db222231ff7b4000ab2cfc1","6213ccb4740b1a5bbcd4e864","4","","","","","1","4"
"null","","","null","","","","html-keyboard-response","135","636858","0.0-135.0","5db222231ff7b4000ab2cfc1","6213ccb4740b1a5bbcd4e864","","","","","<p style=""color:red;font-size:24px;"">Error :(</p>","",""
"2605","key","n","n","16.63149681528674","500","250","psychophysics","136","639469","0.0-136.0","5db222231ff7b4000ab2cfc1","6213ccb4740b1a5bbcd4e864","4","","","","","1","8"
"null","","","null","","","","html-keyboard-response","137","639969","0.0-137.0","5db222231ff7b4000ab2cfc1","6213ccb4740b1a5bbcd4e864","","","","","<p style=""color:darkgreen;font-size:24px;"">Correct :)</p>","",""
"2501","key","n","n","16.626000000000154","500","250","psychophysics","138","642475","0.0-138.0","5db222231ff7b4000ab2cfc1","6213ccb4740b1a5bbcd4e864","4","","","","","1","8"
"null","","","null","","","","html-keyboard-response","139","642978","0.0-139.0","5db222231ff7b4000ab2cfc1","6213ccb4740b1a5bbcd4e864","","","","","<p style=""color:darkgreen;font-size:24px;"">Correct :)</p>","",""
"2680","key","v","v","16.625999999999774","500","250","psychophysics","140","645662","0.0-140.0","5db222231ff7b4000ab2cfc1","6213ccb4740b1a5bbcd4e864","4","","","","","1","4"
"null","","","null","","","","html-keyboard-response","141","646165","0.0-141.0","5db222231ff7b4000ab2cfc1","6213ccb4740b1a5bbcd4e864","","","","","<p style=""color:darkgreen;font-size:24px;"">Correct :)</p>","",""
"2675","key","v","v","16.625999999999774","500","250","psychophysics","142","648843","0.0-142.0","5db222231ff7b4000ab2cfc1","6213ccb4740b1a5bbcd4e864","4","","","","","1","4"
"null","","","null","","","","html-keyboard-response","143","649345","0.0-143.0","5db222231ff7b4000ab2cfc1","6213ccb4740b1a5bbcd4e864","","","","","<p style=""color:darkgreen;font-size:24px;"">Correct :)</p>","",""
"2848","key","v","v","16.631156976744236","500","250","psychophysics","144","652198","0.0-144.0","5db222231ff7b4000ab2cfc1","6213ccb4740b1a5bbcd4e864","4","","","","","1","3"
"null","","","null","","","","html-keyboard-response","145","652702","0.0-145.0","5db222231ff7b4000ab2cfc1","6213ccb4740b1a5bbcd4e864","","","","","<p style=""color:darkgreen;font-size:24px;"">Correct :)</p>","",""
"2516","key","v","v","16.626000000000012","500","250","psychophysics","146","655221","0.0-146.0","5db222231ff7b4000ab2cfc1","6213ccb4740b1a5bbcd4e864","4","","","","","1","1"
"null","","","null","","","","html-keyboard-response","147","655724","0.0-147.0","5db222231ff7b4000ab2cfc1","6213ccb4740b1a5bbcd4e864","","","","","<p style=""color:darkgreen;font-size:24px;"">Correct :)</p>","",""
"2738","key","v","v","16.625999999999937","500","250","psychophysics","148","658467","0.0-148.0","5db222231ff7b4000ab2cfc1","6213ccb4740b1a5bbcd4e864","4","","","","","1","4"
"null","","","null","","","","html-keyboard-response","149","658970","0.0-149.0","5db222231ff7b4000ab2cfc1","6213ccb4740b1a5bbcd4e864","","","","","<p style=""color:darkgreen;font-size:24px;"">Correct :)</p>","",""
"2422","key","v","v","16.632102739726104","500","250","psychophysics","150","661395","0.0-150.0","5db222231ff7b4000ab2cfc1","6213ccb4740b1a5bbcd4e864","4","","","","","1","2"
"null","","","null","","","","html-keyboard-response","151","661900","0.0-151.0","5db222231ff7b4000ab2cfc1","6213ccb4740b1a5bbcd4e864","","","","","<p style=""color:darkgreen;font-size:24px;"">Correct :)</p>","",""
"2445","key","v","v","16.626000000000303","500","250","psychophysics","152","664351","0.0-152.0","5db222231ff7b4000ab2cfc1","6213ccb4740b1a5bbcd4e864","4","","","","","1","2"
"null","","","null","","","","html-keyboard-response","153","664855","0.0-153.0","5db222231ff7b4000ab2cfc1","6213ccb4740b1a5bbcd4e864","","","","","<p style=""color:darkgreen;font-size:24px;"">Correct :)</p>","",""
"2593","key","n","n","16.62599999999974","500","250","psychophysics","154","667451","0.0-154.0","5db222231ff7b4000ab2cfc1","6213ccb4740b1a5bbcd4e864","4","","","","","1","8"
"null","","","null","","","","html-keyboard-response","155","667955","0.0-155.0","5db222231ff7b4000ab2cfc1","6213ccb4740b1a5bbcd4e864","","","","","<p style=""color:darkgreen;font-size:24px;"">Correct :)</p>","",""
"2564","key","n","n","16.850605263158","500","250","psychophysics","156","670523","0.0-156.0","5db222231ff7b4000ab2cfc1","6213ccb4740b1a5bbcd4e864","4","","","","","1","9"
"null","","","null","","","","html-keyboard-response","157","671025","0.0-157.0","5db222231ff7b4000ab2cfc1","6213ccb4740b1a5bbcd4e864","","","","","<p style=""color:darkgreen;font-size:24px;"">Correct :)</p>","",""
"2448","key","n","n","16.626000000000303","500","250","psychophysics","158","673478","0.0-158.0","5db222231ff7b4000ab2cfc1","6213ccb4740b1a5bbcd4e864","4","","","","","1","8"
"null","","","null","","","","html-keyboard-response","159","673982","0.0-159.0","5db222231ff7b4000ab2cfc1","6213ccb4740b1a5bbcd4e864","","","","","<p style=""color:darkgreen;font-size:24px;"">Correct :)</p>","",""
"2546","key","v","v","16.62600000000032","500","250","psychophysics","160","676531","0.0-160.0","5db222231ff7b4000ab2cfc1","6213ccb4740b1a5bbcd4e864","4","","","","","1","2"
"null","","","null","","","","html-keyboard-response","161","677034","0.0-161.0","5db222231ff7b4000ab2cfc1","6213ccb4740b1a5bbcd4e864","","","","","<p style=""color:darkgreen;font-size:24px;"">Correct :)</p>","",""
"2706","key","n","n","17.320296551724734","500","250","psychophysics","162","679743","0.0-162.0","5db222231ff7b4000ab2cfc1","6213ccb4740b1a5bbcd4e864","4","","","","","1","8"
"null","","","null","","","","html-keyboard-response","163","680246","0.0-163.0","5db222231ff7b4000ab2cfc1","6213ccb4740b1a5bbcd4e864","","","","","<p style=""color:darkgreen;font-size:24px;"">Correct :)</p>","",""
"2594","key","n","n","16.626000000000484","500","250","psychophysics","164","682843","0.0-164.0","5db222231ff7b4000ab2cfc1","6213ccb4740b1a5bbcd4e864","4","","","","","1","6"
"null","","","null","","","","html-keyboard-response","165","683345","0.0-165.0","5db222231ff7b4000ab2cfc1","6213ccb4740b1a5bbcd4e864","","","","","<p style=""color:darkgreen;font-size:24px;"">Correct :)</p>","",""
"2542","key","v","v","16.62599999999956","500","250","psychophysics","166","685891","0.0-166.0","5db222231ff7b4000ab2cfc1","6213ccb4740b1a5bbcd4e864","4","","","","","1","3"
"null","","","null","","","","html-keyboard-response","167","686394","0.0-167.0","5db222231ff7b4000ab2cfc1","6213ccb4740b1a5bbcd4e864","","","","","<p style=""color:darkgreen;font-size:24px;"">Correct :)</p>","",""
"2534","key","n","n","16.626000000000012","500","250","psychophysics","168","688931","0.0-168.0","5db222231ff7b4000ab2cfc1","6213ccb4740b1a5bbcd4e864","4","","","","","1","9"
"null","","","null","","","","html-keyboard-response","169","689432","0.0-169.0","5db222231ff7b4000ab2cfc1","6213ccb4740b1a5bbcd4e864","","","","","<p style=""color:darkgreen;font-size:24px;"">Correct :)</p>","",""
"2599","key","n","n","16.631611464968525","500","250","psychophysics","170","692035","0.0-170.0","5db222231ff7b4000ab2cfc1","6213ccb4740b1a5bbcd4e864","4","","","","","1","7"
"null","","","null","","","","html-keyboard-response","171","692538","0.0-171.0","5db222231ff7b4000ab2cfc1","6213ccb4740b1a5bbcd4e864","","","","","<p style=""color:darkgreen;font-size:24px;"">Correct :)</p>","",""
"2557","key","v","v","16.734666666667298","500","250","psychophysics","172","695098","0.0-172.0","5db222231ff7b4000ab2cfc1","6213ccb4740b1a5bbcd4e864","4","","","","","1","4"
"null","","","null","","","","html-keyboard-response","173","695602","0.0-173.0","5db222231ff7b4000ab2cfc1","6213ccb4740b1a5bbcd4e864","","","","","<p style=""color:darkgreen;font-size:24px;"">Correct :)</p>","",""
"2580","key","n","n","16.626000000000484","500","250","psychophysics","174","698188","0.0-174.0","5db222231ff7b4000ab2cfc1","6213ccb4740b1a5bbcd4e864","4","","","","","1","8"
"null","","","null","","","","html-keyboard-response","175","698693","0.0-175.0","5db222231ff7b4000ab2cfc1","6213ccb4740b1a5bbcd4e864","","","","","<p style=""color:darkgreen;font-size:24px;"">Correct :)</p>","",""
"2660","key","n","n","17.748993288590448","500","250","psychophysics","176","701354","0.0-176.0","5db222231ff7b4000ab2cfc1","6213ccb4740b1a5bbcd4e864","4","","","","","1","7"
"null","","","null","","","","html-keyboard-response","177","701857","0.0-177.0","5db222231ff7b4000ab2cfc1","6213ccb4740b1a5bbcd4e864","","","","","<p style=""color:darkgreen;font-size:24px;"">Correct :)</p>","",""
"2923","key","n","n","16.625999999999873","500","250","psychophysics","178","704786","0.0-178.0","5db222231ff7b4000ab2cfc1","6213ccb4740b1a5bbcd4e864","4","","","","","1","9"
"null","","","null","","","","html-keyboard-response","179","705291","0.0-179.0","5db222231ff7b4000ab2cfc1","6213ccb4740b1a5bbcd4e864","","","","","<p style=""color:darkgreen;font-size:24px;"">Correct :)</p>","",""
"2579","key","v","v","19.089111111110455","500","250","psychophysics","180","707873","0.0-180.0","5db222231ff7b4000ab2cfc1","6213ccb4740b1a5bbcd4e864","4","","","","","1","4"
"null","","","null","","","","html-keyboard-response","181","708378","0.0-181.0","5db222231ff7b4000ab2cfc1","6213ccb4740b1a5bbcd4e864","","","","","<p style=""color:darkgreen;font-size:24px;"">Correct :)</p>","",""
"2499","key","n","n","16.631926666666597","500","250","psychophysics","182","710881","0.0-182.0","5db222231ff7b4000ab2cfc1","6213ccb4740b1a5bbcd4e864","4","","","","","1","9"
"null","","","null","","","","html-keyboard-response","183","711385","0.0-183.0","5db222231ff7b4000ab2cfc1","6213ccb4740b1a5bbcd4e864","","","","","<p style=""color:darkgreen;font-size:24px;"">Correct :)</p>","",""
"2454","key","n","n","16.62599999999998","500","250","psychophysics","184","713842","0.0-184.0","5db222231ff7b4000ab2cfc1","6213ccb4740b1a5bbcd4e864","4","","","","","1","8"
"null","","","null","","","","html-keyboard-response","185","714346","0.0-185.0","5db222231ff7b4000ab2cfc1","6213ccb4740b1a5bbcd4e864","","","","","<p style=""color:darkgreen;font-size:24px;"">Correct :)</p>","",""
"2456","key","n","n","16.625999999999515","500","250","psychophysics","186","716809","0.0-186.0","5db222231ff7b4000ab2cfc1","6213ccb4740b1a5bbcd4e864","4","","","","","1","6"
"null","","","null","","","","html-keyboard-response","187","717313","0.0-187.0","5db222231ff7b4000ab2cfc1","6213ccb4740b1a5bbcd4e864","","","","","<p style=""color:darkgreen;font-size:24px;"">Correct :)</p>","",""
"2492","key","v","v","16.626000000000154","500","250","psychophysics","188","719808","0.0-188.0","5db222231ff7b4000ab2cfc1","6213ccb4740b1a5bbcd4e864","4","","","","","1","2"
"null","","","null","","","","html-keyboard-response","189","720313","0.0-189.0","5db222231ff7b4000ab2cfc1","6213ccb4740b1a5bbcd4e864","","","","","<p style=""color:darkgreen;font-size:24px;"">Correct :)</p>","",""
"2413","key","v","v","16.62600000000013","500","250","psychophysics","190","722729","0.0-190.0","5db222231ff7b4000ab2cfc1","6213ccb4740b1a5bbcd4e864","4","","","","","1","2"
"null","","","null","","","","html-keyboard-response","191","723234","0.0-191.0","5db222231ff7b4000ab2cfc1","6213ccb4740b1a5bbcd4e864","","","","","<p style=""color:darkgreen;font-size:24px;"">Correct :)</p>","",""
"2519","key","n","n","16.626000000000012","500","250","psychophysics","192","725756","0.0-192.0","5db222231ff7b4000ab2cfc1","6213ccb4740b1a5bbcd4e864","4","","","","","1","8"
"null","","","null","","","","html-keyboard-response","193","726260","0.0-193.0","5db222231ff7b4000ab2cfc1","6213ccb4740b1a5bbcd4e864","","","","","<p style=""color:darkgreen;font-size:24px;"">Correct :)</p>","",""
"39384","","","n","","","","html-keyboard-response","194","765645","0.0-194.0","5db222231ff7b4000ab2cfc1","6213ccb4740b1a5bbcd4e864","","","","","<p> Ok, now we are going present the same digits as before.  Your job is to say whether the digit is even or odd  If the digit is odd, press to v key; if it is even, press the n key. We are going to do 50 of these.  </p>  <br><br>  Ready? (press v or n)","",""
"3038","key","n","n","16.646081967213156","500","250","psychophysics","195","768685","0.0-195.0","5db222231ff7b4000ab2cfc1","6213ccb4740b1a5bbcd4e864","5","","","","","0","3"
"null","","","null","","","","html-keyboard-response","196","769190","0.0-196.0","5db222231ff7b4000ab2cfc1","6213ccb4740b1a5bbcd4e864","","","","","<p style=""color:red;font-size:24px;"">Error :(</p>","",""
"2994","key","v","v","16.719404494382044","500","250","psychophysics","197","772187","0.0-197.0","5db222231ff7b4000ab2cfc1","6213ccb4740b1a5bbcd4e864","5","","","","","0","9"
"null","","","null","","","","html-keyboard-response","198","772691","0.0-198.0","5db222231ff7b4000ab2cfc1","6213ccb4740b1a5bbcd4e864","","","","","<p style=""color:darkgreen;font-size:24px;"">Correct :)</p>","",""
"2579","key","v","v","16.63192903225821","500","250","psychophysics","199","775275","0.0-199.0","5db222231ff7b4000ab2cfc1","6213ccb4740b1a5bbcd4e864","5","","","","","0","3"
"null","","","null","","","","html-keyboard-response","200","775780","0.0-200.0","5db222231ff7b4000ab2cfc1","6213ccb4740b1a5bbcd4e864","","","","","<p style=""color:darkgreen;font-size:24px;"">Correct :)</p>","",""
"2632","key","n","n","16.625999999999603","500","250","psychophysics","201","778415","0.0-201.0","5db222231ff7b4000ab2cfc1","6213ccb4740b1a5bbcd4e864","5","","","","","0","8"
"null","","","null","","","","html-keyboard-response","202","778919","0.0-202.0","5db222231ff7b4000ab2cfc1","6213ccb4740b1a5bbcd4e864","","","","","<p style=""color:darkgreen;font-size:24px;"">Correct :)</p>","",""
"2495","key","n","n","16.62600000000047","500","250","psychophysics","203","781421","0.0-203.0","5db222231ff7b4000ab2cfc1","6213ccb4740b1a5bbcd4e864","5","","","","","0","6"
"null","","","null","","","","html-keyboard-response","204","781922","0.0-204.0","5db222231ff7b4000ab2cfc1","6213ccb4740b1a5bbcd4e864","","","","","<p style=""color:darkgreen;font-size:24px;"">Correct :)</p>","",""
"2565","key","v","v","16.631616883117452","500","250","psychophysics","205","784490","0.0-205.0","5db222231ff7b4000ab2cfc1","6213ccb4740b1a5bbcd4e864","5","","","","","0","2"
"null","","","null","","","","html-keyboard-response","206","784995","0.0-206.0","5db222231ff7b4000ab2cfc1","6213ccb4740b1a5bbcd4e864","","","","","<p style=""color:red;font-size:24px;"">Error :(</p>","",""
"2931","key","v","v","16.625999999999873","500","250","psychophysics","207","787930","0.0-207.0","5db222231ff7b4000ab2cfc1","6213ccb4740b1a5bbcd4e864","5","","","","","0","9"
"null","","","null","","","","html-keyboard-response","208","788435","0.0-208.0","5db222231ff7b4000ab2cfc1","6213ccb4740b1a5bbcd4e864","","","","","<p style=""color:darkgreen;font-size:24px;"">Correct :)</p>","",""
"2597","key","n","n","16.626000000000484","500","250","psychophysics","209","791036","0.0-209.0","5db222231ff7b4000ab2cfc1","6213ccb4740b1a5bbcd4e864","5","","","","","0","9"
"null","","","null","","","","html-keyboard-response","210","791539","0.0-210.0","5db222231ff7b4000ab2cfc1","6213ccb4740b1a5bbcd4e864","","","","","<p style=""color:red;font-size:24px;"">Error :(</p>","",""
"2801","key","n","n","16.631248520709953","500","250","psychophysics","211","794345","0.0-211.0","5db222231ff7b4000ab2cfc1","6213ccb4740b1a5bbcd4e864","5","","","","","0","6"
"null","","","null","","","","html-keyboard-response","212","794850","0.0-212.0","5db222231ff7b4000ab2cfc1","6213ccb4740b1a5bbcd4e864","","","","","<p style=""color:darkgreen;font-size:24px;"">Correct :)</p>","",""
"2671","key","n","n","16.626000000000204","500","250","psychophysics","213","797524","0.0-213.0","5db222231ff7b4000ab2cfc1","6213ccb4740b1a5bbcd4e864","5","","","","","0","8"
"null","","","null","","","","html-keyboard-response","214","798026","0.0-214.0","5db222231ff7b4000ab2cfc1","6213ccb4740b1a5bbcd4e864","","","","","<p style=""color:darkgreen;font-size:24px;"">Correct :)</p>","",""
"2663","key","n","n","16.626000000000204","500","250","psychophysics","215","800692","0.0-215.0","5db222231ff7b4000ab2cfc1","6213ccb4740b1a5bbcd4e864","5","","","","","0","6"
"null","","","null","","","","html-keyboard-response","216","801194","0.0-216.0","5db222231ff7b4000ab2cfc1","6213ccb4740b1a5bbcd4e864","","","","","<p style=""color:darkgreen;font-size:24px;"">Correct :)</p>","",""
"2564","key","v","v","16.631759740259536","500","250","psychophysics","217","803762","0.0-217.0","5db222231ff7b4000ab2cfc1","6213ccb4740b1a5bbcd4e864","5","","","","","0","3"
"null","","","null","","","","html-keyboard-response","218","804265","0.0-218.0","5db222231ff7b4000ab2cfc1","6213ccb4740b1a5bbcd4e864","","","","","<p style=""color:darkgreen;font-size:24px;"">Correct :)</p>","",""
"2653","key","v","v","16.625999999999905","500","250","psychophysics","219","806921","0.0-219.0","5db222231ff7b4000ab2cfc1","6213ccb4740b1a5bbcd4e864","5","","","","","0","2"
"null","","","null","","","","html-keyboard-response","220","807423","0.0-220.0","5db222231ff7b4000ab2cfc1","6213ccb4740b1a5bbcd4e864","","","","","<p style=""color:red;font-size:24px;"">Error :(</p>","",""
"3752","key","n","n","16.625999999999898","500","250","psychophysics","221","811178","0.0-221.0","5db222231ff7b4000ab2cfc1","6213ccb4740b1a5bbcd4e864","5","","","","","0","8"
"null","","","null","","","","html-keyboard-response","222","811683","0.0-222.0","5db222231ff7b4000ab2cfc1","6213ccb4740b1a5bbcd4e864","","","","","<p style=""color:darkgreen;font-size:24px;"">Correct :)</p>","",""
"2862","key","v","v","16.63136046511652","500","250","psychophysics","223","814547","0.0-223.0","5db222231ff7b4000ab2cfc1","6213ccb4740b1a5bbcd4e864","5","","","","","0","3"
"null","","","null","","","","html-keyboard-response","224","815050","0.0-224.0","5db222231ff7b4000ab2cfc1","6213ccb4740b1a5bbcd4e864","","","","","<p style=""color:darkgreen;font-size:24px;"">Correct :)</p>","",""
"3605","key","v","v","16.62600000000007","500","250","psychophysics","225","818657","0.0-225.0","5db222231ff7b4000ab2cfc1","6213ccb4740b1a5bbcd4e864","5","","","","","0","7"
"null","","","null","","","","html-keyboard-response","226","819159","0.0-226.0","5db222231ff7b4000ab2cfc1","6213ccb4740b1a5bbcd4e864","","","","","<p style=""color:darkgreen;font-size:24px;"">Correct :)</p>","",""
"3521","key","v","v","16.625999999999497","500","250","psychophysics","227","822685","0.0-227.0","5db222231ff7b4000ab2cfc1","6213ccb4740b1a5bbcd4e864","5","","","","","0","7"
"null","","","null","","","","html-keyboard-response","228","823190","0.0-228.0","5db222231ff7b4000ab2cfc1","6213ccb4740b1a5bbcd4e864","","","","","<p style=""color:darkgreen;font-size:24px;"">Correct :)</p>","",""
"3132","key","n","n","16.630680851063673","500","250","psychophysics","229","826326","0.0-229.0","5db222231ff7b4000ab2cfc1","6213ccb4740b1a5bbcd4e864","5","","","","","0","4"
"null","","","null","","","","html-keyboard-response","230","826830","0.0-230.0","5db222231ff7b4000ab2cfc1","6213ccb4740b1a5bbcd4e864","","","","","<p style=""color:darkgreen;font-size:24px;"">Correct :)</p>","",""
"2899","key","v","v","16.625999999999994","500","250","psychophysics","231","829732","0.0-231.0","5db222231ff7b4000ab2cfc1","6213ccb4740b1a5bbcd4e864","5","","","","","0","2"
"null","","","null","","","","html-keyboard-response","232","830235","0.0-232.0","5db222231ff7b4000ab2cfc1","6213ccb4740b1a5bbcd4e864","","","","","<p style=""color:red;font-size:24px;"">Error :(</p>","",""
"3327","key","v","v","16.630424999999814","500","250","psychophysics","233","833566","0.0-233.0","5db222231ff7b4000ab2cfc1","6213ccb4740b1a5bbcd4e864","5","","","","","0","3"
"null","","","null","","","","html-keyboard-response","234","834070","0.0-234.0","5db222231ff7b4000ab2cfc1","6213ccb4740b1a5bbcd4e864","","","","","<p style=""color:darkgreen;font-size:24px;"">Correct :)</p>","",""
"2740","key","n","n","16.626000000000225","500","250","psychophysics","235","836813","0.0-235.0","5db222231ff7b4000ab2cfc1","6213ccb4740b1a5bbcd4e864","5","","","","","0","6"
"null","","","null","","","","html-keyboard-response","236","837318","0.0-236.0","5db222231ff7b4000ab2cfc1","6213ccb4740b1a5bbcd4e864","","","","","<p style=""color:darkgreen;font-size:24px;"">Correct :)</p>","",""
"2630","key","n","n","16.625999999999603","500","250","psychophysics","237","839950","0.0-237.0","5db222231ff7b4000ab2cfc1","6213ccb4740b1a5bbcd4e864","5","","","","","0","6"
"null","","","null","","","","html-keyboard-response","238","840454","0.0-238.0","5db222231ff7b4000ab2cfc1","6213ccb4740b1a5bbcd4e864","","","","","<p style=""color:darkgreen;font-size:24px;"">Correct :)</p>","",""
"2687","key","v","v","16.62600000000007","500","250","psychophysics","239","843144","0.0-239.0","5db222231ff7b4000ab2cfc1","6213ccb4740b1a5bbcd4e864","5","","","","","0","7"
"null","","","null","","","","html-keyboard-response","240","843646","0.0-240.0","5db222231ff7b4000ab2cfc1","6213ccb4740b1a5bbcd4e864","","","","","<p style=""color:darkgreen;font-size:24px;"">Correct :)</p>","",""
"2949","key","n","n","16.72567045454542","500","250","psychophysics","241","846599","0.0-241.0","5db222231ff7b4000ab2cfc1","6213ccb4740b1a5bbcd4e864","5","","","","","0","6"
"null","","","null","","","","html-keyboard-response","242","847104","0.0-242.0","5db222231ff7b4000ab2cfc1","6213ccb4740b1a5bbcd4e864","","","","","<p style=""color:darkgreen;font-size:24px;"">Correct :)</p>","",""
"2755","key","v","v","16.62600000000051","500","250","psychophysics","243","849862","0.0-243.0","5db222231ff7b4000ab2cfc1","6213ccb4740b1a5bbcd4e864","5","","","","","0","7"
"null","","","null","","","","html-keyboard-response","244","850366","0.0-244.0","5db222231ff7b4000ab2cfc1","6213ccb4740b1a5bbcd4e864","","","","","<p style=""color:darkgreen;font-size:24px;"">Correct :)</p>","",""
"3015","key","n","n","16.717856353591326","500","250","psychophysics","245","853388","0.0-245.0","5db222231ff7b4000ab2cfc1","6213ccb4740b1a5bbcd4e864","5","","","","","0","2"
"null","","","null","","","","html-keyboard-response","246","853891","0.0-246.0","5db222231ff7b4000ab2cfc1","6213ccb4740b1a5bbcd4e864","","","","","<p style=""color:darkgreen;font-size:24px;"">Correct :)</p>","",""
"3196","key","n","n","16.630792746114075","500","250","psychophysics","247","857092","0.0-247.0","5db222231ff7b4000ab2cfc1","6213ccb4740b1a5bbcd4e864","5","","","","","0","4"
"null","","","null","","","","html-keyboard-response","248","857594","0.0-248.0","5db222231ff7b4000ab2cfc1","6213ccb4740b1a5bbcd4e864","","","","","<p style=""color:darkgreen;font-size:24px;"">Correct :)</p>","",""
"2561","key","n","n","16.62600000000063","500","250","psychophysics","249","860157","0.0-249.0","5db222231ff7b4000ab2cfc1","6213ccb4740b1a5bbcd4e864","5","","","","","0","6"
"null","","","null","","","","html-keyboard-response","250","860661","0.0-250.0","5db222231ff7b4000ab2cfc1","6213ccb4740b1a5bbcd4e864","","","","","<p style=""color:darkgreen;font-size:24px;"">Correct :)</p>","",""
"2618","key","n","n","16.62600000000004","500","250","psychophysics","251","863284","0.0-251.0","5db222231ff7b4000ab2cfc1","6213ccb4740b1a5bbcd4e864","5","","","","","0","8"
"null","","","null","","","","html-keyboard-response","252","863787","0.0-252.0","5db222231ff7b4000ab2cfc1","6213ccb4740b1a5bbcd4e864","","","","","<p style=""color:darkgreen;font-size:24px;"">Correct :)</p>","",""
"2635","key","v","v","16.631632911392835","500","250","psychophysics","253","866425","0.0-253.0","5db222231ff7b4000ab2cfc1","6213ccb4740b1a5bbcd4e864","5","","","","","0","1"
"null","","","null","","","","html-keyboard-response","254","866928","0.0-254.0","5db222231ff7b4000ab2cfc1","6213ccb4740b1a5bbcd4e864","","","","","<p style=""color:darkgreen;font-size:24px;"">Correct :)</p>","",""
"2780","key","n","n","16.626000000000094","500","250","psychophysics","255","869711","0.0-255.0","5db222231ff7b4000ab2cfc1","6213ccb4740b1a5bbcd4e864","5","","","","","0","8"
"null","","","null","","","","html-keyboard-response","256","870213","0.0-256.0","5db222231ff7b4000ab2cfc1","6213ccb4740b1a5bbcd4e864","","","","","<p style=""color:darkgreen;font-size:24px;"">Correct :)</p>","",""
"2692","key","n","n","16.62600000000007","500","250","psychophysics","257","872909","0.0-257.0","5db222231ff7b4000ab2cfc1","6213ccb4740b1a5bbcd4e864","5","","","","","0","4"
"null","","","null","","","","html-keyboard-response","258","873413","0.0-258.0","5db222231ff7b4000ab2cfc1","6213ccb4740b1a5bbcd4e864","","","","","<p style=""color:darkgreen;font-size:24px;"">Correct :)</p>","",""
"2631","key","v","v","16.631424050633","500","250","psychophysics","259","876047","0.0-259.0","5db222231ff7b4000ab2cfc1","6213ccb4740b1a5bbcd4e864","5","","","","","0","7"
"null","","","null","","","","html-keyboard-response","260","876551","0.0-260.0","5db222231ff7b4000ab2cfc1","6213ccb4740b1a5bbcd4e864","","","","","<p style=""color:darkgreen;font-size:24px;"">Correct :)</p>","",""
"3138","key","v","v","16.625999999999454","500","250","psychophysics","261","879693","0.0-261.0","5db222231ff7b4000ab2cfc1","6213ccb4740b1a5bbcd4e864","5","","","","","0","7"
"null","","","null","","","","html-keyboard-response","262","880197","0.0-262.0","5db222231ff7b4000ab2cfc1","6213ccb4740b1a5bbcd4e864","","","","","<p style=""color:darkgreen;font-size:24px;"">Correct :)</p>","",""
"2830","key","n","n","16.62599999999956","500","250","psychophysics","263","883032","0.0-263.0","5db222231ff7b4000ab2cfc1","6213ccb4740b1a5bbcd4e864","5","","","","","0","4"
"null","","","null","","","","html-keyboard-response","264","883536","0.0-264.0","5db222231ff7b4000ab2cfc1","6213ccb4740b1a5bbcd4e864","","","","","<p style=""color:darkgreen;font-size:24px;"">Correct :)</p>","",""
"2753","key","n","n","16.631361445783025","500","250","psychophysics","265","886292","0.0-265.0","5db222231ff7b4000ab2cfc1","6213ccb4740b1a5bbcd4e864","5","","","","","0","2"
"null","","","null","","","","html-keyboard-response","266","886793","0.0-266.0","5db222231ff7b4000ab2cfc1","6213ccb4740b1a5bbcd4e864","","","","","<p style=""color:darkgreen;font-size:24px;"">Correct :)</p>","",""
"2807","key","n","n","16.625999999999966","500","250","psychophysics","267","889603","0.0-267.0","5db222231ff7b4000ab2cfc1","6213ccb4740b1a5bbcd4e864","5","","","","","0","4"
"null","","","null","","","","html-keyboard-response","268","890107","0.0-268.0","5db222231ff7b4000ab2cfc1","6213ccb4740b1a5bbcd4e864","","","","","<p style=""color:darkgreen;font-size:24px;"">Correct :)</p>","",""
"2549","key","n","n","16.62600000000032","500","250","psychophysics","269","892660","0.0-269.0","5db222231ff7b4000ab2cfc1","6213ccb4740b1a5bbcd4e864","5","","","","","0","4"
"null","","","null","","","","html-keyboard-response","270","893164","0.0-270.0","5db222231ff7b4000ab2cfc1","6213ccb4740b1a5bbcd4e864","","","","","<p style=""color:darkgreen;font-size:24px;"">Correct :)</p>","",""
"2725","key","v","v","16.631414634146495","500","250","psychophysics","271","895893","0.0-271.0","5db222231ff7b4000ab2cfc1","6213ccb4740b1a5bbcd4e864","5","","","","","0","3"
"null","","","null","","","","html-keyboard-response","272","896396","0.0-272.0","5db222231ff7b4000ab2cfc1","6213ccb4740b1a5bbcd4e864","","","","","<p style=""color:darkgreen;font-size:24px;"">Correct :)</p>","",""
"3236","key","v","v","16.62600000000009","500","250","psychophysics","273","899635","0.0-273.0","5db222231ff7b4000ab2cfc1","6213ccb4740b1a5bbcd4e864","5","","","","","0","7"
"null","","","null","","","","html-keyboard-response","274","900138","0.0-274.0","5db222231ff7b4000ab2cfc1","6213ccb4740b1a5bbcd4e864","","","","","<p style=""color:darkgreen;font-size:24px;"">Correct :)</p>","",""
"2599","key","n","n","16.62599999999974","500","250","psychophysics","275","902739","0.0-275.0","5db222231ff7b4000ab2cfc1","6213ccb4740b1a5bbcd4e864","5","","","","","0","6"
"null","","","null","","","","html-keyboard-response","276","903243","0.0-276.0","5db222231ff7b4000ab2cfc1","6213ccb4740b1a5bbcd4e864","","","","","<p style=""color:darkgreen;font-size:24px;"">Correct :)</p>","",""
"2818","key","n","n","16.631248520709953","500","250","psychophysics","277","906063","0.0-277.0","5db222231ff7b4000ab2cfc1","6213ccb4740b1a5bbcd4e864","5","","","","","0","2"
"null","","","null","","","","html-keyboard-response","278","906564","0.0-278.0","5db222231ff7b4000ab2cfc1","6213ccb4740b1a5bbcd4e864","","","","","<p style=""color:darkgreen;font-size:24px;"">Correct :)</p>","",""
"2658","key","n","n","16.730566037735322","500","250","psychophysics","279","909226","0.0-279.0","5db222231ff7b4000ab2cfc1","6213ccb4740b1a5bbcd4e864","5","","","","","0","2"
"null","","","null","","","","html-keyboard-response","280","909729","0.0-280.0","5db222231ff7b4000ab2cfc1","6213ccb4740b1a5bbcd4e864","","","","","<p style=""color:darkgreen;font-size:24px;"">Correct :)</p>","",""
"2719","key","n","n","16.625999999999646","500","250","psychophysics","281","912451","0.0-281.0","5db222231ff7b4000ab2cfc1","6213ccb4740b1a5bbcd4e864","5","","","","","0","8"
"null","","","null","","","","html-keyboard-response","282","912955","0.0-282.0","5db222231ff7b4000ab2cfc1","6213ccb4740b1a5bbcd4e864","","","","","<p style=""color:darkgreen;font-size:24px;"">Correct :)</p>","",""
"2484","key","n","n","16.6321677852347","500","250","psychophysics","283","915443","0.0-283.0","5db222231ff7b4000ab2cfc1","6213ccb4740b1a5bbcd4e864","5","","","","","0","8"
"null","","","null","","","","html-keyboard-response","284","915948","0.0-284.0","5db222231ff7b4000ab2cfc1","6213ccb4740b1a5bbcd4e864","","","","","<p style=""color:darkgreen;font-size:24px;"">Correct :)</p>","",""
"2501","key","n","n","16.626000000000154","500","250","psychophysics","285","918453","0.0-285.0","5db222231ff7b4000ab2cfc1","6213ccb4740b1a5bbcd4e864","5","","","","","0","8"
"null","","","null","","","","html-keyboard-response","286","918957","0.0-286.0","5db222231ff7b4000ab2cfc1","6213ccb4740b1a5bbcd4e864","","","","","<p style=""color:darkgreen;font-size:24px;"">Correct :)</p>","",""
"2724","key","v","v","16.728629629629992","500","250","psychophysics","287","921683","0.0-287.0","5db222231ff7b4000ab2cfc1","6213ccb4740b1a5bbcd4e864","5","","","","","0","3"
"null","","","null","","","","html-keyboard-response","288","922185","0.0-288.0","5db222231ff7b4000ab2cfc1","6213ccb4740b1a5bbcd4e864","","","","","<p style=""color:darkgreen;font-size:24px;"">Correct :)</p>","",""
"2843","key","v","v","16.631040935672832","500","250","psychophysics","289","925030","0.0-289.0","5db222231ff7b4000ab2cfc1","6213ccb4740b1a5bbcd4e864","5","","","","","0","9"
"null","","","null","","","","html-keyboard-response","290","925533","0.0-290.0","5db222231ff7b4000ab2cfc1","6213ccb4740b1a5bbcd4e864","","","","","<p style=""color:darkgreen;font-size:24px;"">Correct :)</p>","",""
"2595","key","n","n","16.62599999999974","500","250","psychophysics","291","928131","0.0-291.0","5db222231ff7b4000ab2cfc1","6213ccb4740b1a5bbcd4e864","5","","","","","0","4"
"null","","","null","","","","html-keyboard-response","292","928635","0.0-292.0","5db222231ff7b4000ab2cfc1","6213ccb4740b1a5bbcd4e864","","","","","<p style=""color:darkgreen;font-size:24px;"">Correct :)</p>","",""
"2574","key","n","n","16.62600000000018","500","250","psychophysics","293","931214","0.0-293.0","5db222231ff7b4000ab2cfc1","6213ccb4740b1a5bbcd4e864","5","","","","","0","2"
"null","","","null","","","","html-keyboard-response","294","931716","0.0-294.0","5db222231ff7b4000ab2cfc1","6213ccb4740b1a5bbcd4e864","","","","","<p style=""color:darkgreen;font-size:24px;"">Correct :)</p>","",""
"99049","","","n","","","","html-keyboard-response","295","1030765","0.0-295.0","5db222231ff7b4000ab2cfc1","6213ccb4740b1a5bbcd4e864","","","","","<p> Here, the tasks are going to switch.  For some trials, your job is to decide if the digit is less than or greater than 5.  For others, it is to decide if the digit is even or odd.  You will be told which type of trial the current one is.  But, pay attention, the type of trial changes too.  We are going to do 50 of these.  </p>  <br><br>  Ready? (press v or n)","",""
"2676","key","n","n","16.686612500000045","500","250","psychophysics","296","1033452","0.0-296.0","5db222231ff7b4000ab2cfc1","6213ccb4740b1a5bbcd4e864","6","","","","","1","8"
"null","","","null","","","","html-keyboard-response","297","1033956","0.0-297.0","5db222231ff7b4000ab2cfc1","6213ccb4740b1a5bbcd4e864","","","","","<p style=""color:darkgreen;font-size:24px;"">Correct :)</p>","",""
"2548","key","n","n","16.62600000000032","500","250","psychophysics","298","1036508","0.0-298.0","5db222231ff7b4000ab2cfc1","6213ccb4740b1a5bbcd4e864","6","","","","","0","4"
"null","","","null","","","","html-keyboard-response","299","1037012","0.0-299.0","5db222231ff7b4000ab2cfc1","6213ccb4740b1a5bbcd4e864","","","","","<p style=""color:darkgreen;font-size:24px;"">Correct :)</p>","",""
"2605","key","v","v","16.62599999999974","500","250","psychophysics","300","1039620","0.0-300.0","5db222231ff7b4000ab2cfc1","6213ccb4740b1a5bbcd4e864","6","","","","","1","1"
"null","","","null","","","","html-keyboard-response","301","1040123","0.0-301.0","5db222231ff7b4000ab2cfc1","6213ccb4740b1a5bbcd4e864","","","","","<p style=""color:darkgreen;font-size:24px;"">Correct :)</p>","",""
"2895","key","n","n","16.625999999999994","500","250","psychophysics","302","1043021","0.0-302.0","5db222231ff7b4000ab2cfc1","6213ccb4740b1a5bbcd4e864","6","","","","","0","4"
"null","","","null","","","","html-keyboard-response","303","1043525","0.0-303.0","5db222231ff7b4000ab2cfc1","6213ccb4740b1a5bbcd4e864","","","","","<p style=""color:darkgreen;font-size:24px;"">Correct :)</p>","",""
"2720","key","v","v","16.733478527607545","500","250","psychophysics","304","1046251","0.0-304.0","5db222231ff7b4000ab2cfc1","6213ccb4740b1a5bbcd4e864","6","","","","","0","9"
"null","","","null","","","","html-keyboard-response","305","1046753","0.0-305.0","5db222231ff7b4000ab2cfc1","6213ccb4740b1a5bbcd4e864","","","","","<p style=""color:darkgreen;font-size:24px;"">Correct :)</p>","",""
"3345","key","n","n","16.625999999999426","500","250","psychophysics","306","1050102","0.0-306.0","5db222231ff7b4000ab2cfc1","6213ccb4740b1a5bbcd4e864","6","","","","","0","2"
"null","","","null","","","","html-keyboard-response","307","1050606","0.0-307.0","5db222231ff7b4000ab2cfc1","6213ccb4740b1a5bbcd4e864","","","","","<p style=""color:darkgreen;font-size:24px;"">Correct :)</p>","",""
"2835","key","n","n","16.63119298245687","500","250","psychophysics","308","1053445","0.0-308.0","5db222231ff7b4000ab2cfc1","6213ccb4740b1a5bbcd4e864","6","","","","","0","2"
"null","","","null","","","","html-keyboard-response","309","1053947","0.0-309.0","5db222231ff7b4000ab2cfc1","6213ccb4740b1a5bbcd4e864","","","","","<p style=""color:darkgreen;font-size:24px;"">Correct :)</p>","",""
"2568","key","v","v","16.62599999999868","500","250","psychophysics","310","1056519","0.0-310.0","5db222231ff7b4000ab2cfc1","6213ccb4740b1a5bbcd4e864","6","","","","","1","1"
"null","","","null","","","","html-keyboard-response","311","1057022","0.0-311.0","5db222231ff7b4000ab2cfc1","6213ccb4740b1a5bbcd4e864","","","","","<p style=""color:darkgreen;font-size:24px;"">Correct :)</p>","",""
"2565","key","n","n","16.734666666667298","500","250","psychophysics","312","1059590","0.0-312.0","5db222231ff7b4000ab2cfc1","6213ccb4740b1a5bbcd4e864","6","","","","","1","7"
"null","","","null","","","","html-keyboard-response","313","1060092","0.0-313.0","5db222231ff7b4000ab2cfc1","6213ccb4740b1a5bbcd4e864","","","","","<p style=""color:darkgreen;font-size:24px;"">Correct :)</p>","",""
"2745","key","v","v","16.626000000000225","500","250","psychophysics","314","1062840","0.0-314.0","5db222231ff7b4000ab2cfc1","6213ccb4740b1a5bbcd4e864","6","","","","","0","1"
"null","","","null","","","","html-keyboard-response","315","1063344","0.0-315.0","5db222231ff7b4000ab2cfc1","6213ccb4740b1a5bbcd4e864","","","","","<p style=""color:darkgreen;font-size:24px;"">Correct :)</p>","",""
"3337","key","n","n","16.630442786069857","500","250","psychophysics","316","1066684","0.0-316.0","5db222231ff7b4000ab2cfc1","6213ccb4740b1a5bbcd4e864","6","","","","","1","9"
"null","","","null","","","","html-keyboard-response","317","1067186","0.0-317.0","5db222231ff7b4000ab2cfc1","6213ccb4740b1a5bbcd4e864","","","","","<p style=""color:darkgreen;font-size:24px;"">Correct :)</p>","",""
"2782","key","v","v","16.625999999998992","500","250","psychophysics","318","1069972","0.0-318.0","5db222231ff7b4000ab2cfc1","6213ccb4740b1a5bbcd4e864","6","","","","","1","3"
"null","","","null","","","","html-keyboard-response","319","1070477","0.0-319.0","5db222231ff7b4000ab2cfc1","6213ccb4740b1a5bbcd4e864","","","","","<p style=""color:darkgreen;font-size:24px;"">Correct :)</p>","",""
"2819","key","n","n","16.72437869822441","500","250","psychophysics","320","1073300","0.0-320.0","5db222231ff7b4000ab2cfc1","6213ccb4740b1a5bbcd4e864","6","","","","","0","8"
"null","","","null","","","","html-keyboard-response","321","1073804","0.0-321.0","5db222231ff7b4000ab2cfc1","6213ccb4740b1a5bbcd4e864","","","","","<p style=""color:darkgreen;font-size:24px;"">Correct :)</p>","",""
"2723","key","n","n","16.631595092024256","500","250","psychophysics","322","1076531","0.0-322.0","5db222231ff7b4000ab2cfc1","6213ccb4740b1a5bbcd4e864","6","","","","","1","8"
"null","","","null","","","","html-keyboard-response","323","1077036","0.0-323.0","5db222231ff7b4000ab2cfc1","6213ccb4740b1a5bbcd4e864","","","","","<p style=""color:darkgreen;font-size:24px;"">Correct :)</p>","",""
"2854","key","v","v","16.62600000000012","500","250","psychophysics","324","1079894","0.0-324.0","5db222231ff7b4000ab2cfc1","6213ccb4740b1a5bbcd4e864","6","","","","","0","1"
"null","","","null","","","","html-keyboard-response","325","1080398","0.0-325.0","5db222231ff7b4000ab2cfc1","6213ccb4740b1a5bbcd4e864","","","","","<p style=""color:darkgreen;font-size:24px;"">Correct :)</p>","",""
"2897","key","v","v","16.625999999999326","500","250","psychophysics","326","1083299","0.0-326.0","5db222231ff7b4000ab2cfc1","6213ccb4740b1a5bbcd4e864","6","","","","","1","1"
"null","","","null","","","","html-keyboard-response","327","1083800","0.0-327.0","5db222231ff7b4000ab2cfc1","6213ccb4740b1a5bbcd4e864","","","","","<p style=""color:darkgreen;font-size:24px;"">Correct :)</p>","",""
"2985","key","v","v","16.630966480448063","500","250","psychophysics","328","1086789","0.0-328.0","5db222231ff7b4000ab2cfc1","6213ccb4740b1a5bbcd4e864","6","","","","","0","3"
"null","","","null","","","","html-keyboard-response","329","1087293","0.0-329.0","5db222231ff7b4000ab2cfc1","6213ccb4740b1a5bbcd4e864","","","","","<p style=""color:darkgreen;font-size:24px;"">Correct :)</p>","",""
"3397","key","n","n","16.62599999999956","500","250","psychophysics","330","1090692","0.0-330.0","5db222231ff7b4000ab2cfc1","6213ccb4740b1a5bbcd4e864","6","","","","","1","9"
"null","","","null","","","","html-keyboard-response","331","1091196","0.0-331.0","5db222231ff7b4000ab2cfc1","6213ccb4740b1a5bbcd4e864","","","","","<p style=""color:darkgreen;font-size:24px;"">Correct :)</p>","",""
"3291","key","v","v","16.63046733668336","500","250","psychophysics","332","1094492","0.0-332.0","5db222231ff7b4000ab2cfc1","6213ccb4740b1a5bbcd4e864","6","","","","","0","3"
"null","","","null","","","","html-keyboard-response","333","1094997","0.0-333.0","5db222231ff7b4000ab2cfc1","6213ccb4740b1a5bbcd4e864","","","","","<p style=""color:darkgreen;font-size:24px;"">Correct :)</p>","",""
"3585","key","v","v","16.62600000000007","500","250","psychophysics","334","1098586","0.0-334.0","5db222231ff7b4000ab2cfc1","6213ccb4740b1a5bbcd4e864","6","","","","","0","3"
"null","","","null","","","","html-keyboard-response","335","1099090","0.0-335.0","5db222231ff7b4000ab2cfc1","6213ccb4740b1a5bbcd4e864","","","","","<p style=""color:darkgreen;font-size:24px;"">Correct :)</p>","",""
"2785","key","v","v","16.626000000000378","500","250","psychophysics","336","1101879","0.0-336.0","5db222231ff7b4000ab2cfc1","6213ccb4740b1a5bbcd4e864","6","","","","","0","3"
"null","","","null","","","","html-keyboard-response","337","1102382","0.0-337.0","5db222231ff7b4000ab2cfc1","6213ccb4740b1a5bbcd4e864","","","","","<p style=""color:darkgreen;font-size:24px;"">Correct :)</p>","",""
"3090","key","v","v","16.630768817204792","500","250","psychophysics","338","1105475","0.0-338.0","5db222231ff7b4000ab2cfc1","6213ccb4740b1a5bbcd4e864","6","","","","","0","7"
"null","","","null","","","","html-keyboard-response","339","1105980","0.0-339.0","5db222231ff7b4000ab2cfc1","6213ccb4740b1a5bbcd4e864","","","","","<p style=""color:darkgreen;font-size:24px;"">Correct :)</p>","",""
"2516","key","v","v","17.084648275861902","500","250","psychophysics","340","1108499","0.0-340.0","5db222231ff7b4000ab2cfc1","6213ccb4740b1a5bbcd4e864","6","","","","","0","1"
"null","","","null","","","","html-keyboard-response","341","1109002","0.0-341.0","5db222231ff7b4000ab2cfc1","6213ccb4740b1a5bbcd4e864","","","","","<p style=""color:darkgreen;font-size:24px;"">Correct :)</p>","",""
"3116","key","v","v","17.46194413407737","500","250","psychophysics","342","1112121","0.0-342.0","5db222231ff7b4000ab2cfc1","6213ccb4740b1a5bbcd4e864","6","","","","","0","7"
"null","","","null","","","","html-keyboard-response","343","1112623","0.0-343.0","5db222231ff7b4000ab2cfc1","6213ccb4740b1a5bbcd4e864","","","","","<p style=""color:darkgreen;font-size:24px;"">Correct :)</p>","",""
"2408","key","v","v","16.632324137932073","500","250","psychophysics","344","1115035","0.0-344.0","5db222231ff7b4000ab2cfc1","6213ccb4740b1a5bbcd4e864","6","","","","","1","1"
"null","","","null","","","","html-keyboard-response","345","1115537","0.0-345.0","5db222231ff7b4000ab2cfc1","6213ccb4740b1a5bbcd4e864","","","","","<p style=""color:darkgreen;font-size:24px;"">Correct :)</p>","",""
"3378","key","v","v","16.8741492537309","500","250","psychophysics","346","1118918","0.0-346.0","5db222231ff7b4000ab2cfc1","6213ccb4740b1a5bbcd4e864","6","","","","","0","7"
"null","","","null","","","","html-keyboard-response","347","1119422","0.0-347.0","5db222231ff7b4000ab2cfc1","6213ccb4740b1a5bbcd4e864","","","","","<p style=""color:darkgreen;font-size:24px;"">Correct :)</p>","",""
"2506","key","n","n","16.62599999999893","500","250","psychophysics","348","1121932","0.0-348.0","5db222231ff7b4000ab2cfc1","6213ccb4740b1a5bbcd4e864","6","","","","","1","7"
"null","","","null","","","","html-keyboard-response","349","1122436","0.0-349.0","5db222231ff7b4000ab2cfc1","6213ccb4740b1a5bbcd4e864","","","","","<p style=""color:darkgreen;font-size:24px;"">Correct :)</p>","",""
"3092","key","v","v","16.630634408603143","500","250","psychophysics","350","1125531","0.0-350.0","5db222231ff7b4000ab2cfc1","6213ccb4740b1a5bbcd4e864","6","","","","","1","4"
"null","","","null","","","","html-keyboard-response","351","1126036","0.0-351.0","5db222231ff7b4000ab2cfc1","6213ccb4740b1a5bbcd4e864","","","","","<p style=""color:darkgreen;font-size:24px;"">Correct :)</p>","",""
"2730","key","n","n","16.625999999999227","500","250","psychophysics","352","1128770","0.0-352.0","5db222231ff7b4000ab2cfc1","6213ccb4740b1a5bbcd4e864","6","","","","","0","6"
"null","","","null","","","","html-keyboard-response","353","1129275","0.0-353.0","5db222231ff7b4000ab2cfc1","6213ccb4740b1a5bbcd4e864","","","","","<p style=""color:darkgreen;font-size:24px;"">Correct :)</p>","",""
"2668","key","n","n","16.626000000000932","500","250","psychophysics","354","1131946","0.0-354.0","5db222231ff7b4000ab2cfc1","6213ccb4740b1a5bbcd4e864","6","","","","","0","6"
"null","","","null","","","","html-keyboard-response","355","1132450","0.0-355.0","5db222231ff7b4000ab2cfc1","6213ccb4740b1a5bbcd4e864","","","","","<p style=""color:darkgreen;font-size:24px;"">Correct :)</p>","",""
"2590","key","n","n","16.849111111111807","500","250","psychophysics","356","1135043","0.0-356.0","5db222231ff7b4000ab2cfc1","6213ccb4740b1a5bbcd4e864","6","","","","","0","6"
"null","","","null","","","","html-keyboard-response","357","1135545","0.0-357.0","5db222231ff7b4000ab2cfc1","6213ccb4740b1a5bbcd4e864","","","","","<p style=""color:darkgreen;font-size:24px;"">Correct :)</p>","",""
"2732","key","v","v","16.625999999999227","500","250","psychophysics","358","1138280","0.0-358.0","5db222231ff7b4000ab2cfc1","6213ccb4740b1a5bbcd4e864","6","","","","","0","3"
"null","","","null","","","","html-keyboard-response","359","1138784","0.0-359.0","5db222231ff7b4000ab2cfc1","6213ccb4740b1a5bbcd4e864","","","","","<p style=""color:darkgreen;font-size:24px;"">Correct :)</p>","",""
"3320","key","n","n","16.62600000000011","500","250","psychophysics","360","1142108","0.0-360.0","5db222231ff7b4000ab2cfc1","6213ccb4740b1a5bbcd4e864","6","","","","","1","8"
"null","","","null","","","","html-keyboard-response","361","1142609","0.0-361.0","5db222231ff7b4000ab2cfc1","6213ccb4740b1a5bbcd4e864","","","","","<p style=""color:darkgreen;font-size:24px;"">Correct :)</p>","",""
"2518","key","v","v","16.63189403973489","500","250","psychophysics","362","1145131","0.0-362.0","5db222231ff7b4000ab2cfc1","6213ccb4740b1a5bbcd4e864","6","","","","","1","2"
"null","","","null","","","","html-keyboard-response","363","1145634","0.0-363.0","5db222231ff7b4000ab2cfc1","6213ccb4740b1a5bbcd4e864","","","","","<p style=""color:darkgreen;font-size:24px;"">Correct :)</p>","",""
"3144","key","v","v","16.62600000000007","500","250","psychophysics","364","1148781","0.0-364.0","5db222231ff7b4000ab2cfc1","6213ccb4740b1a5bbcd4e864","6","","","","","1","3"
"null","","","null","","","","html-keyboard-response","365","1149285","0.0-365.0","5db222231ff7b4000ab2cfc1","6213ccb4740b1a5bbcd4e864","","","","","<p style=""color:darkgreen;font-size:24px;"">Correct :)</p>","",""
"2842","key","v","v","16.625999999999163","500","250","psychophysics","366","1152130","0.0-366.0","5db222231ff7b4000ab2cfc1","6213ccb4740b1a5bbcd4e864","6","","","","","0","3"
"null","","","null","","","","html-keyboard-response","367","1152634","0.0-367.0","5db222231ff7b4000ab2cfc1","6213ccb4740b1a5bbcd4e864","","","","","<p style=""color:darkgreen;font-size:24px;"">Correct :)</p>","",""
"2433","key","v","v","19.71701612903346","500","250","psychophysics","368","1155074","0.0-368.0","5db222231ff7b4000ab2cfc1","6213ccb4740b1a5bbcd4e864","6","","","","","1","3"
"null","","","null","","","","html-keyboard-response","369","1155577","0.0-369.0","5db222231ff7b4000ab2cfc1","6213ccb4740b1a5bbcd4e864","","","","","<p style=""color:darkgreen;font-size:24px;"">Correct :)</p>","",""
"3083","key","n","n","16.62599999999993","500","250","psychophysics","370","1158667","0.0-370.0","5db222231ff7b4000ab2cfc1","6213ccb4740b1a5bbcd4e864","6","","","","","1","8"
"null","","","null","","","","html-keyboard-response","371","1159170","0.0-371.0","5db222231ff7b4000ab2cfc1","6213ccb4740b1a5bbcd4e864","","","","","<p style=""color:darkgreen;font-size:24px;"">Correct :)</p>","",""
"2651","key","n","n","16.625999999999905","500","250","psychophysics","372","1161827","0.0-372.0","5db222231ff7b4000ab2cfc1","6213ccb4740b1a5bbcd4e864","6","","","","","0","4"
"null","","","null","","","","html-keyboard-response","373","1162329","0.0-373.0","5db222231ff7b4000ab2cfc1","6213ccb4740b1a5bbcd4e864","","","","","<p style=""color:darkgreen;font-size:24px;"">Correct :)</p>","",""
"2815","key","v","v","16.631295857988242","500","250","psychophysics","374","1165148","0.0-374.0","5db222231ff7b4000ab2cfc1","6213ccb4740b1a5bbcd4e864","6","","","","","1","9"
"null","","","null","","","","html-keyboard-response","375","1165652","0.0-375.0","5db222231ff7b4000ab2cfc1","6213ccb4740b1a5bbcd4e864","","","","","<p style=""color:red;font-size:24px;"">Error :(</p>","",""
"3187","key","n","n","16.626000000000204","500","250","psychophysics","376","1168842","0.0-376.0","5db222231ff7b4000ab2cfc1","6213ccb4740b1a5bbcd4e864","6","","","","","0","2"
"null","","","null","","","","html-keyboard-response","377","1169345","0.0-377.0","5db222231ff7b4000ab2cfc1","6213ccb4740b1a5bbcd4e864","","","","","<p style=""color:darkgreen;font-size:24px;"">Correct :)</p>","",""
"2990","key","n","n","16.625999999999486","500","250","psychophysics","378","1172339","0.0-378.0","5db222231ff7b4000ab2cfc1","6213ccb4740b1a5bbcd4e864","6","","","","","1","8"
"null","","","null","","","","html-keyboard-response","379","1172841","0.0-379.0","5db222231ff7b4000ab2cfc1","6213ccb4740b1a5bbcd4e864","","","","","<p style=""color:darkgreen;font-size:24px;"">Correct :)</p>","",""
"2825","key","n","n","16.631396449704177","500","250","psychophysics","380","1175669","0.0-380.0","5db222231ff7b4000ab2cfc1","6213ccb4740b1a5bbcd4e864","6","","","","","0","2"
"null","","","null","","","","html-keyboard-response","381","1176173","0.0-381.0","5db222231ff7b4000ab2cfc1","6213ccb4740b1a5bbcd4e864","","","","","<p style=""color:darkgreen;font-size:24px;"">Correct :)</p>","",""
"3355","key","n","n","16.62600000000024","500","250","psychophysics","382","1179530","0.0-382.0","5db222231ff7b4000ab2cfc1","6213ccb4740b1a5bbcd4e864","6","","","","","1","2"
"null","","","null","","","","html-keyboard-response","383","1180033","0.0-383.0","5db222231ff7b4000ab2cfc1","6213ccb4740b1a5bbcd4e864","","","","","<p style=""color:red;font-size:24px;"">Error :(</p>","",""
"3121","key","n","n","16.6259999999992","500","250","psychophysics","384","1183158","0.0-384.0","5db222231ff7b4000ab2cfc1","6213ccb4740b1a5bbcd4e864","6","","","","","0","4"
"null","","","null","","","","html-keyboard-response","385","1183661","0.0-385.0","5db222231ff7b4000ab2cfc1","6213ccb4740b1a5bbcd4e864","","","","","<p style=""color:darkgreen;font-size:24px;"">Correct :)</p>","",""
"2740","key","n","n","16.63125000000085","500","250","psychophysics","386","1186409","0.0-386.0","5db222231ff7b4000ab2cfc1","6213ccb4740b1a5bbcd4e864","6","","","","","0","2"
"null","","","null","","","","html-keyboard-response","387","1186914","0.0-387.0","5db222231ff7b4000ab2cfc1","6213ccb4740b1a5bbcd4e864","","","","","<p style=""color:darkgreen;font-size:24px;"">Correct :)</p>","",""
"3190","key","n","n","16.626000000000204","500","250","psychophysics","388","1190106","0.0-388.0","5db222231ff7b4000ab2cfc1","6213ccb4740b1a5bbcd4e864","6","","","","","0","6"
"null","","","null","","","","html-keyboard-response","389","1190610","0.0-389.0","5db222231ff7b4000ab2cfc1","6213ccb4740b1a5bbcd4e864","","","","","<p style=""color:darkgreen;font-size:24px;"">Correct :)</p>","",""
"2822","key","n","n","17.77622641509387","500","250","psychophysics","390","1193435","0.0-390.0","5db222231ff7b4000ab2cfc1","6213ccb4740b1a5bbcd4e864","6","","","","","0","4"
"null","","","null","","","","html-keyboard-response","391","1193936","0.0-391.0","5db222231ff7b4000ab2cfc1","6213ccb4740b1a5bbcd4e864","","","","","<p style=""color:darkgreen;font-size:24px;"">Correct :)</p>","",""
"3173","key","n","n","17.852254237289053","500","250","psychophysics","392","1197114","0.0-392.0","5db222231ff7b4000ab2cfc1","6213ccb4740b1a5bbcd4e864","6","","","","","0","8"
"null","","","null","","","","html-keyboard-response","393","1197617","0.0-393.0","5db222231ff7b4000ab2cfc1","6213ccb4740b1a5bbcd4e864","","","","","<p style=""color:darkgreen;font-size:24px;"">Correct :)</p>","",""
"2599","key","v","v","16.62599999999974","500","250","psychophysics","394","1200218","0.0-394.0","5db222231ff7b4000ab2cfc1","6213ccb4740b1a5bbcd4e864","6","","","","","1","3"
"null","","","null","","","","html-keyboard-response","395","1200722","0.0-395.0","5db222231ff7b4000ab2cfc1","6213ccb4740b1a5bbcd4e864","","","","","<p style=""color:darkgreen;font-size:24px;"">Correct :)</p>","",""
"21989","","","n","","","","html-keyboard-response","396","1222712","0.0-396.0","5db222231ff7b4000ab2cfc1","6213ccb4740b1a5bbcd4e864","","","","","<p> Last set of trials.  Here, the tasks are going to switch once again.  We are going to do 50 of these.  And then you are done with the experiment.  </p>  <br><br>  Ready? (press v or n)","",""
"2931","key","v","v","16.63762500000038","500","250","psychophysics","397","1225644","0.0-397.0","5db222231ff7b4000ab2cfc1","6213ccb4740b1a5bbcd4e864","7","","","","","0","1"
"null","","","null","","","","html-keyboard-response","398","1226148","0.0-398.0","5db222231ff7b4000ab2cfc1","6213ccb4740b1a5bbcd4e864","","","","","<p style=""color:darkgreen;font-size:24px;"">Correct :)</p>","",""
"2750","key","n","n","16.631393939394954","500","250","psychophysics","399","1228901","0.0-399.0","5db222231ff7b4000ab2cfc1","6213ccb4740b1a5bbcd4e864","7","","","","","0","6"
"null","","","null","","","","html-keyboard-response","400","1229404","0.0-400.0","5db222231ff7b4000ab2cfc1","6213ccb4740b1a5bbcd4e864","","","","","<p style=""color:darkgreen;font-size:24px;"">Correct :)</p>","",""
"2534","key","v","v","16.62599999999956","500","250","psychophysics","401","1231951","0.0-401.0","5db222231ff7b4000ab2cfc1","6213ccb4740b1a5bbcd4e864","7","","","","","0","1"
"null","","","null","","","","html-keyboard-response","402","1232452","0.0-402.0","5db222231ff7b4000ab2cfc1","6213ccb4740b1a5bbcd4e864","","","","","<p style=""color:darkgreen;font-size:24px;"">Correct :)</p>","",""
"2624","key","n","n","16.626000000000342","500","250","psychophysics","403","1235080","0.0-403.0","5db222231ff7b4000ab2cfc1","6213ccb4740b1a5bbcd4e864","7","","","","","1","7"
"null","","","null","","","","html-keyboard-response","404","1235581","0.0-404.0","5db222231ff7b4000ab2cfc1","6213ccb4740b1a5bbcd4e864","","","","","<p style=""color:darkgreen;font-size:24px;"">Correct :)</p>","",""
"2678","key","n","n","16.63151552794958","500","250","psychophysics","405","1238262","0.0-405.0","5db222231ff7b4000ab2cfc1","6213ccb4740b1a5bbcd4e864","7","","","","","0","4"
"null","","","null","","","","html-keyboard-response","406","1238767","0.0-406.0","5db222231ff7b4000ab2cfc1","6213ccb4740b1a5bbcd4e864","","","","","<p style=""color:darkgreen;font-size:24px;"">Correct :)</p>","",""
"2502","key","n","n","16.626000000000932","500","250","psychophysics","407","1241271","0.0-407.0","5db222231ff7b4000ab2cfc1","6213ccb4740b1a5bbcd4e864","7","","","","","0","4"
"null","","","null","","","","html-keyboard-response","408","1241775","0.0-408.0","5db222231ff7b4000ab2cfc1","6213ccb4740b1a5bbcd4e864","","","","","<p style=""color:darkgreen;font-size:24px;"">Correct :)</p>","",""
"2924","key","v","v","16.626000000000268","500","250","psychophysics","409","1244701","0.0-409.0","5db222231ff7b4000ab2cfc1","6213ccb4740b1a5bbcd4e864","7","","","","","1","7"
"null","","","null","","","","html-keyboard-response","410","1245204","0.0-410.0","5db222231ff7b4000ab2cfc1","6213ccb4740b1a5bbcd4e864","","","","","<p style=""color:red;font-size:24px;"">Error :(</p>","",""
"2936","key","n","n","16.631062500000223","500","250","psychophysics","411","1248144","0.0-411.0","5db222231ff7b4000ab2cfc1","6213ccb4740b1a5bbcd4e864","7","","","","","0","2"
"null","","","null","","","","html-keyboard-response","412","1248648","0.0-412.0","5db222231ff7b4000ab2cfc1","6213ccb4740b1a5bbcd4e864","","","","","<p style=""color:darkgreen;font-size:24px;"">Correct :)</p>","",""
"2811","key","v","v","16.625999999999966","500","250","psychophysics","413","1251461","0.0-413.0","5db222231ff7b4000ab2cfc1","6213ccb4740b1a5bbcd4e864","7","","","","","1","1"
"null","","","null","","","","html-keyboard-response","414","1251964","0.0-414.0","5db222231ff7b4000ab2cfc1","6213ccb4740b1a5bbcd4e864","","","","","<p style=""color:darkgreen;font-size:24px;"">Correct :)</p>","",""
"3237","key","v","v","16.62599999999914","500","250","psychophysics","415","1255204","0.0-415.0","5db222231ff7b4000ab2cfc1","6213ccb4740b1a5bbcd4e864","7","","","","","0","3"
"null","","","null","","","","html-keyboard-response","416","1255706","0.0-416.0","5db222231ff7b4000ab2cfc1","6213ccb4740b1a5bbcd4e864","","","","","<p style=""color:darkgreen;font-size:24px;"">Correct :)</p>","",""
"3197","key","v","v","16.630715025907353","500","250","psychophysics","417","1258910","0.0-417.0","5db222231ff7b4000ab2cfc1","6213ccb4740b1a5bbcd4e864","7","","","","","1","3"
"null","","","null","","","","html-keyboard-response","418","1259414","0.0-418.0","5db222231ff7b4000ab2cfc1","6213ccb4740b1a5bbcd4e864","","","","","<p style=""color:darkgreen;font-size:24px;"">Correct :)</p>","",""
"3095","key","n","n","16.62599999999956","500","250","psychophysics","419","1262516","0.0-419.0","5db222231ff7b4000ab2cfc1","6213ccb4740b1a5bbcd4e864","7","","","","","1","6"
"null","","","null","","","","html-keyboard-response","420","1263020","0.0-420.0","5db222231ff7b4000ab2cfc1","6213ccb4740b1a5bbcd4e864","","","","","<p style=""color:darkgreen;font-size:24px;"">Correct :)</p>","",""
"2956","key","v","v","16.62600000000041","500","250","psychophysics","421","1265980","0.0-421.0","5db222231ff7b4000ab2cfc1","6213ccb4740b1a5bbcd4e864","7","","","","","0","1"
"null","","","null","","","","html-keyboard-response","422","1266481","0.0-422.0","5db222231ff7b4000ab2cfc1","6213ccb4740b1a5bbcd4e864","","","","","<p style=""color:darkgreen;font-size:24px;"">Correct :)</p>","",""
"2838","key","v","v","16.63108235294109","500","250","psychophysics","423","1269323","0.0-423.0","5db222231ff7b4000ab2cfc1","6213ccb4740b1a5bbcd4e864","7","","","","","1","3"
"null","","","null","","","","html-keyboard-response","424","1269824","0.0-424.0","5db222231ff7b4000ab2cfc1","6213ccb4740b1a5bbcd4e864","","","","","<p style=""color:darkgreen;font-size:24px;"">Correct :)</p>","",""
"2747","key","n","n","16.626000000000225","500","250","psychophysics","425","1272575","0.0-425.0","5db222231ff7b4000ab2cfc1","6213ccb4740b1a5bbcd4e864","7","","","","","0","4"
"null","","","null","","","","html-keyboard-response","426","1273080","0.0-426.0","5db222231ff7b4000ab2cfc1","6213ccb4740b1a5bbcd4e864","","","","","<p style=""color:darkgreen;font-size:24px;"">Correct :)</p>","",""
"2971","key","v","v","16.626000000000023","500","250","psychophysics","427","1276054","0.0-427.0","5db222231ff7b4000ab2cfc1","6213ccb4740b1a5bbcd4e864","7","","","","","0","7"
"null","","","null","","","","html-keyboard-response","428","1276558","0.0-428.0","5db222231ff7b4000ab2cfc1","6213ccb4740b1a5bbcd4e864","","","","","<p style=""color:darkgreen;font-size:24px;"">Correct :)</p>","",""
"2524","key","n","n","16.631880794701146","500","250","psychophysics","429","1279085","0.0-429.0","5db222231ff7b4000ab2cfc1","6213ccb4740b1a5bbcd4e864","7","","","","","0","4"
"null","","","null","","","","html-keyboard-response","430","1279589","0.0-430.0","5db222231ff7b4000ab2cfc1","6213ccb4740b1a5bbcd4e864","","","","","<p style=""color:darkgreen;font-size:24px;"">Correct :)</p>","",""
"2646","key","v","v","16.625999999999905","500","250","psychophysics","431","1282238","0.0-431.0","5db222231ff7b4000ab2cfc1","6213ccb4740b1a5bbcd4e864","7","","","","","1","3"
"null","","","null","","","","html-keyboard-response","432","1282739","0.0-432.0","5db222231ff7b4000ab2cfc1","6213ccb4740b1a5bbcd4e864","","","","","<p style=""color:darkgreen;font-size:24px;"">Correct :)</p>","",""
"2632","key","n","n","16.837796178343854","500","250","psychophysics","433","1285375","0.0-433.0","5db222231ff7b4000ab2cfc1","6213ccb4740b1a5bbcd4e864","7","","","","","1","7"
"null","","","null","","","","html-keyboard-response","434","1285879","0.0-434.0","5db222231ff7b4000ab2cfc1","6213ccb4740b1a5bbcd4e864","","","","","<p style=""color:darkgreen;font-size:24px;"">Correct :)</p>","",""
"2760","key","v","v","16.63134337349301","500","250","psychophysics","435","1288643","0.0-435.0","5db222231ff7b4000ab2cfc1","6213ccb4740b1a5bbcd4e864","7","","","","","1","1"
"null","","","null","","","","html-keyboard-response","436","1289148","0.0-436.0","5db222231ff7b4000ab2cfc1","6213ccb4740b1a5bbcd4e864","","","","","<p style=""color:darkgreen;font-size:24px;"">Correct :)</p>","",""
"2628","key","n","n","16.626000000000342","500","250","psychophysics","437","1291780","0.0-437.0","5db222231ff7b4000ab2cfc1","6213ccb4740b1a5bbcd4e864","7","","","","","0","6"
"null","","","null","","","","html-keyboard-response","438","1292283","0.0-438.0","5db222231ff7b4000ab2cfc1","6213ccb4740b1a5bbcd4e864","","","","","<p style=""color:darkgreen;font-size:24px;"">Correct :)</p>","",""
"3048","key","n","n","16.62599999999941","500","250","psychophysics","439","1295335","0.0-439.0","5db222231ff7b4000ab2cfc1","6213ccb4740b1a5bbcd4e864","7","","","","","0","2"
"null","","","null","","","","html-keyboard-response","440","1295837","0.0-440.0","5db222231ff7b4000ab2cfc1","6213ccb4740b1a5bbcd4e864","","","","","<p style=""color:darkgreen;font-size:24px;"">Correct :)</p>","",""
"2475","key","n","n","16.631966442954194","500","250","psychophysics","441","1298316","0.0-441.0","5db222231ff7b4000ab2cfc1","6213ccb4740b1a5bbcd4e864","7","","","","","0","2"
"null","","","null","","","","html-keyboard-response","442","1298819","0.0-442.0","5db222231ff7b4000ab2cfc1","6213ccb4740b1a5bbcd4e864","","","","","<p style=""color:darkgreen;font-size:24px;"">Correct :)</p>","",""
"3232","key","v","v","16.62599999999914","500","250","psychophysics","443","1302055","0.0-443.0","5db222231ff7b4000ab2cfc1","6213ccb4740b1a5bbcd4e864","7","","","","","1","4"
"null","","","null","","","","html-keyboard-response","444","1302559","0.0-444.0","5db222231ff7b4000ab2cfc1","6213ccb4740b1a5bbcd4e864","","","","","<p style=""color:darkgreen;font-size:24px;"">Correct :)</p>","",""
"3235","key","v","v","16.626000000000335","500","250","psychophysics","445","1305798","0.0-445.0","5db222231ff7b4000ab2cfc1","6213ccb4740b1a5bbcd4e864","7","","","","","1","4"
"null","","","null","","","","html-keyboard-response","446","1306302","0.0-446.0","5db222231ff7b4000ab2cfc1","6213ccb4740b1a5bbcd4e864","","","","","<p style=""color:darkgreen;font-size:24px;"">Correct :)</p>","",""
"2579","key","n","n","16.849326797385146","500","250","psychophysics","447","1308887","0.0-447.0","5db222231ff7b4000ab2cfc1","6213ccb4740b1a5bbcd4e864","7","","","","","0","6"
"null","","","null","","","","html-keyboard-response","448","1309390","0.0-448.0","5db222231ff7b4000ab2cfc1","6213ccb4740b1a5bbcd4e864","","","","","<p style=""color:darkgreen;font-size:24px;"">Correct :)</p>","",""
"2588","key","n","n","16.62599999999974","500","250","psychophysics","449","1311983","0.0-449.0","5db222231ff7b4000ab2cfc1","6213ccb4740b1a5bbcd4e864","7","","","","","0","6"
"null","","","null","","","","html-keyboard-response","450","1312484","0.0-450.0","5db222231ff7b4000ab2cfc1","6213ccb4740b1a5bbcd4e864","","","","","<p style=""color:darkgreen;font-size:24px;"">Correct :)</p>","",""
"2753","key","n","n","16.62599999999981","500","250","psychophysics","451","1315240","0.0-451.0","5db222231ff7b4000ab2cfc1","6213ccb4740b1a5bbcd4e864","7","","","","","0","2"
"null","","","null","","","","html-keyboard-response","452","1315743","0.0-452.0","5db222231ff7b4000ab2cfc1","6213ccb4740b1a5bbcd4e864","","","","","<p style=""color:darkgreen;font-size:24px;"">Correct :)</p>","",""
"2572","key","n","n","16.631548387097617","500","250","psychophysics","453","1318319","0.0-453.0","5db222231ff7b4000ab2cfc1","6213ccb4740b1a5bbcd4e864","7","","","","","0","2"
"null","","","null","","","","html-keyboard-response","454","1318823","0.0-454.0","5db222231ff7b4000ab2cfc1","6213ccb4740b1a5bbcd4e864","","","","","<p style=""color:darkgreen;font-size:24px;"">Correct :)</p>","",""
"2581","key","n","n","16.62599999999974","500","250","psychophysics","455","1321411","0.0-455.0","5db222231ff7b4000ab2cfc1","6213ccb4740b1a5bbcd4e864","7","","","","","1","6"
"null","","","null","","","","html-keyboard-response","456","1321912","0.0-456.0","5db222231ff7b4000ab2cfc1","6213ccb4740b1a5bbcd4e864","","","","","<p style=""color:darkgreen;font-size:24px;"">Correct :)</p>","",""
"2559","key","v","v","16.625999999999117","500","250","psychophysics","457","1324475","0.0-457.0","5db222231ff7b4000ab2cfc1","6213ccb4740b1a5bbcd4e864","7","","","","","0","1"
"null","","","null","","","","html-keyboard-response","458","1324979","0.0-458.0","5db222231ff7b4000ab2cfc1","6213ccb4740b1a5bbcd4e864","","","","","<p style=""color:darkgreen;font-size:24px;"">Correct :)</p>","",""
"3029","key","n","n","16.630901098901223","500","250","psychophysics","459","1328011","0.0-459.0","5db222231ff7b4000ab2cfc1","6213ccb4740b1a5bbcd4e864","7","","","","","1","7"
"null","","","null","","","","html-keyboard-response","460","1328513","0.0-460.0","5db222231ff7b4000ab2cfc1","6213ccb4740b1a5bbcd4e864","","","","","<p style=""color:darkgreen;font-size:24px;"">Correct :)</p>","",""
"2592","key","v","v","16.62599999999974","500","250","psychophysics","461","1331109","0.0-461.0","5db222231ff7b4000ab2cfc1","6213ccb4740b1a5bbcd4e864","7","","","","","0","7"
"null","","","null","","","","html-keyboard-response","462","1331611","0.0-462.0","5db222231ff7b4000ab2cfc1","6213ccb4740b1a5bbcd4e864","","","","","<p style=""color:darkgreen;font-size:24px;"">Correct :)</p>","",""
"2815","key","n","n","16.625999999999966","500","250","psychophysics","463","1334428","0.0-463.0","5db222231ff7b4000ab2cfc1","6213ccb4740b1a5bbcd4e864","7","","","","","0","4"
"null","","","null","","","","html-keyboard-response","464","1334932","0.0-464.0","5db222231ff7b4000ab2cfc1","6213ccb4740b1a5bbcd4e864","","","","","<p style=""color:darkgreen;font-size:24px;"">Correct :)</p>","",""
"2780","key","v","v","16.631293413174912","500","250","psychophysics","465","1337715","0.0-465.0","5db222231ff7b4000ab2cfc1","6213ccb4740b1a5bbcd4e864","7","","","","","0","3"
"null","","","null","","","","html-keyboard-response","466","1338219","0.0-466.0","5db222231ff7b4000ab2cfc1","6213ccb4740b1a5bbcd4e864","","","","","<p style=""color:darkgreen;font-size:24px;"">Correct :)</p>","",""
"2797","key","v","v","16.625999999998992","500","250","psychophysics","467","1341019","0.0-467.0","5db222231ff7b4000ab2cfc1","6213ccb4740b1a5bbcd4e864","7","","","","","0","3"
"null","","","null","","","","html-keyboard-response","468","1341524","0.0-468.0","5db222231ff7b4000ab2cfc1","6213ccb4740b1a5bbcd4e864","","","","","<p style=""color:darkgreen;font-size:24px;"">Correct :)</p>","",""
"2836","key","v","v","16.62599999999956","500","250","psychophysics","469","1344363","0.0-469.0","5db222231ff7b4000ab2cfc1","6213ccb4740b1a5bbcd4e864","7","","","","","0","1"
"null","","","null","","","","html-keyboard-response","470","1344866","0.0-470.0","5db222231ff7b4000ab2cfc1","6213ccb4740b1a5bbcd4e864","","","","","<p style=""color:darkgreen;font-size:24px;"">Correct :)</p>","",""
"2582","key","n","n","16.63173548387093","500","250","psychophysics","471","1347452","0.0-471.0","5db222231ff7b4000ab2cfc1","6213ccb4740b1a5bbcd4e864","7","","","","","1","7"
"null","","","null","","","","html-keyboard-response","472","1347955","0.0-472.0","5db222231ff7b4000ab2cfc1","6213ccb4740b1a5bbcd4e864","","","","","<p style=""color:darkgreen;font-size:24px;"">Correct :)</p>","",""
"2972","key","n","n","16.62600000000041","500","250","psychophysics","473","1350931","0.0-473.0","5db222231ff7b4000ab2cfc1","6213ccb4740b1a5bbcd4e864","7","","","","","0","4"
"null","","","null","","","","html-keyboard-response","474","1351435","0.0-474.0","5db222231ff7b4000ab2cfc1","6213ccb4740b1a5bbcd4e864","","","","","<p style=""color:darkgreen;font-size:24px;"">Correct :)</p>","",""
"2827","key","n","n","16.62599999999956","500","250","psychophysics","475","1354265","0.0-475.0","5db222231ff7b4000ab2cfc1","6213ccb4740b1a5bbcd4e864","7","","","","","0","6"
"null","","","null","","","","html-keyboard-response","476","1354767","0.0-476.0","5db222231ff7b4000ab2cfc1","6213ccb4740b1a5bbcd4e864","","","","","<p style=""color:darkgreen;font-size:24px;"">Correct :)</p>","",""
"3085","key","v","v","16.630768817204792","500","250","psychophysics","477","1357855","0.0-477.0","5db222231ff7b4000ab2cfc1","6213ccb4740b1a5bbcd4e864","7","","","","","1","2"
"null","","","null","","","","html-keyboard-response","478","1358360","0.0-478.0","5db222231ff7b4000ab2cfc1","6213ccb4740b1a5bbcd4e864","","","","","<p style=""color:darkgreen;font-size:24px;"">Correct :)</p>","",""
"2618","key","n","n","16.626000000000342","500","250","psychophysics","479","1360981","0.0-479.0","5db222231ff7b4000ab2cfc1","6213ccb4740b1a5bbcd4e864","7","","","","","0","4"
"null","","","null","","","","html-keyboard-response","480","1361483","0.0-480.0","5db222231ff7b4000ab2cfc1","6213ccb4740b1a5bbcd4e864","","","","","<p style=""color:darkgreen;font-size:24px;"">Correct :)</p>","",""
"2627","key","v","v","16.625999999998868","500","250","psychophysics","481","1364114","0.0-481.0","5db222231ff7b4000ab2cfc1","6213ccb4740b1a5bbcd4e864","7","","","","","0","2"
"null","","","null","","","","html-keyboard-response","482","1364618","0.0-482.0","5db222231ff7b4000ab2cfc1","6213ccb4740b1a5bbcd4e864","","","","","<p style=""color:red;font-size:24px;"">Error :(</p>","",""
"2464","key","n","n","16.632006756756834","500","250","psychophysics","483","1367086","0.0-483.0","5db222231ff7b4000ab2cfc1","6213ccb4740b1a5bbcd4e864","7","","","","","1","7"
"null","","","null","","","","html-keyboard-response","484","1367590","0.0-484.0","5db222231ff7b4000ab2cfc1","6213ccb4740b1a5bbcd4e864","","","","","<p style=""color:darkgreen;font-size:24px;"">Correct :)</p>","",""
"2564","key","n","n","16.62600000000018","500","250","psychophysics","485","1370158","0.0-485.0","5db222231ff7b4000ab2cfc1","6213ccb4740b1a5bbcd4e864","7","","","","","1","6"
"null","","","null","","","","html-keyboard-response","486","1370661","0.0-486.0","5db222231ff7b4000ab2cfc1","6213ccb4740b1a5bbcd4e864","","","","","<p style=""color:darkgreen;font-size:24px;"">Correct :)</p>","",""
"3315","key","v","v","16.625999999999767","500","250","psychophysics","487","1373979","0.0-487.0","5db222231ff7b4000ab2cfc1","6213ccb4740b1a5bbcd4e864","7","","","","","1","2"
"null","","","null","","","","html-keyboard-response","488","1374484","0.0-488.0","5db222231ff7b4000ab2cfc1","6213ccb4740b1a5bbcd4e864","","","","","<p style=""color:darkgreen;font-size:24px;"">Correct :)</p>","",""
"2507","key","v","v","16.63189403973489","500","250","psychophysics","489","1376995","0.0-489.0","5db222231ff7b4000ab2cfc1","6213ccb4740b1a5bbcd4e864","7","","","","","1","1"
"null","","","null","","","","html-keyboard-response","490","1377499","0.0-490.0","5db222231ff7b4000ab2cfc1","6213ccb4740b1a5bbcd4e864","","","","","<p style=""color:darkgreen;font-size:24px;"">Correct :)</p>","",""
"2958","key","n","n","16.62600000000041","500","250","psychophysics","491","1380459","0.0-491.0","5db222231ff7b4000ab2cfc1","6213ccb4740b1a5bbcd4e864","7","","","","","1","4"
"null","","","null","","","","html-keyboard-response","492","1380964","0.0-492.0","5db222231ff7b4000ab2cfc1","6213ccb4740b1a5bbcd4e864","","","","","<p style=""color:red;font-size:24px;"">Error :(</p>","",""
"2787","key","n","n","16.625999999999397","500","250","psychophysics","493","1383754","0.0-493.0","5db222231ff7b4000ab2cfc1","6213ccb4740b1a5bbcd4e864","7","","","","","1","7"
"null","","","null","","","","html-keyboard-response","494","1384256","0.0-494.0","5db222231ff7b4000ab2cfc1","6213ccb4740b1a5bbcd4e864","","","","","<p style=""color:darkgreen;font-size:24px;"">Correct :)</p>","",""
"3335","key","v","v","16.630455000000076","500","250","psychophysics","495","1387594","0.0-495.0","5db222231ff7b4000ab2cfc1","6213ccb4740b1a5bbcd4e864","7","","","","","0","7"
"null","","","null","","","","html-keyboard-response","496","1388099","0.0-496.0","5db222231ff7b4000ab2cfc1","6213ccb4740b1a5bbcd4e864","","","","","<p style=""color:darkgreen;font-size:24px;"">Correct :)</p>","",""
