"rt","response_type","key_press","response","avg_frame_time","center_x","center_y","trial_type","trial_index","time_elapsed","internal_node_id","pid","sid","phase","guide","targ","resp","stimulus","is5","stim"
"37290","key"," "," ","16.666670540903","500","250","psychophysics","0","37311","0.0-0.0","5bad8fc39c0cc900017a6a28","62014fbc0fe678a8876861b0","","","","","","",""
"8336","key"," "," ","16.700210000000006","500","250","psychophysics","1","45658","0.0-1.0","5bad8fc39c0cc900017a6a28","62014fbc0fe678a8876861b0","","","","","","",""
"6196","key"," "," ","16.666547169811313","500","250","psychophysics","2","51858","0.0-2.0","5bad8fc39c0cc900017a6a28","62014fbc0fe678a8876861b0","","","","","","",""
"17565","key"," "," ","16.66660968660969","500","250","psychophysics","3","69425","0.0-3.0","5bad8fc39c0cc900017a6a28","62014fbc0fe678a8876861b0","","","","","","",""
"6139","key"," "," ","16.66667847411445","500","250","psychophysics","4","75569","0.0-4.0","5bad8fc39c0cc900017a6a28","62014fbc0fe678a8876861b0","","","","","","",""
"5544","key"," "," ","16.666710843373487","500","250","psychophysics","5","81121","0.0-5.0","5bad8fc39c0cc900017a6a28","62014fbc0fe678a8876861b0","","","","","","",""
"7376","key"," "," ","16.666733031674198","500","250","psychophysics","6","88505","0.0-6.0","5bad8fc39c0cc900017a6a28","62014fbc0fe678a8876861b0","","","","","","",""
"8533","key"," "," ","16.666742187500006","500","250","psychophysics","7","97049","0.0-7.0","5bad8fc39c0cc900017a6a28","62014fbc0fe678a8876861b0","","","","","","",""
"7828","key"," "," ","16.666573560767606","500","250","psychophysics","8","104881","0.0-8.0","5bad8fc39c0cc900017a6a28","62014fbc0fe678a8876861b0","0","0","58","59","","",""
"4733","key"," "," ","16.666409893992974","500","250","psychophysics","9","109617","0.0-9.0","5bad8fc39c0cc900017a6a28","62014fbc0fe678a8876861b0","","","","","","",""
"6598","key"," "," ","16.666583333333307","500","250","psychophysics","10","116225","0.0-10.0","5bad8fc39c0cc900017a6a28","62014fbc0fe678a8876861b0","","","","","","",""
"7443","key"," "," ","16.66668764044942","500","250","psychophysics","11","123673","0.0-11.0","5bad8fc39c0cc900017a6a28","62014fbc0fe678a8876861b0","","","","","","",""
"5777","key"," "," ","17.00983529411764","500","250","psychophysics","12","129458","0.0-12.0","5bad8fc39c0cc900017a6a28","62014fbc0fe678a8876861b0","","","","","","",""
"6418","key"," "," ","16.66641927083337","500","250","psychophysics","13","135880","0.0-13.0","5bad8fc39c0cc900017a6a28","62014fbc0fe678a8876861b0","","","","","","",""
"30590","key"," "," ","16.666634877384194","500","250","psychophysics","14","166474","0.0-14.0","5bad8fc39c0cc900017a6a28","62014fbc0fe678a8876861b0","","","","","","",""
"7234","key"," "," ","16.666635103926076","500","250","psychophysics","15","173712","0.0-15.0","5bad8fc39c0cc900017a6a28","62014fbc0fe678a8876861b0","","","","","","",""
"6989","key"," "," ","16.66653588516752","500","250","psychophysics","16","180703","0.0-16.0","5bad8fc39c0cc900017a6a28","62014fbc0fe678a8876861b0","","","","","","",""
"8870","key"," "," ","16.666718045112816","500","250","psychophysics","17","189583","0.0-17.0","5bad8fc39c0cc900017a6a28","62014fbc0fe678a8876861b0","1","0","51","60","","",""
"7076","key"," "," ","16.66676886792451","500","250","psychophysics","18","196663","0.0-18.0","5bad8fc39c0cc900017a6a28","62014fbc0fe678a8876861b0","1","5","47","55","","",""
"7875","key"," "," ","16.666457627118643","500","250","psychophysics","19","204542","0.0-19.0","5bad8fc39c0cc900017a6a28","62014fbc0fe678a8876861b0","1","0","49","69","","",""
"799","key"," "," ","16.66591489361723","500","250","psychophysics","20","205343","0.0-20.0","5bad8fc39c0cc900017a6a28","62014fbc0fe678a8876861b0","1","5","39","11","","",""
"6820","key"," "," ","16.66655637254899","500","250","psychophysics","21","212167","0.0-21.0","5bad8fc39c0cc900017a6a28","62014fbc0fe678a8876861b0","1","0","57","72","","",""
"6712","key"," "," ","16.66668407960195","500","250","psychophysics","22","218887","0.0-22.0","5bad8fc39c0cc900017a6a28","62014fbc0fe678a8876861b0","1","5","31","35","","",""
"7673","key"," "," ","16.666741304347827","500","250","psychophysics","23","226567","0.0-23.0","5bad8fc39c0cc900017a6a28","62014fbc0fe678a8876861b0","1","0","60","90","","",""
"6603","key"," "," ","16.666338383838372","500","250","psychophysics","24","233174","0.0-24.0","5bad8fc39c0cc900017a6a28","62014fbc0fe678a8876861b0","1","5","33","44","","",""
"9335","key"," "," ","16.66691771019678","500","250","psychophysics","25","242511","0.0-25.0","5bad8fc39c0cc900017a6a28","62014fbc0fe678a8876861b0","1","0","41","48","","",""
"7980","key"," "," ","16.6665774058577","500","250","psychophysics","26","250495","0.0-26.0","5bad8fc39c0cc900017a6a28","62014fbc0fe678a8876861b0","1","5","59","57","","",""
"13108","key"," "," ","16.666653944020382","500","250","psychophysics","27","263607","0.0-27.0","5bad8fc39c0cc900017a6a28","62014fbc0fe678a8876861b0","1","0","26","38","","",""
"6660","key"," "," ","16.70839447236179","500","250","psychophysics","28","270272","0.0-28.0","5bad8fc39c0cc900017a6a28","62014fbc0fe678a8876861b0","1","5","28","31","","",""
"5179","key"," "," ","16.66671290322594","500","250","psychophysics","29","275456","0.0-29.0","5bad8fc39c0cc900017a6a28","62014fbc0fe678a8876861b0","1","0","31","39","","",""
"4739","key"," "," ","16.66649823321557","500","250","psychophysics","30","280199","0.0-30.0","5bad8fc39c0cc900017a6a28","62014fbc0fe678a8876861b0","1","5","34","35","","",""
"3980","key"," "," ","16.666495798319282","500","250","psychophysics","31","284183","0.0-31.0","5bad8fc39c0cc900017a6a28","62014fbc0fe678a8876861b0","1","0","29","41","","",""
"5108","key"," "," ","16.666888888888792","500","250","psychophysics","32","289295","0.0-32.0","5bad8fc39c0cc900017a6a28","62014fbc0fe678a8876861b0","1","5","35","38","","",""
"4988","key"," "," ","16.66652348993292","500","250","psychophysics","33","294287","0.0-33.0","5bad8fc39c0cc900017a6a28","62014fbc0fe678a8876861b0","1","0","37","53","","",""
"4481","key"," "," ","16.66682156133829","500","250","psychophysics","34","298775","0.0-34.0","5bad8fc39c0cc900017a6a28","62014fbc0fe678a8876861b0","1","5","31","35","","",""
"9053","key"," "," ","16.666612546125467","500","250","psychophysics","35","307831","0.0-35.0","5bad8fc39c0cc900017a6a28","62014fbc0fe678a8876861b0","1","0","44","51","","",""
"3868","key"," "," ","16.666731601731662","500","250","psychophysics","36","311703","0.0-36.0","5bad8fc39c0cc900017a6a28","62014fbc0fe678a8876861b0","1","5","30","34","","",""
"6482","key"," "," ","16.66674293059129","500","250","psychophysics","37","318191","0.0-37.0","5bad8fc39c0cc900017a6a28","62014fbc0fe678a8876861b0","","","","","","",""
"12684","key"," "," ","16.66636315789472","500","250","psychophysics","38","330878","0.0-38.0","5bad8fc39c0cc900017a6a28","62014fbc0fe678a8876861b0","","","","","","",""
"3277","key"," "," ","16.66743367346959","500","250","psychophysics","39","334159","0.0-39.0","5bad8fc39c0cc900017a6a28","62014fbc0fe678a8876861b0","","","","","","",""
"6917","key"," "," ","16.666666666666668","500","250","psychophysics","40","341079","0.0-40.0","5bad8fc39c0cc900017a6a28","62014fbc0fe678a8876861b0","2","0","26","38","","",""
"4187","key"," "," ","16.66673999999999","500","250","psychophysics","41","345271","0.0-41.0","5bad8fc39c0cc900017a6a28","62014fbc0fe678a8876861b0","","","","","","",""
"6210","key"," "," ","16.666696236559137","500","250","psychophysics","42","351487","0.0-42.0","5bad8fc39c0cc900017a6a28","62014fbc0fe678a8876861b0","2","0","43","60","","",""
"3241","key"," "," ","16.666644329896748","500","250","psychophysics","43","354735","0.0-43.0","5bad8fc39c0cc900017a6a28","62014fbc0fe678a8876861b0","","","","","","",""
"5658","key"," "," ","16.66672271386439","500","250","psychophysics","44","360399","0.0-44.0","5bad8fc39c0cc900017a6a28","62014fbc0fe678a8876861b0","2","0","34","37","","",""
"2573","key"," "," ","16.666006493506508","500","250","psychophysics","45","362975","0.0-45.0","5bad8fc39c0cc900017a6a28","62014fbc0fe678a8876861b0","","","","","","",""
"4085","key"," "," ","16.666290983606604","500","250","psychophysics","46","367063","0.0-46.0","5bad8fc39c0cc900017a6a28","62014fbc0fe678a8876861b0","2","0","41","49","","",""
"3747","key"," "," ","16.666544642857065","500","250","psychophysics","47","370815","0.0-47.0","5bad8fc39c0cc900017a6a28","62014fbc0fe678a8876861b0","","","","","","",""
"4708","key"," "," ","16.66635815602837","500","250","psychophysics","48","375527","0.0-48.0","5bad8fc39c0cc900017a6a28","62014fbc0fe678a8876861b0","2","0","41","52","","",""
"2149","key"," "," ","16.666640625000127","500","250","psychophysics","49","377679","0.0-49.0","5bad8fc39c0cc900017a6a28","62014fbc0fe678a8876861b0","","","","","","",""
"3436","key"," "," ","16.6664926829268","500","250","psychophysics","50","381118","0.0-50.0","5bad8fc39c0cc900017a6a28","62014fbc0fe678a8876861b0","2","0","42","43","","",""
"4734","key"," "," ","16.666478873239534","500","250","psychophysics","51","385854","0.0-51.0","5bad8fc39c0cc900017a6a28","62014fbc0fe678a8876861b0","","","","","","",""
"4910","key"," "," ","16.66684641638225","500","250","psychophysics","52","390766","0.0-52.0","5bad8fc39c0cc900017a6a28","62014fbc0fe678a8876861b0","2","0","25","30","","",""
"2502","key"," "," ","16.66681999999991","500","250","psychophysics","53","393272","0.0-53.0","5bad8fc39c0cc900017a6a28","62014fbc0fe678a8876861b0","","","","","","",""
"4531","key"," "," ","16.666431734317353","500","250","psychophysics","54","397807","0.0-54.0","5bad8fc39c0cc900017a6a28","62014fbc0fe678a8876861b0","2","0","59","82","","",""
"1325","key"," "," ","16.666628205128617","500","250","psychophysics","55","399135","0.0-55.0","5bad8fc39c0cc900017a6a28","62014fbc0fe678a8876861b0","","","","","","",""
"3921","key"," "," ","16.666808510638347","500","250","psychophysics","56","403063","0.0-56.0","5bad8fc39c0cc900017a6a28","62014fbc0fe678a8876861b0","2","0","50","54","","",""
"1756","key"," "," ","16.665161904761945","500","250","psychophysics","57","404821","0.0-57.0","5bad8fc39c0cc900017a6a28","62014fbc0fe678a8876861b0","","","","","","",""
"3662","key"," "," ","16.66738073394496","500","250","psychophysics","58","408487","0.0-58.0","5bad8fc39c0cc900017a6a28","62014fbc0fe678a8876861b0","2","0","52","76","","",""
"970","key"," "," ","16.667655172413575","500","250","psychophysics","59","409463","0.0-59.0","5bad8fc39c0cc900017a6a28","62014fbc0fe678a8876861b0","","","","","","",""
"2612","key"," "," ","16.66655769230774","500","250","psychophysics","60","412078","0.0-60.0","5bad8fc39c0cc900017a6a28","62014fbc0fe678a8876861b0","2","0","33","48","","",""
"1165","key"," "," ","16.666275362318814","500","250","psychophysics","61","413246","0.0-61.0","5bad8fc39c0cc900017a6a28","62014fbc0fe678a8876861b0","","","","","","",""
"3972","key"," "," ","16.6663067226891","500","250","psychophysics","62","417222","0.0-62.0","5bad8fc39c0cc900017a6a28","62014fbc0fe678a8876861b0","2","0","51","67","","",""
"847","key"," "," ","16.668551020407385","500","250","psychophysics","63","418071","0.0-63.0","5bad8fc39c0cc900017a6a28","62014fbc0fe678a8876861b0","","","","","","",""
"2379","key"," "," ","16.667097902098032","500","250","psychophysics","64","420456","0.0-64.0","5bad8fc39c0cc900017a6a28","62014fbc0fe678a8876861b0","2","0","32","45","","",""
"732","key"," "," ","16.667162790698228","500","250","psychophysics","65","421191","0.0-65.0","5bad8fc39c0cc900017a6a28","62014fbc0fe678a8876861b0","","","","","","",""
"2084","key"," "," ","16.666822580645526","500","250","psychophysics","66","423279","0.0-66.0","5bad8fc39c0cc900017a6a28","62014fbc0fe678a8876861b0","2","0","35","36","","",""
"1021","key"," "," ","16.666483333333357","500","250","psychophysics","67","424303","0.0-67.0","5bad8fc39c0cc900017a6a28","62014fbc0fe678a8876861b0","","","","","","",""
"1978","key"," "," ","16.667305084745994","500","250","psychophysics","68","426287","0.0-68.0","5bad8fc39c0cc900017a6a28","62014fbc0fe678a8876861b0","2","0","25","23","","",""
"970","key"," "," ","16.667396551724686","500","250","psychophysics","69","427263","0.0-69.0","5bad8fc39c0cc900017a6a28","62014fbc0fe678a8876861b0","","","","","","",""
"4846","key"," "," ","16.666272413793244","500","250","psychophysics","70","432112","0.0-70.0","5bad8fc39c0cc900017a6a28","62014fbc0fe678a8876861b0","","","","","","",""
"4092","key"," "," ","16.667020408163438","500","250","psychophysics","71","436207","0.0-71.0","5bad8fc39c0cc900017a6a28","62014fbc0fe678a8876861b0","","","","","","",""
"6276","key"," "," ","16.66659466666666","500","250","psychophysics","72","442487","0.0-72.0","5bad8fc39c0cc900017a6a28","62014fbc0fe678a8876861b0","3","5","32","31","","",""
"3344","key"," "," ","16.66627363184066","500","250","psychophysics","73","445838","0.0-73.0","5bad8fc39c0cc900017a6a28","62014fbc0fe678a8876861b0","3","0","40","51","","",""
"5127","key"," "," ","16.66696078431362","500","250","psychophysics","74","450967","0.0-74.0","5bad8fc39c0cc900017a6a28","62014fbc0fe678a8876861b0","3","5","60","52","","",""
"3540","key"," "," ","16.66678301886796","500","250","psychophysics","75","454511","0.0-75.0","5bad8fc39c0cc900017a6a28","62014fbc0fe678a8876861b0","3","0","55","65","","",""
"6364","key"," "," ","16.666564304461968","500","250","psychophysics","76","460879","0.0-76.0","5bad8fc39c0cc900017a6a28","62014fbc0fe678a8876861b0","3","5","35","37","","",""
"3795","key"," "," ","16.666295154185068","500","250","psychophysics","77","464678","0.0-77.0","5bad8fc39c0cc900017a6a28","62014fbc0fe678a8876861b0","3","0","28","50","","",""
"3296","key"," "," ","16.66688324873091","500","250","psychophysics","78","467975","0.0-78.0","5bad8fc39c0cc900017a6a28","62014fbc0fe678a8876861b0","3","5","43","37","","",""
"3237","key"," "," ","16.666740932642394","500","250","psychophysics","79","471215","0.0-79.0","5bad8fc39c0cc900017a6a28","62014fbc0fe678a8876861b0","3","0","30","46","","",""
"2772","key"," "," ","16.66692168674683","500","250","psychophysics","80","473991","0.0-80.0","5bad8fc39c0cc900017a6a28","62014fbc0fe678a8876861b0","3","5","38","32","","",""
"3997","key"," "," ","16.66666108786609","500","250","psychophysics","81","477991","0.0-81.0","5bad8fc39c0cc900017a6a28","62014fbc0fe678a8876861b0","3","0","38","50","","",""
"1845","key"," "," ","16.66650000000002","500","250","psychophysics","82","479839","0.0-82.0","5bad8fc39c0cc900017a6a28","62014fbc0fe678a8876861b0","3","5","22","25","","",""
"4716","key"," "," ","16.666886524822612","500","250","psychophysics","83","484558","0.0-83.0","5bad8fc39c0cc900017a6a28","62014fbc0fe678a8876861b0","3","0","46","63","","",""
"4088","key"," "," ","16.666820408163204","500","250","psychophysics","84","488662","0.0-84.0","5bad8fc39c0cc900017a6a28","62014fbc0fe678a8876861b0","3","5","48","42","","",""
"6516","key"," "," ","16.666653846153835","500","250","psychophysics","85","495182","0.0-85.0","5bad8fc39c0cc900017a6a28","62014fbc0fe678a8876861b0","3","0","32","46","","",""
"4115","key"," "," ","16.66639024390256","500","250","psychophysics","86","499301","0.0-86.0","5bad8fc39c0cc900017a6a28","62014fbc0fe678a8876861b0","3","5","50","45","","",""
"3215","key"," "," ","16.66729687499992","500","250","psychophysics","87","502518","0.0-87.0","5bad8fc39c0cc900017a6a28","62014fbc0fe678a8876861b0","3","0","39","57","","",""
"2096","key"," "," ","16.66710317460312","500","250","psychophysics","88","504622","0.0-88.0","5bad8fc39c0cc900017a6a28","62014fbc0fe678a8876861b0","3","5","38","33","","",""
"2780","key"," "," ","16.666813253012","500","250","psychophysics","89","507406","0.0-89.0","5bad8fc39c0cc900017a6a28","62014fbc0fe678a8876861b0","3","0","29","43","","",""
"2620","key"," "," ","16.666608974358844","500","250","psychophysics","90","510030","0.0-90.0","5bad8fc39c0cc900017a6a28","62014fbc0fe678a8876861b0","3","5","24","27","","",""
"5684","key"," "," ","16.66675882352934","500","250","psychophysics","91","515718","0.0-91.0","5bad8fc39c0cc900017a6a28","62014fbc0fe678a8876861b0","3","0","42","55","","",""
"3434","key"," "," ","16.66698543689337","500","250","psychophysics","92","519158","0.0-92.0","5bad8fc39c0cc900017a6a28","62014fbc0fe678a8876861b0","","","","","","",""
"47693","","","v","","","","html-keyboard-response","93","566853","0.0-93.0","5bad8fc39c0cc900017a6a28","62014fbc0fe678a8876861b0","","","","","<p> In this part of the experiment, we are going present digits 1, 2, 3, 4, 6, 7, 8, and 9.  Notice that 5 is missing.  Your job is to say whether the presented digit is less than or greater than 5.  For example, 3 is less than 5 and 7 is greater than 5.  If the digit is less than 5, press the v key; if it is greater than 5, press the n key. We are going to do 200 of these in total, but only 50 righ now. They go real fast.</p>  <br><br>  Ready? (press v or n)","",""
"2693","key","n","n","16.677583850931768","500","250","psychophysics","94","569550","0.0-94.0","5bad8fc39c0cc900017a6a28","62014fbc0fe678a8876861b0","4","","","","","1","8"
"null","","","null","","","","html-keyboard-response","95","570054","0.0-95.0","5bad8fc39c0cc900017a6a28","62014fbc0fe678a8876861b0","","","","","<p style=""color:darkgreen;font-size:24px;"">Correct :)</p>","",""
"2451","key","v","v","16.667197278911424","500","250","psychophysics","96","572510","0.0-96.0","5bad8fc39c0cc900017a6a28","62014fbc0fe678a8876861b0","4","","","","","1","3"
"null","","","null","","","","html-keyboard-response","97","573012","0.0-97.0","5bad8fc39c0cc900017a6a28","62014fbc0fe678a8876861b0","","","","","<p style=""color:darkgreen;font-size:24px;"">Correct :)</p>","",""
"2438","key","v","v","16.66684353741545","500","250","psychophysics","98","575454","0.0-98.0","5bad8fc39c0cc900017a6a28","62014fbc0fe678a8876861b0","4","","","","","1","2"
"null","","","null","","","","html-keyboard-response","99","575966","0.0-99.0","5bad8fc39c0cc900017a6a28","62014fbc0fe678a8876861b0","","","","","<p style=""color:darkgreen;font-size:24px;"">Correct :)</p>","",""
"2371","key","n","n","16.666678321678877","500","250","psychophysics","100","578341","0.0-100.0","5bad8fc39c0cc900017a6a28","62014fbc0fe678a8876861b0","4","","","","","1","6"
"null","","","null","","","","html-keyboard-response","101","578843","0.0-101.0","5bad8fc39c0cc900017a6a28","62014fbc0fe678a8876861b0","","","","","<p style=""color:darkgreen;font-size:24px;"">Correct :)</p>","",""
"2390","key","v","v","16.66654166666639","500","250","psychophysics","102","581238","0.0-102.0","5bad8fc39c0cc900017a6a28","62014fbc0fe678a8876861b0","4","","","","","1","3"
"null","","","null","","","","html-keyboard-response","103","581740","0.0-103.0","5bad8fc39c0cc900017a6a28","62014fbc0fe678a8876861b0","","","","","<p style=""color:darkgreen;font-size:24px;"">Correct :)</p>","",""
"2494","key","n","n","16.666959999999964","500","250","psychophysics","104","584238","0.0-104.0","5bad8fc39c0cc900017a6a28","62014fbc0fe678a8876861b0","4","","","","","1","9"
"null","","","null","","","","html-keyboard-response","105","584743","0.0-105.0","5bad8fc39c0cc900017a6a28","62014fbc0fe678a8876861b0","","","","","<p style=""color:darkgreen;font-size:24px;"">Correct :)</p>","",""
"2354","key","v","v","16.667262411347743","500","250","psychophysics","106","587102","0.0-106.0","5bad8fc39c0cc900017a6a28","62014fbc0fe678a8876861b0","4","","","","","1","1"
"null","","","null","","","","html-keyboard-response","107","587603","0.0-107.0","5bad8fc39c0cc900017a6a28","62014fbc0fe678a8876861b0","","","","","<p style=""color:darkgreen;font-size:24px;"">Correct :)</p>","",""
"2446","key","n","n","16.667619047619144","500","250","psychophysics","108","590054","0.0-108.0","5bad8fc39c0cc900017a6a28","62014fbc0fe678a8876861b0","4","","","","","1","8"
"null","","","null","","","","html-keyboard-response","109","590563","0.0-109.0","5bad8fc39c0cc900017a6a28","62014fbc0fe678a8876861b0","","","","","<p style=""color:darkgreen;font-size:24px;"">Correct :)</p>","",""
"2357","key","n","n","16.666901408450375","500","250","psychophysics","110","592926","0.0-110.0","5bad8fc39c0cc900017a6a28","62014fbc0fe678a8876861b0","4","","","","","1","7"
"null","","","null","","","","html-keyboard-response","111","593427","0.0-111.0","5bad8fc39c0cc900017a6a28","62014fbc0fe678a8876861b0","","","","","<p style=""color:darkgreen;font-size:24px;"">Correct :)</p>","",""
"2454","key","n","n","16.66650340136071","500","250","psychophysics","112","595886","0.0-112.0","5bad8fc39c0cc900017a6a28","62014fbc0fe678a8876861b0","4","","","","","1","8"
"null","","","null","","","","html-keyboard-response","113","596389","0.0-113.0","5bad8fc39c0cc900017a6a28","62014fbc0fe678a8876861b0","","","","","<p style=""color:darkgreen;font-size:24px;"">Correct :)</p>","",""
"2477","key","v","v","16.66659060402714","500","250","psychophysics","114","598871","0.0-114.0","5bad8fc39c0cc900017a6a28","62014fbc0fe678a8876861b0","4","","","","","1","4"
"null","","","null","","","","html-keyboard-response","115","599372","0.0-115.0","5bad8fc39c0cc900017a6a28","62014fbc0fe678a8876861b0","","","","","<p style=""color:darkgreen;font-size:24px;"">Correct :)</p>","",""
"2453","key","v","v","16.66659183673431","500","250","psychophysics","116","601830","0.0-116.0","5bad8fc39c0cc900017a6a28","62014fbc0fe678a8876861b0","4","","","","","1","3"
"null","","","null","","","","html-keyboard-response","117","602332","0.0-117.0","5bad8fc39c0cc900017a6a28","62014fbc0fe678a8876861b0","","","","","<p style=""color:darkgreen;font-size:24px;"">Correct :)</p>","",""
"2477","key","n","n","16.667187919462844","500","250","psychophysics","118","604814","0.0-118.0","5bad8fc39c0cc900017a6a28","62014fbc0fe678a8876861b0","4","","","","","1","9"
"null","","","null","","","","html-keyboard-response","119","605315","0.0-119.0","5bad8fc39c0cc900017a6a28","62014fbc0fe678a8876861b0","","","","","<p style=""color:darkgreen;font-size:24px;"">Correct :)</p>","",""
"2426","key","v","v","16.665753424657215","500","250","psychophysics","120","607748","0.0-120.0","5bad8fc39c0cc900017a6a28","62014fbc0fe678a8876861b0","4","","","","","1","1"
"null","","","null","","","","html-keyboard-response","121","608249","0.0-121.0","5bad8fc39c0cc900017a6a28","62014fbc0fe678a8876861b0","","","","","<p style=""color:darkgreen;font-size:24px;"">Correct :)</p>","",""
"2551","key","n","n","16.66629220779181","500","250","psychophysics","122","610806","0.0-122.0","5bad8fc39c0cc900017a6a28","62014fbc0fe678a8876861b0","4","","","","","1","8"
"null","","","null","","","","html-keyboard-response","123","611308","0.0-123.0","5bad8fc39c0cc900017a6a28","62014fbc0fe678a8876861b0","","","","","<p style=""color:darkgreen;font-size:24px;"">Correct :)</p>","",""
"2485","key","n","n","16.66730872483224","500","250","psychophysics","124","613798","0.0-124.0","5bad8fc39c0cc900017a6a28","62014fbc0fe678a8876861b0","4","","","","","1","9"
"null","","","null","","","","html-keyboard-response","125","614300","0.0-125.0","5bad8fc39c0cc900017a6a28","62014fbc0fe678a8876861b0","","","","","<p style=""color:darkgreen;font-size:24px;"">Correct :)</p>","",""
"2485","key","v","v","16.666959999999964","500","250","psychophysics","126","616790","0.0-126.0","5bad8fc39c0cc900017a6a28","62014fbc0fe678a8876861b0","4","","","","","1","1"
"null","","","null","","","","html-keyboard-response","127","617292","0.0-127.0","5bad8fc39c0cc900017a6a28","62014fbc0fe678a8876861b0","","","","","<p style=""color:darkgreen;font-size:24px;"">Correct :)</p>","",""
"2524","key","v","v","16.666421052632167","500","250","psychophysics","128","619822","0.0-128.0","5bad8fc39c0cc900017a6a28","62014fbc0fe678a8876861b0","4","","","","","1","4"
"null","","","null","","","","html-keyboard-response","129","620324","0.0-129.0","5bad8fc39c0cc900017a6a28","62014fbc0fe678a8876861b0","","","","","<p style=""color:darkgreen;font-size:24px;"">Correct :)</p>","",""
"2448","key","n","n","16.666605442176337","500","250","psychophysics","130","622774","0.0-130.0","5bad8fc39c0cc900017a6a28","62014fbc0fe678a8876861b0","4","","","","","1","8"
"null","","","null","","","","html-keyboard-response","131","623276","0.0-131.0","5bad8fc39c0cc900017a6a28","62014fbc0fe678a8876861b0","","","","","<p style=""color:darkgreen;font-size:24px;"">Correct :)</p>","",""
"2397","key","n","n","16.66702083333318","500","250","psychophysics","132","625678","0.0-132.0","5bad8fc39c0cc900017a6a28","62014fbc0fe678a8876861b0","4","","","","","1","9"
"null","","","null","","","","html-keyboard-response","133","626179","0.0-133.0","5bad8fc39c0cc900017a6a28","62014fbc0fe678a8876861b0","","","","","<p style=""color:darkgreen;font-size:24px;"">Correct :)</p>","",""
"2598","key","v","v","16.66667948717935","500","250","psychophysics","134","628782","0.0-134.0","5bad8fc39c0cc900017a6a28","62014fbc0fe678a8876861b0","4","","","","","1","2"
"null","","","null","","","","html-keyboard-response","135","629284","0.0-135.0","5bad8fc39c0cc900017a6a28","62014fbc0fe678a8876861b0","","","","","<p style=""color:darkgreen;font-size:24px;"">Correct :)</p>","",""
"2541","key","v","v","16.666758169934422","500","250","psychophysics","136","631830","0.0-136.0","5bad8fc39c0cc900017a6a28","62014fbc0fe678a8876861b0","4","","","","","1","3"
"null","","","null","","","","html-keyboard-response","137","632332","0.0-137.0","5bad8fc39c0cc900017a6a28","62014fbc0fe678a8876861b0","","","","","<p style=""color:darkgreen;font-size:24px;"">Correct :)</p>","",""
"2413","key","n","n","16.66780689655209","500","250","psychophysics","138","634750","0.0-138.0","5bad8fc39c0cc900017a6a28","62014fbc0fe678a8876861b0","4","","","","","1","8"
"null","","","null","","","","html-keyboard-response","139","635252","0.0-139.0","5bad8fc39c0cc900017a6a28","62014fbc0fe678a8876861b0","","","","","<p style=""color:darkgreen;font-size:24px;"">Correct :)</p>","",""
"2462","key","n","n","16.666761904762467","500","250","psychophysics","140","637718","0.0-140.0","5bad8fc39c0cc900017a6a28","62014fbc0fe678a8876861b0","4","","","","","1","4"
"null","","","null","","","","html-keyboard-response","141","638224","0.0-141.0","5bad8fc39c0cc900017a6a28","62014fbc0fe678a8876861b0","","","","","<p style=""color:red;font-size:24px;"">Error :(</p>","",""
"2442","key","n","n","16.666278911564422","500","250","psychophysics","142","640671","0.0-142.0","5bad8fc39c0cc900017a6a28","62014fbc0fe678a8876861b0","4","","","","","1","6"
"null","","","null","","","","html-keyboard-response","143","641173","0.0-143.0","5bad8fc39c0cc900017a6a28","62014fbc0fe678a8876861b0","","","","","<p style=""color:darkgreen;font-size:24px;"">Correct :)</p>","",""
"2447","key","n","n","16.66786394557808","500","250","psychophysics","144","643622","0.0-144.0","5bad8fc39c0cc900017a6a28","62014fbc0fe678a8876861b0","4","","","","","1","9"
"null","","","null","","","","html-keyboard-response","145","644124","0.0-145.0","5bad8fc39c0cc900017a6a28","62014fbc0fe678a8876861b0","","","","","<p style=""color:darkgreen;font-size:24px;"">Correct :)</p>","",""
"2437","key","v","v","16.66708904109602","500","250","psychophysics","146","646566","0.0-146.0","5bad8fc39c0cc900017a6a28","62014fbc0fe678a8876861b0","4","","","","","1","2"
"null","","","null","","","","html-keyboard-response","147","647067","0.0-147.0","5bad8fc39c0cc900017a6a28","62014fbc0fe678a8876861b0","","","","","<p style=""color:darkgreen;font-size:24px;"">Correct :)</p>","",""
"2461","key","n","n","16.66707432432481","500","250","psychophysics","148","649534","0.0-148.0","5bad8fc39c0cc900017a6a28","62014fbc0fe678a8876861b0","4","","","","","1","9"
"null","","","null","","","","html-keyboard-response","149","650036","0.0-149.0","5bad8fc39c0cc900017a6a28","62014fbc0fe678a8876861b0","","","","","<p style=""color:darkgreen;font-size:24px;"">Correct :)</p>","",""
"2493","key","v","v","16.66675167785248","500","250","psychophysics","150","652534","0.0-150.0","5bad8fc39c0cc900017a6a28","62014fbc0fe678a8876861b0","4","","","","","1","1"
"null","","","null","","","","html-keyboard-response","151","653037","0.0-151.0","5bad8fc39c0cc900017a6a28","62014fbc0fe678a8876861b0","","","","","<p style=""color:darkgreen;font-size:24px;"">Correct :)</p>","",""
"2458","key","v","v","16.666673469387288","500","250","psychophysics","152","655502","0.0-152.0","5bad8fc39c0cc900017a6a28","62014fbc0fe678a8876861b0","4","","","","","1","2"
"null","","","null","","","","html-keyboard-response","153","656003","0.0-153.0","5bad8fc39c0cc900017a6a28","62014fbc0fe678a8876861b0","","","","","<p style=""color:darkgreen;font-size:24px;"">Correct :)</p>","",""
"2414","key","n","n","16.66693793103452","500","250","psychophysics","154","658421","0.0-154.0","5bad8fc39c0cc900017a6a28","62014fbc0fe678a8876861b0","4","","","","","1","7"
"null","","","null","","","","html-keyboard-response","155","658923","0.0-155.0","5bad8fc39c0cc900017a6a28","62014fbc0fe678a8876861b0","","","","","<p style=""color:darkgreen;font-size:24px;"">Correct :)</p>","",""
"2616","key","v","v","16.666477707006294","500","250","psychophysics","156","661542","0.0-156.0","5bad8fc39c0cc900017a6a28","62014fbc0fe678a8876861b0","4","","","","","1","4"
"null","","","null","","","","html-keyboard-response","157","662043","0.0-157.0","5bad8fc39c0cc900017a6a28","62014fbc0fe678a8876861b0","","","","","<p style=""color:darkgreen;font-size:24px;"">Correct :)</p>","",""
"2496","key","v","v","16.66688666666625","500","250","psychophysics","158","664542","0.0-158.0","5bad8fc39c0cc900017a6a28","62014fbc0fe678a8876861b0","4","","","","","1","2"
"null","","","null","","","","html-keyboard-response","159","665043","0.0-159.0","5bad8fc39c0cc900017a6a28","62014fbc0fe678a8876861b0","","","","","<p style=""color:darkgreen;font-size:24px;"">Correct :)</p>","",""
"2461","key","v","v","16.667195945945913","500","250","psychophysics","160","667510","0.0-160.0","5bad8fc39c0cc900017a6a28","62014fbc0fe678a8876861b0","4","","","","","1","1"
"null","","","null","","","","html-keyboard-response","161","668011","0.0-161.0","5bad8fc39c0cc900017a6a28","62014fbc0fe678a8876861b0","","","","","<p style=""color:darkgreen;font-size:24px;"">Correct :)</p>","",""
"2533","key","n","n","16.66622368421093","500","250","psychophysics","162","670549","0.0-162.0","5bad8fc39c0cc900017a6a28","62014fbc0fe678a8876861b0","4","","","","","1","8"
"null","","","null","","","","html-keyboard-response","163","671050","0.0-163.0","5bad8fc39c0cc900017a6a28","62014fbc0fe678a8876861b0","","","","","<p style=""color:darkgreen;font-size:24px;"">Correct :)</p>","",""
"2559","key","v","v","16.666831168831422","500","250","psychophysics","164","673614","0.0-164.0","5bad8fc39c0cc900017a6a28","62014fbc0fe678a8876861b0","4","","","","","1","3"
"null","","","null","","","","html-keyboard-response","165","674117","0.0-165.0","5bad8fc39c0cc900017a6a28","62014fbc0fe678a8876861b0","","","","","<p style=""color:darkgreen;font-size:24px;"">Correct :)</p>","",""
"2533","key","v","v","16.667784313725313","500","250","psychophysics","166","676654","0.0-166.0","5bad8fc39c0cc900017a6a28","62014fbc0fe678a8876861b0","4","","","","","1","7"
"null","","","null","","","","html-keyboard-response","167","677165","0.0-167.0","5bad8fc39c0cc900017a6a28","62014fbc0fe678a8876861b0","","","","","<p style=""color:red;font-size:24px;"">Error :(</p>","",""
"956","key","v","v","16.666775862068132","500","250","psychophysics","168","678126","0.0-168.0","5bad8fc39c0cc900017a6a28","62014fbc0fe678a8876861b0","4","","","","","1","8"
"null","","","null","","","","html-keyboard-response","169","678627","0.0-169.0","5bad8fc39c0cc900017a6a28","62014fbc0fe678a8876861b0","","","","","<p style=""color:red;font-size:24px;"">Error :(</p>","",""
"2445","key","n","n","16.66670068027214","500","250","psychophysics","170","681077","0.0-170.0","5bad8fc39c0cc900017a6a28","62014fbc0fe678a8876861b0","4","","","","","1","7"
"null","","","null","","","","html-keyboard-response","171","681580","0.0-171.0","5bad8fc39c0cc900017a6a28","62014fbc0fe678a8876861b0","","","","","<p style=""color:darkgreen;font-size:24px;"">Correct :)</p>","",""
"2424","key","n","n","16.665827586206383","500","250","psychophysics","172","684006","0.0-172.0","5bad8fc39c0cc900017a6a28","62014fbc0fe678a8876861b0","4","","","","","1","7"
"null","","","null","","","","html-keyboard-response","173","684513","0.0-173.0","5bad8fc39c0cc900017a6a28","62014fbc0fe678a8876861b0","","","","","<p style=""color:darkgreen;font-size:24px;"">Correct :)</p>","",""
"2544","key","v","v","16.667732026143412","500","250","psychophysics","174","687062","0.0-174.0","5bad8fc39c0cc900017a6a28","62014fbc0fe678a8876861b0","4","","","","","1","3"
"null","","","null","","","","html-keyboard-response","175","687564","0.0-175.0","5bad8fc39c0cc900017a6a28","62014fbc0fe678a8876861b0","","","","","<p style=""color:darkgreen;font-size:24px;"">Correct :)</p>","",""
"2406","key","v","v","16.666696551723952","500","250","psychophysics","176","689974","0.0-176.0","5bad8fc39c0cc900017a6a28","62014fbc0fe678a8876861b0","4","","","","","1","1"
"null","","","null","","","","html-keyboard-response","177","690478","0.0-177.0","5bad8fc39c0cc900017a6a28","62014fbc0fe678a8876861b0","","","","","<p style=""color:darkgreen;font-size:24px;"">Correct :)</p>","",""
"2443","key","v","v","16.66705442176891","500","250","psychophysics","178","692926","0.0-178.0","5bad8fc39c0cc900017a6a28","62014fbc0fe678a8876861b0","4","","","","","1","2"
"null","","","null","","","","html-keyboard-response","179","693428","0.0-179.0","5bad8fc39c0cc900017a6a28","62014fbc0fe678a8876861b0","","","","","<p style=""color:darkgreen;font-size:24px;"">Correct :)</p>","",""
"2501","key","v","v","16.666786666666933","500","250","psychophysics","180","695934","0.0-180.0","5bad8fc39c0cc900017a6a28","62014fbc0fe678a8876861b0","4","","","","","1","3"
"null","","","null","","","","html-keyboard-response","181","696437","0.0-181.0","5bad8fc39c0cc900017a6a28","62014fbc0fe678a8876861b0","","","","","<p style=""color:darkgreen;font-size:24px;"">Correct :)</p>","",""
"2388","key","v","v","16.666664335664226","500","250","psychophysics","182","698830","0.0-182.0","5bad8fc39c0cc900017a6a28","62014fbc0fe678a8876861b0","4","","","","","1","3"
"null","","","null","","","","html-keyboard-response","183","699332","0.0-183.0","5bad8fc39c0cc900017a6a28","62014fbc0fe678a8876861b0","","","","","<p style=""color:darkgreen;font-size:24px;"">Correct :)</p>","",""
"2541","key","n","n","16.666718954248566","500","250","psychophysics","184","701878","0.0-184.0","5bad8fc39c0cc900017a6a28","62014fbc0fe678a8876861b0","4","","","","","1","6"
"null","","","null","","","","html-keyboard-response","185","702380","0.0-185.0","5bad8fc39c0cc900017a6a28","62014fbc0fe678a8876861b0","","","","","<p style=""color:darkgreen;font-size:24px;"">Correct :)</p>","",""
"2542","key","v","v","16.667104575162895","500","250","psychophysics","186","704926","0.0-186.0","5bad8fc39c0cc900017a6a28","62014fbc0fe678a8876861b0","4","","","","","1","2"
"null","","","null","","","","html-keyboard-response","187","705431","0.0-187.0","5bad8fc39c0cc900017a6a28","62014fbc0fe678a8876861b0","","","","","<p style=""color:darkgreen;font-size:24px;"">Correct :)</p>","",""
"2587","key","n","n","16.666519230768944","500","250","psychophysics","188","708023","0.0-188.0","5bad8fc39c0cc900017a6a28","62014fbc0fe678a8876861b0","4","","","","","1","7"
"null","","","null","","","","html-keyboard-response","189","708524","0.0-189.0","5bad8fc39c0cc900017a6a28","62014fbc0fe678a8876861b0","","","","","<p style=""color:darkgreen;font-size:24px;"">Correct :)</p>","",""
"2509","key","n","n","16.667026490065584","500","250","psychophysics","190","711038","0.0-190.0","5bad8fc39c0cc900017a6a28","62014fbc0fe678a8876861b0","4","","","","","1","9"
"null","","","null","","","","html-keyboard-response","191","711540","0.0-191.0","5bad8fc39c0cc900017a6a28","62014fbc0fe678a8876861b0","","","","","<p style=""color:darkgreen;font-size:24px;"">Correct :)</p>","",""
"2439","key","n","n","16.665753424657215","500","250","psychophysics","192","713981","0.0-192.0","5bad8fc39c0cc900017a6a28","62014fbc0fe678a8876861b0","4","","","","","1","9"
"null","","","null","","","","html-keyboard-response","193","714482","0.0-193.0","5bad8fc39c0cc900017a6a28","62014fbc0fe678a8876861b0","","","","","<p style=""color:darkgreen;font-size:24px;"">Correct :)</p>","",""
"42940","","","v","","","","html-keyboard-response","194","757422","0.0-194.0","5bad8fc39c0cc900017a6a28","62014fbc0fe678a8876861b0","","","","","<p> Ok, now we are going present the same digits as before.  Your job is to say whether the digit is even or odd  If the digit is odd, press to v key; if it is even, press the n key. We are going to do 50 of these.  </p>  <br><br>  Ready? (press v or n)","",""
"2568","key","n","n","16.67770779220835","500","250","psychophysics","195","759997","0.0-195.0","5bad8fc39c0cc900017a6a28","62014fbc0fe678a8876861b0","5","","","","","0","4"
"null","","","null","","","","html-keyboard-response","196","760500","0.0-196.0","5bad8fc39c0cc900017a6a28","62014fbc0fe678a8876861b0","","","","","<p style=""color:darkgreen;font-size:24px;"">Correct :)</p>","",""
"2540","key","v","v","16.66683006535963","500","250","psychophysics","197","763045","0.0-197.0","5bad8fc39c0cc900017a6a28","62014fbc0fe678a8876861b0","5","","","","","0","7"
"null","","","null","","","","html-keyboard-response","198","763548","0.0-198.0","5bad8fc39c0cc900017a6a28","62014fbc0fe678a8876861b0","","","","","<p style=""color:darkgreen;font-size:24px;"">Correct :)</p>","",""
"2570","key","n","n","16.666851612903","500","250","psychophysics","199","766125","0.0-199.0","5bad8fc39c0cc900017a6a28","62014fbc0fe678a8876861b0","5","","","","","0","2"
"null","","","null","","","","html-keyboard-response","200","766627","0.0-200.0","5bad8fc39c0cc900017a6a28","62014fbc0fe678a8876861b0","","","","","<p style=""color:darkgreen;font-size:24px;"">Correct :)</p>","",""
"2414","key","n","n","16.66626206896557","500","250","psychophysics","201","769046","0.0-201.0","5bad8fc39c0cc900017a6a28","62014fbc0fe678a8876861b0","5","","","","","0","2"
"null","","","null","","","","html-keyboard-response","202","769548","0.0-202.0","5bad8fc39c0cc900017a6a28","62014fbc0fe678a8876861b0","","","","","<p style=""color:darkgreen;font-size:24px;"">Correct :)</p>","",""
"2445","key","v","v","16.666809523809974","500","250","psychophysics","203","771997","0.0-203.0","5bad8fc39c0cc900017a6a28","62014fbc0fe678a8876861b0","5","","","","","0","1"
"null","","","null","","","","html-keyboard-response","204","772499","0.0-204.0","5bad8fc39c0cc900017a6a28","62014fbc0fe678a8876861b0","","","","","<p style=""color:darkgreen;font-size:24px;"">Correct :)</p>","",""
"2517","key","n","n","16.66665131578951","500","250","psychophysics","205","775021","0.0-205.0","5bad8fc39c0cc900017a6a28","62014fbc0fe678a8876861b0","5","","","","","0","6"
"null","","","null","","","","html-keyboard-response","206","775523","0.0-206.0","5bad8fc39c0cc900017a6a28","62014fbc0fe678a8876861b0","","","","","<p style=""color:darkgreen;font-size:24px;"">Correct :)</p>","",""
"2586","key","v","v","16.66583870967715","500","250","psychophysics","207","778116","0.0-207.0","5bad8fc39c0cc900017a6a28","62014fbc0fe678a8876861b0","5","","","","","0","7"
"null","","","null","","","","html-keyboard-response","208","778617","0.0-208.0","5bad8fc39c0cc900017a6a28","62014fbc0fe678a8876861b0","","","","","<p style=""color:darkgreen;font-size:24px;"">Correct :)</p>","",""
"2424","key","n","n","16.667602739725837","500","250","psychophysics","209","781046","0.0-209.0","5bad8fc39c0cc900017a6a28","62014fbc0fe678a8876861b0","5","","","","","0","8"
"null","","","null","","","","html-keyboard-response","210","781555","0.0-210.0","5bad8fc39c0cc900017a6a28","62014fbc0fe678a8876861b0","","","","","<p style=""color:darkgreen;font-size:24px;"">Correct :)</p>","",""
"2621","key","n","n","16.666630573248177","500","250","psychophysics","211","784181","0.0-211.0","5bad8fc39c0cc900017a6a28","62014fbc0fe678a8876861b0","5","","","","","0","4"
"null","","","null","","","","html-keyboard-response","212","784683","0.0-212.0","5bad8fc39c0cc900017a6a28","62014fbc0fe678a8876861b0","","","","","<p style=""color:darkgreen;font-size:24px;"">Correct :)</p>","",""
"2549","key","n","n","16.66673376623393","500","250","psychophysics","213","787238","0.0-213.0","5bad8fc39c0cc900017a6a28","62014fbc0fe678a8876861b0","5","","","","","0","6"
"null","","","null","","","","html-keyboard-response","214","787740","0.0-214.0","5bad8fc39c0cc900017a6a28","62014fbc0fe678a8876861b0","","","","","<p style=""color:darkgreen;font-size:24px;"">Correct :)</p>","",""
"2420","key","v","v","16.6667034482752","500","250","psychophysics","215","790165","0.0-215.0","5bad8fc39c0cc900017a6a28","62014fbc0fe678a8876861b0","5","","","","","0","3"
"null","","","null","","","","html-keyboard-response","216","790669","0.0-216.0","5bad8fc39c0cc900017a6a28","62014fbc0fe678a8876861b0","","","","","<p style=""color:darkgreen;font-size:24px;"">Correct :)</p>","",""
"2598","key","n","n","16.666698717948748","500","250","psychophysics","217","793270","0.0-217.0","5bad8fc39c0cc900017a6a28","62014fbc0fe678a8876861b0","5","","","","","0","4"
"null","","","null","","","","html-keyboard-response","218","793772","0.0-218.0","5bad8fc39c0cc900017a6a28","62014fbc0fe678a8876861b0","","","","","<p style=""color:darkgreen;font-size:24px;"">Correct :)</p>","",""
"2468","key","v","v","16.667121621621206","500","250","psychophysics","219","796245","0.0-219.0","5bad8fc39c0cc900017a6a28","62014fbc0fe678a8876861b0","5","","","","","0","1"
"null","","","null","","","","html-keyboard-response","220","796752","0.0-220.0","5bad8fc39c0cc900017a6a28","62014fbc0fe678a8876861b0","","","","","<p style=""color:darkgreen;font-size:24px;"">Correct :)</p>","",""
"2418","key","n","n","16.66782068965539","500","250","psychophysics","221","799174","0.0-221.0","5bad8fc39c0cc900017a6a28","62014fbc0fe678a8876861b0","5","","","","","0","9"
"null","","","null","","","","html-keyboard-response","222","799675","0.0-222.0","5bad8fc39c0cc900017a6a28","62014fbc0fe678a8876861b0","","","","","<p style=""color:red;font-size:24px;"">Error :(</p>","",""
"2469","key","n","n","16.66656756756758","500","250","psychophysics","223","802149","0.0-223.0","5bad8fc39c0cc900017a6a28","62014fbc0fe678a8876861b0","5","","","","","0","2"
"null","","","null","","","","html-keyboard-response","224","802651","0.0-224.0","5bad8fc39c0cc900017a6a28","62014fbc0fe678a8876861b0","","","","","<p style=""color:darkgreen;font-size:24px;"">Correct :)</p>","",""
"2388","key","v","v","16.666923076923045","500","250","psychophysics","225","805045","0.0-225.0","5bad8fc39c0cc900017a6a28","62014fbc0fe678a8876861b0","5","","","","","0","9"
"null","","","null","","","","html-keyboard-response","226","805547","0.0-226.0","5bad8fc39c0cc900017a6a28","62014fbc0fe678a8876861b0","","","","","<p style=""color:darkgreen;font-size:24px;"">Correct :)</p>","",""
"2732","key","n","n","16.66634756097536","500","250","psychophysics","227","808285","0.0-227.0","5bad8fc39c0cc900017a6a28","62014fbc0fe678a8876861b0","5","","","","","0","6"
"null","","","null","","","","html-keyboard-response","228","808792","0.0-228.0","5bad8fc39c0cc900017a6a28","62014fbc0fe678a8876861b0","","","","","<p style=""color:darkgreen;font-size:24px;"">Correct :)</p>","",""
"2511","key","n","n","16.667192052980415","500","250","psychophysics","229","811309","0.0-229.0","5bad8fc39c0cc900017a6a28","62014fbc0fe678a8876861b0","5","","","","","0","4"
"null","","","null","","","","html-keyboard-response","230","811812","0.0-230.0","5bad8fc39c0cc900017a6a28","62014fbc0fe678a8876861b0","","","","","<p style=""color:darkgreen;font-size:24px;"">Correct :)</p>","",""
"2581","key","v","v","16.6673419354844","500","250","psychophysics","231","814397","0.0-231.0","5bad8fc39c0cc900017a6a28","62014fbc0fe678a8876861b0","5","","","","","0","1"
"null","","","null","","","","html-keyboard-response","232","814904","0.0-232.0","5bad8fc39c0cc900017a6a28","62014fbc0fe678a8876861b0","","","","","<p style=""color:darkgreen;font-size:24px;"">Correct :)</p>","",""
"2559","key","n","n","16.666753246752823","500","250","psychophysics","233","817477","0.0-233.0","5bad8fc39c0cc900017a6a28","62014fbc0fe678a8876861b0","5","","","","","0","4"
"null","","","null","","","","html-keyboard-response","234","817980","0.0-234.0","5bad8fc39c0cc900017a6a28","62014fbc0fe678a8876861b0","","","","","<p style=""color:darkgreen;font-size:24px;"">Correct :)</p>","",""
"2660","key","v","v","16.66690000000017","500","250","psychophysics","235","820645","0.0-235.0","5bad8fc39c0cc900017a6a28","62014fbc0fe678a8876861b0","5","","","","","0","9"
"null","","","null","","","","html-keyboard-response","236","821146","0.0-236.0","5bad8fc39c0cc900017a6a28","62014fbc0fe678a8876861b0","","","","","<p style=""color:darkgreen;font-size:24px;"">Correct :)</p>","",""
"2533","key","v","v","16.66588157894761","500","250","psychophysics","237","823683","0.0-237.0","5bad8fc39c0cc900017a6a28","62014fbc0fe678a8876861b0","5","","","","","0","1"
"null","","","null","","","","html-keyboard-response","238","824184","0.0-238.0","5bad8fc39c0cc900017a6a28","62014fbc0fe678a8876861b0","","","","","<p style=""color:darkgreen;font-size:24px;"">Correct :)</p>","",""
"2593","key","n","n","16.667883870967724","500","250","psychophysics","239","826781","0.0-239.0","5bad8fc39c0cc900017a6a28","62014fbc0fe678a8876861b0","5","","","","","0","3"
"null","","","null","","","","html-keyboard-response","240","827282","0.0-240.0","5bad8fc39c0cc900017a6a28","62014fbc0fe678a8876861b0","","","","","<p style=""color:red;font-size:24px;"">Error :(</p>","",""
"2685","key","n","n","16.666654320987785","500","250","psychophysics","241","829973","0.0-241.0","5bad8fc39c0cc900017a6a28","62014fbc0fe678a8876861b0","5","","","","","0","4"
"null","","","null","","","","html-keyboard-response","242","830474","0.0-242.0","5bad8fc39c0cc900017a6a28","62014fbc0fe678a8876861b0","","","","","<p style=""color:darkgreen;font-size:24px;"">Correct :)</p>","",""
"2574","key","n","n","16.667206451613005","500","250","psychophysics","243","833053","0.0-243.0","5bad8fc39c0cc900017a6a28","62014fbc0fe678a8876861b0","5","","","","","0","2"
"null","","","null","","","","html-keyboard-response","244","833555","0.0-244.0","5bad8fc39c0cc900017a6a28","62014fbc0fe678a8876861b0","","","","","<p style=""color:darkgreen;font-size:24px;"">Correct :)</p>","",""
"2710","key","v","v","16.66653374233069","500","250","psychophysics","245","836270","0.0-245.0","5bad8fc39c0cc900017a6a28","62014fbc0fe678a8876861b0","5","","","","","0","7"
"null","","","null","","","","html-keyboard-response","246","836771","0.0-246.0","5bad8fc39c0cc900017a6a28","62014fbc0fe678a8876861b0","","","","","<p style=""color:darkgreen;font-size:24px;"">Correct :)</p>","",""
"2869","key","v","v","16.666738372093047","500","250","psychophysics","247","839644","0.0-247.0","5bad8fc39c0cc900017a6a28","62014fbc0fe678a8876861b0","5","","","","","0","2"
"null","","","null","","","","html-keyboard-response","248","840149","0.0-248.0","5bad8fc39c0cc900017a6a28","62014fbc0fe678a8876861b0","","","","","<p style=""color:red;font-size:24px;"">Error :(</p>","",""
"2442","key","v","v","16.66687074829951","500","250","psychophysics","249","842597","0.0-249.0","5bad8fc39c0cc900017a6a28","62014fbc0fe678a8876861b0","5","","","","","0","3"
"null","","","null","","","","html-keyboard-response","250","843099","0.0-250.0","5bad8fc39c0cc900017a6a28","62014fbc0fe678a8876861b0","","","","","<p style=""color:darkgreen;font-size:24px;"">Correct :)</p>","",""
"2461","key","v","v","16.666250000000662","500","250","psychophysics","251","845564","0.0-251.0","5bad8fc39c0cc900017a6a28","62014fbc0fe678a8876861b0","5","","","","","0","1"
"null","","","null","","","","html-keyboard-response","252","846066","0.0-252.0","5bad8fc39c0cc900017a6a28","62014fbc0fe678a8876861b0","","","","","<p style=""color:darkgreen;font-size:24px;"">Correct :)</p>","",""
"2437","key","n","n","16.667020408163438","500","250","psychophysics","253","848508","0.0-253.0","5bad8fc39c0cc900017a6a28","62014fbc0fe678a8876861b0","5","","","","","0","4"
"null","","","null","","","","html-keyboard-response","254","849010","0.0-254.0","5bad8fc39c0cc900017a6a28","62014fbc0fe678a8876861b0","","","","","<p style=""color:darkgreen;font-size:24px;"">Correct :)</p>","",""
"2389","key","v","v","16.665777777777596","500","250","psychophysics","255","851403","0.0-255.0","5bad8fc39c0cc900017a6a28","62014fbc0fe678a8876861b0","5","","","","","0","9"
"null","","","null","","","","html-keyboard-response","256","851904","0.0-256.0","5bad8fc39c0cc900017a6a28","62014fbc0fe678a8876861b0","","","","","<p style=""color:darkgreen;font-size:24px;"">Correct :)</p>","",""
"2663","key","v","v","16.665906249999534","500","250","psychophysics","257","854571","0.0-257.0","5bad8fc39c0cc900017a6a28","62014fbc0fe678a8876861b0","5","","","","","0","3"
"null","","","null","","","","html-keyboard-response","258","855072","0.0-258.0","5bad8fc39c0cc900017a6a28","62014fbc0fe678a8876861b0","","","","","<p style=""color:darkgreen;font-size:24px;"">Correct :)</p>","",""
"2607","key","n","n","16.66585897435867","500","250","psychophysics","259","857683","0.0-259.0","5bad8fc39c0cc900017a6a28","62014fbc0fe678a8876861b0","5","","","","","0","8"
"null","","","null","","","","html-keyboard-response","260","858185","0.0-260.0","5bad8fc39c0cc900017a6a28","62014fbc0fe678a8876861b0","","","","","<p style=""color:darkgreen;font-size:24px;"">Correct :)</p>","",""
"2615","key","n","n","16.666751592356274","500","250","psychophysics","261","860804","0.0-261.0","5bad8fc39c0cc900017a6a28","62014fbc0fe678a8876861b0","5","","","","","0","4"
"null","","","null","","","","html-keyboard-response","262","861305","0.0-262.0","5bad8fc39c0cc900017a6a28","62014fbc0fe678a8876861b0","","","","","<p style=""color:darkgreen;font-size:24px;"">Correct :)</p>","",""
"2639","key","v","v","16.666518987341387","500","250","psychophysics","263","863948","0.0-263.0","5bad8fc39c0cc900017a6a28","62014fbc0fe678a8876861b0","5","","","","","0","1"
"null","","","null","","","","html-keyboard-response","264","864452","0.0-264.0","5bad8fc39c0cc900017a6a28","62014fbc0fe678a8876861b0","","","","","<p style=""color:darkgreen;font-size:24px;"">Correct :)</p>","",""
"2475","key","v","v","16.66758783783833","500","250","psychophysics","265","866932","0.0-265.0","5bad8fc39c0cc900017a6a28","62014fbc0fe678a8876861b0","5","","","","","0","2"
"null","","","null","","","","html-keyboard-response","266","867435","0.0-266.0","5bad8fc39c0cc900017a6a28","62014fbc0fe678a8876861b0","","","","","<p style=""color:red;font-size:24px;"">Error :(</p>","",""
"2540","key","n","n","16.667223684210178","500","250","psychophysics","267","869980","0.0-267.0","5bad8fc39c0cc900017a6a28","62014fbc0fe678a8876861b0","5","","","","","0","6"
"null","","","null","","","","html-keyboard-response","268","870492","0.0-268.0","5bad8fc39c0cc900017a6a28","62014fbc0fe678a8876861b0","","","","","<p style=""color:darkgreen;font-size:24px;"">Correct :)</p>","",""
"2604","key","v","v","16.66675641025694","500","250","psychophysics","269","873100","0.0-269.0","5bad8fc39c0cc900017a6a28","62014fbc0fe678a8876861b0","5","","","","","0","2"
"null","","","null","","","","html-keyboard-response","270","873604","0.0-270.0","5bad8fc39c0cc900017a6a28","62014fbc0fe678a8876861b0","","","","","<p style=""color:red;font-size:24px;"">Error :(</p>","",""
"2461","key","v","v","16.667047297297284","500","250","psychophysics","271","876070","0.0-271.0","5bad8fc39c0cc900017a6a28","62014fbc0fe678a8876861b0","5","","","","","0","3"
"null","","","null","","","","html-keyboard-response","272","876573","0.0-272.0","5bad8fc39c0cc900017a6a28","62014fbc0fe678a8876861b0","","","","","<p style=""color:darkgreen;font-size:24px;"">Correct :)</p>","",""
"2526","key","n","n","16.666423841059633","500","250","psychophysics","273","879101","0.0-273.0","5bad8fc39c0cc900017a6a28","62014fbc0fe678a8876861b0","5","","","","","0","9"
"null","","","null","","","","html-keyboard-response","274","879604","0.0-274.0","5bad8fc39c0cc900017a6a28","62014fbc0fe678a8876861b0","","","","","<p style=""color:red;font-size:24px;"">Error :(</p>","",""
"2499","key","n","n","16.666080000000076","500","250","psychophysics","275","882108","0.0-275.0","5bad8fc39c0cc900017a6a28","62014fbc0fe678a8876861b0","5","","","","","0","2"
"null","","","null","","","","html-keyboard-response","276","882608","0.0-276.0","5bad8fc39c0cc900017a6a28","62014fbc0fe678a8876861b0","","","","","<p style=""color:darkgreen;font-size:24px;"">Correct :)</p>","",""
"2544","key","v","v","16.66749019607798","500","250","psychophysics","277","885157","0.0-277.0","5bad8fc39c0cc900017a6a28","62014fbc0fe678a8876861b0","5","","","","","0","7"
"null","","","null","","","","html-keyboard-response","278","885660","0.0-278.0","5bad8fc39c0cc900017a6a28","62014fbc0fe678a8876861b0","","","","","<p style=""color:darkgreen;font-size:24px;"">Correct :)</p>","",""
"2581","key","v","v","16.66649677419299","500","250","psychophysics","279","888245","0.0-279.0","5bad8fc39c0cc900017a6a28","62014fbc0fe678a8876861b0","5","","","","","0","3"
"null","","","null","","","","html-keyboard-response","280","888746","0.0-280.0","5bad8fc39c0cc900017a6a28","62014fbc0fe678a8876861b0","","","","","<p style=""color:darkgreen;font-size:24px;"">Correct :)</p>","",""
"2454","key","n","n","16.66707432432481","500","250","psychophysics","281","891205","0.0-281.0","5bad8fc39c0cc900017a6a28","62014fbc0fe678a8876861b0","5","","","","","0","8"
"null","","","null","","","","html-keyboard-response","282","891712","0.0-282.0","5bad8fc39c0cc900017a6a28","62014fbc0fe678a8876861b0","","","","","<p style=""color:darkgreen;font-size:24px;"">Correct :)</p>","",""
"2680","key","v","v","16.770537499999772","500","250","psychophysics","283","894397","0.0-283.0","5bad8fc39c0cc900017a6a28","62014fbc0fe678a8876861b0","5","","","","","0","7"
"null","","","null","","","","html-keyboard-response","284","894899","0.0-284.0","5bad8fc39c0cc900017a6a28","62014fbc0fe678a8876861b0","","","","","<p style=""color:darkgreen;font-size:24px;"">Correct :)</p>","",""
"2661","key","v","v","16.666487500000223","500","250","psychophysics","285","897565","0.0-285.0","5bad8fc39c0cc900017a6a28","62014fbc0fe678a8876861b0","5","","","","","0","2"
"null","","","null","","","","html-keyboard-response","286","898079","0.0-286.0","5bad8fc39c0cc900017a6a28","62014fbc0fe678a8876861b0","","","","","<p style=""color:red;font-size:24px;"">Error :(</p>","",""
"2481","key","n","n","16.667194630872558","500","250","psychophysics","287","900565","0.0-287.0","5bad8fc39c0cc900017a6a28","62014fbc0fe678a8876861b0","5","","","","","0","8"
"null","","","null","","","","html-keyboard-response","288","901081","0.0-288.0","5bad8fc39c0cc900017a6a28","62014fbc0fe678a8876861b0","","","","","<p style=""color:darkgreen;font-size:24px;"">Correct :)</p>","",""
"2512","key","n","n","16.66711258278105","500","250","psychophysics","289","903597","0.0-289.0","5bad8fc39c0cc900017a6a28","62014fbc0fe678a8876861b0","5","","","","","0","8"
"null","","","null","","","","html-keyboard-response","290","904099","0.0-290.0","5bad8fc39c0cc900017a6a28","62014fbc0fe678a8876861b0","","","","","<p style=""color:darkgreen;font-size:24px;"">Correct :)</p>","",""
"2445","key","n","n","16.667204081632836","500","250","psychophysics","291","906548","0.0-291.0","5bad8fc39c0cc900017a6a28","62014fbc0fe678a8876861b0","5","","","","","0","2"
"null","","","null","","","","html-keyboard-response","292","907049","0.0-292.0","5bad8fc39c0cc900017a6a28","62014fbc0fe678a8876861b0","","","","","<p style=""color:darkgreen;font-size:24px;"">Correct :)</p>","",""
"2655","key","n","n","16.665724999999657","500","250","psychophysics","293","909709","0.0-293.0","5bad8fc39c0cc900017a6a28","62014fbc0fe678a8876861b0","5","","","","","0","2"
"null","","","null","","","","html-keyboard-response","294","910210","0.0-294.0","5bad8fc39c0cc900017a6a28","62014fbc0fe678a8876861b0","","","","","<p style=""color:darkgreen;font-size:24px;"">Correct :)</p>","",""
"20178","","","v","","","","html-keyboard-response","295","930389","0.0-295.0","5bad8fc39c0cc900017a6a28","62014fbc0fe678a8876861b0","","","","","<p> Here, the tasks are going to switch.  For some trials, your job is to decide if the digit is less than or greater than 5.  For others, it is to decide if the digit is even or odd.  You will be told which type of trial the current one is.  But, pay attention, the type of trial changes too.  We are going to do 50 of these.  </p>  <br><br>  Ready? (press v or n)","",""
"2810","key","n","n","16.670579881656682","500","250","psychophysics","296","933205","0.0-296.0","5bad8fc39c0cc900017a6a28","62014fbc0fe678a8876861b0","6","","","","","1","7"
"null","","","null","","","","html-keyboard-response","297","933708","0.0-297.0","5bad8fc39c0cc900017a6a28","62014fbc0fe678a8876861b0","","","","","<p style=""color:darkgreen;font-size:24px;"">Correct :)</p>","",""
"2779","key","v","v","16.66770059880201","500","250","psychophysics","298","936493","0.0-298.0","5bad8fc39c0cc900017a6a28","62014fbc0fe678a8876861b0","6","","","","","1","3"
"null","","","null","","","","html-keyboard-response","299","936995","0.0-299.0","5bad8fc39c0cc900017a6a28","62014fbc0fe678a8876861b0","","","","","<p style=""color:darkgreen;font-size:24px;"">Correct :)</p>","",""
"2740","key","n","n","16.667260606060594","500","250","psychophysics","300","939741","0.0-300.0","5bad8fc39c0cc900017a6a28","62014fbc0fe678a8876861b0","6","","","","","1","6"
"null","","","null","","","","html-keyboard-response","301","940242","0.0-301.0","5bad8fc39c0cc900017a6a28","62014fbc0fe678a8876861b0","","","","","<p style=""color:darkgreen;font-size:24px;"">Correct :)</p>","",""
"2390","key","n","n","16.666875000000193","500","250","psychophysics","302","942637","0.0-302.0","5bad8fc39c0cc900017a6a28","62014fbc0fe678a8876861b0","6","","","","","0","8"
"null","","","null","","","","html-keyboard-response","303","943140","0.0-303.0","5bad8fc39c0cc900017a6a28","62014fbc0fe678a8876861b0","","","","","<p style=""color:darkgreen;font-size:24px;"">Correct :)</p>","",""
"2485","key","n","n","16.66773825503367","500","250","psychophysics","304","945629","0.0-304.0","5bad8fc39c0cc900017a6a28","62014fbc0fe678a8876861b0","6","","","","","1","7"
"null","","","null","","","","html-keyboard-response","305","946130","0.0-305.0","5bad8fc39c0cc900017a6a28","62014fbc0fe678a8876861b0","","","","","<p style=""color:darkgreen;font-size:24px;"">Correct :)</p>","",""
"2502","key","n","n","16.66682119205261","500","250","psychophysics","306","948637","0.0-306.0","5bad8fc39c0cc900017a6a28","62014fbc0fe678a8876861b0","6","","","","","0","8"
"null","","","null","","","","html-keyboard-response","307","949139","0.0-307.0","5bad8fc39c0cc900017a6a28","62014fbc0fe678a8876861b0","","","","","<p style=""color:darkgreen;font-size:24px;"">Correct :)</p>","",""
"2339","key","v","v","16.66683571428543","500","250","psychophysics","308","951485","0.0-308.0","5bad8fc39c0cc900017a6a28","62014fbc0fe678a8876861b0","6","","","","","1","1"
"null","","","null","","","","html-keyboard-response","309","951993","0.0-309.0","5bad8fc39c0cc900017a6a28","62014fbc0fe678a8876861b0","","","","","<p style=""color:darkgreen;font-size:24px;"">Correct :)</p>","",""
"2536","key","n","n","16.667151315789518","500","250","psychophysics","310","954533","0.0-310.0","5bad8fc39c0cc900017a6a28","62014fbc0fe678a8876861b0","6","","","","","0","7"
"null","","","null","","","","html-keyboard-response","311","955034","0.0-311.0","5bad8fc39c0cc900017a6a28","62014fbc0fe678a8876861b0","","","","","<p style=""color:red;font-size:24px;"">Error :(</p>","",""
"2438","key","v","v","16.666849315068397","500","250","psychophysics","312","957477","0.0-312.0","5bad8fc39c0cc900017a6a28","62014fbc0fe678a8876861b0","6","","","","","0","1"
"null","","","null","","","","html-keyboard-response","313","957979","0.0-313.0","5bad8fc39c0cc900017a6a28","62014fbc0fe678a8876861b0","","","","","<p style=""color:darkgreen;font-size:24px;"">Correct :)</p>","",""
"2654","key","v","v","16.666712499999996","500","250","psychophysics","314","960637","0.0-314.0","5bad8fc39c0cc900017a6a28","62014fbc0fe678a8876861b0","6","","","","","1","7"
"null","","","null","","","","html-keyboard-response","315","961139","0.0-315.0","5bad8fc39c0cc900017a6a28","62014fbc0fe678a8876861b0","","","","","<p style=""color:red;font-size:24px;"">Error :(</p>","",""
"2494","key","n","n","16.66713333333377","500","250","psychophysics","316","963637","0.0-316.0","5bad8fc39c0cc900017a6a28","62014fbc0fe678a8876861b0","6","","","","","1","9"
"null","","","null","","","","html-keyboard-response","317","964138","0.0-317.0","5bad8fc39c0cc900017a6a28","62014fbc0fe678a8876861b0","","","","","<p style=""color:darkgreen;font-size:24px;"">Correct :)</p>","",""
"2459","key","n","n","16.666108108107537","500","250","psychophysics","318","966612","0.0-318.0","5bad8fc39c0cc900017a6a28","62014fbc0fe678a8876861b0","6","","","","","1","7"
"null","","","null","","","","html-keyboard-response","319","967113","0.0-319.0","5bad8fc39c0cc900017a6a28","62014fbc0fe678a8876861b0","","","","","<p style=""color:darkgreen;font-size:24px;"">Correct :)</p>","",""
"2430","key","n","n","16.66654109589003","500","250","psychophysics","320","969549","0.0-320.0","5bad8fc39c0cc900017a6a28","62014fbc0fe678a8876861b0","6","","","","","1","6"
"null","","","null","","","","html-keyboard-response","321","970051","0.0-321.0","5bad8fc39c0cc900017a6a28","62014fbc0fe678a8876861b0","","","","","<p style=""color:darkgreen;font-size:24px;"">Correct :)</p>","",""
"2492","key","n","n","16.666060402684675","500","250","psychophysics","322","972547","0.0-322.0","5bad8fc39c0cc900017a6a28","62014fbc0fe678a8876861b0","6","","","","","1","6"
"null","","","null","","","","html-keyboard-response","323","973049","0.0-323.0","5bad8fc39c0cc900017a6a28","62014fbc0fe678a8876861b0","","","","","<p style=""color:darkgreen;font-size:24px;"">Correct :)</p>","",""
"2381","key","n","n","16.666625000000447","500","250","psychophysics","324","975437","0.0-324.0","5bad8fc39c0cc900017a6a28","62014fbc0fe678a8876861b0","6","","","","","1","6"
"null","","","null","","","","html-keyboard-response","325","975940","0.0-325.0","5bad8fc39c0cc900017a6a28","62014fbc0fe678a8876861b0","","","","","<p style=""color:darkgreen;font-size:24px;"">Correct :)</p>","",""
"2412","key","n","n","16.666717241379303","500","250","psychophysics","326","978357","0.0-326.0","5bad8fc39c0cc900017a6a28","62014fbc0fe678a8876861b0","6","","","","","1","7"
"null","","","null","","","","html-keyboard-response","327","978858","0.0-327.0","5bad8fc39c0cc900017a6a28","62014fbc0fe678a8876861b0","","","","","<p style=""color:darkgreen;font-size:24px;"">Correct :)</p>","",""
"2398","key","v","v","16.666777777778204","500","250","psychophysics","328","981260","0.0-328.0","5bad8fc39c0cc900017a6a28","62014fbc0fe678a8876861b0","6","","","","","1","2"
"null","","","null","","","","html-keyboard-response","329","981762","0.0-329.0","5bad8fc39c0cc900017a6a28","62014fbc0fe678a8876861b0","","","","","<p style=""color:darkgreen;font-size:24px;"">Correct :)</p>","",""
"2502","key","v","v","16.6670333333329","500","250","psychophysics","330","984269","0.0-330.0","5bad8fc39c0cc900017a6a28","62014fbc0fe678a8876861b0","6","","","","","0","3"
"null","","","null","","","","html-keyboard-response","331","984771","0.0-331.0","5bad8fc39c0cc900017a6a28","62014fbc0fe678a8876861b0","","","","","<p style=""color:darkgreen;font-size:24px;"">Correct :)</p>","",""
"2492","key","v","v","16.665791946308588","500","250","psychophysics","332","987267","0.0-332.0","5bad8fc39c0cc900017a6a28","62014fbc0fe678a8876861b0","6","","","","","1","3"
"null","","","null","","","","html-keyboard-response","333","987768","0.0-333.0","5bad8fc39c0cc900017a6a28","62014fbc0fe678a8876861b0","","","","","<p style=""color:darkgreen;font-size:24px;"">Correct :)</p>","",""
"2439","key","v","v","16.667068493150634","500","250","psychophysics","334","990212","0.0-334.0","5bad8fc39c0cc900017a6a28","62014fbc0fe678a8876861b0","6","","","","","1","3"
"null","","","null","","","","html-keyboard-response","335","990713","0.0-335.0","5bad8fc39c0cc900017a6a28","62014fbc0fe678a8876861b0","","","","","<p style=""color:darkgreen;font-size:24px;"">Correct :)</p>","",""
"2495","key","v","v","16.666266666666296","500","250","psychophysics","336","993212","0.0-336.0","5bad8fc39c0cc900017a6a28","62014fbc0fe678a8876861b0","6","","","","","0","1"
"null","","","null","","","","html-keyboard-response","337","993714","0.0-337.0","5bad8fc39c0cc900017a6a28","62014fbc0fe678a8876861b0","","","","","<p style=""color:darkgreen;font-size:24px;"">Correct :)</p>","",""
"2629","key","n","n","16.6665126582279","500","250","psychophysics","338","996348","0.0-338.0","5bad8fc39c0cc900017a6a28","62014fbc0fe678a8876861b0","6","","","","","1","8"
"null","","","null","","","","html-keyboard-response","339","996852","0.0-339.0","5bad8fc39c0cc900017a6a28","62014fbc0fe678a8876861b0","","","","","<p style=""color:darkgreen;font-size:24px;"">Correct :)</p>","",""
"2500","key","v","v","16.666626666666318","500","250","psychophysics","340","999356","0.0-340.0","5bad8fc39c0cc900017a6a28","62014fbc0fe678a8876861b0","6","","","","","1","2"
"null","","","null","","","","html-keyboard-response","341","999858","0.0-341.0","5bad8fc39c0cc900017a6a28","62014fbc0fe678a8876861b0","","","","","<p style=""color:darkgreen;font-size:24px;"">Correct :)</p>","",""
"2581","key","v","v","16.665858064516026","500","250","psychophysics","342","1002444","0.0-342.0","5bad8fc39c0cc900017a6a28","62014fbc0fe678a8876861b0","6","","","","","0","2"
"null","","","null","","","","html-keyboard-response","343","1002950","0.0-343.0","5bad8fc39c0cc900017a6a28","62014fbc0fe678a8876861b0","","","","","<p style=""color:red;font-size:24px;"">Error :(</p>","",""
"2618","key","n","n","16.665692307692296","500","250","psychophysics","344","1005571","0.0-344.0","5bad8fc39c0cc900017a6a28","62014fbc0fe678a8876861b0","6","","","","","1","4"
"null","","","null","","","","html-keyboard-response","345","1006084","0.0-345.0","5bad8fc39c0cc900017a6a28","62014fbc0fe678a8876861b0","","","","","<p style=""color:red;font-size:24px;"">Error :(</p>","",""
"2437","key","v","v","16.667342465753627","500","250","psychophysics","346","1008524","0.0-346.0","5bad8fc39c0cc900017a6a28","62014fbc0fe678a8876861b0","6","","","","","1","1"
"null","","","null","","","","html-keyboard-response","347","1009026","0.0-347.0","5bad8fc39c0cc900017a6a28","62014fbc0fe678a8876861b0","","","","","<p style=""color:darkgreen;font-size:24px;"">Correct :)</p>","",""
"2517","key","n","n","16.666437086092603","500","250","psychophysics","348","1011548","0.0-348.0","5bad8fc39c0cc900017a6a28","62014fbc0fe678a8876861b0","6","","","","","0","8"
"null","","","null","","","","html-keyboard-response","349","1012050","0.0-349.0","5bad8fc39c0cc900017a6a28","62014fbc0fe678a8876861b0","","","","","<p style=""color:darkgreen;font-size:24px;"">Correct :)</p>","",""
"2566","key","n","n","16.666805194804972","500","250","psychophysics","350","1014620","0.0-350.0","5bad8fc39c0cc900017a6a28","62014fbc0fe678a8876861b0","6","","","","","1","8"
"null","","","null","","","","html-keyboard-response","351","1015123","0.0-351.0","5bad8fc39c0cc900017a6a28","62014fbc0fe678a8876861b0","","","","","<p style=""color:darkgreen;font-size:24px;"">Correct :)</p>","",""
"2460","key","n","n","16.666912162162024","500","250","psychophysics","352","1017588","0.0-352.0","5bad8fc39c0cc900017a6a28","62014fbc0fe678a8876861b0","6","","","","","1","6"
"null","","","null","","","","html-keyboard-response","353","1018090","0.0-353.0","5bad8fc39c0cc900017a6a28","62014fbc0fe678a8876861b0","","","","","<p style=""color:darkgreen;font-size:24px;"">Correct :)</p>","",""
"2503","key","v","v","16.667086666666435","500","250","psychophysics","354","1020596","0.0-354.0","5bad8fc39c0cc900017a6a28","62014fbc0fe678a8876861b0","6","","","","","1","3"
"null","","","null","","","","html-keyboard-response","355","1021098","0.0-355.0","5bad8fc39c0cc900017a6a28","62014fbc0fe678a8876861b0","","","","","<p style=""color:darkgreen;font-size:24px;"">Correct :)</p>","",""
"2485","key","n","n","16.667039999999883","500","250","psychophysics","356","1023588","0.0-356.0","5bad8fc39c0cc900017a6a28","62014fbc0fe678a8876861b0","6","","","","","0","8"
"null","","","null","","","","html-keyboard-response","357","1024091","0.0-357.0","5bad8fc39c0cc900017a6a28","62014fbc0fe678a8876861b0","","","","","<p style=""color:darkgreen;font-size:24px;"">Correct :)</p>","",""
"2389","key","v","v","16.666923076923045","500","250","psychophysics","358","1026484","0.0-358.0","5bad8fc39c0cc900017a6a28","62014fbc0fe678a8876861b0","6","","","","","0","4"
"null","","","null","","","","html-keyboard-response","359","1026987","0.0-359.0","5bad8fc39c0cc900017a6a28","62014fbc0fe678a8876861b0","","","","","<p style=""color:red;font-size:24px;"">Error :(</p>","",""
"2509","key","n","n","16.667386666666715","500","250","psychophysics","360","1029500","0.0-360.0","5bad8fc39c0cc900017a6a28","62014fbc0fe678a8876861b0","6","","","","","1","6"
"null","","","null","","","","html-keyboard-response","361","1030002","0.0-361.0","5bad8fc39c0cc900017a6a28","62014fbc0fe678a8876861b0","","","","","<p style=""color:darkgreen;font-size:24px;"">Correct :)</p>","",""
"2468","key","n","n","16.667337837837465","500","250","psychophysics","362","1032476","0.0-362.0","5bad8fc39c0cc900017a6a28","62014fbc0fe678a8876861b0","6","","","","","0","8"
"null","","","null","","","","html-keyboard-response","363","1032978","0.0-363.0","5bad8fc39c0cc900017a6a28","62014fbc0fe678a8876861b0","","","","","<p style=""color:darkgreen;font-size:24px;"">Correct :)</p>","",""
"2542","key","n","n","16.66683660130689","500","250","psychophysics","364","1035524","0.0-364.0","5bad8fc39c0cc900017a6a28","62014fbc0fe678a8876861b0","6","","","","","0","2"
"null","","","null","","","","html-keyboard-response","365","1036026","0.0-365.0","5bad8fc39c0cc900017a6a28","62014fbc0fe678a8876861b0","","","","","<p style=""color:darkgreen;font-size:24px;"">Correct :)</p>","",""
"2430","key","n","n","16.667438356164357","500","250","psychophysics","366","1038460","0.0-366.0","5bad8fc39c0cc900017a6a28","62014fbc0fe678a8876861b0","6","","","","","0","2"
"null","","","null","","","","html-keyboard-response","367","1038962","0.0-367.0","5bad8fc39c0cc900017a6a28","62014fbc0fe678a8876861b0","","","","","<p style=""color:darkgreen;font-size:24px;"">Correct :)</p>","",""
"2398","key","v","v","16.667722222222235","500","250","psychophysics","368","1041364","0.0-368.0","5bad8fc39c0cc900017a6a28","62014fbc0fe678a8876861b0","6","","","","","0","1"
"null","","","null","","","","html-keyboard-response","369","1041866","0.0-369.0","5bad8fc39c0cc900017a6a28","62014fbc0fe678a8876861b0","","","","","<p style=""color:darkgreen;font-size:24px;"">Correct :)</p>","",""
"2461","key","v","v","16.666810810810578","500","250","psychophysics","370","1044332","0.0-370.0","5bad8fc39c0cc900017a6a28","62014fbc0fe678a8876861b0","6","","","","","1","1"
"null","","","null","","","","html-keyboard-response","371","1044835","0.0-371.0","5bad8fc39c0cc900017a6a28","62014fbc0fe678a8876861b0","","","","","<p style=""color:darkgreen;font-size:24px;"">Correct :)</p>","",""
"2455","key","n","n","16.667040816326086","500","250","psychophysics","372","1047292","0.0-372.0","5bad8fc39c0cc900017a6a28","62014fbc0fe678a8876861b0","6","","","","","0","8"
"null","","","null","","","","html-keyboard-response","373","1047794","0.0-373.0","5bad8fc39c0cc900017a6a28","62014fbc0fe678a8876861b0","","","","","<p style=""color:darkgreen;font-size:24px;"">Correct :)</p>","",""
"2517","key","n","n","16.667198675496515","500","250","psychophysics","374","1050316","0.0-374.0","5bad8fc39c0cc900017a6a28","62014fbc0fe678a8876861b0","6","","","","","1","7"
"null","","","null","","","","html-keyboard-response","375","1050819","0.0-375.0","5bad8fc39c0cc900017a6a28","62014fbc0fe678a8876861b0","","","","","<p style=""color:darkgreen;font-size:24px;"">Correct :)</p>","",""
"2557","key","n","n","16.666633986928836","500","250","psychophysics","376","1053380","0.0-376.0","5bad8fc39c0cc900017a6a28","62014fbc0fe678a8876861b0","6","","","","","0","9"
"null","","","null","","","","html-keyboard-response","377","1053882","0.0-377.0","5bad8fc39c0cc900017a6a28","62014fbc0fe678a8876861b0","","","","","<p style=""color:red;font-size:24px;"">Error :(</p>","",""
"2422","key","v","v","16.666705479451505","500","250","psychophysics","378","1056308","0.0-378.0","5bad8fc39c0cc900017a6a28","62014fbc0fe678a8876861b0","6","","","","","0","7"
"null","","","null","","","","html-keyboard-response","379","1056810","0.0-379.0","5bad8fc39c0cc900017a6a28","62014fbc0fe678a8876861b0","","","","","<p style=""color:darkgreen;font-size:24px;"">Correct :)</p>","",""
"2605","key","v","v","16.666783439490803","500","250","psychophysics","380","1059420","0.0-380.0","5bad8fc39c0cc900017a6a28","62014fbc0fe678a8876861b0","6","","","","","1","7"
"null","","","null","","","","html-keyboard-response","381","1059922","0.0-381.0","5bad8fc39c0cc900017a6a28","62014fbc0fe678a8876861b0","","","","","<p style=""color:red;font-size:24px;"">Error :(</p>","",""
"2412","key","v","v","16.666648275861196","500","250","psychophysics","382","1062340","0.0-382.0","5bad8fc39c0cc900017a6a28","62014fbc0fe678a8876861b0","6","","","","","0","1"
"null","","","null","","","","html-keyboard-response","383","1062854","0.0-383.0","5bad8fc39c0cc900017a6a28","62014fbc0fe678a8876861b0","","","","","<p style=""color:darkgreen;font-size:24px;"">Correct :)</p>","",""
"2491","key","n","n","16.66706711409501","500","250","psychophysics","384","1065348","0.0-384.0","5bad8fc39c0cc900017a6a28","62014fbc0fe678a8876861b0","6","","","","","1","4"
"null","","","null","","","","html-keyboard-response","385","1065849","0.0-385.0","5bad8fc39c0cc900017a6a28","62014fbc0fe678a8876861b0","","","","","<p style=""color:red;font-size:24px;"">Error :(</p>","",""
"2468","key","v","v","16.667418918918464","500","250","psychophysics","386","1068324","0.0-386.0","5bad8fc39c0cc900017a6a28","62014fbc0fe678a8876861b0","6","","","","","0","3"
"null","","","null","","","","html-keyboard-response","387","1068825","0.0-387.0","5bad8fc39c0cc900017a6a28","62014fbc0fe678a8876861b0","","","","","<p style=""color:darkgreen;font-size:24px;"">Correct :)</p>","",""
"2398","key","n","n","16.666493055554586","500","250","psychophysics","388","1071227","0.0-388.0","5bad8fc39c0cc900017a6a28","62014fbc0fe678a8876861b0","6","","","","","1","7"
"null","","","null","","","","html-keyboard-response","389","1071730","0.0-389.0","5bad8fc39c0cc900017a6a28","62014fbc0fe678a8876861b0","","","","","<p style=""color:darkgreen;font-size:24px;"">Correct :)</p>","",""
"2397","key","n","n","16.66650000000017","500","250","psychophysics","390","1074132","0.0-390.0","5bad8fc39c0cc900017a6a28","62014fbc0fe678a8876861b0","6","","","","","1","7"
"null","","","null","","","","html-keyboard-response","391","1074634","0.0-391.0","5bad8fc39c0cc900017a6a28","62014fbc0fe678a8876861b0","","","","","<p style=""color:darkgreen;font-size:24px;"">Correct :)</p>","",""
"2572","key","n","n","16.667175324674538","500","250","psychophysics","392","1077212","0.0-392.0","5bad8fc39c0cc900017a6a28","62014fbc0fe678a8876861b0","6","","","","","0","4"
"null","","","null","","","","html-keyboard-response","393","1077714","0.0-393.0","5bad8fc39c0cc900017a6a28","62014fbc0fe678a8876861b0","","","","","<p style=""color:darkgreen;font-size:24px;"">Correct :)</p>","",""
"2492","key","v","v","16.667046666666867","500","250","psychophysics","394","1080212","0.0-394.0","5bad8fc39c0cc900017a6a28","62014fbc0fe678a8876861b0","6","","","","","0","3"
"null","","","null","","","","html-keyboard-response","395","1080713","0.0-395.0","5bad8fc39c0cc900017a6a28","62014fbc0fe678a8876861b0","","","","","<p style=""color:darkgreen;font-size:24px;"">Correct :)</p>","",""
"8065","","","v","","","","html-keyboard-response","396","1088780","0.0-396.0","5bad8fc39c0cc900017a6a28","62014fbc0fe678a8876861b0","","","","","<p> Last set of trials.  Here, the tasks are going to switch once again.  We are going to do 50 of these.  And then you are done with the experiment.  </p>  <br><br>  Ready? (press v or n)","",""
"2459","key","v","v","16.668763513513213","500","250","psychophysics","397","1091243","0.0-397.0","5bad8fc39c0cc900017a6a28","62014fbc0fe678a8876861b0","7","","","","","0","1"
"null","","","null","","","","html-keyboard-response","398","1091746","0.0-398.0","5bad8fc39c0cc900017a6a28","62014fbc0fe678a8876861b0","","","","","<p style=""color:darkgreen;font-size:24px;"">Correct :)</p>","",""
"2568","key","n","n","16.666283870967586","500","250","psychophysics","399","1094319","0.0-399.0","5bad8fc39c0cc900017a6a28","62014fbc0fe678a8876861b0","7","","","","","0","6"
"null","","","null","","","","html-keyboard-response","400","1094821","0.0-400.0","5bad8fc39c0cc900017a6a28","62014fbc0fe678a8876861b0","","","","","<p style=""color:darkgreen;font-size:24px;"">Correct :)</p>","",""
"2554","key","n","n","16.66698692810533","500","250","psychophysics","401","1097379","0.0-401.0","5bad8fc39c0cc900017a6a28","62014fbc0fe678a8876861b0","7","","","","","0","4"
"null","","","null","","","","html-keyboard-response","402","1097882","0.0-402.0","5bad8fc39c0cc900017a6a28","62014fbc0fe678a8876861b0","","","","","<p style=""color:darkgreen;font-size:24px;"">Correct :)</p>","",""
"2437","key","v","v","16.666646258503224","500","250","psychophysics","403","1100324","0.0-403.0","5bad8fc39c0cc900017a6a28","62014fbc0fe678a8876861b0","7","","","","","1","4"
"null","","","null","","","","html-keyboard-response","404","1100830","0.0-404.0","5bad8fc39c0cc900017a6a28","62014fbc0fe678a8876861b0","","","","","<p style=""color:darkgreen;font-size:24px;"">Correct :)</p>","",""
"2464","key","v","v","16.666574324325445","500","250","psychophysics","405","1103299","0.0-405.0","5bad8fc39c0cc900017a6a28","62014fbc0fe678a8876861b0","7","","","","","0","3"
"null","","","null","","","","html-keyboard-response","406","1103800","0.0-406.0","5bad8fc39c0cc900017a6a28","62014fbc0fe678a8876861b0","","","","","<p style=""color:darkgreen;font-size:24px;"">Correct :)</p>","",""
"2494","key","n","n","16.667194630872558","500","250","psychophysics","407","1106299","0.0-407.0","5bad8fc39c0cc900017a6a28","62014fbc0fe678a8876861b0","7","","","","","0","4"
"null","","","null","","","","html-keyboard-response","408","1106803","0.0-408.0","5bad8fc39c0cc900017a6a28","62014fbc0fe678a8876861b0","","","","","<p style=""color:darkgreen;font-size:24px;"">Correct :)</p>","",""
"2419","key","v","v","16.667137931033583","500","250","psychophysics","409","1109227","0.0-409.0","5bad8fc39c0cc900017a6a28","62014fbc0fe678a8876861b0","7","","","","","0","3"
"null","","","null","","","","html-keyboard-response","410","1109730","0.0-410.0","5bad8fc39c0cc900017a6a28","62014fbc0fe678a8876861b0","","","","","<p style=""color:darkgreen;font-size:24px;"">Correct :)</p>","",""
"2453","key","v","v","16.667918918918616","500","250","psychophysics","411","1112187","0.0-411.0","5bad8fc39c0cc900017a6a28","62014fbc0fe678a8876861b0","7","","","","","1","1"
"null","","","null","","","","html-keyboard-response","412","1112689","0.0-412.0","5bad8fc39c0cc900017a6a28","62014fbc0fe678a8876861b0","","","","","<p style=""color:darkgreen;font-size:24px;"">Correct :)</p>","",""
"2502","key","v","v","16.66667999999908","500","250","psychophysics","413","1115195","0.0-413.0","5bad8fc39c0cc900017a6a28","62014fbc0fe678a8876861b0","7","","","","","0","3"
"null","","","null","","","","html-keyboard-response","414","1115697","0.0-414.0","5bad8fc39c0cc900017a6a28","62014fbc0fe678a8876861b0","","","","","<p style=""color:darkgreen;font-size:24px;"">Correct :)</p>","",""
"2509","key","v","v","16.666317880793553","500","250","psychophysics","415","1118212","0.0-415.0","5bad8fc39c0cc900017a6a28","62014fbc0fe678a8876861b0","7","","","","","1","3"
"null","","","null","","","","html-keyboard-response","416","1118714","0.0-416.0","5bad8fc39c0cc900017a6a28","62014fbc0fe678a8876861b0","","","","","<p style=""color:darkgreen;font-size:24px;"">Correct :)</p>","",""
"2565","key","v","v","16.66690909091002","500","250","psychophysics","417","1121284","0.0-417.0","5bad8fc39c0cc900017a6a28","62014fbc0fe678a8876861b0","7","","","","","0","7"
"null","","","null","","","","html-keyboard-response","418","1121787","0.0-418.0","5bad8fc39c0cc900017a6a28","62014fbc0fe678a8876861b0","","","","","<p style=""color:darkgreen;font-size:24px;"">Correct :)</p>","",""
"2428","key","v","v","16.666650684931547","500","250","psychophysics","419","1124220","0.0-419.0","5bad8fc39c0cc900017a6a28","62014fbc0fe678a8876861b0","7","","","","","0","7"
"null","","","null","","","","html-keyboard-response","420","1124722","0.0-420.0","5bad8fc39c0cc900017a6a28","62014fbc0fe678a8876861b0","","","","","<p style=""color:darkgreen;font-size:24px;"">Correct :)</p>","",""
"2413","key","n","n","16.667013793103077","500","250","psychophysics","421","1127140","0.0-421.0","5bad8fc39c0cc900017a6a28","62014fbc0fe678a8876861b0","7","","","","","1","7"
"null","","","null","","","","html-keyboard-response","422","1127642","0.0-422.0","5bad8fc39c0cc900017a6a28","62014fbc0fe678a8876861b0","","","","","<p style=""color:darkgreen;font-size:24px;"">Correct :)</p>","",""
"2422","key","v","v","16.666424657533916","500","250","psychophysics","423","1130069","0.0-423.0","5bad8fc39c0cc900017a6a28","62014fbc0fe678a8876861b0","7","","","","","1","4"
"null","","","null","","","","html-keyboard-response","424","1130572","0.0-424.0","5bad8fc39c0cc900017a6a28","62014fbc0fe678a8876861b0","","","","","<p style=""color:darkgreen;font-size:24px;"">Correct :)</p>","",""
"2706","key","n","n","16.666271604938192","500","250","psychophysics","425","1133284","0.0-425.0","5bad8fc39c0cc900017a6a28","62014fbc0fe678a8876861b0","7","","","","","1","6"
"null","","","null","","","","html-keyboard-response","426","1133786","0.0-426.0","5bad8fc39c0cc900017a6a28","62014fbc0fe678a8876861b0","","","","","<p style=""color:darkgreen;font-size:24px;"">Correct :)</p>","",""
"2357","key","n","n","16.666936170212356","500","250","psychophysics","427","1136148","0.0-427.0","5bad8fc39c0cc900017a6a28","62014fbc0fe678a8876861b0","7","","","","","1","7"
"null","","","null","","","","html-keyboard-response","428","1136650","0.0-428.0","5bad8fc39c0cc900017a6a28","62014fbc0fe678a8876861b0","","","","","<p style=""color:darkgreen;font-size:24px;"">Correct :)</p>","",""
"2477","key","n","n","16.666810810811363","500","250","psychophysics","429","1139132","0.0-429.0","5bad8fc39c0cc900017a6a28","62014fbc0fe678a8876861b0","7","","","","","0","6"
"null","","","null","","","","html-keyboard-response","430","1139647","0.0-430.0","5bad8fc39c0cc900017a6a28","62014fbc0fe678a8876861b0","","","","","<p style=""color:darkgreen;font-size:24px;"">Correct :)</p>","",""
"2423","key","n","n","16.668143835615634","500","250","psychophysics","431","1142076","0.0-431.0","5bad8fc39c0cc900017a6a28","62014fbc0fe678a8876861b0","7","","","","","1","6"
"null","","","null","","","","html-keyboard-response","432","1142578","0.0-432.0","5bad8fc39c0cc900017a6a28","62014fbc0fe678a8876861b0","","","","","<p style=""color:darkgreen;font-size:24px;"">Correct :)</p>","",""
"2493","key","v","v","16.66644666666786","500","250","psychophysics","433","1145076","0.0-433.0","5bad8fc39c0cc900017a6a28","62014fbc0fe678a8876861b0","7","","","","","1","1"
"null","","","null","","","","html-keyboard-response","434","1145577","0.0-434.0","5bad8fc39c0cc900017a6a28","62014fbc0fe678a8876861b0","","","","","<p style=""color:darkgreen;font-size:24px;"">Correct :)</p>","",""
"2430","key","v","v","16.666849315069197","500","250","psychophysics","435","1148012","0.0-435.0","5bad8fc39c0cc900017a6a28","62014fbc0fe678a8876861b0","7","","","","","0","1"
"null","","","null","","","","html-keyboard-response","436","1148514","0.0-436.0","5bad8fc39c0cc900017a6a28","62014fbc0fe678a8876861b0","","","","","<p style=""color:darkgreen;font-size:24px;"">Correct :)</p>","",""
"2645","key","n","n","16.666849056602917","500","250","psychophysics","437","1151164","0.0-437.0","5bad8fc39c0cc900017a6a28","62014fbc0fe678a8876861b0","7","","","","","0","2"
"null","","","null","","","","html-keyboard-response","438","1151671","0.0-438.0","5bad8fc39c0cc900017a6a28","62014fbc0fe678a8876861b0","","","","","<p style=""color:darkgreen;font-size:24px;"">Correct :)</p>","",""
"2501","key","n","n","16.66666225165542","500","250","psychophysics","439","1154188","0.0-439.0","5bad8fc39c0cc900017a6a28","62014fbc0fe678a8876861b0","7","","","","","1","6"
"null","","","null","","","","html-keyboard-response","440","1154691","0.0-440.0","5bad8fc39c0cc900017a6a28","62014fbc0fe678a8876861b0","","","","","<p style=""color:darkgreen;font-size:24px;"">Correct :)</p>","",""
"2467","key","n","n","16.66721621621715","500","250","psychophysics","441","1157164","0.0-441.0","5bad8fc39c0cc900017a6a28","62014fbc0fe678a8876861b0","7","","","","","0","7"
"null","","","null","","","","html-keyboard-response","442","1157667","0.0-442.0","5bad8fc39c0cc900017a6a28","62014fbc0fe678a8876861b0","","","","","<p style=""color:red;font-size:24px;"">Error :(</p>","",""
"2510","key","v","v","16.66700000000099","500","250","psychophysics","443","1160180","0.0-443.0","5bad8fc39c0cc900017a6a28","62014fbc0fe678a8876861b0","7","","","","","1","1"
"null","","","null","","","","html-keyboard-response","444","1160682","0.0-444.0","5bad8fc39c0cc900017a6a28","62014fbc0fe678a8876861b0","","","","","<p style=""color:darkgreen;font-size:24px;"">Correct :)</p>","",""
"2582","key","n","n","16.66646794871821","500","250","psychophysics","445","1163269","0.0-445.0","5bad8fc39c0cc900017a6a28","62014fbc0fe678a8876861b0","7","","","","","0","2"
"null","","","null","","","","html-keyboard-response","446","1163770","0.0-446.0","5bad8fc39c0cc900017a6a28","62014fbc0fe678a8876861b0","","","","","<p style=""color:darkgreen;font-size:24px;"">Correct :)</p>","",""
"2619","key","n","n","16.66674522292996","500","250","psychophysics","447","1166396","0.0-447.0","5bad8fc39c0cc900017a6a28","62014fbc0fe678a8876861b0","7","","","","","1","4"
"null","","","null","","","","html-keyboard-response","448","1166898","0.0-448.0","5bad8fc39c0cc900017a6a28","62014fbc0fe678a8876861b0","","","","","<p style=""color:red;font-size:24px;"">Error :(</p>","",""
"2445","key","v","v","16.666591836733517","500","250","psychophysics","449","1169348","0.0-449.0","5bad8fc39c0cc900017a6a28","62014fbc0fe678a8876861b0","7","","","","","0","2"
"null","","","null","","","","html-keyboard-response","450","1169850","0.0-450.0","5bad8fc39c0cc900017a6a28","62014fbc0fe678a8876861b0","","","","","<p style=""color:red;font-size:24px;"">Error :(</p>","",""
"2398","key","n","n","16.667333333334277","500","250","psychophysics","451","1172252","0.0-451.0","5bad8fc39c0cc900017a6a28","62014fbc0fe678a8876861b0","7","","","","","0","6"
"null","","","null","","","","html-keyboard-response","452","1172754","0.0-452.0","5bad8fc39c0cc900017a6a28","62014fbc0fe678a8876861b0","","","","","<p style=""color:darkgreen;font-size:24px;"">Correct :)</p>","",""
"2405","key","v","v","16.667430555556265","500","250","psychophysics","453","1175164","0.0-453.0","5bad8fc39c0cc900017a6a28","62014fbc0fe678a8876861b0","7","","","","","1","2"
"null","","","null","","","","html-keyboard-response","454","1175667","0.0-454.0","5bad8fc39c0cc900017a6a28","62014fbc0fe678a8876861b0","","","","","<p style=""color:darkgreen;font-size:24px;"">Correct :)</p>","",""
"2445","key","v","v","16.66689041095837","500","250","psychophysics","455","1178115","0.0-455.0","5bad8fc39c0cc900017a6a28","62014fbc0fe678a8876861b0","7","","","","","0","2"
"null","","","null","","","","html-keyboard-response","456","1178618","0.0-456.0","5bad8fc39c0cc900017a6a28","62014fbc0fe678a8876861b0","","","","","<p style=""color:red;font-size:24px;"">Error :(</p>","",""
"2483","key","v","v","16.6667516778517","500","250","psychophysics","457","1181107","0.0-457.0","5bad8fc39c0cc900017a6a28","62014fbc0fe678a8876861b0","7","","","","","1","1"
"null","","","null","","","","html-keyboard-response","458","1181609","0.0-458.0","5bad8fc39c0cc900017a6a28","62014fbc0fe678a8876861b0","","","","","<p style=""color:darkgreen;font-size:24px;"">Correct :)</p>","",""
"2538","key","v","v","16.666784313724992","500","250","psychophysics","459","1184155","0.0-459.0","5bad8fc39c0cc900017a6a28","62014fbc0fe678a8876861b0","7","","","","","0","7"
"null","","","null","","","","html-keyboard-response","460","1184661","0.0-460.0","5bad8fc39c0cc900017a6a28","62014fbc0fe678a8876861b0","","","","","<p style=""color:darkgreen;font-size:24px;"">Correct :)</p>","",""
"2427","key","n","n","16.666849315069197","500","250","psychophysics","461","1187091","0.0-461.0","5bad8fc39c0cc900017a6a28","62014fbc0fe678a8876861b0","7","","","","","0","4"
"null","","","null","","","","html-keyboard-response","462","1187593","0.0-462.0","5bad8fc39c0cc900017a6a28","62014fbc0fe678a8876861b0","","","","","<p style=""color:darkgreen;font-size:24px;"">Correct :)</p>","",""
"2606","key","n","n","16.66678343948932","500","250","psychophysics","463","1190203","0.0-463.0","5bad8fc39c0cc900017a6a28","62014fbc0fe678a8876861b0","7","","","","","1","3"
"null","","","null","","","","html-keyboard-response","464","1190705","0.0-464.0","5bad8fc39c0cc900017a6a28","62014fbc0fe678a8876861b0","","","","","<p style=""color:red;font-size:24px;"">Error :(</p>","",""
"2534","key","n","n","16.66703289473662","500","250","psychophysics","465","1193243","0.0-465.0","5bad8fc39c0cc900017a6a28","62014fbc0fe678a8876861b0","7","","","","","0","2"
"null","","","null","","","","html-keyboard-response","466","1193746","0.0-466.0","5bad8fc39c0cc900017a6a28","62014fbc0fe678a8876861b0","","","","","<p style=""color:darkgreen;font-size:24px;"">Correct :)</p>","",""
"2518","key","n","n","16.666703947367893","500","250","psychophysics","467","1196268","0.0-467.0","5bad8fc39c0cc900017a6a28","62014fbc0fe678a8876861b0","7","","","","","0","4"
"null","","","null","","","","html-keyboard-response","468","1196771","0.0-468.0","5bad8fc39c0cc900017a6a28","62014fbc0fe678a8876861b0","","","","","<p style=""color:darkgreen;font-size:24px;"">Correct :)</p>","",""
"2565","key","v","v","16.66738311688313","500","250","psychophysics","469","1199339","0.0-469.0","5bad8fc39c0cc900017a6a28","62014fbc0fe678a8876861b0","7","","","","","0","3"
"null","","","null","","","","html-keyboard-response","470","1199840","0.0-470.0","5bad8fc39c0cc900017a6a28","62014fbc0fe678a8876861b0","","","","","<p style=""color:darkgreen;font-size:24px;"">Correct :)</p>","",""
"2406","key","v","v","16.66660689655049","500","250","psychophysics","471","1202252","0.0-471.0","5bad8fc39c0cc900017a6a28","62014fbc0fe678a8876861b0","7","","","","","1","2"
"null","","","null","","","","html-keyboard-response","472","1202754","0.0-472.0","5bad8fc39c0cc900017a6a28","62014fbc0fe678a8876861b0","","","","","<p style=""color:darkgreen;font-size:24px;"">Correct :)</p>","",""
"2533","key","n","n","16.666763157894724","500","250","psychophysics","473","1205291","0.0-473.0","5bad8fc39c0cc900017a6a28","62014fbc0fe678a8876861b0","7","","","","","0","2"
"null","","","null","","","","html-keyboard-response","474","1205793","0.0-474.0","5bad8fc39c0cc900017a6a28","62014fbc0fe678a8876861b0","","","","","<p style=""color:darkgreen;font-size:24px;"">Correct :)</p>","",""
"2638","key","n","n","16.667044025157583","500","250","psychophysics","475","1208436","0.0-475.0","5bad8fc39c0cc900017a6a28","62014fbc0fe678a8876861b0","7","","","","","0","4"
"null","","","null","","","","html-keyboard-response","476","1208938","0.0-476.0","5bad8fc39c0cc900017a6a28","62014fbc0fe678a8876861b0","","","","","<p style=""color:darkgreen;font-size:24px;"">Correct :)</p>","",""
"2411","key","v","v","16.6666344827587","500","250","psychophysics","477","1211355","0.0-477.0","5bad8fc39c0cc900017a6a28","62014fbc0fe678a8876861b0","7","","","","","1","4"
"null","","","null","","","","html-keyboard-response","478","1211858","0.0-478.0","5bad8fc39c0cc900017a6a28","62014fbc0fe678a8876861b0","","","","","<p style=""color:darkgreen;font-size:24px;"">Correct :)</p>","",""
"2625","key","n","n","16.667620253164166","500","250","psychophysics","479","1214491","0.0-479.0","5bad8fc39c0cc900017a6a28","62014fbc0fe678a8876861b0","7","","","","","1","3"
"null","","","null","","","","html-keyboard-response","480","1214994","0.0-480.0","5bad8fc39c0cc900017a6a28","62014fbc0fe678a8876861b0","","","","","<p style=""color:red;font-size:24px;"">Error :(</p>","",""
"2501","key","n","n","16.668059999998658","500","250","psychophysics","481","1217499","0.0-481.0","5bad8fc39c0cc900017a6a28","62014fbc0fe678a8876861b0","7","","","","","0","4"
"null","","","null","","","","html-keyboard-response","482","1218001","0.0-482.0","5bad8fc39c0cc900017a6a28","62014fbc0fe678a8876861b0","","","","","<p style=""color:darkgreen;font-size:24px;"">Correct :)</p>","",""
"2502","key","n","n","16.666693333333047","500","250","psychophysics","483","1220507","0.0-483.0","5bad8fc39c0cc900017a6a28","62014fbc0fe678a8876861b0","7","","","","","0","2"
"null","","","null","","","","html-keyboard-response","484","1221009","0.0-484.0","5bad8fc39c0cc900017a6a28","62014fbc0fe678a8876861b0","","","","","<p style=""color:darkgreen;font-size:24px;"">Correct :)</p>","",""
"2485","key","n","n","16.66683221476515","500","250","psychophysics","485","1223499","0.0-485.0","5bad8fc39c0cc900017a6a28","62014fbc0fe678a8876861b0","7","","","","","1","6"
"null","","","null","","","","html-keyboard-response","486","1224001","0.0-486.0","5bad8fc39c0cc900017a6a28","62014fbc0fe678a8876861b0","","","","","<p style=""color:darkgreen;font-size:24px;"">Correct :)</p>","",""
"2624","key","n","n","16.666700636942807","500","250","psychophysics","487","1226627","0.0-487.0","5bad8fc39c0cc900017a6a28","62014fbc0fe678a8876861b0","7","","","","","0","2"
"null","","","null","","","","html-keyboard-response","488","1227134","0.0-488.0","5bad8fc39c0cc900017a6a28","62014fbc0fe678a8876861b0","","","","","<p style=""color:darkgreen;font-size:24px;"">Correct :)</p>","",""
"2451","key","n","n","16.66662585033978","500","250","psychophysics","489","1229587","0.0-489.0","5bad8fc39c0cc900017a6a28","62014fbc0fe678a8876861b0","7","","","","","1","6"
"null","","","null","","","","html-keyboard-response","490","1230089","0.0-490.0","5bad8fc39c0cc900017a6a28","62014fbc0fe678a8876861b0","","","","","<p style=""color:darkgreen;font-size:24px;"">Correct :)</p>","",""
"2414","key","v","v","16.66685517241311","500","250","psychophysics","491","1232507","0.0-491.0","5bad8fc39c0cc900017a6a28","62014fbc0fe678a8876861b0","7","","","","","0","7"
"null","","","null","","","","html-keyboard-response","492","1233009","0.0-492.0","5bad8fc39c0cc900017a6a28","62014fbc0fe678a8876861b0","","","","","<p style=""color:darkgreen;font-size:24px;"">Correct :)</p>","",""
"2548","key","n","n","16.66686274509822","500","250","psychophysics","493","1235563","0.0-493.0","5bad8fc39c0cc900017a6a28","62014fbc0fe678a8876861b0","7","","","","","0","4"
"null","","","null","","","","html-keyboard-response","494","1236066","0.0-494.0","5bad8fc39c0cc900017a6a28","62014fbc0fe678a8876861b0","","","","","<p style=""color:darkgreen;font-size:24px;"">Correct :)</p>","",""
"2476","key","n","n","16.6673243243241","500","250","psychophysics","495","1238547","0.0-495.0","5bad8fc39c0cc900017a6a28","62014fbc0fe678a8876861b0","7","","","","","0","2"
"null","","","null","","","","html-keyboard-response","496","1239049","0.0-496.0","5bad8fc39c0cc900017a6a28","62014fbc0fe678a8876861b0","","","","","<p style=""color:darkgreen;font-size:24px;"">Correct :)</p>","",""
