"rt","response_type","key_press","response","avg_frame_time","center_x","center_y","trial_type","trial_index","time_elapsed","internal_node_id","pid","sid","phase","guide","targ","resp","stimulus","is5","stim"
"5645","key"," "," ","16.666985250737465","500","250","psychophysics","0","5659","0.0-0.0","5ef78f819d93424af2af742b","620a6d93fe500ee66f2ceb23","","","","","","",""
"4917","key"," "," ","16.666884353741498","500","250","psychophysics","1","10578","0.0-1.0","5ef78f819d93424af2af742b","620a6d93fe500ee66f2ceb23","","","","","","",""
"2247","key"," "," ","16.666738805970155","500","250","psychophysics","2","12826","0.0-2.0","5ef78f819d93424af2af742b","620a6d93fe500ee66f2ceb23","","","","","","",""
"1421","key"," "," ","16.666833333333322","500","250","psychophysics","3","14251","0.0-3.0","5ef78f819d93424af2af742b","620a6d93fe500ee66f2ceb23","","","","","","",""
"1560","key"," "," ","16.66682795698926","500","250","psychophysics","4","15817","0.0-4.0","5ef78f819d93424af2af742b","620a6d93fe500ee66f2ceb23","","","","","","",""
"3191","key"," "," ","16.66694764397905","500","250","psychophysics","5","19011","0.0-5.0","5ef78f819d93424af2af742b","620a6d93fe500ee66f2ceb23","","","","","","",""
"5898","key"," "," ","16.666781869688386","500","250","psychophysics","6","24915","0.0-6.0","5ef78f819d93424af2af742b","620a6d93fe500ee66f2ceb23","","","","","","",""
"3291","key"," "," ","16.666817258883256","500","250","psychophysics","7","28211","0.0-7.0","5ef78f819d93424af2af742b","620a6d93fe500ee66f2ceb23","","","","","","",""
"8857","key"," "," ","16.666774011299438","500","250","psychophysics","8","37074","0.0-8.0","5ef78f819d93424af2af742b","620a6d93fe500ee66f2ceb23","0","0","51","55","","",""
"3049","key"," "," ","16.667148351648322","500","250","psychophysics","9","40126","0.0-9.0","5ef78f819d93424af2af742b","620a6d93fe500ee66f2ceb23","","","","","","",""
"1817","key"," "," ","16.666779816513728","500","250","psychophysics","10","41954","0.0-10.0","5ef78f819d93424af2af742b","620a6d93fe500ee66f2ceb23","","","","","","",""
"2596","key"," "," ","16.66688387096773","500","250","psychophysics","11","44558","0.0-11.0","5ef78f819d93424af2af742b","620a6d93fe500ee66f2ceb23","","","","","","",""
"3083","key"," "," ","16.666369565217398","500","250","psychophysics","12","47650","0.0-12.0","5ef78f819d93424af2af742b","620a6d93fe500ee66f2ceb23","","","","","","",""
"1551","key"," "," ","16.66772826086953","500","250","psychophysics","13","49203","0.0-13.0","5ef78f819d93424af2af742b","620a6d93fe500ee66f2ceb23","","","","","","",""
"2252","key"," "," ","16.666799999999974","500","250","psychophysics","14","51465","0.0-14.0","5ef78f819d93424af2af742b","620a6d93fe500ee66f2ceb23","","","","","","",""
"1823","key"," "," ","16.66617431192665","500","250","psychophysics","15","53289","0.0-15.0","5ef78f819d93424af2af742b","620a6d93fe500ee66f2ceb23","","","","","","",""
"960","key"," "," ","16.667071428571553","500","250","psychophysics","16","54251","0.0-16.0","5ef78f819d93424af2af742b","620a6d93fe500ee66f2ceb23","","","","","","",""
"8037","key"," "," ","16.66680290456431","500","250","psychophysics","17","62300","0.0-17.0","5ef78f819d93424af2af742b","620a6d93fe500ee66f2ceb23","1","0","27","27","","",""
"7366","key"," "," ","16.666871040723976","500","250","psychophysics","18","69673","0.0-18.0","5ef78f819d93424af2af742b","620a6d93fe500ee66f2ceb23","1","5","46","43","","",""
"5617","key"," "," ","16.66680059523809","500","250","psychophysics","19","75292","0.0-19.0","5ef78f819d93424af2af742b","620a6d93fe500ee66f2ceb23","1","0","27","38","","",""
"4945","key"," "," ","16.666878378378357","500","250","psychophysics","20","80243","0.0-20.0","5ef78f819d93424af2af742b","620a6d93fe500ee66f2ceb23","1","5","39","41","","",""
"3977","key"," "," ","16.666911764705844","500","250","psychophysics","21","84225","0.0-21.0","5ef78f819d93424af2af742b","620a6d93fe500ee66f2ceb23","1","0","27","38","","",""
"3992","key"," "," ","16.66664285714289","500","250","psychophysics","22","88219","0.0-22.0","5ef78f819d93424af2af742b","620a6d93fe500ee66f2ceb23","1","5","21","24","","",""
"5007","key"," "," ","16.66679666666668","500","250","psychophysics","23","93234","0.0-23.0","5ef78f819d93424af2af742b","620a6d93fe500ee66f2ceb23","1","0","33","45","","",""
"3154","key"," "," ","16.66649735449732","500","250","psychophysics","24","96394","0.0-24.0","5ef78f819d93424af2af742b","620a6d93fe500ee66f2ceb23","1","5","22","28","","",""
"4712","key"," "," ","16.66705319148935","500","250","psychophysics","25","101108","0.0-25.0","5ef78f819d93424af2af742b","620a6d93fe500ee66f2ceb23","1","0","29","40","","",""
"4474","key"," "," ","16.666505617977563","500","250","psychophysics","26","105585","0.0-26.0","5ef78f819d93424af2af742b","620a6d93fe500ee66f2ceb23","1","5","40","41","","",""
"5160","key"," "," ","16.666974110032367","500","250","psychophysics","27","110748","0.0-27.0","5ef78f819d93424af2af742b","620a6d93fe500ee66f2ceb23","1","0","38","56","","",""
"5591","key"," "," ","16.66682388059701","500","250","psychophysics","28","116345","0.0-28.0","5ef78f819d93424af2af742b","620a6d93fe500ee66f2ceb23","1","5","60","60","","",""
"8396","key"," "," ","16.666833001988074","500","250","psychophysics","29","124743","0.0-29.0","5ef78f819d93424af2af742b","620a6d93fe500ee66f2ceb23","1","0","36","51","","",""
"3574","key"," "," ","16.666817757009316","500","250","psychophysics","30","128322","0.0-30.0","5ef78f819d93424af2af742b","620a6d93fe500ee66f2ceb23","1","5","32","35","","",""
"3366","key"," "," ","16.66710447761203","500","250","psychophysics","31","131691","0.0-31.0","5ef78f819d93424af2af742b","620a6d93fe500ee66f2ceb23","1","0","32","41","","",""
"3603","key"," "," ","16.66690697674423","500","250","psychophysics","32","135298","0.0-32.0","5ef78f819d93424af2af742b","620a6d93fe500ee66f2ceb23","1","5","35","39","","",""
"5294","key"," "," ","16.66700630914833","500","250","psychophysics","33","140595","0.0-33.0","5ef78f819d93424af2af742b","620a6d93fe500ee66f2ceb23","1","0","57","80","","",""
"4528","key"," "," ","16.66677859778603","500","250","psychophysics","34","145129","0.0-34.0","5ef78f819d93424af2af742b","620a6d93fe500ee66f2ceb23","1","5","49","50","","",""
"7822","key"," "," ","16.666779914529883","500","250","psychophysics","35","152954","0.0-35.0","5ef78f819d93424af2af742b","620a6d93fe500ee66f2ceb23","1","0","50","64","","",""
"3811","key"," "," ","16.666557017543884","500","250","psychophysics","36","156769","0.0-36.0","5ef78f819d93424af2af742b","620a6d93fe500ee66f2ceb23","1","5","33","34","","",""
"1918","key"," "," ","16.66759999999979","500","250","psychophysics","37","158690","0.0-37.0","5ef78f819d93424af2af742b","620a6d93fe500ee66f2ceb23","","","","","","",""
"2439","key"," "," ","16.666606896551695","500","250","psychophysics","38","161131","0.0-38.0","5ef78f819d93424af2af742b","620a6d93fe500ee66f2ceb23","","","","","","",""
"1323","key"," "," ","16.666822784810172","500","250","psychophysics","39","162459","0.0-39.0","5ef78f819d93424af2af742b","620a6d93fe500ee66f2ceb23","","","","","","",""
"3517","key"," "," ","16.66706190476183","500","250","psychophysics","40","165977","0.0-40.0","5ef78f819d93424af2af742b","620a6d93fe500ee66f2ceb23","2","0","44","66","","",""
"2578","key"," "," ","16.666681818181782","500","250","psychophysics","41","168559","0.0-41.0","5ef78f819d93424af2af742b","620a6d93fe500ee66f2ceb23","","","","","","",""
"4476","key"," "," ","16.66648880597006","500","250","psychophysics","42","173041","0.0-42.0","5ef78f819d93424af2af742b","620a6d93fe500ee66f2ceb23","2","0","47","46","","",""
"1206","key"," "," ","16.665830985915562","500","250","psychophysics","43","174249","0.0-43.0","5ef78f819d93424af2af742b","620a6d93fe500ee66f2ceb23","","","","","","",""
"3512","key"," "," ","16.666685714285787","500","250","psychophysics","44","177763","0.0-44.0","5ef78f819d93424af2af742b","620a6d93fe500ee66f2ceb23","2","0","50","58","","",""
"1031","key"," "," ","16.666327868852587","500","250","psychophysics","45","178801","0.0-45.0","5ef78f819d93424af2af742b","620a6d93fe500ee66f2ceb23","","","","","","",""
"4023","key"," "," ","16.666946058091273","500","250","psychophysics","46","182826","0.0-46.0","5ef78f819d93424af2af742b","620a6d93fe500ee66f2ceb23","2","0","47","49","","",""
"1062","key"," "," ","16.66584126984087","500","250","psychophysics","47","183890","0.0-47.0","5ef78f819d93424af2af742b","620a6d93fe500ee66f2ceb23","","","","","","",""
"4208","key"," "," ","16.66660557768924","500","250","psychophysics","48","188100","0.0-48.0","5ef78f819d93424af2af742b","620a6d93fe500ee66f2ceb23","2","0","54","67","","",""
"928","key"," "," ","16.667090909090952","500","250","psychophysics","49","189034","0.0-49.0","5ef78f819d93424af2af742b","620a6d93fe500ee66f2ceb23","","","","","","",""
"4806","key"," "," ","16.666805555555584","500","250","psychophysics","50","193841","0.0-50.0","5ef78f819d93424af2af742b","620a6d93fe500ee66f2ceb23","2","0","49","58","","",""
"800","key"," "," ","16.66804255319182","500","250","psychophysics","51","194643","0.0-51.0","5ef78f819d93424af2af742b","620a6d93fe500ee66f2ceb23","","","","","","",""
"4115","key"," "," ","16.666833333333322","500","250","psychophysics","52","198762","0.0-52.0","5ef78f819d93424af2af742b","620a6d93fe500ee66f2ceb23","2","0","52","69","","",""
"783","key"," "," ","16.666195652173684","500","250","psychophysics","53","199547","0.0-53.0","5ef78f819d93424af2af742b","620a6d93fe500ee66f2ceb23","","","","","","",""
"3140","key"," "," ","16.66682978723405","500","250","psychophysics","54","202693","0.0-54.0","5ef78f819d93424af2af742b","620a6d93fe500ee66f2ceb23","2","0","29","27","","",""
"870","key"," "," ","16.66670588235252","500","250","psychophysics","55","203571","0.0-55.0","5ef78f819d93424af2af742b","620a6d93fe500ee66f2ceb23","","","","","","",""
"3440","key"," "," ","16.667077669902937","500","250","psychophysics","56","207019","0.0-56.0","5ef78f819d93424af2af742b","620a6d93fe500ee66f2ceb23","2","0","60","67","","",""
"1734","key"," "," ","16.6668750000001","500","250","psychophysics","57","208763","0.0-57.0","5ef78f819d93424af2af742b","620a6d93fe500ee66f2ceb23","","","","","","",""
"4340","key"," "," ","16.66688076923075","500","250","psychophysics","58","213110","0.0-58.0","5ef78f819d93424af2af742b","620a6d93fe500ee66f2ceb23","2","0","47","51","","",""
"678","key"," "," ","16.666599999999743","500","250","psychophysics","59","213795","0.0-59.0","5ef78f819d93424af2af742b","620a6d93fe500ee66f2ceb23","","","","","","",""
"2827","key"," "," ","16.66699408284029","500","250","psychophysics","60","216625","0.0-60.0","5ef78f819d93424af2af742b","620a6d93fe500ee66f2ceb23","2","0","47","50","","",""
"683","key"," "," ","16.66557499999981","500","250","psychophysics","61","217310","0.0-61.0","5ef78f819d93424af2af742b","620a6d93fe500ee66f2ceb23","","","","","","",""
"2629","key"," "," ","16.666847133758008","500","250","psychophysics","62","219946","0.0-62.0","5ef78f819d93424af2af742b","620a6d93fe500ee66f2ceb23","2","0","51","50","","",""
"587","key"," "," ","16.66741176470532","500","250","psychophysics","63","220537","0.0-63.0","5ef78f819d93424af2af742b","620a6d93fe500ee66f2ceb23","","","","","","",""
"3149","key"," "," ","16.66697883597888","500","250","psychophysics","64","223690","0.0-64.0","5ef78f819d93424af2af742b","620a6d93fe500ee66f2ceb23","2","0","49","58","","",""
"775","key"," "," ","16.66655555555545","500","250","psychophysics","65","224467","0.0-65.0","5ef78f819d93424af2af742b","620a6d93fe500ee66f2ceb23","","","","","","",""
"4057","key"," "," ","16.666860082304492","500","250","psychophysics","66","228530","0.0-66.0","5ef78f819d93424af2af742b","620a6d93fe500ee66f2ceb23","2","0","54","49","","",""
"686","key"," "," ","16.666825000000244","500","250","psychophysics","67","229221","0.0-67.0","5ef78f819d93424af2af742b","620a6d93fe500ee66f2ceb23","","","","","","",""
"2136","key"," "," ","16.666765624999925","500","250","psychophysics","68","231362","0.0-68.0","5ef78f819d93424af2af742b","620a6d93fe500ee66f2ceb23","2","0","35","37","","",""
"588","key"," "," ","16.666499999999786","500","250","psychophysics","69","231955","0.0-69.0","5ef78f819d93424af2af742b","620a6d93fe500ee66f2ceb23","","","","","","",""
"1369","key"," "," ","16.666097560975906","500","250","psychophysics","70","233330","0.0-70.0","5ef78f819d93424af2af742b","620a6d93fe500ee66f2ceb23","","","","","","",""
"1444","key"," "," ","16.665837209302186","500","250","psychophysics","71","234778","0.0-71.0","5ef78f819d93424af2af742b","620a6d93fe500ee66f2ceb23","","","","","","",""
"4572","key"," "," ","16.666809523809594","500","250","psychophysics","72","239353","0.0-72.0","5ef78f819d93424af2af742b","620a6d93fe500ee66f2ceb23","3","5","55","56","","",""
"5567","key"," "," ","16.66658558558558","500","250","psychophysics","73","244922","0.0-73.0","5ef78f819d93424af2af742b","620a6d93fe500ee66f2ceb23","3","0","40","48","","",""
"2989","key"," "," ","16.666296089385433","500","250","psychophysics","74","247913","0.0-74.0","5ef78f819d93424af2af742b","620a6d93fe500ee66f2ceb23","3","5","36","38","","",""
"2920","key"," "," ","16.66713793103462","500","250","psychophysics","75","250834","0.0-75.0","5ef78f819d93424af2af742b","620a6d93fe500ee66f2ceb23","3","0","46","56","","",""
"3681","key"," "," ","16.666622727272756","500","250","psychophysics","76","254521","0.0-76.0","5ef78f819d93424af2af742b","620a6d93fe500ee66f2ceb23","3","5","51","48","","",""
"2176","key"," "," ","16.66700769230777","500","250","psychophysics","77","256699","0.0-77.0","5ef78f819d93424af2af742b","620a6d93fe500ee66f2ceb23","3","0","21","28","","",""
"4937","key"," "," ","16.666800675675553","500","250","psychophysics","78","261642","0.0-78.0","5ef78f819d93424af2af742b","620a6d93fe500ee66f2ceb23","3","5","60","59","","",""
"3761","key"," "," ","16.66701333333324","500","250","psychophysics","79","265409","0.0-79.0","5ef78f819d93424af2af742b","620a6d93fe500ee66f2ceb23","3","0","21","24","","",""
"3654","key"," "," ","16.667045871559754","500","250","psychophysics","80","269065","0.0-80.0","5ef78f819d93424af2af742b","620a6d93fe500ee66f2ceb23","3","5","27","27","","",""
"5030","key"," "," ","16.66703986710957","500","250","psychophysics","81","274097","0.0-81.0","5ef78f819d93424af2af742b","620a6d93fe500ee66f2ceb23","3","0","60","79","","",""
"2608","key"," "," ","16.66641666666673","500","250","psychophysics","82","276706","0.0-82.0","5ef78f819d93424af2af742b","620a6d93fe500ee66f2ceb23","3","5","30","32","","",""
"5168","key"," "," ","16.6667443365695","500","250","psychophysics","83","281876","0.0-83.0","5ef78f819d93424af2af742b","620a6d93fe500ee66f2ceb23","3","0","44","52","","",""
"4689","key"," "," ","16.666860714285786","500","250","psychophysics","84","286571","0.0-84.0","5ef78f819d93424af2af742b","620a6d93fe500ee66f2ceb23","3","5","43","42","","",""
"2505","key"," "," ","16.6668200000003","500","250","psychophysics","85","289082","0.0-85.0","5ef78f819d93424af2af742b","620a6d93fe500ee66f2ceb23","3","0","28","30","","",""
"4502","key"," "," ","16.666651851851796","500","250","psychophysics","86","293595","0.0-86.0","5ef78f819d93424af2af742b","620a6d93fe500ee66f2ceb23","3","5","56","48","","",""
"3369","key"," "," ","16.667009950248556","500","250","psychophysics","87","296972","0.0-87.0","5ef78f819d93424af2af742b","620a6d93fe500ee66f2ceb23","3","0","39","39","","",""
"2933","key"," "," ","16.66684090909092","500","250","psychophysics","88","299911","0.0-88.0","5ef78f819d93424af2af742b","620a6d93fe500ee66f2ceb23","3","5","33","34","","",""
"2843","key"," "," ","16.666794117647292","500","250","psychophysics","89","302762","0.0-89.0","5ef78f819d93424af2af742b","620a6d93fe500ee66f2ceb23","3","0","25","29","","",""
"3341","key"," "," ","16.666984999999986","500","250","psychophysics","90","306107","0.0-90.0","5ef78f819d93424af2af742b","620a6d93fe500ee66f2ceb23","3","5","29","31","","",""
"2643","key"," "," ","16.666808917197535","500","250","psychophysics","91","308753","0.0-91.0","5ef78f819d93424af2af742b","620a6d93fe500ee66f2ceb23","3","0","34","38","","",""
"2191","key"," "," ","16.666633587786464","500","250","psychophysics","92","310945","0.0-92.0","5ef78f819d93424af2af742b","620a6d93fe500ee66f2ceb23","","","","","","",""
"16521","","","v","","","","html-keyboard-response","93","327466","0.0-93.0","5ef78f819d93424af2af742b","620a6d93fe500ee66f2ceb23","","","","","<p> In this part of the experiment, we are going present digits 1, 2, 3, 4, 6, 7, 8, and 9.  Notice that 5 is missing.  Your job is to say whether the presented digit is less than or greater than 5.  For example, 3 is less than 5 and 7 is greater than 5.  If the digit is less than 5, press the v key; if it is greater than 5, press the n key. We are going to do 200 of these in total, but only 50 righ now. They go real fast.</p>  <br><br>  Ready? (press v or n)","",""
"3636","key","n","n","16.670502283104874","500","250","psychophysics","94","331110","0.0-94.0","5ef78f819d93424af2af742b","620a6d93fe500ee66f2ceb23","4","","","","","1","9"
"null","","","null","","","","html-keyboard-response","95","331623","0.0-95.0","5ef78f819d93424af2af742b","620a6d93fe500ee66f2ceb23","","","","","<p style=""color:darkgreen;font-size:24px;"">Correct :)</p>","",""
"3165","key","n","n","16.66743684210539","500","250","psychophysics","96","334794","0.0-96.0","5ef78f819d93424af2af742b","620a6d93fe500ee66f2ceb23","4","","","","","1","9"
"null","","","null","","","","html-keyboard-response","97","335296","0.0-97.0","5ef78f819d93424af2af742b","620a6d93fe500ee66f2ceb23","","","","","<p style=""color:darkgreen;font-size:24px;"">Correct :)</p>","",""
"2817","key","n","n","16.666514792899427","500","250","psychophysics","98","338121","0.0-98.0","5ef78f819d93424af2af742b","620a6d93fe500ee66f2ceb23","4","","","","","1","8"
"null","","","null","","","","html-keyboard-response","99","338623","0.0-99.0","5ef78f819d93424af2af742b","620a6d93fe500ee66f2ceb23","","","","","<p style=""color:darkgreen;font-size:24px;"">Correct :)</p>","",""
"2493","key","v","v","16.666583892617425","500","250","psychophysics","100","341121","0.0-100.0","5ef78f819d93424af2af742b","620a6d93fe500ee66f2ceb23","4","","","","","1","2"
"null","","","null","","","","html-keyboard-response","101","341623","0.0-101.0","5ef78f819d93424af2af742b","620a6d93fe500ee66f2ceb23","","","","","<p style=""color:darkgreen;font-size:24px;"">Correct :)</p>","",""
"2572","key","v","v","16.667259740259563","500","250","psychophysics","102","344200","0.0-102.0","5ef78f819d93424af2af742b","620a6d93fe500ee66f2ceb23","4","","","","","1","4"
"null","","","null","","","","html-keyboard-response","103","344703","0.0-103.0","5ef78f819d93424af2af742b","620a6d93fe500ee66f2ceb23","","","","","<p style=""color:darkgreen;font-size:24px;"">Correct :)</p>","",""
"2805","key","n","n","16.666331360946664","500","250","psychophysics","104","347513","0.0-104.0","5ef78f819d93424af2af742b","620a6d93fe500ee66f2ceb23","4","","","","","1","7"
"null","","","null","","","","html-keyboard-response","105","348014","0.0-105.0","5ef78f819d93424af2af742b","620a6d93fe500ee66f2ceb23","","","","","<p style=""color:darkgreen;font-size:24px;"">Correct :)</p>","",""
"2504","key","v","v","16.66705333333346","500","250","psychophysics","106","350521","0.0-106.0","5ef78f819d93424af2af742b","620a6d93fe500ee66f2ceb23","4","","","","","1","2"
"null","","","null","","","","html-keyboard-response","107","351023","0.0-107.0","5ef78f819d93424af2af742b","620a6d93fe500ee66f2ceb23","","","","","<p style=""color:darkgreen;font-size:24px;"">Correct :)</p>","",""
"2713","key","n","n","16.66725925925938","500","250","psychophysics","108","353737","0.0-108.0","5ef78f819d93424af2af742b","620a6d93fe500ee66f2ceb23","4","","","","","1","8"
"null","","","null","","","","html-keyboard-response","109","354238","0.0-109.0","5ef78f819d93424af2af742b","620a6d93fe500ee66f2ceb23","","","","","<p style=""color:darkgreen;font-size:24px;"">Correct :)</p>","",""
"2495","key","n","n","16.667395973154235","500","250","psychophysics","110","356737","0.0-110.0","5ef78f819d93424af2af742b","620a6d93fe500ee66f2ceb23","4","","","","","1","8"
"null","","","null","","","","html-keyboard-response","111","357238","0.0-111.0","5ef78f819d93424af2af742b","620a6d93fe500ee66f2ceb23","","","","","<p style=""color:darkgreen;font-size:24px;"">Correct :)</p>","",""
"2469","key","n","n","16.66655405405382","500","250","psychophysics","112","359713","0.0-112.0","5ef78f819d93424af2af742b","620a6d93fe500ee66f2ceb23","4","","","","","1","9"
"null","","","null","","","","html-keyboard-response","113","360213","0.0-113.0","5ef78f819d93424af2af742b","620a6d93fe500ee66f2ceb23","","","","","<p style=""color:darkgreen;font-size:24px;"">Correct :)</p>","",""
"2392","key","v","v","16.666756944444288","500","250","psychophysics","114","362612","0.0-114.0","5ef78f819d93424af2af742b","620a6d93fe500ee66f2ceb23","4","","","","","1","3"
"null","","","null","","","","html-keyboard-response","115","363113","0.0-115.0","5ef78f819d93424af2af742b","620a6d93fe500ee66f2ceb23","","","","","<p style=""color:darkgreen;font-size:24px;"">Correct :)</p>","",""
"2407","key","n","n","16.6667777777778","500","250","psychophysics","116","365522","0.0-116.0","5ef78f819d93424af2af742b","620a6d93fe500ee66f2ceb23","4","","","","","1","7"
"null","","","null","","","","html-keyboard-response","117","366024","0.0-117.0","5ef78f819d93424af2af742b","620a6d93fe500ee66f2ceb23","","","","","<p style=""color:darkgreen;font-size:24px;"">Correct :)</p>","",""
"2402","key","v","v","16.667076388888947","500","250","psychophysics","118","368434","0.0-118.0","5ef78f819d93424af2af742b","620a6d93fe500ee66f2ceb23","4","","","","","1","1"
"null","","","null","","","","html-keyboard-response","119","368936","0.0-119.0","5ef78f819d93424af2af742b","620a6d93fe500ee66f2ceb23","","","","","<p style=""color:darkgreen;font-size:24px;"">Correct :)</p>","",""
"2426","key","n","n","16.667178082191754","500","250","psychophysics","120","371370","0.0-120.0","5ef78f819d93424af2af742b","620a6d93fe500ee66f2ceb23","4","","","","","1","9"
"null","","","null","","","","html-keyboard-response","121","371872","0.0-121.0","5ef78f819d93424af2af742b","620a6d93fe500ee66f2ceb23","","","","","<p style=""color:darkgreen;font-size:24px;"">Correct :)</p>","",""
"2365","key","v","v","16.666985915492955","500","250","psychophysics","122","374243","0.0-122.0","5ef78f819d93424af2af742b","620a6d93fe500ee66f2ceb23","4","","","","","1","1"
"null","","","null","","","","html-keyboard-response","123","374744","0.0-123.0","5ef78f819d93424af2af742b","620a6d93fe500ee66f2ceb23","","","","","<p style=""color:darkgreen;font-size:24px;"">Correct :)</p>","",""
"2373","key","n","n","16.667084507042013","500","250","psychophysics","124","377123","0.0-124.0","5ef78f819d93424af2af742b","620a6d93fe500ee66f2ceb23","4","","","","","1","6"
"null","","","null","","","","html-keyboard-response","125","377625","0.0-125.0","5ef78f819d93424af2af742b","620a6d93fe500ee66f2ceb23","","","","","<p style=""color:darkgreen;font-size:24px;"">Correct :)</p>","",""
"2402","key","v","v","16.667027777777953","500","250","psychophysics","126","380033","0.0-126.0","5ef78f819d93424af2af742b","620a6d93fe500ee66f2ceb23","4","","","","","1","1"
"null","","","null","","","","html-keyboard-response","127","380534","0.0-127.0","5ef78f819d93424af2af742b","620a6d93fe500ee66f2ceb23","","","","","<p style=""color:darkgreen;font-size:24px;"">Correct :)</p>","",""
"2489","key","v","v","16.666880000000045","500","250","psychophysics","128","383029","0.0-128.0","5ef78f819d93424af2af742b","620a6d93fe500ee66f2ceb23","4","","","","","1","4"
"null","","","null","","","","html-keyboard-response","129","383530","0.0-129.0","5ef78f819d93424af2af742b","620a6d93fe500ee66f2ceb23","","","","","<p style=""color:darkgreen;font-size:24px;"">Correct :)</p>","",""
"2432","key","v","v","16.66702054794527","500","250","psychophysics","130","385964","0.0-130.0","5ef78f819d93424af2af742b","620a6d93fe500ee66f2ceb23","4","","","","","1","2"
"null","","","null","","","","html-keyboard-response","131","386466","0.0-131.0","5ef78f819d93424af2af742b","620a6d93fe500ee66f2ceb23","","","","","<p style=""color:darkgreen;font-size:24px;"">Correct :)</p>","",""
"2407","key","n","n","16.666999999999774","500","250","psychophysics","132","388881","0.0-132.0","5ef78f819d93424af2af742b","620a6d93fe500ee66f2ceb23","4","","","","","1","7"
"null","","","null","","","","html-keyboard-response","133","389382","0.0-133.0","5ef78f819d93424af2af742b","620a6d93fe500ee66f2ceb23","","","","","<p style=""color:darkgreen;font-size:24px;"">Correct :)</p>","",""
"2442","key","v","v","16.66675510204066","500","250","psychophysics","134","391827","0.0-134.0","5ef78f819d93424af2af742b","620a6d93fe500ee66f2ceb23","4","","","","","1","2"
"null","","","null","","","","html-keyboard-response","135","392329","0.0-135.0","5ef78f819d93424af2af742b","620a6d93fe500ee66f2ceb23","","","","","<p style=""color:darkgreen;font-size:24px;"">Correct :)</p>","",""
"2412","key","v","v","16.667068965517082","500","250","psychophysics","136","394746","0.0-136.0","5ef78f819d93424af2af742b","620a6d93fe500ee66f2ceb23","4","","","","","1","2"
"null","","","null","","","","html-keyboard-response","137","395247","0.0-137.0","5ef78f819d93424af2af742b","620a6d93fe500ee66f2ceb23","","","","","<p style=""color:darkgreen;font-size:24px;"">Correct :)</p>","",""
"2570","key","v","v","16.66683870967733","500","250","psychophysics","138","397826","0.0-138.0","5ef78f819d93424af2af742b","620a6d93fe500ee66f2ceb23","4","","","","","1","4"
"null","","","null","","","","html-keyboard-response","139","398327","0.0-139.0","5ef78f819d93424af2af742b","620a6d93fe500ee66f2ceb23","","","","","<p style=""color:darkgreen;font-size:24px;"">Correct :)</p>","",""
"2548","key","n","n","16.667385620915322","500","250","psychophysics","140","400877","0.0-140.0","5ef78f819d93424af2af742b","620a6d93fe500ee66f2ceb23","4","","","","","1","1"
"null","","","null","","","","html-keyboard-response","141","401379","0.0-141.0","5ef78f819d93424af2af742b","620a6d93fe500ee66f2ceb23","","","","","<p style=""color:red;font-size:24px;"">Error :(</p>","",""
"2670","key","n","n","16.666931250000196","500","250","psychophysics","142","404051","0.0-142.0","5ef78f819d93424af2af742b","620a6d93fe500ee66f2ceb23","4","","","","","1","7"
"null","","","null","","","","html-keyboard-response","143","404552","0.0-143.0","5ef78f819d93424af2af742b","620a6d93fe500ee66f2ceb23","","","","","<p style=""color:darkgreen;font-size:24px;"">Correct :)</p>","",""
"2723","key","n","n","16.666798780488048","500","250","psychophysics","144","407281","0.0-144.0","5ef78f819d93424af2af742b","620a6d93fe500ee66f2ceb23","4","","","","","1","7"
"null","","","null","","","","html-keyboard-response","145","407782","0.0-145.0","5ef78f819d93424af2af742b","620a6d93fe500ee66f2ceb23","","","","","<p style=""color:darkgreen;font-size:24px;"">Correct :)</p>","",""
"2478","key","n","n","16.667315436241953","500","250","psychophysics","146","410266","0.0-146.0","5ef78f819d93424af2af742b","620a6d93fe500ee66f2ceb23","4","","","","","1","8"
"null","","","null","","","","html-keyboard-response","147","410766","0.0-147.0","5ef78f819d93424af2af742b","620a6d93fe500ee66f2ceb23","","","","","<p style=""color:darkgreen;font-size:24px;"">Correct :)</p>","",""
"2663","key","v","v","16.666831249999813","500","250","psychophysics","148","413435","0.0-148.0","5ef78f819d93424af2af742b","620a6d93fe500ee66f2ceb23","4","","","","","1","3"
"null","","","null","","","","html-keyboard-response","149","413937","0.0-149.0","5ef78f819d93424af2af742b","620a6d93fe500ee66f2ceb23","","","","","<p style=""color:darkgreen;font-size:24px;"">Correct :)</p>","",""
"2476","key","n","n","16.667219999999894","500","250","psychophysics","150","416426","0.0-150.0","5ef78f819d93424af2af742b","620a6d93fe500ee66f2ceb23","4","","","","","1","7"
"null","","","null","","","","html-keyboard-response","151","416928","0.0-151.0","5ef78f819d93424af2af742b","620a6d93fe500ee66f2ceb23","","","","","<p style=""color:darkgreen;font-size:24px;"">Correct :)</p>","",""
"2487","key","v","v","16.666711409395756","500","250","psychophysics","152","419417","0.0-152.0","5ef78f819d93424af2af742b","620a6d93fe500ee66f2ceb23","4","","","","","1","3"
"null","","","null","","","","html-keyboard-response","153","419918","0.0-153.0","5ef78f819d93424af2af742b","620a6d93fe500ee66f2ceb23","","","","","<p style=""color:darkgreen;font-size:24px;"">Correct :)</p>","",""
"2515","key","v","v","16.667000000000026","500","250","psychophysics","154","422435","0.0-154.0","5ef78f819d93424af2af742b","620a6d93fe500ee66f2ceb23","4","","","","","1","3"
"null","","","null","","","","html-keyboard-response","155","422937","0.0-155.0","5ef78f819d93424af2af742b","620a6d93fe500ee66f2ceb23","","","","","<p style=""color:darkgreen;font-size:24px;"">Correct :)</p>","",""
"2474","key","n","n","16.66670469798682","500","250","psychophysics","156","425417","0.0-156.0","5ef78f819d93424af2af742b","620a6d93fe500ee66f2ceb23","4","","","","","1","7"
"null","","","null","","","","html-keyboard-response","157","425918","0.0-157.0","5ef78f819d93424af2af742b","620a6d93fe500ee66f2ceb23","","","","","<p style=""color:darkgreen;font-size:24px;"">Correct :)</p>","",""
"2449","key","n","n","16.666918367346618","500","250","psychophysics","158","428369","0.0-158.0","5ef78f819d93424af2af742b","620a6d93fe500ee66f2ceb23","4","","","","","1","9"
"null","","","null","","","","html-keyboard-response","159","428871","0.0-159.0","5ef78f819d93424af2af742b","620a6d93fe500ee66f2ceb23","","","","","<p style=""color:darkgreen;font-size:24px;"">Correct :)</p>","",""
"2450","key","v","v","16.667385135135437","500","250","psychophysics","160","431329","0.0-160.0","5ef78f819d93424af2af742b","620a6d93fe500ee66f2ceb23","4","","","","","1","2"
"null","","","null","","","","html-keyboard-response","161","431830","0.0-161.0","5ef78f819d93424af2af742b","620a6d93fe500ee66f2ceb23","","","","","<p style=""color:darkgreen;font-size:24px;"">Correct :)</p>","",""
"2451","key","n","n","16.667102040816417","500","250","psychophysics","162","434284","0.0-162.0","5ef78f819d93424af2af742b","620a6d93fe500ee66f2ceb23","4","","","","","1","6"
"null","","","null","","","","html-keyboard-response","163","434785","0.0-163.0","5ef78f819d93424af2af742b","620a6d93fe500ee66f2ceb23","","","","","<p style=""color:darkgreen;font-size:24px;"">Correct :)</p>","",""
"2427","key","v","v","16.66702054794527","500","250","psychophysics","164","437218","0.0-164.0","5ef78f819d93424af2af742b","620a6d93fe500ee66f2ceb23","4","","","","","1","2"
"null","","","null","","","","html-keyboard-response","165","437720","0.0-165.0","5ef78f819d93424af2af742b","620a6d93fe500ee66f2ceb23","","","","","<p style=""color:darkgreen;font-size:24px;"">Correct :)</p>","",""
"2433","key","v","v","16.667034013605466","500","250","psychophysics","166","440161","0.0-166.0","5ef78f819d93424af2af742b","620a6d93fe500ee66f2ceb23","4","","","","","1","3"
"null","","","null","","","","html-keyboard-response","167","440662","0.0-167.0","5ef78f819d93424af2af742b","620a6d93fe500ee66f2ceb23","","","","","<p style=""color:darkgreen;font-size:24px;"">Correct :)</p>","",""
"2505","key","v","v","16.667039999999883","500","250","psychophysics","168","443170","0.0-168.0","5ef78f819d93424af2af742b","620a6d93fe500ee66f2ceb23","4","","","","","1","1"
"null","","","null","","","","html-keyboard-response","169","443684","0.0-169.0","5ef78f819d93424af2af742b","620a6d93fe500ee66f2ceb23","","","","","<p style=""color:darkgreen;font-size:24px;"">Correct :)</p>","",""
"2584","key","n","n","16.66676923076925","500","250","psychophysics","170","446275","0.0-170.0","5ef78f819d93424af2af742b","620a6d93fe500ee66f2ceb23","4","","","","","1","4"
"null","","","null","","","","html-keyboard-response","171","446776","0.0-171.0","5ef78f819d93424af2af742b","620a6d93fe500ee66f2ceb23","","","","","<p style=""color:red;font-size:24px;"">Error :(</p>","",""
"2481","key","v","v","16.66738926174491","500","250","psychophysics","172","449259","0.0-172.0","5ef78f819d93424af2af742b","620a6d93fe500ee66f2ceb23","4","","","","","1","4"
"null","","","null","","","","html-keyboard-response","173","449761","0.0-173.0","5ef78f819d93424af2af742b","620a6d93fe500ee66f2ceb23","","","","","<p style=""color:darkgreen;font-size:24px;"">Correct :)</p>","",""
"2406","key","v","v","16.66670833333329","500","250","psychophysics","174","452169","0.0-174.0","5ef78f819d93424af2af742b","620a6d93fe500ee66f2ceb23","4","","","","","1","1"
"null","","","null","","","","html-keyboard-response","175","452670","0.0-175.0","5ef78f819d93424af2af742b","620a6d93fe500ee66f2ceb23","","","","","<p style=""color:darkgreen;font-size:24px;"">Correct :)</p>","",""
"2510","key","n","n","16.66737086092706","500","250","psychophysics","176","455186","0.0-176.0","5ef78f819d93424af2af742b","620a6d93fe500ee66f2ceb23","4","","","","","1","9"
"null","","","null","","","","html-keyboard-response","177","455688","0.0-177.0","5ef78f819d93424af2af742b","620a6d93fe500ee66f2ceb23","","","","","<p style=""color:darkgreen;font-size:24px;"">Correct :)</p>","",""
"2459","key","n","n","16.666790540540525","500","250","psychophysics","178","458153","0.0-178.0","5ef78f819d93424af2af742b","620a6d93fe500ee66f2ceb23","4","","","","","1","9"
"null","","","null","","","","html-keyboard-response","179","458653","0.0-179.0","5ef78f819d93424af2af742b","620a6d93fe500ee66f2ceb23","","","","","<p style=""color:darkgreen;font-size:24px;"">Correct :)</p>","",""
"2449","key","n","n","16.66744897959217","500","250","psychophysics","180","461105","0.0-180.0","5ef78f819d93424af2af742b","620a6d93fe500ee66f2ceb23","4","","","","","1","8"
"null","","","null","","","","html-keyboard-response","181","461606","0.0-181.0","5ef78f819d93424af2af742b","620a6d93fe500ee66f2ceb23","","","","","<p style=""color:darkgreen;font-size:24px;"">Correct :)</p>","",""
"2420","key","n","n","16.6667034482756","500","250","psychophysics","182","464034","0.0-182.0","5ef78f819d93424af2af742b","620a6d93fe500ee66f2ceb23","4","","","","","1","8"
"null","","","null","","","","html-keyboard-response","183","464536","0.0-183.0","5ef78f819d93424af2af742b","620a6d93fe500ee66f2ceb23","","","","","<p style=""color:darkgreen;font-size:24px;"">Correct :)</p>","",""
"2416","key","v","v","16.667103448275732","500","250","psychophysics","184","466954","0.0-184.0","5ef78f819d93424af2af742b","620a6d93fe500ee66f2ceb23","4","","","","","1","4"
"null","","","null","","","","html-keyboard-response","185","467456","0.0-185.0","5ef78f819d93424af2af742b","620a6d93fe500ee66f2ceb23","","","","","<p style=""color:darkgreen;font-size:24px;"">Correct :)</p>","",""
"2489","key","v","v","16.667073825503163","500","250","psychophysics","186","469947","0.0-186.0","5ef78f819d93424af2af742b","620a6d93fe500ee66f2ceb23","4","","","","","1","1"
"null","","","null","","","","html-keyboard-response","187","470448","0.0-187.0","5ef78f819d93424af2af742b","620a6d93fe500ee66f2ceb23","","","","","<p style=""color:darkgreen;font-size:24px;"">Correct :)</p>","",""
"2464","key","v","v","16.666736486486656","500","250","psychophysics","188","472915","0.0-188.0","5ef78f819d93424af2af742b","620a6d93fe500ee66f2ceb23","4","","","","","1","2"
"null","","","null","","","","html-keyboard-response","189","473416","0.0-189.0","5ef78f819d93424af2af742b","620a6d93fe500ee66f2ceb23","","","","","<p style=""color:darkgreen;font-size:24px;"">Correct :)</p>","",""
"2399","key","v","v","16.66747916666686","500","250","psychophysics","190","475817","0.0-190.0","5ef78f819d93424af2af742b","620a6d93fe500ee66f2ceb23","4","","","","","1","2"
"null","","","null","","","","html-keyboard-response","191","476319","0.0-191.0","5ef78f819d93424af2af742b","620a6d93fe500ee66f2ceb23","","","","","<p style=""color:darkgreen;font-size:24px;"">Correct :)</p>","",""
"2464","key","n","n","16.66721621621597","500","250","psychophysics","192","478785","0.0-192.0","5ef78f819d93424af2af742b","620a6d93fe500ee66f2ceb23","4","","","","","1","8"
"null","","","null","","","","html-keyboard-response","193","479286","0.0-193.0","5ef78f819d93424af2af742b","620a6d93fe500ee66f2ceb23","","","","","<p style=""color:darkgreen;font-size:24px;"">Correct :)</p>","",""
"5507","","","n","","","","html-keyboard-response","194","484794","0.0-194.0","5ef78f819d93424af2af742b","620a6d93fe500ee66f2ceb23","","","","","<p> Ok, now we are going present the same digits as before.  Your job is to say whether the digit is even or odd  If the digit is odd, press to v key; if it is even, press the n key. We are going to do 50 of these.  </p>  <br><br>  Ready? (press v or n)","",""
"2889","key","v","v","16.668566473988506","500","250","psychophysics","195","487690","0.0-195.0","5ef78f819d93424af2af742b","620a6d93fe500ee66f2ceb23","5","","","","","0","9"
"null","","","null","","","","html-keyboard-response","196","488191","0.0-196.0","5ef78f819d93424af2af742b","620a6d93fe500ee66f2ceb23","","","","","<p style=""color:darkgreen;font-size:24px;"">Correct :)</p>","",""
"3137","key","v","v","16.66688297872315","500","250","psychophysics","197","491337","0.0-197.0","5ef78f819d93424af2af742b","620a6d93fe500ee66f2ceb23","5","","","","","0","7"
"null","","","null","","","","html-keyboard-response","198","491838","0.0-198.0","5ef78f819d93424af2af742b","620a6d93fe500ee66f2ceb23","","","","","<p style=""color:darkgreen;font-size:24px;"">Correct :)</p>","",""
"2745","key","n","n","16.667121212121284","500","250","psychophysics","199","494585","0.0-199.0","5ef78f819d93424af2af742b","620a6d93fe500ee66f2ceb23","5","","","","","0","2"
"null","","","null","","","","html-keyboard-response","200","495086","0.0-200.0","5ef78f819d93424af2af742b","620a6d93fe500ee66f2ceb23","","","","","<p style=""color:darkgreen;font-size:24px;"">Correct :)</p>","",""
"2662","key","v","v","16.666612499999975","500","250","psychophysics","201","497755","0.0-201.0","5ef78f819d93424af2af742b","620a6d93fe500ee66f2ceb23","5","","","","","0","3"
"null","","","null","","","","html-keyboard-response","202","498256","0.0-202.0","5ef78f819d93424af2af742b","620a6d93fe500ee66f2ceb23","","","","","<p style=""color:darkgreen;font-size:24px;"">Correct :)</p>","",""
"2652","key","n","n","16.666887499999937","500","250","psychophysics","203","500914","0.0-203.0","5ef78f819d93424af2af742b","620a6d93fe500ee66f2ceb23","5","","","","","0","4"
"null","","","null","","","","html-keyboard-response","204","501415","0.0-204.0","5ef78f819d93424af2af742b","620a6d93fe500ee66f2ceb23","","","","","<p style=""color:darkgreen;font-size:24px;"">Correct :)</p>","",""
"2612","key","v","v","16.66710828025462","500","250","psychophysics","205","504030","0.0-205.0","5ef78f819d93424af2af742b","620a6d93fe500ee66f2ceb23","5","","","","","0","9"
"null","","","null","","","","html-keyboard-response","206","504532","0.0-206.0","5ef78f819d93424af2af742b","620a6d93fe500ee66f2ceb23","","","","","<p style=""color:darkgreen;font-size:24px;"">Correct :)</p>","",""
"2447","key","n","n","16.666653061224636","500","250","psychophysics","207","506985","0.0-207.0","5ef78f819d93424af2af742b","620a6d93fe500ee66f2ceb23","5","","","","","0","2"
"null","","","null","","","","html-keyboard-response","208","507487","0.0-208.0","5ef78f819d93424af2af742b","620a6d93fe500ee66f2ceb23","","","","","<p style=""color:darkgreen;font-size:24px;"">Correct :)</p>","",""
"2703","key","v","v","16.666932515337194","500","250","psychophysics","209","510196","0.0-209.0","5ef78f819d93424af2af742b","620a6d93fe500ee66f2ceb23","5","","","","","0","6"
"null","","","null","","","","html-keyboard-response","210","510697","0.0-210.0","5ef78f819d93424af2af742b","620a6d93fe500ee66f2ceb23","","","","","<p style=""color:red;font-size:24px;"">Error :(</p>","",""
"2906","key","n","n","16.66701714285716","500","250","psychophysics","211","513609","0.0-211.0","5ef78f819d93424af2af742b","620a6d93fe500ee66f2ceb23","5","","","","","0","4"
"null","","","null","","","","html-keyboard-response","212","514110","0.0-212.0","5ef78f819d93424af2af742b","620a6d93fe500ee66f2ceb23","","","","","<p style=""color:darkgreen;font-size:24px;"">Correct :)</p>","",""
"2622","key","v","v","16.666821656050903","500","250","psychophysics","213","516738","0.0-213.0","5ef78f819d93424af2af742b","620a6d93fe500ee66f2ceb23","5","","","","","0","3"
"null","","","null","","","","html-keyboard-response","214","517239","0.0-214.0","5ef78f819d93424af2af742b","620a6d93fe500ee66f2ceb23","","","","","<p style=""color:darkgreen;font-size:24px;"">Correct :)</p>","",""
"2907","key","v","v","16.666880000000155","500","250","psychophysics","215","520148","0.0-215.0","5ef78f819d93424af2af742b","620a6d93fe500ee66f2ceb23","5","","","","","0","7"
"null","","","null","","","","html-keyboard-response","216","520649","0.0-216.0","5ef78f819d93424af2af742b","620a6d93fe500ee66f2ceb23","","","","","<p style=""color:darkgreen;font-size:24px;"">Correct :)</p>","",""
"2745","key","v","v","16.667024242424294","500","250","psychophysics","217","523396","0.0-217.0","5ef78f819d93424af2af742b","620a6d93fe500ee66f2ceb23","5","","","","","0","1"
"null","","","null","","","","html-keyboard-response","218","523897","0.0-218.0","5ef78f819d93424af2af742b","620a6d93fe500ee66f2ceb23","","","","","<p style=""color:darkgreen;font-size:24px;"">Correct :)</p>","",""
"2630","key","n","n","16.666816455695947","500","250","psychophysics","219","526531","0.0-219.0","5ef78f819d93424af2af742b","620a6d93fe500ee66f2ceb23","5","","","","","0","6"
"null","","","null","","","","html-keyboard-response","220","527032","0.0-220.0","5ef78f819d93424af2af742b","620a6d93fe500ee66f2ceb23","","","","","<p style=""color:darkgreen;font-size:24px;"">Correct :)</p>","",""
"2501","key","v","v","16.666886666667025","500","250","psychophysics","221","529539","0.0-221.0","5ef78f819d93424af2af742b","620a6d93fe500ee66f2ceb23","5","","","","","0","9"
"null","","","null","","","","html-keyboard-response","222","530041","0.0-222.0","5ef78f819d93424af2af742b","620a6d93fe500ee66f2ceb23","","","","","<p style=""color:darkgreen;font-size:24px;"">Correct :)</p>","",""
"2570","key","n","n","16.666811688311775","500","250","psychophysics","223","532617","0.0-223.0","5ef78f819d93424af2af742b","620a6d93fe500ee66f2ceb23","5","","","","","0","4"
"null","","","null","","","","html-keyboard-response","224","533118","0.0-224.0","5ef78f819d93424af2af742b","620a6d93fe500ee66f2ceb23","","","","","<p style=""color:darkgreen;font-size:24px;"">Correct :)</p>","",""
"2851","key","n","n","16.666726744186192","500","250","psychophysics","225","535977","0.0-225.0","5ef78f819d93424af2af742b","620a6d93fe500ee66f2ceb23","5","","","","","0","6"
"null","","","null","","","","html-keyboard-response","226","536479","0.0-226.0","5ef78f819d93424af2af742b","620a6d93fe500ee66f2ceb23","","","","","<p style=""color:darkgreen;font-size:24px;"">Correct :)</p>","",""
"2626","key","v","v","16.667031847134048","500","250","psychophysics","227","539107","0.0-227.0","5ef78f819d93424af2af742b","620a6d93fe500ee66f2ceb23","5","","","","","0","8"
"null","","","null","","","","html-keyboard-response","228","539610","0.0-228.0","5ef78f819d93424af2af742b","620a6d93fe500ee66f2ceb23","","","","","<p style=""color:red;font-size:24px;"">Error :(</p>","",""
"2696","key","n","n","16.666969135802464","500","250","psychophysics","229","542314","0.0-229.0","5ef78f819d93424af2af742b","620a6d93fe500ee66f2ceb23","5","","","","","0","6"
"null","","","null","","","","html-keyboard-response","230","542816","0.0-230.0","5ef78f819d93424af2af742b","620a6d93fe500ee66f2ceb23","","","","","<p style=""color:darkgreen;font-size:24px;"">Correct :)</p>","",""
"2484","key","n","n","16.666959731543482","500","250","psychophysics","231","545306","0.0-231.0","5ef78f819d93424af2af742b","620a6d93fe500ee66f2ceb23","5","","","","","0","6"
"null","","","null","","","","html-keyboard-response","232","545807","0.0-232.0","5ef78f819d93424af2af742b","620a6d93fe500ee66f2ceb23","","","","","<p style=""color:darkgreen;font-size:24px;"">Correct :)</p>","",""
"2433","key","n","n","16.667068493150634","500","250","psychophysics","233","548242","0.0-233.0","5ef78f819d93424af2af742b","620a6d93fe500ee66f2ceb23","5","","","","","0","6"
"null","","","null","","","","html-keyboard-response","234","548743","0.0-234.0","5ef78f819d93424af2af742b","620a6d93fe500ee66f2ceb23","","","","","<p style=""color:darkgreen;font-size:24px;"">Correct :)</p>","",""
"2604","key","v","v","16.666371794871967","500","250","psychophysics","235","551353","0.0-235.0","5ef78f819d93424af2af742b","620a6d93fe500ee66f2ceb23","5","","","","","0","7"
"null","","","null","","","","html-keyboard-response","236","551854","0.0-236.0","5ef78f819d93424af2af742b","620a6d93fe500ee66f2ceb23","","","","","<p style=""color:darkgreen;font-size:24px;"">Correct :)</p>","",""
"2550","key","n","n","16.667311688312086","500","250","psychophysics","237","554410","0.0-237.0","5ef78f819d93424af2af742b","620a6d93fe500ee66f2ceb23","5","","","","","0","8"
"null","","","null","","","","html-keyboard-response","238","554910","0.0-238.0","5ef78f819d93424af2af742b","620a6d93fe500ee66f2ceb23","","","","","<p style=""color:darkgreen;font-size:24px;"">Correct :)</p>","",""
"2754","key","n","n","16.667442424242584","500","250","psychophysics","239","557666","0.0-239.0","5ef78f819d93424af2af742b","620a6d93fe500ee66f2ceb23","5","","","","","0","2"
"null","","","null","","","","html-keyboard-response","240","558167","0.0-240.0","5ef78f819d93424af2af742b","620a6d93fe500ee66f2ceb23","","","","","<p style=""color:darkgreen;font-size:24px;"">Correct :)</p>","",""
"2510","key","v","v","16.6669735099337","500","250","psychophysics","241","560684","0.0-241.0","5ef78f819d93424af2af742b","620a6d93fe500ee66f2ceb23","5","","","","","0","3"
"null","","","null","","","","html-keyboard-response","242","561186","0.0-242.0","5ef78f819d93424af2af742b","620a6d93fe500ee66f2ceb23","","","","","<p style=""color:darkgreen;font-size:24px;"">Correct :)</p>","",""
"2885","key","n","n","16.666517241379573","500","250","psychophysics","243","564084","0.0-243.0","5ef78f819d93424af2af742b","620a6d93fe500ee66f2ceb23","5","","","","","0","2"
"null","","","null","","","","html-keyboard-response","244","564586","0.0-244.0","5ef78f819d93424af2af742b","620a6d93fe500ee66f2ceb23","","","","","<p style=""color:darkgreen;font-size:24px;"">Correct :)</p>","",""
"2552","key","n","n","16.666896103895663","500","250","psychophysics","245","567146","0.0-245.0","5ef78f819d93424af2af742b","620a6d93fe500ee66f2ceb23","5","","","","","0","6"
"null","","","null","","","","html-keyboard-response","246","567654","0.0-246.0","5ef78f819d93424af2af742b","620a6d93fe500ee66f2ceb23","","","","","<p style=""color:darkgreen;font-size:24px;"">Correct :)</p>","",""
"2602","key","n","n","16.667025477706993","500","250","psychophysics","247","570265","0.0-247.0","5ef78f819d93424af2af742b","620a6d93fe500ee66f2ceb23","5","","","","","0","2"
"null","","","null","","","","html-keyboard-response","248","570767","0.0-248.0","5ef78f819d93424af2af742b","620a6d93fe500ee66f2ceb23","","","","","<p style=""color:darkgreen;font-size:24px;"">Correct :)</p>","",""
"2708","key","v","v","16.66693865030681","500","250","psychophysics","249","573478","0.0-249.0","5ef78f819d93424af2af742b","620a6d93fe500ee66f2ceb23","5","","","","","0","3"
"null","","","null","","","","html-keyboard-response","250","573980","0.0-250.0","5ef78f819d93424af2af742b","620a6d93fe500ee66f2ceb23","","","","","<p style=""color:darkgreen;font-size:24px;"">Correct :)</p>","",""
"2571","key","n","n","16.667019480519606","500","250","psychophysics","251","576558","0.0-251.0","5ef78f819d93424af2af742b","620a6d93fe500ee66f2ceb23","5","","","","","0","4"
"null","","","null","","","","html-keyboard-response","252","577059","0.0-252.0","5ef78f819d93424af2af742b","620a6d93fe500ee66f2ceb23","","","","","<p style=""color:darkgreen;font-size:24px;"">Correct :)</p>","",""
"2508","key","v","v","16.667413333333098","500","250","psychophysics","253","579569","0.0-253.0","5ef78f819d93424af2af742b","620a6d93fe500ee66f2ceb23","5","","","","","0","1"
"null","","","null","","","","html-keyboard-response","254","580070","0.0-254.0","5ef78f819d93424af2af742b","620a6d93fe500ee66f2ceb23","","","","","<p style=""color:darkgreen;font-size:24px;"">Correct :)</p>","",""
"2553","key","v","v","16.66692810457541","500","250","psychophysics","255","582625","0.0-255.0","5ef78f819d93424af2af742b","620a6d93fe500ee66f2ceb23","5","","","","","0","3"
"null","","","null","","","","html-keyboard-response","256","583126","0.0-256.0","5ef78f819d93424af2af742b","620a6d93fe500ee66f2ceb23","","","","","<p style=""color:darkgreen;font-size:24px;"">Correct :)</p>","",""
"2718","key","n","n","16.667098159508985","500","250","psychophysics","257","585846","0.0-257.0","5ef78f819d93424af2af742b","620a6d93fe500ee66f2ceb23","5","","","","","0","8"
"null","","","null","","","","html-keyboard-response","258","586348","0.0-258.0","5ef78f819d93424af2af742b","620a6d93fe500ee66f2ceb23","","","","","<p style=""color:darkgreen;font-size:24px;"">Correct :)</p>","",""
"2582","key","v","v","16.66659354838738","500","250","psychophysics","259","588938","0.0-259.0","5ef78f819d93424af2af742b","620a6d93fe500ee66f2ceb23","5","","","","","0","3"
"null","","","null","","","","html-keyboard-response","260","589439","0.0-260.0","5ef78f819d93424af2af742b","620a6d93fe500ee66f2ceb23","","","","","<p style=""color:darkgreen;font-size:24px;"">Correct :)</p>","",""
"2773","key","n","n","16.6670479041916","500","250","psychophysics","261","592218","0.0-261.0","5ef78f819d93424af2af742b","620a6d93fe500ee66f2ceb23","5","","","","","0","4"
"null","","","null","","","","html-keyboard-response","262","592720","0.0-262.0","5ef78f819d93424af2af742b","620a6d93fe500ee66f2ceb23","","","","","<p style=""color:darkgreen;font-size:24px;"">Correct :)</p>","",""
"2763","key","v","v","16.667000000000403","500","250","psychophysics","263","595489","0.0-263.0","5ef78f819d93424af2af742b","620a6d93fe500ee66f2ceb23","5","","","","","0","9"
"null","","","null","","","","html-keyboard-response","264","596005","0.0-264.0","5ef78f819d93424af2af742b","620a6d93fe500ee66f2ceb23","","","","","<p style=""color:darkgreen;font-size:24px;"">Correct :)</p>","",""
"2550","key","n","n","16.666733766233172","500","250","psychophysics","265","598561","0.0-265.0","5ef78f819d93424af2af742b","620a6d93fe500ee66f2ceb23","5","","","","","0","2"
"null","","","null","","","","html-keyboard-response","266","599062","0.0-266.0","5ef78f819d93424af2af742b","620a6d93fe500ee66f2ceb23","","","","","<p style=""color:darkgreen;font-size:24px;"">Correct :)</p>","",""
"2718","key","n","n","16.667049079754197","500","250","psychophysics","267","601786","0.0-267.0","5ef78f819d93424af2af742b","620a6d93fe500ee66f2ceb23","5","","","","","0","4"
"null","","","null","","","","html-keyboard-response","268","602288","0.0-268.0","5ef78f819d93424af2af742b","620a6d93fe500ee66f2ceb23","","","","","<p style=""color:darkgreen;font-size:24px;"">Correct :)</p>","",""
"2598","key","v","v","16.66688461538452","500","250","psychophysics","269","604892","0.0-269.0","5ef78f819d93424af2af742b","620a6d93fe500ee66f2ceb23","5","","","","","0","9"
"null","","","null","","","","html-keyboard-response","270","605392","0.0-270.0","5ef78f819d93424af2af742b","620a6d93fe500ee66f2ceb23","","","","","<p style=""color:darkgreen;font-size:24px;"">Correct :)</p>","",""
"2501","key","n","n","16.66696666666617","500","250","psychophysics","271","607899","0.0-271.0","5ef78f819d93424af2af742b","620a6d93fe500ee66f2ceb23","5","","","","","0","2"
"null","","","null","","","","html-keyboard-response","272","608401","0.0-272.0","5ef78f819d93424af2af742b","620a6d93fe500ee66f2ceb23","","","","","<p style=""color:darkgreen;font-size:24px;"">Correct :)</p>","",""
"2486","key","v","v","16.66737583892626","500","250","psychophysics","273","610890","0.0-273.0","5ef78f819d93424af2af742b","620a6d93fe500ee66f2ceb23","5","","","","","0","1"
"null","","","null","","","","html-keyboard-response","274","611391","0.0-274.0","5ef78f819d93424af2af742b","620a6d93fe500ee66f2ceb23","","","","","<p style=""color:darkgreen;font-size:24px;"">Correct :)</p>","",""
"2977","key","v","v","16.66722471910147","500","250","psychophysics","275","614370","0.0-275.0","5ef78f819d93424af2af742b","620a6d93fe500ee66f2ceb23","5","","","","","0","7"
"null","","","null","","","","html-keyboard-response","276","614874","0.0-276.0","5ef78f819d93424af2af742b","620a6d93fe500ee66f2ceb23","","","","","<p style=""color:darkgreen;font-size:24px;"">Correct :)</p>","",""
"2660","key","v","v","16.666955974842597","500","250","psychophysics","277","617537","0.0-277.0","5ef78f819d93424af2af742b","620a6d93fe500ee66f2ceb23","5","","","","","0","1"
"null","","","null","","","","html-keyboard-response","278","618037","0.0-278.0","5ef78f819d93424af2af742b","620a6d93fe500ee66f2ceb23","","","","","<p style=""color:darkgreen;font-size:24px;"">Correct :)</p>","",""
"2788","key","v","v","16.666970238095104","500","250","psychophysics","279","620834","0.0-279.0","5ef78f819d93424af2af742b","620a6d93fe500ee66f2ceb23","5","","","","","0","9"
"null","","","null","","","","html-keyboard-response","280","621335","0.0-280.0","5ef78f819d93424af2af742b","620a6d93fe500ee66f2ceb23","","","","","<p style=""color:darkgreen;font-size:24px;"">Correct :)</p>","",""
"2857","key","n","n","16.667052325581437","500","250","psychophysics","281","624198","0.0-281.0","5ef78f819d93424af2af742b","620a6d93fe500ee66f2ceb23","5","","","","","0","8"
"null","","","null","","","","html-keyboard-response","282","624700","0.0-282.0","5ef78f819d93424af2af742b","620a6d93fe500ee66f2ceb23","","","","","<p style=""color:darkgreen;font-size:24px;"">Correct :)</p>","",""
"2616","key","v","v","16.666662420381964","500","250","psychophysics","283","627322","0.0-283.0","5ef78f819d93424af2af742b","620a6d93fe500ee66f2ceb23","5","","","","","0","3"
"null","","","null","","","","html-keyboard-response","284","627823","0.0-284.0","5ef78f819d93424af2af742b","620a6d93fe500ee66f2ceb23","","","","","<p style=""color:darkgreen;font-size:24px;"">Correct :)</p>","",""
"2703","key","v","v","16.666957055214233","500","250","psychophysics","285","630533","0.0-285.0","5ef78f819d93424af2af742b","620a6d93fe500ee66f2ceb23","5","","","","","0","1"
"null","","","null","","","","html-keyboard-response","286","631035","0.0-286.0","5ef78f819d93424af2af742b","620a6d93fe500ee66f2ceb23","","","","","<p style=""color:darkgreen;font-size:24px;"">Correct :)</p>","",""
"2712","key","n","n","16.66683435582833","500","250","psychophysics","287","633753","0.0-287.0","5ef78f819d93424af2af742b","620a6d93fe500ee66f2ceb23","5","","","","","0","9"
"null","","","null","","","","html-keyboard-response","288","634254","0.0-288.0","5ef78f819d93424af2af742b","620a6d93fe500ee66f2ceb23","","","","","<p style=""color:red;font-size:24px;"">Error :(</p>","",""
"2985","key","n","n","16.66679888268134","500","250","psychophysics","289","637241","0.0-289.0","5ef78f819d93424af2af742b","620a6d93fe500ee66f2ceb23","5","","","","","0","2"
"null","","","null","","","","html-keyboard-response","290","637742","0.0-290.0","5ef78f819d93424af2af742b","620a6d93fe500ee66f2ceb23","","","","","<p style=""color:darkgreen;font-size:24px;"">Correct :)</p>","",""
"2896","key","n","n","16.667375722543383","500","250","psychophysics","291","640641","0.0-291.0","5ef78f819d93424af2af742b","620a6d93fe500ee66f2ceb23","5","","","","","0","4"
"null","","","null","","","","html-keyboard-response","292","641142","0.0-292.0","5ef78f819d93424af2af742b","620a6d93fe500ee66f2ceb23","","","","","<p style=""color:darkgreen;font-size:24px;"">Correct :)</p>","",""
"2850","key","n","n","16.667479532163547","500","250","psychophysics","293","643997","0.0-293.0","5ef78f819d93424af2af742b","620a6d93fe500ee66f2ceb23","5","","","","","0","4"
"null","","","null","","","","html-keyboard-response","294","644500","0.0-294.0","5ef78f819d93424af2af742b","620a6d93fe500ee66f2ceb23","","","","","<p style=""color:darkgreen;font-size:24px;"">Correct :)</p>","",""
"11582","","","n","","","","html-keyboard-response","295","656083","0.0-295.0","5ef78f819d93424af2af742b","620a6d93fe500ee66f2ceb23","","","","","<p> Here, the tasks are going to switch.  For some trials, your job is to decide if the digit is less than or greater than 5.  For others, it is to decide if the digit is even or odd.  You will be told which type of trial the current one is.  But, pay attention, the type of trial changes too.  We are going to do 50 of these.  </p>  <br><br>  Ready? (press v or n)","",""
"2874","key","n","n","16.670456647398517","500","250","psychophysics","296","658962","0.0-296.0","5ef78f819d93424af2af742b","620a6d93fe500ee66f2ceb23","6","","","","","0","8"
"null","","","null","","","","html-keyboard-response","297","659464","0.0-297.0","5ef78f819d93424af2af742b","620a6d93fe500ee66f2ceb23","","","","","<p style=""color:darkgreen;font-size:24px;"">Correct :)</p>","",""
"3285","key","n","n","16.666791878172628","500","250","psychophysics","298","662756","0.0-298.0","5ef78f819d93424af2af742b","620a6d93fe500ee66f2ceb23","6","","","","","0","2"
"null","","","null","","","","html-keyboard-response","299","663257","0.0-299.0","5ef78f819d93424af2af742b","620a6d93fe500ee66f2ceb23","","","","","<p style=""color:darkgreen;font-size:24px;"">Correct :)</p>","",""
"2708","key","v","v","16.666852760736464","500","250","psychophysics","300","665972","0.0-300.0","5ef78f819d93424af2af742b","620a6d93fe500ee66f2ceb23","6","","","","","0","1"
"null","","","null","","","","html-keyboard-response","301","666473","0.0-301.0","5ef78f819d93424af2af742b","620a6d93fe500ee66f2ceb23","","","","","<p style=""color:darkgreen;font-size:24px;"">Correct :)</p>","",""
"2934","key","n","n","16.667607954545847","500","250","psychophysics","302","669414","0.0-302.0","5ef78f819d93424af2af742b","620a6d93fe500ee66f2ceb23","6","","","","","0","4"
"null","","","null","","","","html-keyboard-response","303","669916","0.0-303.0","5ef78f819d93424af2af742b","620a6d93fe500ee66f2ceb23","","","","","<p style=""color:darkgreen;font-size:24px;"">Correct :)</p>","",""
"3196","key","v","v","16.66685416666648","500","250","psychophysics","304","673114","0.0-304.0","5ef78f819d93424af2af742b","620a6d93fe500ee66f2ceb23","6","","","","","0","3"
"null","","","null","","","","html-keyboard-response","305","673616","0.0-305.0","5ef78f819d93424af2af742b","620a6d93fe500ee66f2ceb23","","","","","<p style=""color:darkgreen;font-size:24px;"">Correct :)</p>","",""
"2903","key","v","v","16.666896551724353","500","250","psychophysics","306","676522","0.0-306.0","5ef78f819d93424af2af742b","620a6d93fe500ee66f2ceb23","6","","","","","1","3"
"null","","","null","","","","html-keyboard-response","307","677023","0.0-307.0","5ef78f819d93424af2af742b","620a6d93fe500ee66f2ceb23","","","","","<p style=""color:darkgreen;font-size:24px;"">Correct :)</p>","",""
"2622","key","n","n","16.667113924050508","500","250","psychophysics","308","679651","0.0-308.0","5ef78f819d93424af2af742b","620a6d93fe500ee66f2ceb23","6","","","","","1","6"
"null","","","null","","","","html-keyboard-response","309","680159","0.0-309.0","5ef78f819d93424af2af742b","620a6d93fe500ee66f2ceb23","","","","","<p style=""color:darkgreen;font-size:24px;"">Correct :)</p>","",""
"3365","key","v","v","16.66678217821812","500","250","psychophysics","310","683531","0.0-310.0","5ef78f819d93424af2af742b","620a6d93fe500ee66f2ceb23","6","","","","","0","1"
"null","","","null","","","","html-keyboard-response","311","684032","0.0-311.0","5ef78f819d93424af2af742b","620a6d93fe500ee66f2ceb23","","","","","<p style=""color:darkgreen;font-size:24px;"">Correct :)</p>","",""
"2641","key","v","v","16.66686792452761","500","250","psychophysics","312","686682","0.0-312.0","5ef78f819d93424af2af742b","620a6d93fe500ee66f2ceb23","6","","","","","0","1"
"null","","","null","","","","html-keyboard-response","313","687183","0.0-313.0","5ef78f819d93424af2af742b","620a6d93fe500ee66f2ceb23","","","","","<p style=""color:darkgreen;font-size:24px;"">Correct :)</p>","",""
"2627","key","n","n","16.667094936708573","500","250","psychophysics","314","689813","0.0-314.0","5ef78f819d93424af2af742b","620a6d93fe500ee66f2ceb23","6","","","","","0","6"
"null","","","null","","","","html-keyboard-response","315","690314","0.0-315.0","5ef78f819d93424af2af742b","620a6d93fe500ee66f2ceb23","","","","","<p style=""color:darkgreen;font-size:24px;"">Correct :)</p>","",""
"2570","key","v","v","16.66693506493496","500","250","psychophysics","316","692890","0.0-316.0","5ef78f819d93424af2af742b","620a6d93fe500ee66f2ceb23","6","","","","","0","7"
"null","","","null","","","","html-keyboard-response","317","693391","0.0-317.0","5ef78f819d93424af2af742b","620a6d93fe500ee66f2ceb23","","","","","<p style=""color:darkgreen;font-size:24px;"">Correct :)</p>","",""
"2548","key","n","n","16.667051948052105","500","250","psychophysics","318","695945","0.0-318.0","5ef78f819d93424af2af742b","620a6d93fe500ee66f2ceb23","6","","","","","0","8"
"null","","","null","","","","html-keyboard-response","319","696446","0.0-319.0","5ef78f819d93424af2af742b","620a6d93fe500ee66f2ceb23","","","","","<p style=""color:darkgreen;font-size:24px;"">Correct :)</p>","",""
"2559","key","v","v","16.667194805194946","500","250","psychophysics","320","699011","0.0-320.0","5ef78f819d93424af2af742b","620a6d93fe500ee66f2ceb23","6","","","","","0","7"
"null","","","null","","","","html-keyboard-response","321","699512","0.0-321.0","5ef78f819d93424af2af742b","620a6d93fe500ee66f2ceb23","","","","","<p style=""color:darkgreen;font-size:24px;"">Correct :)</p>","",""
"2743","key","v","v","16.667146341463482","500","250","psychophysics","322","702257","0.0-322.0","5ef78f819d93424af2af742b","620a6d93fe500ee66f2ceb23","6","","","","","0","3"
"null","","","null","","","","html-keyboard-response","323","702758","0.0-323.0","5ef78f819d93424af2af742b","620a6d93fe500ee66f2ceb23","","","","","<p style=""color:darkgreen;font-size:24px;"">Correct :)</p>","",""
"2722","key","v","v","16.66690243902423","500","250","psychophysics","324","705482","0.0-324.0","5ef78f819d93424af2af742b","620a6d93fe500ee66f2ceb23","6","","","","","0","7"
"null","","","null","","","","html-keyboard-response","325","705983","0.0-325.0","5ef78f819d93424af2af742b","620a6d93fe500ee66f2ceb23","","","","","<p style=""color:darkgreen;font-size:24px;"">Correct :)</p>","",""
"2652","key","n","n","16.66689937106852","500","250","psychophysics","326","708642","0.0-326.0","5ef78f819d93424af2af742b","620a6d93fe500ee66f2ceb23","6","","","","","1","6"
"null","","","null","","","","html-keyboard-response","327","709143","0.0-327.0","5ef78f819d93424af2af742b","620a6d93fe500ee66f2ceb23","","","","","<p style=""color:darkgreen;font-size:24px;"">Correct :)</p>","",""
"2536","key","v","v","16.667355263157667","500","250","psychophysics","328","711681","0.0-328.0","5ef78f819d93424af2af742b","620a6d93fe500ee66f2ceb23","6","","","","","1","1"
"null","","","null","","","","html-keyboard-response","329","712182","0.0-329.0","5ef78f819d93424af2af742b","620a6d93fe500ee66f2ceb23","","","","","<p style=""color:darkgreen;font-size:24px;"">Correct :)</p>","",""
"2734","key","v","v","16.666689024390596","500","250","psychophysics","330","714922","0.0-330.0","5ef78f819d93424af2af742b","620a6d93fe500ee66f2ceb23","6","","","","","0","1"
"null","","","null","","","","html-keyboard-response","331","715424","0.0-331.0","5ef78f819d93424af2af742b","620a6d93fe500ee66f2ceb23","","","","","<p style=""color:darkgreen;font-size:24px;"">Correct :)</p>","",""
"3104","key","n","n","16.666914438503238","500","250","psychophysics","332","718530","0.0-332.0","5ef78f819d93424af2af742b","620a6d93fe500ee66f2ceb23","6","","","","","1","9"
"null","","","null","","","","html-keyboard-response","333","719031","0.0-333.0","5ef78f819d93424af2af742b","620a6d93fe500ee66f2ceb23","","","","","<p style=""color:darkgreen;font-size:24px;"">Correct :)</p>","",""
"3087","key","v","v","16.666891891891893","500","250","psychophysics","334","722125","0.0-334.0","5ef78f819d93424af2af742b","620a6d93fe500ee66f2ceb23","6","","","","","1","3"
"null","","","null","","","","html-keyboard-response","335","722627","0.0-335.0","5ef78f819d93424af2af742b","620a6d93fe500ee66f2ceb23","","","","","<p style=""color:darkgreen;font-size:24px;"">Correct :)</p>","",""
"2611","key","n","n","16.66710828025499","500","250","psychophysics","336","725251","0.0-336.0","5ef78f819d93424af2af742b","620a6d93fe500ee66f2ceb23","6","","","","","1","7"
"null","","","null","","","","html-keyboard-response","337","725754","0.0-337.0","5ef78f819d93424af2af742b","620a6d93fe500ee66f2ceb23","","","","","<p style=""color:darkgreen;font-size:24px;"">Correct :)</p>","",""
"2798","key","n","n","16.6668749999995","500","250","psychophysics","338","728554","0.0-338.0","5ef78f819d93424af2af742b","620a6d93fe500ee66f2ceb23","6","","","","","0","6"
"null","","","null","","","","html-keyboard-response","339","729057","0.0-339.0","5ef78f819d93424af2af742b","620a6d93fe500ee66f2ceb23","","","","","<p style=""color:darkgreen;font-size:24px;"">Correct :)</p>","",""
"2657","key","v","v","16.667093749999914","500","250","psychophysics","340","731721","0.0-340.0","5ef78f819d93424af2af742b","620a6d93fe500ee66f2ceb23","6","","","","","0","2"
"null","","","null","","","","html-keyboard-response","341","732222","0.0-341.0","5ef78f819d93424af2af742b","620a6d93fe500ee66f2ceb23","","","","","<p style=""color:red;font-size:24px;"">Error :(</p>","",""
"3049","key","v","v","16.667049180327588","500","250","psychophysics","342","735274","0.0-342.0","5ef78f819d93424af2af742b","620a6d93fe500ee66f2ceb23","6","","","","","1","4"
"null","","","null","","","","html-keyboard-response","343","735775","0.0-343.0","5ef78f819d93424af2af742b","620a6d93fe500ee66f2ceb23","","","","","<p style=""color:darkgreen;font-size:24px;"">Correct :)</p>","",""
"3242","key","v","v","16.6672871794874","500","250","psychophysics","344","739019","0.0-344.0","5ef78f819d93424af2af742b","620a6d93fe500ee66f2ceb23","6","","","","","0","1"
"null","","","null","","","","html-keyboard-response","345","739520","0.0-345.0","5ef78f819d93424af2af742b","620a6d93fe500ee66f2ceb23","","","","","<p style=""color:darkgreen;font-size:24px;"">Correct :)</p>","",""
"3099","key","n","n","16.667118279569436","500","250","psychophysics","346","742625","0.0-346.0","5ef78f819d93424af2af742b","620a6d93fe500ee66f2ceb23","6","","","","","0","4"
"null","","","null","","","","html-keyboard-response","347","743126","0.0-347.0","5ef78f819d93424af2af742b","620a6d93fe500ee66f2ceb23","","","","","<p style=""color:darkgreen;font-size:24px;"">Correct :)</p>","",""
"2986","key","v","v","16.667536312849496","500","250","psychophysics","348","746115","0.0-348.0","5ef78f819d93424af2af742b","620a6d93fe500ee66f2ceb23","6","","","","","0","9"
"null","","","null","","","","html-keyboard-response","349","746617","0.0-349.0","5ef78f819d93424af2af742b","620a6d93fe500ee66f2ceb23","","","","","<p style=""color:darkgreen;font-size:24px;"">Correct :)</p>","",""
"3164","key","v","v","16.666378947368848","500","250","psychophysics","350","749785","0.0-350.0","5ef78f819d93424af2af742b","620a6d93fe500ee66f2ceb23","6","","","","","1","1"
"null","","","null","","","","html-keyboard-response","351","750286","0.0-351.0","5ef78f819d93424af2af742b","620a6d93fe500ee66f2ceb23","","","","","<p style=""color:darkgreen;font-size:24px;"">Correct :)</p>","",""
"3086","key","n","n","16.666989247312127","500","250","psychophysics","352","753378","0.0-352.0","5ef78f819d93424af2af742b","620a6d93fe500ee66f2ceb23","6","","","","","0","4"
"null","","","null","","","","html-keyboard-response","353","753879","0.0-353.0","5ef78f819d93424af2af742b","620a6d93fe500ee66f2ceb23","","","","","<p style=""color:darkgreen;font-size:24px;"">Correct :)</p>","",""
"2938","key","n","n","16.667017045454653","500","250","psychophysics","354","756819","0.0-354.0","5ef78f819d93424af2af742b","620a6d93fe500ee66f2ceb23","6","","","","","1","8"
"null","","","null","","","","html-keyboard-response","355","757321","0.0-355.0","5ef78f819d93424af2af742b","620a6d93fe500ee66f2ceb23","","","","","<p style=""color:darkgreen;font-size:24px;"">Correct :)</p>","",""
"2903","key","v","v","16.667148571428843","500","250","psychophysics","356","760233","0.0-356.0","5ef78f819d93424af2af742b","620a6d93fe500ee66f2ceb23","6","","","","","1","3"
"null","","","null","","","","html-keyboard-response","357","760734","0.0-357.0","5ef78f819d93424af2af742b","620a6d93fe500ee66f2ceb23","","","","","<p style=""color:darkgreen;font-size:24px;"">Correct :)</p>","",""
"2840","key","v","v","16.66682456140352","500","250","psychophysics","358","763580","0.0-358.0","5ef78f819d93424af2af742b","620a6d93fe500ee66f2ceb23","6","","","","","1","1"
"null","","","null","","","","html-keyboard-response","359","764082","0.0-359.0","5ef78f819d93424af2af742b","620a6d93fe500ee66f2ceb23","","","","","<p style=""color:darkgreen;font-size:24px;"">Correct :)</p>","",""
"2815","key","n","n","16.66706508875703","500","250","psychophysics","360","766903","0.0-360.0","5ef78f819d93424af2af742b","620a6d93fe500ee66f2ceb23","6","","","","","0","2"
"null","","","null","","","","html-keyboard-response","361","767404","0.0-361.0","5ef78f819d93424af2af742b","620a6d93fe500ee66f2ceb23","","","","","<p style=""color:darkgreen;font-size:24px;"">Correct :)</p>","",""
"3377","key","n","n","16.66707389162546","500","250","psychophysics","362","770787","0.0-362.0","5ef78f819d93424af2af742b","620a6d93fe500ee66f2ceb23","6","","","","","0","2"
"null","","","null","","","","html-keyboard-response","363","771288","0.0-363.0","5ef78f819d93424af2af742b","620a6d93fe500ee66f2ceb23","","","","","<p style=""color:darkgreen;font-size:24px;"">Correct :)</p>","",""
"3069","key","v","v","16.666918918918945","500","250","psychophysics","364","774364","0.0-364.0","5ef78f819d93424af2af742b","620a6d93fe500ee66f2ceb23","6","","","","","0","3"
"null","","","null","","","","html-keyboard-response","365","774866","0.0-365.0","5ef78f819d93424af2af742b","620a6d93fe500ee66f2ceb23","","","","","<p style=""color:darkgreen;font-size:24px;"">Correct :)</p>","",""
"3452","key","v","v","16.667000000000087","500","250","psychophysics","366","778321","0.0-366.0","5ef78f819d93424af2af742b","620a6d93fe500ee66f2ceb23","6","","","","","0","7"
"null","","","null","","","","html-keyboard-response","367","778822","0.0-367.0","5ef78f819d93424af2af742b","620a6d93fe500ee66f2ceb23","","","","","<p style=""color:darkgreen;font-size:24px;"">Correct :)</p>","",""
"3558","key","v","v","16.666985981308347","500","250","psychophysics","368","782382","0.0-368.0","5ef78f819d93424af2af742b","620a6d93fe500ee66f2ceb23","6","","","","","0","1"
"null","","","null","","","","html-keyboard-response","369","782883","0.0-369.0","5ef78f819d93424af2af742b","620a6d93fe500ee66f2ceb23","","","","","<p style=""color:darkgreen;font-size:24px;"">Correct :)</p>","",""
"3485","key","v","v","16.667038277512344","500","250","psychophysics","370","786371","0.0-370.0","5ef78f819d93424af2af742b","620a6d93fe500ee66f2ceb23","6","","","","","0","9"
"null","","","null","","","","html-keyboard-response","371","786872","0.0-371.0","5ef78f819d93424af2af742b","620a6d93fe500ee66f2ceb23","","","","","<p style=""color:darkgreen;font-size:24px;"">Correct :)</p>","",""
"3192","key","v","v","16.66697916666696","500","250","psychophysics","372","790066","0.0-372.0","5ef78f819d93424af2af742b","620a6d93fe500ee66f2ceb23","6","","","","","1","2"
"null","","","null","","","","html-keyboard-response","373","790567","0.0-373.0","5ef78f819d93424af2af742b","620a6d93fe500ee66f2ceb23","","","","","<p style=""color:darkgreen;font-size:24px;"">Correct :)</p>","",""
"2972","key","n","n","16.66650279329611","500","250","psychophysics","374","793545","0.0-374.0","5ef78f819d93424af2af742b","620a6d93fe500ee66f2ceb23","6","","","","","1","9"
"null","","","null","","","","html-keyboard-response","375","794046","0.0-375.0","5ef78f819d93424af2af742b","620a6d93fe500ee66f2ceb23","","","","","<p style=""color:darkgreen;font-size:24px;"">Correct :)</p>","",""
"3662","key","n","n","16.66682272727273","500","250","psychophysics","376","797714","0.0-376.0","5ef78f819d93424af2af742b","620a6d93fe500ee66f2ceb23","6","","","","","0","2"
"null","","","null","","","","html-keyboard-response","377","798215","0.0-377.0","5ef78f819d93424af2af742b","620a6d93fe500ee66f2ceb23","","","","","<p style=""color:darkgreen;font-size:24px;"">Correct :)</p>","",""
"3583","key","v","v","16.666846511627785","500","250","psychophysics","378","801801","0.0-378.0","5ef78f819d93424af2af742b","620a6d93fe500ee66f2ceb23","6","","","","","1","2"
"null","","","null","","","","html-keyboard-response","379","802302","0.0-379.0","5ef78f819d93424af2af742b","620a6d93fe500ee66f2ceb23","","","","","<p style=""color:darkgreen;font-size:24px;"">Correct :)</p>","",""
"2855","key","v","v","16.666837209302305","500","250","psychophysics","380","805168","0.0-380.0","5ef78f819d93424af2af742b","620a6d93fe500ee66f2ceb23","6","","","","","1","1"
"null","","","null","","","","html-keyboard-response","381","805671","0.0-381.0","5ef78f819d93424af2af742b","620a6d93fe500ee66f2ceb23","","","","","<p style=""color:darkgreen;font-size:24px;"">Correct :)</p>","",""
"2860","key","n","n","16.667110465116377","500","250","psychophysics","382","808537","0.0-382.0","5ef78f819d93424af2af742b","620a6d93fe500ee66f2ceb23","6","","","","","0","6"
"null","","","null","","","","html-keyboard-response","383","809038","0.0-383.0","5ef78f819d93424af2af742b","620a6d93fe500ee66f2ceb23","","","","","<p style=""color:darkgreen;font-size:24px;"">Correct :)</p>","",""
"2957","key","n","n","16.667168539326134","500","250","psychophysics","384","812001","0.0-384.0","5ef78f819d93424af2af742b","620a6d93fe500ee66f2ceb23","6","","","","","1","6"
"null","","","null","","","","html-keyboard-response","385","812502","0.0-385.0","5ef78f819d93424af2af742b","620a6d93fe500ee66f2ceb23","","","","","<p style=""color:darkgreen;font-size:24px;"">Correct :)</p>","",""
"3109","key","v","v","16.666999999999646","500","250","psychophysics","386","815617","0.0-386.0","5ef78f819d93424af2af742b","620a6d93fe500ee66f2ceb23","6","","","","","0","1"
"null","","","null","","","","html-keyboard-response","387","816118","0.0-387.0","5ef78f819d93424af2af742b","620a6d93fe500ee66f2ceb23","","","","","<p style=""color:darkgreen;font-size:24px;"">Correct :)</p>","",""
"3105","key","v","v","16.66740860215073","500","250","psychophysics","388","819225","0.0-388.0","5ef78f819d93424af2af742b","620a6d93fe500ee66f2ceb23","6","","","","","0","3"
"null","","","null","","","","html-keyboard-response","389","819726","0.0-389.0","5ef78f819d93424af2af742b","620a6d93fe500ee66f2ceb23","","","","","<p style=""color:darkgreen;font-size:24px;"">Correct :)</p>","",""
"3019","key","v","v","16.667143646408984","500","250","psychophysics","390","822747","0.0-390.0","5ef78f819d93424af2af742b","620a6d93fe500ee66f2ceb23","6","","","","","1","4"
"null","","","null","","","","html-keyboard-response","391","823249","0.0-391.0","5ef78f819d93424af2af742b","620a6d93fe500ee66f2ceb23","","","","","<p style=""color:darkgreen;font-size:24px;"">Correct :)</p>","",""
"2761","key","n","n","16.666951807229136","500","250","psychophysics","392","826017","0.0-392.0","5ef78f819d93424af2af742b","620a6d93fe500ee66f2ceb23","6","","","","","1","9"
"null","","","null","","","","html-keyboard-response","393","826518","0.0-393.0","5ef78f819d93424af2af742b","620a6d93fe500ee66f2ceb23","","","","","<p style=""color:darkgreen;font-size:24px;"">Correct :)</p>","",""
"3079","key","v","v","16.667005405405764","500","250","psychophysics","394","829603","0.0-394.0","5ef78f819d93424af2af742b","620a6d93fe500ee66f2ceb23","6","","","","","0","3"
"null","","","null","","","","html-keyboard-response","395","830104","0.0-395.0","5ef78f819d93424af2af742b","620a6d93fe500ee66f2ceb23","","","","","<p style=""color:darkgreen;font-size:24px;"">Correct :)</p>","",""
"3546","","","n","","","","html-keyboard-response","396","833651","0.0-396.0","5ef78f819d93424af2af742b","620a6d93fe500ee66f2ceb23","","","","","<p> Last set of trials.  Here, the tasks are going to switch once again.  We are going to do 50 of these.  And then you are done with the experiment.  </p>  <br><br>  Ready? (press v or n)","",""
"2603","key","n","n","16.668173076923733","500","250","psychophysics","397","836258","0.0-397.0","5ef78f819d93424af2af742b","620a6d93fe500ee66f2ceb23","7","","","","","1","7"
"null","","","null","","","","html-keyboard-response","398","836759","0.0-398.0","5ef78f819d93424af2af742b","620a6d93fe500ee66f2ceb23","","","","","<p style=""color:darkgreen;font-size:24px;"">Correct :)</p>","",""
"2652","key","v","v","16.66693124999947","500","250","psychophysics","399","839418","0.0-399.0","5ef78f819d93424af2af742b","620a6d93fe500ee66f2ceb23","7","","","","","0","7"
"null","","","null","","","","html-keyboard-response","400","839920","0.0-400.0","5ef78f819d93424af2af742b","620a6d93fe500ee66f2ceb23","","","","","<p style=""color:darkgreen;font-size:24px;"">Correct :)</p>","",""
"3180","key","n","n","16.66693717277492","500","250","psychophysics","401","843106","0.0-401.0","5ef78f819d93424af2af742b","620a6d93fe500ee66f2ceb23","7","","","","","0","6"
"null","","","null","","","","html-keyboard-response","402","843608","0.0-402.0","5ef78f819d93424af2af742b","620a6d93fe500ee66f2ceb23","","","","","<p style=""color:darkgreen;font-size:24px;"">Correct :)</p>","",""
"2963","key","n","n","16.6667808988766","500","250","psychophysics","403","846577","0.0-403.0","5ef78f819d93424af2af742b","620a6d93fe500ee66f2ceb23","7","","","","","1","7"
"null","","","null","","","","html-keyboard-response","404","847078","0.0-404.0","5ef78f819d93424af2af742b","620a6d93fe500ee66f2ceb23","","","","","<p style=""color:darkgreen;font-size:24px;"">Correct :)</p>","",""
"2745","key","v","v","16.667310975609837","500","250","psychophysics","405","849826","0.0-405.0","5ef78f819d93424af2af742b","620a6d93fe500ee66f2ceb23","7","","","","","1","2"
"null","","","null","","","","html-keyboard-response","406","850329","0.0-406.0","5ef78f819d93424af2af742b","620a6d93fe500ee66f2ceb23","","","","","<p style=""color:darkgreen;font-size:24px;"">Correct :)</p>","",""
"3017","key","v","v","16.66668508287316","500","250","psychophysics","407","853353","0.0-407.0","5ef78f819d93424af2af742b","620a6d93fe500ee66f2ceb23","7","","","","","0","7"
"null","","","null","","","","html-keyboard-response","408","853854","0.0-408.0","5ef78f819d93424af2af742b","620a6d93fe500ee66f2ceb23","","","","","<p style=""color:darkgreen;font-size:24px;"">Correct :)</p>","",""
"3318","key","v","v","16.666844221105187","500","250","psychophysics","409","857178","0.0-409.0","5ef78f819d93424af2af742b","620a6d93fe500ee66f2ceb23","7","","","","","0","1"
"null","","","null","","","","html-keyboard-response","410","857679","0.0-410.0","5ef78f819d93424af2af742b","620a6d93fe500ee66f2ceb23","","","","","<p style=""color:darkgreen;font-size:24px;"">Correct :)</p>","",""
"2800","key","v","v","16.667619047618548","500","250","psychophysics","411","860481","0.0-411.0","5ef78f819d93424af2af742b","620a6d93fe500ee66f2ceb23","7","","","","","1","3"
"null","","","null","","","","html-keyboard-response","412","860983","0.0-412.0","5ef78f819d93424af2af742b","620a6d93fe500ee66f2ceb23","","","","","<p style=""color:darkgreen;font-size:24px;"">Correct :)</p>","",""
"3060","key","v","v","16.66726086956497","500","250","psychophysics","413","864049","0.0-413.0","5ef78f819d93424af2af742b","620a6d93fe500ee66f2ceb23","7","","","","","0","1"
"null","","","null","","","","html-keyboard-response","414","864549","0.0-414.0","5ef78f819d93424af2af742b","620a6d93fe500ee66f2ceb23","","","","","<p style=""color:darkgreen;font-size:24px;"">Correct :)</p>","",""
"2908","key","n","n","16.666913793103813","500","250","psychophysics","415","867459","0.0-415.0","5ef78f819d93424af2af742b","620a6d93fe500ee66f2ceb23","7","","","","","0","4"
"null","","","null","","","","html-keyboard-response","416","867961","0.0-416.0","5ef78f819d93424af2af742b","620a6d93fe500ee66f2ceb23","","","","","<p style=""color:darkgreen;font-size:24px;"">Correct :)</p>","",""
"3583","key","v","v","16.667209302325364","500","250","psychophysics","417","871546","0.0-417.0","5ef78f819d93424af2af742b","620a6d93fe500ee66f2ceb23","7","","","","","1","2"
"null","","","null","","","","html-keyboard-response","418","872046","0.0-418.0","5ef78f819d93424af2af742b","620a6d93fe500ee66f2ceb23","","","","","<p style=""color:darkgreen;font-size:24px;"">Correct :)</p>","",""
"3412","key","v","v","16.6669170731707","500","250","psychophysics","419","875466","0.0-419.0","5ef78f819d93424af2af742b","620a6d93fe500ee66f2ceb23","7","","","","","1","4"
"null","","","null","","","","html-keyboard-response","420","875969","0.0-420.0","5ef78f819d93424af2af742b","620a6d93fe500ee66f2ceb23","","","","","<p style=""color:darkgreen;font-size:24px;"">Correct :)</p>","",""
"3038","key","v","v","16.667120879120706","500","250","psychophysics","421","879009","0.0-421.0","5ef78f819d93424af2af742b","620a6d93fe500ee66f2ceb23","7","","","","","1","4"
"null","","","null","","","","html-keyboard-response","422","879510","0.0-422.0","5ef78f819d93424af2af742b","620a6d93fe500ee66f2ceb23","","","","","<p style=""color:darkgreen;font-size:24px;"">Correct :)</p>","",""
"2912","key","n","n","16.66679428571436","500","250","psychophysics","423","882428","0.0-423.0","5ef78f819d93424af2af742b","620a6d93fe500ee66f2ceb23","7","","","","","1","7"
"null","","","null","","","","html-keyboard-response","424","882929","0.0-424.0","5ef78f819d93424af2af742b","620a6d93fe500ee66f2ceb23","","","","","<p style=""color:darkgreen;font-size:24px;"">Correct :)</p>","",""
"2717","key","v","v","16.667147239263777","500","250","psychophysics","425","885654","0.0-425.0","5ef78f819d93424af2af742b","620a6d93fe500ee66f2ceb23","7","","","","","0","3"
"null","","","null","","","","html-keyboard-response","426","886156","0.0-426.0","5ef78f819d93424af2af742b","620a6d93fe500ee66f2ceb23","","","","","<p style=""color:darkgreen;font-size:24px;"">Correct :)</p>","",""
"3025","key","v","v","16.667115384615588","500","250","psychophysics","427","889183","0.0-427.0","5ef78f819d93424af2af742b","620a6d93fe500ee66f2ceb23","7","","","","","0","7"
"null","","","null","","","","html-keyboard-response","428","889684","0.0-428.0","5ef78f819d93424af2af742b","620a6d93fe500ee66f2ceb23","","","","","<p style=""color:darkgreen;font-size:24px;"">Correct :)</p>","",""
"2935","key","v","v","16.6668465909097","500","250","psychophysics","429","892625","0.0-429.0","5ef78f819d93424af2af742b","620a6d93fe500ee66f2ceb23","7","","","","","1","3"
"null","","","null","","","","html-keyboard-response","430","893128","0.0-430.0","5ef78f819d93424af2af742b","620a6d93fe500ee66f2ceb23","","","","","<p style=""color:darkgreen;font-size:24px;"">Correct :)</p>","",""
"2727","key","n","n","16.66666257668692","500","250","psychophysics","431","895857","0.0-431.0","5ef78f819d93424af2af742b","620a6d93fe500ee66f2ceb23","7","","","","","1","6"
"null","","","null","","","","html-keyboard-response","432","896358","0.0-432.0","5ef78f819d93424af2af742b","620a6d93fe500ee66f2ceb23","","","","","<p style=""color:darkgreen;font-size:24px;"">Correct :)</p>","",""
"2965","key","v","v","16.667016759776256","500","250","psychophysics","433","899330","0.0-433.0","5ef78f819d93424af2af742b","620a6d93fe500ee66f2ceb23","7","","","","","1","4"
"null","","","null","","","","html-keyboard-response","434","899831","0.0-434.0","5ef78f819d93424af2af742b","620a6d93fe500ee66f2ceb23","","","","","<p style=""color:darkgreen;font-size:24px;"">Correct :)</p>","",""
"2984","key","n","n","16.666888268156544","500","250","psychophysics","435","902818","0.0-435.0","5ef78f819d93424af2af742b","620a6d93fe500ee66f2ceb23","7","","","","","1","7"
"null","","","null","","","","html-keyboard-response","436","903319","0.0-436.0","5ef78f819d93424af2af742b","620a6d93fe500ee66f2ceb23","","","","","<p style=""color:darkgreen;font-size:24px;"">Correct :)</p>","",""
"3233","key","v","v","16.667458762886415","500","250","psychophysics","437","906555","0.0-437.0","5ef78f819d93424af2af742b","620a6d93fe500ee66f2ceb23","7","","","","","1","3"
"null","","","null","","","","html-keyboard-response","438","907057","0.0-438.0","5ef78f819d93424af2af742b","620a6d93fe500ee66f2ceb23","","","","","<p style=""color:darkgreen;font-size:24px;"">Correct :)</p>","",""
"2872","key","v","v","16.66650867052013","500","250","psychophysics","439","909937","0.0-439.0","5ef78f819d93424af2af742b","620a6d93fe500ee66f2ceb23","7","","","","","1","1"
"null","","","null","","","","html-keyboard-response","440","910438","0.0-440.0","5ef78f819d93424af2af742b","620a6d93fe500ee66f2ceb23","","","","","<p style=""color:darkgreen;font-size:24px;"">Correct :)</p>","",""
"2917","key","n","n","16.66733142857174","500","250","psychophysics","441","913361","0.0-441.0","5ef78f819d93424af2af742b","620a6d93fe500ee66f2ceb23","7","","","","","1","7"
"null","","","null","","","","html-keyboard-response","442","913862","0.0-442.0","5ef78f819d93424af2af742b","620a6d93fe500ee66f2ceb23","","","","","<p style=""color:darkgreen;font-size:24px;"">Correct :)</p>","",""
"2838","key","n","n","16.66683529411744","500","250","psychophysics","443","916706","0.0-443.0","5ef78f819d93424af2af742b","620a6d93fe500ee66f2ceb23","7","","","","","1","6"
"null","","","null","","","","html-keyboard-response","444","917207","0.0-444.0","5ef78f819d93424af2af742b","620a6d93fe500ee66f2ceb23","","","","","<p style=""color:darkgreen;font-size:24px;"">Correct :)</p>","",""
"2753","key","v","v","16.666861445782565","500","250","psychophysics","445","919965","0.0-445.0","5ef78f819d93424af2af742b","620a6d93fe500ee66f2ceb23","7","","","","","1","3"
"null","","","null","","","","html-keyboard-response","446","920467","0.0-446.0","5ef78f819d93424af2af742b","620a6d93fe500ee66f2ceb23","","","","","<p style=""color:darkgreen;font-size:24px;"">Correct :)</p>","",""
"3285","key","n","n","16.666918781726043","500","250","psychophysics","447","923761","0.0-447.0","5ef78f819d93424af2af742b","620a6d93fe500ee66f2ceb23","7","","","","","0","6"
"null","","","null","","","","html-keyboard-response","448","924263","0.0-448.0","5ef78f819d93424af2af742b","620a6d93fe500ee66f2ceb23","","","","","<p style=""color:darkgreen;font-size:24px;"">Correct :)</p>","",""
"3027","key","v","v","16.66739010988993","500","250","psychophysics","449","927297","0.0-449.0","5ef78f819d93424af2af742b","620a6d93fe500ee66f2ceb23","7","","","","","1","4"
"null","","","null","","","","html-keyboard-response","450","927798","0.0-450.0","5ef78f819d93424af2af742b","620a6d93fe500ee66f2ceb23","","","","","<p style=""color:darkgreen;font-size:24px;"">Correct :)</p>","",""
"3257","key","n","n","16.666882051282133","500","250","psychophysics","451","931059","0.0-451.0","5ef78f819d93424af2af742b","620a6d93fe500ee66f2ceb23","7","","","","","0","4"
"null","","","null","","","","html-keyboard-response","452","931560","0.0-452.0","5ef78f819d93424af2af742b","620a6d93fe500ee66f2ceb23","","","","","<p style=""color:darkgreen;font-size:24px;"">Correct :)</p>","",""
"3372","key","v","v","16.66687623762334","500","250","psychophysics","453","934938","0.0-453.0","5ef78f819d93424af2af742b","620a6d93fe500ee66f2ceb23","7","","","","","0","3"
"null","","","null","","","","html-keyboard-response","454","935440","0.0-454.0","5ef78f819d93424af2af742b","620a6d93fe500ee66f2ceb23","","","","","<p style=""color:darkgreen;font-size:24px;"">Correct :)</p>","",""
"2830","key","v","v","16.666870588235394","500","250","psychophysics","455","938274","0.0-455.0","5ef78f819d93424af2af742b","620a6d93fe500ee66f2ceb23","7","","","","","0","1"
"null","","","null","","","","html-keyboard-response","456","938775","0.0-456.0","5ef78f819d93424af2af742b","620a6d93fe500ee66f2ceb23","","","","","<p style=""color:darkgreen;font-size:24px;"">Correct :)</p>","",""
"3089","key","v","v","16.66703225806498","500","250","psychophysics","457","941866","0.0-457.0","5ef78f819d93424af2af742b","620a6d93fe500ee66f2ceb23","7","","","","","0","3"
"null","","","null","","","","html-keyboard-response","458","942367","0.0-458.0","5ef78f819d93424af2af742b","620a6d93fe500ee66f2ceb23","","","","","<p style=""color:darkgreen;font-size:24px;"">Correct :)</p>","",""
"3191","key","v","v","16.667036458333314","500","250","psychophysics","459","945566","0.0-459.0","5ef78f819d93424af2af742b","620a6d93fe500ee66f2ceb23","7","","","","","0","7"
"null","","","null","","","","html-keyboard-response","460","946068","0.0-460.0","5ef78f819d93424af2af742b","620a6d93fe500ee66f2ceb23","","","","","<p style=""color:darkgreen;font-size:24px;"">Correct :)</p>","",""
"3462","key","v","v","16.666846153846283","500","250","psychophysics","461","949536","0.0-461.0","5ef78f819d93424af2af742b","620a6d93fe500ee66f2ceb23","7","","","","","1","4"
"null","","","null","","","","html-keyboard-response","462","950037","0.0-462.0","5ef78f819d93424af2af742b","620a6d93fe500ee66f2ceb23","","","","","<p style=""color:darkgreen;font-size:24px;"">Correct :)</p>","",""
"3372","key","n","n","16.66690147783277","500","250","psychophysics","463","953417","0.0-463.0","5ef78f819d93424af2af742b","620a6d93fe500ee66f2ceb23","7","","","","","1","6"
"null","","","null","","","","html-keyboard-response","464","953918","0.0-464.0","5ef78f819d93424af2af742b","620a6d93fe500ee66f2ceb23","","","","","<p style=""color:darkgreen;font-size:24px;"">Correct :)</p>","",""
"3699","key","n","n","16.66698648648647","500","250","psychophysics","465","957626","0.0-465.0","5ef78f819d93424af2af742b","620a6d93fe500ee66f2ceb23","7","","","","","0","4"
"null","","","null","","","","html-keyboard-response","466","958129","0.0-466.0","5ef78f819d93424af2af742b","620a6d93fe500ee66f2ceb23","","","","","<p style=""color:darkgreen;font-size:24px;"">Correct :)</p>","",""
"2587","key","n","n","16.666458064515986","500","250","psychophysics","467","960721","0.0-467.0","5ef78f819d93424af2af742b","620a6d93fe500ee66f2ceb23","7","","","","","1","6"
"null","","","null","","","","html-keyboard-response","468","961222","0.0-468.0","5ef78f819d93424af2af742b","620a6d93fe500ee66f2ceb23","","","","","<p style=""color:darkgreen;font-size:24px;"">Correct :)</p>","",""
"3221","key","v","v","16.66693814432959","500","250","psychophysics","469","964449","0.0-469.0","5ef78f819d93424af2af742b","620a6d93fe500ee66f2ceb23","7","","","","","0","7"
"null","","","null","","","","html-keyboard-response","470","964951","0.0-470.0","5ef78f819d93424af2af742b","620a6d93fe500ee66f2ceb23","","","","","<p style=""color:darkgreen;font-size:24px;"">Correct :)</p>","",""
"2942","key","n","n","16.667033898305426","500","250","psychophysics","471","967901","0.0-471.0","5ef78f819d93424af2af742b","620a6d93fe500ee66f2ceb23","7","","","","","1","6"
"null","","","null","","","","html-keyboard-response","472","968404","0.0-472.0","5ef78f819d93424af2af742b","620a6d93fe500ee66f2ceb23","","","","","<p style=""color:darkgreen;font-size:24px;"">Correct :)</p>","",""
"3307","key","v","v","16.666859296482787","500","250","psychophysics","473","971713","0.0-473.0","5ef78f819d93424af2af742b","620a6d93fe500ee66f2ceb23","7","","","","","0","7"
"null","","","null","","","","html-keyboard-response","474","972215","0.0-474.0","5ef78f819d93424af2af742b","620a6d93fe500ee66f2ceb23","","","","","<p style=""color:darkgreen;font-size:24px;"">Correct :)</p>","",""
"2929","key","n","n","16.66689772727312","500","250","psychophysics","475","975151","0.0-475.0","5ef78f819d93424af2af742b","620a6d93fe500ee66f2ceb23","7","","","","","0","4"
"null","","","null","","","","html-keyboard-response","476","975653","0.0-476.0","5ef78f819d93424af2af742b","620a6d93fe500ee66f2ceb23","","","","","<p style=""color:darkgreen;font-size:24px;"">Correct :)</p>","",""
"3019","key","v","v","16.66702762430917","500","250","psychophysics","477","978674","0.0-477.0","5ef78f819d93424af2af742b","620a6d93fe500ee66f2ceb23","7","","","","","0","1"
"null","","","null","","","","html-keyboard-response","478","979175","0.0-478.0","5ef78f819d93424af2af742b","620a6d93fe500ee66f2ceb23","","","","","<p style=""color:darkgreen;font-size:24px;"">Correct :)</p>","",""
"2939","key","v","v","16.666949152541978","500","250","psychophysics","479","982116","0.0-479.0","5ef78f819d93424af2af742b","620a6d93fe500ee66f2ceb23","7","","","","","0","1"
"null","","","null","","","","html-keyboard-response","480","982617","0.0-480.0","5ef78f819d93424af2af742b","620a6d93fe500ee66f2ceb23","","","","","<p style=""color:darkgreen;font-size:24px;"">Correct :)</p>","",""
"2723","key","n","n","16.667030674846774","500","250","psychophysics","481","985347","0.0-481.0","5ef78f819d93424af2af742b","620a6d93fe500ee66f2ceb23","7","","","","","1","6"
"null","","","null","","","","html-keyboard-response","482","985848","0.0-482.0","5ef78f819d93424af2af742b","620a6d93fe500ee66f2ceb23","","","","","<p style=""color:darkgreen;font-size:24px;"">Correct :)</p>","",""
"3452","key","v","v","16.666661835748563","500","250","psychophysics","483","989307","0.0-483.0","5ef78f819d93424af2af742b","620a6d93fe500ee66f2ceb23","7","","","","","1","2"
"null","","","null","","","","html-keyboard-response","484","989809","0.0-484.0","5ef78f819d93424af2af742b","620a6d93fe500ee66f2ceb23","","","","","<p style=""color:darkgreen;font-size:24px;"">Correct :)</p>","",""
"2963","key","n","n","16.666831460674135","500","250","psychophysics","485","992778","0.0-485.0","5ef78f819d93424af2af742b","620a6d93fe500ee66f2ceb23","7","","","","","1","6"
"null","","","null","","","","html-keyboard-response","486","993279","0.0-486.0","5ef78f819d93424af2af742b","620a6d93fe500ee66f2ceb23","","","","","<p style=""color:darkgreen;font-size:24px;"">Correct :)</p>","",""
"3023","key","v","v","16.66689502762422","500","250","psychophysics","487","996309","0.0-487.0","5ef78f819d93424af2af742b","620a6d93fe500ee66f2ceb23","7","","","","","1","3"
"null","","","null","","","","html-keyboard-response","488","996810","0.0-488.0","5ef78f819d93424af2af742b","620a6d93fe500ee66f2ceb23","","","","","<p style=""color:darkgreen;font-size:24px;"">Correct :)</p>","",""
"3389","key","v","v","16.666813725490332","500","250","psychophysics","489","1000201","0.0-489.0","5ef78f819d93424af2af742b","620a6d93fe500ee66f2ceb23","7","","","","","0","7"
"null","","","null","","","","html-keyboard-response","490","1000702","0.0-490.0","5ef78f819d93424af2af742b","620a6d93fe500ee66f2ceb23","","","","","<p style=""color:darkgreen;font-size:24px;"">Correct :)</p>","",""
"3212","key","n","n","16.666948186527996","500","250","psychophysics","491","1003917","0.0-491.0","5ef78f819d93424af2af742b","620a6d93fe500ee66f2ceb23","7","","","","","0","4"
"null","","","null","","","","html-keyboard-response","492","1004418","0.0-492.0","5ef78f819d93424af2af742b","620a6d93fe500ee66f2ceb23","","","","","<p style=""color:darkgreen;font-size:24px;"">Correct :)</p>","",""
"3405","key","v","v","16.666544117646946","500","250","psychophysics","493","1007825","0.0-493.0","5ef78f819d93424af2af742b","620a6d93fe500ee66f2ceb23","7","","","","","1","4"
"null","","","null","","","","html-keyboard-response","494","1008327","0.0-494.0","5ef78f819d93424af2af742b","620a6d93fe500ee66f2ceb23","","","","","<p style=""color:darkgreen;font-size:24px;"">Correct :)</p>","",""
"3478","key","v","v","16.66696172248813","500","250","psychophysics","495","1011811","0.0-495.0","5ef78f819d93424af2af742b","620a6d93fe500ee66f2ceb23","7","","","","","0","3"
"null","","","null","","","","html-keyboard-response","496","1012312","0.0-496.0","5ef78f819d93424af2af742b","620a6d93fe500ee66f2ceb23","","","","","<p style=""color:darkgreen;font-size:24px;"">Correct :)</p>","",""
