"rt","response_type","key_press","response","avg_frame_time","center_x","center_y","trial_type","trial_index","time_elapsed","internal_node_id","pid","sid","phase","guide","targ","resp","stimulus","is5","stim"
"5273","key"," "," ","16.650381703470032","500","250","psychophysics","0","5302","0.0-0.0","614918a6dcc9c2fb0bde6331","6213ce8d471c372b41035c35","","","","","","",""
"1960","key"," "," ","16.597338983050847","500","250","psychophysics","1","7267","0.0-1.0","614918a6dcc9c2fb0bde6331","6213ce8d471c372b41035c35","","","","","","",""
"2748","key"," "," ","16.597769696969696","500","250","psychophysics","2","10020","0.0-2.0","614918a6dcc9c2fb0bde6331","6213ce8d471c372b41035c35","","","","","","",""
"1421","key"," "," ","16.597785714285713","500","250","psychophysics","3","11444","0.0-3.0","614918a6dcc9c2fb0bde6331","6213ce8d471c372b41035c35","","","","","","",""
"2483","key"," "," ","16.5980134228188","500","250","psychophysics","4","13931","0.0-4.0","614918a6dcc9c2fb0bde6331","6213ce8d471c372b41035c35","","","","","","",""
"12686","key"," "," ","16.59798429319372","500","250","psychophysics","5","26619","0.0-5.0","614918a6dcc9c2fb0bde6331","6213ce8d471c372b41035c35","","","","","","",""
"3398","key"," "," ","16.597867647058823","500","250","psychophysics","6","30019","0.0-6.0","614918a6dcc9c2fb0bde6331","6213ce8d471c372b41035c35","","","","","","",""
"5142","key"," "," ","16.598158576051787","500","250","psychophysics","7","35164","0.0-7.0","614918a6dcc9c2fb0bde6331","6213ce8d471c372b41035c35","","","","","","",""
"52971","key"," "," ","16.59791159874608","500","250","psychophysics","8","88138","0.0-8.0","614918a6dcc9c2fb0bde6331","6213ce8d471c372b41035c35","0","0","45","175","","",""
"5142","key"," "," ","16.597809061488668","500","250","psychophysics","9","93282","0.0-9.0","614918a6dcc9c2fb0bde6331","6213ce8d471c372b41035c35","","","","","","",""
"2946","key"," "," ","16.597694915254245","500","250","psychophysics","10","96231","0.0-10.0","614918a6dcc9c2fb0bde6331","6213ce8d471c372b41035c35","","","","","","",""
"2218","key"," "," ","16.59790225563905","500","250","psychophysics","11","98451","0.0-11.0","614918a6dcc9c2fb0bde6331","6213ce8d471c372b41035c35","","","","","","",""
"3605","key"," "," ","16.59784259259255","500","250","psychophysics","12","102058","0.0-12.0","614918a6dcc9c2fb0bde6331","6213ce8d471c372b41035c35","","","","","","",""
"1118","key"," "," ","16.597757575757647","500","250","psychophysics","13","103178","0.0-13.0","614918a6dcc9c2fb0bde6331","6213ce8d471c372b41035c35","","","","","","",""
"3868","key"," "," ","16.597909871244614","500","250","psychophysics","14","107050","0.0-14.0","614918a6dcc9c2fb0bde6331","6213ce8d471c372b41035c35","","","","","","",""
"5373","key"," "," ","16.59793808049533","500","250","psychophysics","15","112426","0.0-15.0","614918a6dcc9c2fb0bde6331","6213ce8d471c372b41035c35","","","","","","",""
"2829","key"," "," ","16.598047337278146","500","250","psychophysics","16","115258","0.0-16.0","614918a6dcc9c2fb0bde6331","6213ce8d471c372b41035c35","","","","","","",""
"26533","key"," "," ","16.59790801001252","500","250","psychophysics","17","141794","0.0-17.0","614918a6dcc9c2fb0bde6331","6213ce8d471c372b41035c35","1","0","29","156","","",""
"30629","key"," "," ","16.597887201735368","500","250","psychophysics","18","172426","0.0-18.0","614918a6dcc9c2fb0bde6331","6213ce8d471c372b41035c35","1","5","21","13","","",""
"13619","key"," "," ","16.597858536585374","500","250","psychophysics","19","186049","0.0-19.0","614918a6dcc9c2fb0bde6331","6213ce8d471c372b41035c35","1","0","53","185","","",""
"11718","key"," "," ","16.597950354609917","500","250","psychophysics","20","197769","0.0-20.0","614918a6dcc9c2fb0bde6331","6213ce8d471c372b41035c35","1","5","45","24","","",""
"66421","key"," "," ","16.597897775556113","500","250","psychophysics","21","264193","0.0-21.0","614918a6dcc9c2fb0bde6331","6213ce8d471c372b41035c35","1","0","42","173","","",""
"20158","key"," "," ","16.597890444810574","500","250","psychophysics","22","284353","0.0-22.0","614918a6dcc9c2fb0bde6331","6213ce8d471c372b41035c35","1","5","47","26","","",""
"33870","key"," "," ","16.597921568627456","500","250","psychophysics","23","318225","0.0-23.0","614918a6dcc9c2fb0bde6331","6213ce8d471c372b41035c35","1","0","60","191","","",""
"70756","key"," "," ","16.59791342092915","500","250","psychophysics","24","388984","0.0-24.0","614918a6dcc9c2fb0bde6331","6213ce8d471c372b41035c35","1","5","54","34","","",""
"10950","key"," "," ","16.597893778452182","500","250","psychophysics","25","399936","0.0-25.0","614918a6dcc9c2fb0bde6331","6213ce8d471c372b41035c35","1","0","51","181","","",""
"7766","key"," "," ","16.5979014989294","500","250","psychophysics","26","407704","0.0-26.0","614918a6dcc9c2fb0bde6331","6213ce8d471c372b41035c35","1","5","37","21","","",""
"11270","key"," "," ","16.597825958702067","500","250","psychophysics","27","418976","0.0-27.0","614918a6dcc9c2fb0bde6331","6213ce8d471c372b41035c35","1","0","41","170","","",""
"25662","key"," "," ","16.597922330097113","500","250","psychophysics","28","444639","0.0-28.0","614918a6dcc9c2fb0bde6331","6213ce8d471c372b41035c35","1","5","21","7","","",""
"11846","key"," "," ","16.597917251051896","500","250","psychophysics","29","456487","0.0-29.0","614918a6dcc9c2fb0bde6331","6213ce8d471c372b41035c35","1","0","44","174","","",""
"8910","key"," "," ","16.597882462686616","500","250","psychophysics","30","465399","0.0-30.0","614918a6dcc9c2fb0bde6331","6213ce8d471c372b41035c35","1","5","46","27","","",""
"13646","key"," "," ","16.597902557856234","500","250","psychophysics","31","479046","0.0-31.0","614918a6dcc9c2fb0bde6331","6213ce8d471c372b41035c35","1","0","57","188","","",""
"15174","key"," "," ","16.597933187294633","500","250","psychophysics","32","494222","0.0-32.0","614918a6dcc9c2fb0bde6331","6213ce8d471c372b41035c35","1","5","48","29","","",""
"11646","key"," "," ","16.59797146932955","500","250","psychophysics","33","505870","0.0-33.0","614918a6dcc9c2fb0bde6331","6213ce8d471c372b41035c35","1","0","25","160","","",""
"10431","key"," "," ","16.597985668789768","500","250","psychophysics","34","516303","0.0-34.0","614918a6dcc9c2fb0bde6331","6213ce8d471c372b41035c35","1","5","39","19","","",""
"67061","key"," "," ","16.597918296608064","500","250","psychophysics","35","583367","0.0-35.0","614918a6dcc9c2fb0bde6331","6213ce8d471c372b41035c35","1","0","57","190","","",""
"19047","key"," "," ","16.597914559720977","500","250","psychophysics","36","602415","0.0-36.0","614918a6dcc9c2fb0bde6331","6213ce8d471c372b41035c35","1","5","56","35","","",""
"2764","key"," "," ","16.59768484848495","500","250","psychophysics","37","605182","0.0-37.0","614918a6dcc9c2fb0bde6331","6213ce8d471c372b41035c35","","","","","","",""
"4261","key"," "," ","16.59770703125014","500","250","psychophysics","38","609446","0.0-38.0","614918a6dcc9c2fb0bde6331","6213ce8d471c372b41035c35","","","","","","",""
"2510","key"," "," ","16.598245033112335","500","250","psychophysics","39","611958","0.0-39.0","614918a6dcc9c2fb0bde6331","6213ce8d471c372b41035c35","","","","","","",""
"29213","key"," "," ","16.59791358726548","500","250","psychophysics","40","641174","0.0-40.0","614918a6dcc9c2fb0bde6331","6213ce8d471c372b41035c35","2","0","47","179","","",""
"16830","key"," "," ","16.597914116485722","500","250","psychophysics","41","658006","0.0-41.0","614918a6dcc9c2fb0bde6331","6213ce8d471c372b41035c35","","","","","","",""
"24566","key"," "," ","16.59795064232586","500","250","psychophysics","42","682574","0.0-42.0","614918a6dcc9c2fb0bde6331","6213ce8d471c372b41035c35","2","0","37","169","","",""
"9678","key"," "," ","16.598008591065437","500","250","psychophysics","43","692254","0.0-43.0","614918a6dcc9c2fb0bde6331","6213ce8d471c372b41035c35","","","","","","",""
"11182","key"," "," ","16.59789895988104","500","250","psychophysics","44","703438","0.0-44.0","614918a6dcc9c2fb0bde6331","6213ce8d471c372b41035c35","2","0","26","208","","",""
"6206","key"," "," ","16.597702412868554","500","250","psychophysics","45","709645","0.0-45.0","614918a6dcc9c2fb0bde6331","6213ce8d471c372b41035c35","","","","","","",""
"13782","key"," "," ","16.597949397590302","500","250","psychophysics","46","723429","0.0-46.0","614918a6dcc9c2fb0bde6331","6213ce8d471c372b41035c35","2","0","29","278","","",""
"2494","key"," "," ","16.59757046979827","500","250","psychophysics","47","725925","0.0-47.0","614918a6dcc9c2fb0bde6331","6213ce8d471c372b41035c35","","","","","","",""
"14773","key"," "," ","16.597955005624225","500","250","psychophysics","48","740701","0.0-48.0","614918a6dcc9c2fb0bde6331","6213ce8d471c372b41035c35","2","0","51","187","","",""
"2038","key"," "," ","16.59767213114728","500","250","psychophysics","49","742740","0.0-49.0","614918a6dcc9c2fb0bde6331","6213ce8d471c372b41035c35","","","","","","",""
"79413","key"," "," ","16.59790551839465","500","250","psychophysics","50","822156","0.0-50.0","614918a6dcc9c2fb0bde6331","6213ce8d471c372b41035c35","2","0","22","148","","",""
"1381","key"," "," ","16.597402439025377","500","250","psychophysics","51","823540","0.0-51.0","614918a6dcc9c2fb0bde6331","6213ce8d471c372b41035c35","","","","","","",""
"20262","key"," "," ","16.597897540983652","500","250","psychophysics","52","843804","0.0-52.0","614918a6dcc9c2fb0bde6331","6213ce8d471c372b41035c35","2","0","50","187","","",""
"1342","key"," "," ","16.59727500000008","500","250","psychophysics","53","845148","0.0-53.0","614918a6dcc9c2fb0bde6331","6213ce8d471c372b41035c35","","","","","","",""
"12238","key"," "," ","16.597902173913177","500","250","psychophysics","54","857388","0.0-54.0","614918a6dcc9c2fb0bde6331","6213ce8d471c372b41035c35","2","0","47","181","","",""
"1020","key"," "," ","16.597852459015158","500","250","psychophysics","55","858412","0.0-55.0","614918a6dcc9c2fb0bde6331","6213ce8d471c372b41035c35","","","","","","",""
"10911","key"," "," ","16.597945205479416","500","250","psychophysics","56","869325","0.0-56.0","614918a6dcc9c2fb0bde6331","6213ce8d471c372b41035c35","2","0","31","165","","",""
"1125","key"," "," ","16.597499999999084","500","250","psychophysics","57","870452","0.0-57.0","614918a6dcc9c2fb0bde6331","6213ce8d471c372b41035c35","","","","","","",""
"10869","key"," "," ","16.597888549618272","500","250","psychophysics","58","881325","0.0-58.0","614918a6dcc9c2fb0bde6331","6213ce8d471c372b41035c35","2","0","20","147","","",""
"1133","key"," "," ","16.597820895522442","500","250","psychophysics","59","882460","0.0-59.0","614918a6dcc9c2fb0bde6331","6213ce8d471c372b41035c35","","","","","","",""
"77813","key"," "," ","16.59791145722212","500","250","psychophysics","60","960275","0.0-60.0","614918a6dcc9c2fb0bde6331","6213ce8d471c372b41035c35","2","0","41","172","","",""
"1918","key"," "," ","16.59780869565135","500","250","psychophysics","61","962195","0.0-61.0","614918a6dcc9c2fb0bde6331","6213ce8d471c372b41035c35","","","","","","",""
"17902","key"," "," ","16.597904452690244","500","250","psychophysics","62","980099","0.0-62.0","614918a6dcc9c2fb0bde6331","6213ce8d471c372b41035c35","2","0","60","186","","",""
"1062","key"," "," ","16.59874603174634","500","250","psychophysics","63","981163","0.0-63.0","614918a6dcc9c2fb0bde6331","6213ce8d471c372b41035c35","","","","","","",""
"12926","key"," "," ","16.597902313624612","500","250","psychophysics","64","994091","0.0-64.0","614918a6dcc9c2fb0bde6331","6213ce8d471c372b41035c35","2","0","47","178","","",""
"1029","key"," "," ","16.598229508198127","500","250","psychophysics","65","995123","0.0-65.0","614918a6dcc9c2fb0bde6331","6213ce8d471c372b41035c35","","","","","","",""
"8246","key"," "," ","16.597909274193714","500","250","psychophysics","66","1003371","0.0-66.0","614918a6dcc9c2fb0bde6331","6213ce8d471c372b41035c35","2","0","60","196","","",""
"765","key"," "," ","16.59851111111024","500","250","psychophysics","67","1004139","0.0-67.0","614918a6dcc9c2fb0bde6331","6213ce8d471c372b41035c35","","","","","","",""
"15110","key"," "," ","21.10134265734277","500","250","psychophysics","68","1019250","0.0-68.0","614918a6dcc9c2fb0bde6331","6213ce8d471c372b41035c35","2","0","58","194","","",""
"1006","key"," "," ","16.59713333333299","500","250","psychophysics","69","1020258","0.0-69.0","614918a6dcc9c2fb0bde6331","6213ce8d471c372b41035c35","","","","","","",""
"8142","key"," "," ","24.20542261904761","500","250","psychophysics","70","1028402","0.0-70.0","614918a6dcc9c2fb0bde6331","6213ce8d471c372b41035c35","","","","","","",""
"3863","key"," "," ","16.597676724138275","500","250","psychophysics","71","1032267","0.0-71.0","614918a6dcc9c2fb0bde6331","6213ce8d471c372b41035c35","","","","","","",""
"18965","key"," "," ","16.59790534618742","500","250","psychophysics","72","1051234","0.0-72.0","614918a6dcc9c2fb0bde6331","6213ce8d471c372b41035c35","3","5","21","13","","",""
"10221","key"," "," ","16.597733333333192","500","250","psychophysics","73","1061458","0.0-73.0","614918a6dcc9c2fb0bde6331","6213ce8d471c372b41035c35","3","0","37","172","","",""
"2932","key"," "," ","16.598125000000106","500","250","psychophysics","74","1064394","0.0-74.0","614918a6dcc9c2fb0bde6331","6213ce8d471c372b41035c35","3","5","34","28","","",""
"9446","key"," "," ","16.597938380281615","500","250","psychophysics","75","1073842","0.0-75.0","614918a6dcc9c2fb0bde6331","6213ce8d471c372b41035c35","3","0","60","197","","",""
"3028","key"," "," ","16.598071428572318","500","250","psychophysics","76","1076874","0.0-76.0","614918a6dcc9c2fb0bde6331","6213ce8d471c372b41035c35","3","5","38","26","","",""
"8558","key"," "," ","16.597945631068036","500","250","psychophysics","77","1085434","0.0-77.0","614918a6dcc9c2fb0bde6331","6213ce8d471c372b41035c35","3","0","37","178","","",""
"4982","key"," "," ","16.59787625418026","500","250","psychophysics","78","1090418","0.0-78.0","614918a6dcc9c2fb0bde6331","6213ce8d471c372b41035c35","3","5","56","41","","",""
"10414","key"," "," ","16.597814992025636","500","250","psychophysics","79","1100834","0.0-79.0","614918a6dcc9c2fb0bde6331","6213ce8d471c372b41035c35","3","0","54","198","","",""
"2806","key"," "," ","16.597970238095428","500","250","psychophysics","80","1103642","0.0-80.0","614918a6dcc9c2fb0bde6331","6213ce8d471c372b41035c35","3","5","31","27","","",""
"8566","key"," "," ","16.59788155339803","500","250","psychophysics","81","1112210","0.0-81.0","614918a6dcc9c2fb0bde6331","6213ce8d471c372b41035c35","3","0","60","196","","",""
"4510","key"," "," ","16.59800738007401","500","250","psychophysics","82","1116722","0.0-82.0","614918a6dcc9c2fb0bde6331","6213ce8d471c372b41035c35","3","5","59","52","","",""
"12006","key"," "," ","16.597858725761906","500","250","psychophysics","83","1128730","0.0-83.0","614918a6dcc9c2fb0bde6331","6213ce8d471c372b41035c35","3","0","24","162","","",""
"9516","key"," "," ","16.597855148342052","500","250","psychophysics","84","1138250","0.0-84.0","614918a6dcc9c2fb0bde6331","6213ce8d471c372b41035c35","3","5","50","32","","",""
"12190","key"," "," ","16.59790177353325","500","250","psychophysics","85","1150442","0.0-85.0","614918a6dcc9c2fb0bde6331","6213ce8d471c372b41035c35","3","0","25","159","","",""
"2972","key"," "," ","16.596910614525513","500","250","psychophysics","86","1153417","0.0-86.0","614918a6dcc9c2fb0bde6331","6213ce8d471c372b41035c35","3","5","46","37","","",""
"7199","key"," "," ","16.598073903002344","500","250","psychophysics","87","1160618","0.0-87.0","614918a6dcc9c2fb0bde6331","6213ce8d471c372b41035c35","3","0","21","159","","",""
"2509","key"," "," ","16.59819333333367","500","250","psychophysics","88","1163129","0.0-88.0","614918a6dcc9c2fb0bde6331","6213ce8d471c372b41035c35","3","5","37","27","","",""
"8270","key"," "," ","16.597780684104762","500","250","psychophysics","89","1171401","0.0-89.0","614918a6dcc9c2fb0bde6331","6213ce8d471c372b41035c35","3","0","39","179","","",""
"3782","key"," "," ","16.598268722467093","500","250","psychophysics","90","1175185","0.0-90.0","614918a6dcc9c2fb0bde6331","6213ce8d471c372b41035c35","3","5","25","20","","",""
"8071","key"," "," ","16.59792181069976","500","250","psychophysics","91","1183258","0.0-91.0","614918a6dcc9c2fb0bde6331","6213ce8d471c372b41035c35","3","0","44","183","","",""
"3366","key"," "," ","16.598014925373718","500","250","psychophysics","92","1186626","0.0-92.0","614918a6dcc9c2fb0bde6331","6213ce8d471c372b41035c35","","","","","","",""
"49038","","","n","","","","html-keyboard-response","93","1235665","0.0-93.0","614918a6dcc9c2fb0bde6331","6213ce8d471c372b41035c35","","","","","<p> In this part of the experiment, we are going present digits 1, 2, 3, 4, 6, 7, 8, and 9.  Notice that 5 is missing.  Your job is to say whether the presented digit is less than or greater than 5.  For example, 3 is less than 5 and 7 is greater than 5.  If the digit is less than 5, press the v key; if it is greater than 5, press the n key. We are going to do 200 of these in total, but only 50 righ now. They go real fast.</p>  <br><br>  Ready? (press v or n)","",""
"3227","key","v","v","16.593779487179546","500","250","psychophysics","94","1238896","0.0-94.0","614918a6dcc9c2fb0bde6331","6213ce8d471c372b41035c35","4","","","","","1","1"
"null","","","null","","","","html-keyboard-response","95","1239398","0.0-95.0","614918a6dcc9c2fb0bde6331","6213ce8d471c372b41035c35","","","","","<p style=""color:darkgreen;font-size:24px;"">Correct :)</p>","",""
"2608","key","n","n","16.586605095541827","500","250","psychophysics","96","1242008","0.0-96.0","614918a6dcc9c2fb0bde6331","6213ce8d471c372b41035c35","4","","","","","1","9"
"null","","","null","","","","html-keyboard-response","97","1242509","0.0-97.0","614918a6dcc9c2fb0bde6331","6213ce8d471c372b41035c35","","","","","<p style=""color:darkgreen;font-size:24px;"">Correct :)</p>","",""
"2520","key","n","n","16.586500000000296","500","250","psychophysics","98","1245032","0.0-98.0","614918a6dcc9c2fb0bde6331","6213ce8d471c372b41035c35","4","","","","","1","9"
"null","","","null","","","","html-keyboard-response","99","1245534","0.0-99.0","614918a6dcc9c2fb0bde6331","6213ce8d471c372b41035c35","","","","","<p style=""color:darkgreen;font-size:24px;"">Correct :)</p>","",""
"2481","key","n","n","16.58571812080613","500","250","psychophysics","100","1248016","0.0-100.0","614918a6dcc9c2fb0bde6331","6213ce8d471c372b41035c35","4","","","","","1","7"
"null","","","null","","","","html-keyboard-response","101","1248518","0.0-101.0","614918a6dcc9c2fb0bde6331","6213ce8d471c372b41035c35","","","","","<p style=""color:darkgreen;font-size:24px;"">Correct :)</p>","",""
"2473","key","n","n","16.58599999999938","500","250","psychophysics","102","1250993","0.0-102.0","614918a6dcc9c2fb0bde6331","6213ce8d471c372b41035c35","4","","","","","1","9"
"null","","","null","","","","html-keyboard-response","103","1251494","0.0-103.0","614918a6dcc9c2fb0bde6331","6213ce8d471c372b41035c35","","","","","<p style=""color:darkgreen;font-size:24px;"">Correct :)</p>","",""
"2576","key","n","n","16.587277419354407","500","250","psychophysics","104","1254072","0.0-104.0","614918a6dcc9c2fb0bde6331","6213ce8d471c372b41035c35","4","","","","","1","6"
"null","","","null","","","","html-keyboard-response","105","1254573","0.0-105.0","614918a6dcc9c2fb0bde6331","6213ce8d471c372b41035c35","","","","","<p style=""color:darkgreen;font-size:24px;"">Correct :)</p>","",""
"2577","key","n","n","16.586102564101264","500","250","psychophysics","106","1257152","0.0-106.0","614918a6dcc9c2fb0bde6331","6213ce8d471c372b41035c35","4","","","","","1","6"
"null","","","null","","","","html-keyboard-response","107","1257653","0.0-107.0","614918a6dcc9c2fb0bde6331","6213ce8d471c372b41035c35","","","","","<p style=""color:darkgreen;font-size:24px;"">Correct :)</p>","",""
"2544","key","v","v","16.585986928104308","500","250","psychophysics","108","1260200","0.0-108.0","614918a6dcc9c2fb0bde6331","6213ce8d471c372b41035c35","4","","","","","1","3"
"null","","","null","","","","html-keyboard-response","109","1260705","0.0-109.0","614918a6dcc9c2fb0bde6331","6213ce8d471c372b41035c35","","","","","<p style=""color:darkgreen;font-size:24px;"">Correct :)</p>","",""
"2726","key","v","v","16.586987804877005","500","250","psychophysics","110","1263433","0.0-110.0","614918a6dcc9c2fb0bde6331","6213ce8d471c372b41035c35","4","","","","","1","2"
"null","","","null","","","","html-keyboard-response","111","1263934","0.0-111.0","614918a6dcc9c2fb0bde6331","6213ce8d471c372b41035c35","","","","","<p style=""color:darkgreen;font-size:24px;"">Correct :)</p>","",""
"2465","key","v","v","16.586020134228452","500","250","psychophysics","112","1266401","0.0-112.0","614918a6dcc9c2fb0bde6331","6213ce8d471c372b41035c35","4","","","","","1","2"
"null","","","null","","","","html-keyboard-response","113","1266901","0.0-113.0","614918a6dcc9c2fb0bde6331","6213ce8d471c372b41035c35","","","","","<p style=""color:darkgreen;font-size:24px;"">Correct :)</p>","",""
"2385","key","v","v","16.585479166667533","500","250","psychophysics","114","1269289","0.0-114.0","614918a6dcc9c2fb0bde6331","6213ce8d471c372b41035c35","4","","","","","1","2"
"null","","","null","","","","html-keyboard-response","115","1269789","0.0-115.0","614918a6dcc9c2fb0bde6331","6213ce8d471c372b41035c35","","","","","<p style=""color:darkgreen;font-size:24px;"">Correct :)</p>","",""
"2593","key","n","n","16.58669871794812","500","250","psychophysics","116","1272385","0.0-116.0","614918a6dcc9c2fb0bde6331","6213ce8d471c372b41035c35","4","","","","","1","8"
"null","","","null","","","","html-keyboard-response","117","1272886","0.0-117.0","614918a6dcc9c2fb0bde6331","6213ce8d471c372b41035c35","","","","","<p style=""color:darkgreen;font-size:24px;"">Correct :)</p>","",""
"2457","key","v","v","16.58539189189213","500","250","psychophysics","118","1275345","0.0-118.0","614918a6dcc9c2fb0bde6331","6213ce8d471c372b41035c35","4","","","","","1","2"
"null","","","null","","","","html-keyboard-response","119","1275846","0.0-119.0","614918a6dcc9c2fb0bde6331","6213ce8d471c372b41035c35","","","","","<p style=""color:darkgreen;font-size:24px;"">Correct :)</p>","",""
"2432","key","v","v","16.586564625850972","500","250","psychophysics","120","1278281","0.0-120.0","614918a6dcc9c2fb0bde6331","6213ce8d471c372b41035c35","4","","","","","1","1"
"null","","","null","","","","html-keyboard-response","121","1278783","0.0-121.0","614918a6dcc9c2fb0bde6331","6213ce8d471c372b41035c35","","","","","<p style=""color:darkgreen;font-size:24px;"">Correct :)</p>","",""
"2583","key","n","n","16.58669871794812","500","250","psychophysics","122","1281369","0.0-122.0","614918a6dcc9c2fb0bde6331","6213ce8d471c372b41035c35","4","","","","","1","9"
"null","","","null","","","","html-keyboard-response","123","1281872","0.0-123.0","614918a6dcc9c2fb0bde6331","6213ce8d471c372b41035c35","","","","","<p style=""color:darkgreen;font-size:24px;"">Correct :)</p>","",""
"2535","key","n","n","16.586614379084068","500","250","psychophysics","124","1284409","0.0-124.0","614918a6dcc9c2fb0bde6331","6213ce8d471c372b41035c35","4","","","","","1","8"
"null","","","null","","","","html-keyboard-response","125","1284911","0.0-125.0","614918a6dcc9c2fb0bde6331","6213ce8d471c372b41035c35","","","","","<p style=""color:darkgreen;font-size:24px;"">Correct :)</p>","",""
"2951","key","v","v","16.587443820224404","500","250","psychophysics","126","1287864","0.0-126.0","614918a6dcc9c2fb0bde6331","6213ce8d471c372b41035c35","4","","","","","1","4"
"null","","","null","","","","html-keyboard-response","127","1288366","0.0-127.0","614918a6dcc9c2fb0bde6331","6213ce8d471c372b41035c35","","","","","<p style=""color:darkgreen;font-size:24px;"">Correct :)</p>","",""
"2632","key","n","n","16.586672955974585","500","250","psychophysics","128","1291000","0.0-128.0","614918a6dcc9c2fb0bde6331","6213ce8d471c372b41035c35","4","","","","","1","7"
"null","","","null","","","","html-keyboard-response","129","1291502","0.0-129.0","614918a6dcc9c2fb0bde6331","6213ce8d471c372b41035c35","","","","","<p style=""color:darkgreen;font-size:24px;"">Correct :)</p>","",""
"2473","key","v","v","16.58636241610593","500","250","psychophysics","130","1293976","0.0-130.0","614918a6dcc9c2fb0bde6331","6213ce8d471c372b41035c35","4","","","","","1","4"
"null","","","null","","","","html-keyboard-response","131","1294477","0.0-131.0","614918a6dcc9c2fb0bde6331","6213ce8d471c372b41035c35","","","","","<p style=""color:darkgreen;font-size:24px;"">Correct :)</p>","",""
"2625","key","n","n","16.58658490566033","500","250","psychophysics","132","1297105","0.0-132.0","614918a6dcc9c2fb0bde6331","6213ce8d471c372b41035c35","4","","","","","1","8"
"null","","","null","","","","html-keyboard-response","133","1297606","0.0-133.0","614918a6dcc9c2fb0bde6331","6213ce8d471c372b41035c35","","","","","<p style=""color:darkgreen;font-size:24px;"">Correct :)</p>","",""
"2888","key","v","v","16.58814942528729","500","250","psychophysics","134","1300496","0.0-134.0","614918a6dcc9c2fb0bde6331","6213ce8d471c372b41035c35","4","","","","","1","4"
"null","","","null","","","","html-keyboard-response","135","1300998","0.0-135.0","614918a6dcc9c2fb0bde6331","6213ce8d471c372b41035c35","","","","","<p style=""color:darkgreen;font-size:24px;"">Correct :)</p>","",""
"2552","key","v","v","16.586071428572215","500","250","psychophysics","136","1303552","0.0-136.0","614918a6dcc9c2fb0bde6331","6213ce8d471c372b41035c35","4","","","","","1","4"
"null","","","null","","","","html-keyboard-response","137","1304053","0.0-137.0","614918a6dcc9c2fb0bde6331","6213ce8d471c372b41035c35","","","","","<p style=""color:darkgreen;font-size:24px;"">Correct :)</p>","",""
"2681","key","n","n","16.587086419751696","500","250","psychophysics","138","1306736","0.0-138.0","614918a6dcc9c2fb0bde6331","6213ce8d471c372b41035c35","4","","","","","1","6"
"null","","","null","","","","html-keyboard-response","139","1307238","0.0-139.0","614918a6dcc9c2fb0bde6331","6213ce8d471c372b41035c35","","","","","<p style=""color:darkgreen;font-size:24px;"">Correct :)</p>","",""
"2936","key","v","v","16.587870056497586","500","250","psychophysics","140","1310176","0.0-140.0","614918a6dcc9c2fb0bde6331","6213ce8d471c372b41035c35","4","","","","","1","4"
"null","","","null","","","","html-keyboard-response","141","1310678","0.0-141.0","614918a6dcc9c2fb0bde6331","6213ce8d471c372b41035c35","","","","","<p style=""color:darkgreen;font-size:24px;"">Correct :)</p>","",""
"2520","key","v","v","16.586144736842375","500","250","psychophysics","142","1313200","0.0-142.0","614918a6dcc9c2fb0bde6331","6213ce8d471c372b41035c35","4","","","","","1","3"
"null","","","null","","","","html-keyboard-response","143","1313702","0.0-143.0","614918a6dcc9c2fb0bde6331","6213ce8d471c372b41035c35","","","","","<p style=""color:darkgreen;font-size:24px;"">Correct :)</p>","",""
"2592","key","n","n","16.58654487179443","500","250","psychophysics","144","1316296","0.0-144.0","614918a6dcc9c2fb0bde6331","6213ce8d471c372b41035c35","4","","","","","1","7"
"null","","","null","","","","html-keyboard-response","145","1316797","0.0-145.0","614918a6dcc9c2fb0bde6331","6213ce8d471c372b41035c35","","","","","<p style=""color:darkgreen;font-size:24px;"">Correct :)</p>","",""
"2585","key","v","v","16.586429487179537","500","250","psychophysics","146","1319384","0.0-146.0","614918a6dcc9c2fb0bde6331","6213ce8d471c372b41035c35","4","","","","","1","4"
"null","","","null","","","","html-keyboard-response","147","1319886","0.0-147.0","614918a6dcc9c2fb0bde6331","6213ce8d471c372b41035c35","","","","","<p style=""color:darkgreen;font-size:24px;"">Correct :)</p>","",""
"2568","key","n","n","16.586535483870595","500","250","psychophysics","148","1322456","0.0-148.0","614918a6dcc9c2fb0bde6331","6213ce8d471c372b41035c35","4","","","","","1","9"
"null","","","null","","","","html-keyboard-response","149","1322957","0.0-149.0","614918a6dcc9c2fb0bde6331","6213ce8d471c372b41035c35","","","","","<p style=""color:darkgreen;font-size:24px;"">Correct :)</p>","",""
"2576","key","n","n","16.58632051282061","500","250","psychophysics","150","1325536","0.0-150.0","614918a6dcc9c2fb0bde6331","6213ce8d471c372b41035c35","4","","","","","1","9"
"null","","","null","","","","html-keyboard-response","151","1326037","0.0-151.0","614918a6dcc9c2fb0bde6331","6213ce8d471c372b41035c35","","","","","<p style=""color:darkgreen;font-size:24px;"">Correct :)</p>","",""
"2552","key","v","v","16.586493506492417","500","250","psychophysics","152","1328591","0.0-152.0","614918a6dcc9c2fb0bde6331","6213ce8d471c372b41035c35","4","","","","","1","2"
"null","","","null","","","","html-keyboard-response","153","1329092","0.0-153.0","614918a6dcc9c2fb0bde6331","6213ce8d471c372b41035c35","","","","","<p style=""color:darkgreen;font-size:24px;"">Correct :)</p>","",""
"2593","key","v","v","16.586596153846656","500","250","psychophysics","154","1331687","0.0-154.0","614918a6dcc9c2fb0bde6331","6213ce8d471c372b41035c35","4","","","","","1","2"
"null","","","null","","","","html-keyboard-response","155","1332188","0.0-155.0","614918a6dcc9c2fb0bde6331","6213ce8d471c372b41035c35","","","","","<p style=""color:darkgreen;font-size:24px;"">Correct :)</p>","",""
"2745","key","v","v","16.58708433734943","500","250","psychophysics","156","1334936","0.0-156.0","614918a6dcc9c2fb0bde6331","6213ce8d471c372b41035c35","4","","","","","1","4"
"null","","","null","","","","html-keyboard-response","157","1335437","0.0-157.0","614918a6dcc9c2fb0bde6331","6213ce8d471c372b41035c35","","","","","<p style=""color:darkgreen;font-size:24px;"">Correct :)</p>","",""
"2776","key","v","v","16.587339285714","500","250","psychophysics","158","1338216","0.0-158.0","614918a6dcc9c2fb0bde6331","6213ce8d471c372b41035c35","4","","","","","1","2"
"null","","","null","","","","html-keyboard-response","159","1338718","0.0-159.0","614918a6dcc9c2fb0bde6331","6213ce8d471c372b41035c35","","","","","<p style=""color:darkgreen;font-size:24px;"">Correct :)</p>","",""
"2623","key","n","n","16.586500000000836","500","250","psychophysics","160","1341343","0.0-160.0","614918a6dcc9c2fb0bde6331","6213ce8d471c372b41035c35","4","","","","","1","7"
"null","","","null","","","","html-keyboard-response","161","1341845","0.0-161.0","614918a6dcc9c2fb0bde6331","6213ce8d471c372b41035c35","","","","","<p style=""color:darkgreen;font-size:24px;"">Correct :)</p>","",""
"2841","key","n","n","16.587883720929778","500","250","psychophysics","162","1344688","0.0-162.0","614918a6dcc9c2fb0bde6331","6213ce8d471c372b41035c35","4","","","","","1","6"
"null","","","null","","","","html-keyboard-response","163","1345191","0.0-163.0","614918a6dcc9c2fb0bde6331","6213ce8d471c372b41035c35","","","","","<p style=""color:darkgreen;font-size:24px;"">Correct :)</p>","",""
"2743","key","n","n","16.587290909090502","500","250","psychophysics","164","1347936","0.0-164.0","614918a6dcc9c2fb0bde6331","6213ce8d471c372b41035c35","4","","","","","1","8"
"null","","","null","","","","html-keyboard-response","165","1348436","0.0-165.0","614918a6dcc9c2fb0bde6331","6213ce8d471c372b41035c35","","","","","<p style=""color:darkgreen;font-size:24px;"">Correct :)</p>","",""
"2969","key","n","n","16.587692737429762","500","250","psychophysics","166","1351407","0.0-166.0","614918a6dcc9c2fb0bde6331","6213ce8d471c372b41035c35","4","","","","","1","7"
"null","","","null","","","","html-keyboard-response","167","1351909","0.0-167.0","614918a6dcc9c2fb0bde6331","6213ce8d471c372b41035c35","","","","","<p style=""color:darkgreen;font-size:24px;"">Correct :)</p>","",""
"2840","key","v","v","16.587766081870843","500","250","psychophysics","168","1354751","0.0-168.0","614918a6dcc9c2fb0bde6331","6213ce8d471c372b41035c35","4","","","","","1","4"
"null","","","null","","","","html-keyboard-response","169","1355254","0.0-169.0","614918a6dcc9c2fb0bde6331","6213ce8d471c372b41035c35","","","","","<p style=""color:darkgreen;font-size:24px;"">Correct :)</p>","",""
"2575","key","n","n","16.586709677418995","500","250","psychophysics","170","1357831","0.0-170.0","614918a6dcc9c2fb0bde6331","6213ce8d471c372b41035c35","4","","","","","1","6"
"null","","","null","","","","html-keyboard-response","171","1358332","0.0-171.0","614918a6dcc9c2fb0bde6331","6213ce8d471c372b41035c35","","","","","<p style=""color:darkgreen;font-size:24px;"">Correct :)</p>","",""
"2889","key","n","n","16.587166666667425","500","250","psychophysics","172","1361223","0.0-172.0","614918a6dcc9c2fb0bde6331","6213ce8d471c372b41035c35","4","","","","","1","6"
"null","","","null","","","","html-keyboard-response","173","1361725","0.0-173.0","614918a6dcc9c2fb0bde6331","6213ce8d471c372b41035c35","","","","","<p style=""color:darkgreen;font-size:24px;"">Correct :)</p>","",""
"2721","key","n","n","16.58720121951206","500","250","psychophysics","174","1364447","0.0-174.0","614918a6dcc9c2fb0bde6331","6213ce8d471c372b41035c35","4","","","","","1","9"
"null","","","null","","","","html-keyboard-response","175","1364950","0.0-175.0","614918a6dcc9c2fb0bde6331","6213ce8d471c372b41035c35","","","","","<p style=""color:darkgreen;font-size:24px;"">Correct :)</p>","",""
"3247","key","n","n","16.58907142857194","500","250","psychophysics","176","1368199","0.0-176.0","614918a6dcc9c2fb0bde6331","6213ce8d471c372b41035c35","4","","","","","1","6"
"null","","","null","","","","html-keyboard-response","177","1368700","0.0-177.0","614918a6dcc9c2fb0bde6331","6213ce8d471c372b41035c35","","","","","<p style=""color:darkgreen;font-size:24px;"">Correct :)</p>","",""
"3017","key","n","n","16.588291208790665","500","250","psychophysics","178","1371720","0.0-178.0","614918a6dcc9c2fb0bde6331","6213ce8d471c372b41035c35","4","","","","","1","9"
"null","","","null","","","","html-keyboard-response","179","1372220","0.0-179.0","614918a6dcc9c2fb0bde6331","6213ce8d471c372b41035c35","","","","","<p style=""color:darkgreen;font-size:24px;"">Correct :)</p>","",""
"2609","key","v","v","16.5867088607592","500","250","psychophysics","180","1374831","0.0-180.0","614918a6dcc9c2fb0bde6331","6213ce8d471c372b41035c35","4","","","","","1","3"
"null","","","null","","","","html-keyboard-response","181","1375334","0.0-181.0","614918a6dcc9c2fb0bde6331","6213ce8d471c372b41035c35","","","","","<p style=""color:darkgreen;font-size:24px;"">Correct :)</p>","",""
"2751","key","n","n","16.587054216866775","500","250","psychophysics","182","1378087","0.0-182.0","614918a6dcc9c2fb0bde6331","6213ce8d471c372b41035c35","4","","","","","1","6"
"null","","","null","","","","html-keyboard-response","183","1378589","0.0-183.0","614918a6dcc9c2fb0bde6331","6213ce8d471c372b41035c35","","","","","<p style=""color:darkgreen;font-size:24px;"">Correct :)</p>","",""
"2512","key","n","n","16.586296052630612","500","250","psychophysics","184","1381104","0.0-184.0","614918a6dcc9c2fb0bde6331","6213ce8d471c372b41035c35","4","","","","","1","8"
"null","","","null","","","","html-keyboard-response","185","1381606","0.0-185.0","614918a6dcc9c2fb0bde6331","6213ce8d471c372b41035c35","","","","","<p style=""color:darkgreen;font-size:24px;"">Correct :)</p>","",""
"2535","key","v","v","16.586437908495817","500","250","psychophysics","186","1384143","0.0-186.0","614918a6dcc9c2fb0bde6331","6213ce8d471c372b41035c35","4","","","","","1","1"
"null","","","null","","","","html-keyboard-response","187","1384645","0.0-187.0","614918a6dcc9c2fb0bde6331","6213ce8d471c372b41035c35","","","","","<p style=""color:darkgreen;font-size:24px;"">Correct :)</p>","",""
"2424","key","v","v","16.585931506848333","500","250","psychophysics","188","1387071","0.0-188.0","614918a6dcc9c2fb0bde6331","6213ce8d471c372b41035c35","4","","","","","1","1"
"null","","","null","","","","html-keyboard-response","189","1387572","0.0-189.0","614918a6dcc9c2fb0bde6331","6213ce8d471c372b41035c35","","","","","<p style=""color:darkgreen;font-size:24px;"">Correct :)</p>","",""
"2600","key","v","v","16.58617197452291","500","250","psychophysics","190","1390175","0.0-190.0","614918a6dcc9c2fb0bde6331","6213ce8d471c372b41035c35","4","","","","","1","4"
"null","","","null","","","","html-keyboard-response","191","1390676","0.0-191.0","614918a6dcc9c2fb0bde6331","6213ce8d471c372b41035c35","","","","","<p style=""color:darkgreen;font-size:24px;"">Correct :)</p>","",""
"2568","key","n","n","16.586722580645414","500","250","psychophysics","192","1393247","0.0-192.0","614918a6dcc9c2fb0bde6331","6213ce8d471c372b41035c35","4","","","","","1","6"
"null","","","null","","","","html-keyboard-response","193","1393749","0.0-193.0","614918a6dcc9c2fb0bde6331","6213ce8d471c372b41035c35","","","","","<p style=""color:darkgreen;font-size:24px;"">Correct :)</p>","",""
"42761","","","n","","","","html-keyboard-response","194","1436511","0.0-194.0","614918a6dcc9c2fb0bde6331","6213ce8d471c372b41035c35","","","","","<p> Ok, now we are going present the same digits as before.  Your job is to say whether the digit is even or odd  If the digit is odd, press to v key; if it is even, press the n key. We are going to do 50 of these.  </p>  <br><br>  Ready? (press v or n)","",""
"3596","key","n","n","16.573152073731965","500","250","psychophysics","195","1440111","0.0-195.0","614918a6dcc9c2fb0bde6331","6213ce8d471c372b41035c35","5","","","","","0","6"
"null","","","null","","","","html-keyboard-response","196","1440612","0.0-196.0","614918a6dcc9c2fb0bde6331","6213ce8d471c372b41035c35","","","","","<p style=""color:darkgreen;font-size:24px;"">Correct :)</p>","",""
"2760","key","n","n","16.586771084337933","500","250","psychophysics","197","1443375","0.0-197.0","614918a6dcc9c2fb0bde6331","6213ce8d471c372b41035c35","5","","","","","0","4"
"null","","","null","","","","html-keyboard-response","198","1443876","0.0-198.0","614918a6dcc9c2fb0bde6331","6213ce8d471c372b41035c35","","","","","<p style=""color:darkgreen;font-size:24px;"">Correct :)</p>","",""
"2480","key","n","n","16.58550666666745","500","250","psychophysics","199","1446359","0.0-199.0","614918a6dcc9c2fb0bde6331","6213ce8d471c372b41035c35","5","","","","","0","4"
"null","","","null","","","","html-keyboard-response","200","1446860","0.0-200.0","614918a6dcc9c2fb0bde6331","6213ce8d471c372b41035c35","","","","","<p style=""color:darkgreen;font-size:24px;"">Correct :)</p>","",""
"2737","key","v","v","16.587096969697228","500","250","psychophysics","201","1449599","0.0-201.0","614918a6dcc9c2fb0bde6331","6213ce8d471c372b41035c35","5","","","","","0","9"
"null","","","null","","","","html-keyboard-response","202","1450100","0.0-202.0","614918a6dcc9c2fb0bde6331","6213ce8d471c372b41035c35","","","","","<p style=""color:darkgreen;font-size:24px;"">Correct :)</p>","",""
"2663","key","v","v","16.586962732918828","500","250","psychophysics","203","1452767","0.0-203.0","614918a6dcc9c2fb0bde6331","6213ce8d471c372b41035c35","5","","","","","0","1"
"null","","","null","","","","html-keyboard-response","204","1453268","0.0-204.0","614918a6dcc9c2fb0bde6331","6213ce8d471c372b41035c35","","","","","<p style=""color:darkgreen;font-size:24px;"">Correct :)</p>","",""
"2697","key","v","v","16.58746625766861","500","250","psychophysics","205","1455967","0.0-205.0","614918a6dcc9c2fb0bde6331","6213ce8d471c372b41035c35","5","","","","","0","3"
"null","","","null","","","","html-keyboard-response","206","1456468","0.0-206.0","614918a6dcc9c2fb0bde6331","6213ce8d471c372b41035c35","","","","","<p style=""color:darkgreen;font-size:24px;"">Correct :)</p>","",""
"2728","key","v","v","16.587169696969177","500","250","psychophysics","207","1459199","0.0-207.0","614918a6dcc9c2fb0bde6331","6213ce8d471c372b41035c35","5","","","","","0","9"
"null","","","null","","","","html-keyboard-response","208","1459700","0.0-208.0","614918a6dcc9c2fb0bde6331","6213ce8d471c372b41035c35","","","","","<p style=""color:darkgreen;font-size:24px;"">Correct :)</p>","",""
"2513","key","v","v","16.58641059602617","500","250","psychophysics","209","1462215","0.0-209.0","614918a6dcc9c2fb0bde6331","6213ce8d471c372b41035c35","5","","","","","0","1"
"null","","","null","","","","html-keyboard-response","210","1462717","0.0-210.0","614918a6dcc9c2fb0bde6331","6213ce8d471c372b41035c35","","","","","<p style=""color:darkgreen;font-size:24px;"">Correct :)</p>","",""
"2639","key","v","v","16.586515723269304","500","250","psychophysics","211","1465358","0.0-211.0","614918a6dcc9c2fb0bde6331","6213ce8d471c372b41035c35","5","","","","","0","7"
"null","","","null","","","","html-keyboard-response","212","1465861","0.0-212.0","614918a6dcc9c2fb0bde6331","6213ce8d471c372b41035c35","","","","","<p style=""color:darkgreen;font-size:24px;"">Correct :)</p>","",""
"2711","key","n","n","16.586975609755893","500","250","psychophysics","213","1468575","0.0-213.0","614918a6dcc9c2fb0bde6331","6213ce8d471c372b41035c35","5","","","","","0","2"
"null","","","null","","","","html-keyboard-response","214","1469076","0.0-214.0","614918a6dcc9c2fb0bde6331","6213ce8d471c372b41035c35","","","","","<p style=""color:darkgreen;font-size:24px;"">Correct :)</p>","",""
"2672","key","v","v","16.586552795031402","500","250","psychophysics","215","1471750","0.0-215.0","614918a6dcc9c2fb0bde6331","6213ce8d471c372b41035c35","5","","","","","0","1"
"null","","","null","","","","html-keyboard-response","216","1472252","0.0-216.0","614918a6dcc9c2fb0bde6331","6213ce8d471c372b41035c35","","","","","<p style=""color:darkgreen;font-size:24px;"">Correct :)</p>","",""
"2808","key","v","v","16.58763905325574","500","250","psychophysics","217","1475063","0.0-217.0","614918a6dcc9c2fb0bde6331","6213ce8d471c372b41035c35","5","","","","","0","7"
"null","","","null","","","","html-keyboard-response","218","1475564","0.0-218.0","614918a6dcc9c2fb0bde6331","6213ce8d471c372b41035c35","","","","","<p style=""color:darkgreen;font-size:24px;"">Correct :)</p>","",""
"2672","key","n","n","16.586118012422304","500","250","psychophysics","219","1478238","0.0-219.0","614918a6dcc9c2fb0bde6331","6213ce8d471c372b41035c35","5","","","","","0","2"
"null","","","null","","","","html-keyboard-response","220","1478741","0.0-220.0","614918a6dcc9c2fb0bde6331","6213ce8d471c372b41035c35","","","","","<p style=""color:darkgreen;font-size:24px;"">Correct :)</p>","",""
"2552","key","v","v","16.58656493506497","500","250","psychophysics","221","1481294","0.0-221.0","614918a6dcc9c2fb0bde6331","6213ce8d471c372b41035c35","5","","","","","0","1"
"null","","","null","","","","html-keyboard-response","222","1481795","0.0-222.0","614918a6dcc9c2fb0bde6331","6213ce8d471c372b41035c35","","","","","<p style=""color:darkgreen;font-size:24px;"">Correct :)</p>","",""
"2745","key","n","n","16.587096385541372","500","250","psychophysics","223","1484542","0.0-223.0","614918a6dcc9c2fb0bde6331","6213ce8d471c372b41035c35","5","","","","","0","2"
"null","","","null","","","","html-keyboard-response","224","1485044","0.0-224.0","614918a6dcc9c2fb0bde6331","6213ce8d471c372b41035c35","","","","","<p style=""color:darkgreen;font-size:24px;"">Correct :)</p>","",""
"2529","key","v","v","16.586059210526354","500","250","psychophysics","225","1487574","0.0-225.0","614918a6dcc9c2fb0bde6331","6213ce8d471c372b41035c35","5","","","","","0","1"
"null","","","null","","","","html-keyboard-response","226","1488076","0.0-226.0","614918a6dcc9c2fb0bde6331","6213ce8d471c372b41035c35","","","","","<p style=""color:darkgreen;font-size:24px;"">Correct :)</p>","",""
"2704","key","v","v","16.58695731707281","500","250","psychophysics","227","1490783","0.0-227.0","614918a6dcc9c2fb0bde6331","6213ce8d471c372b41035c35","5","","","","","0","9"
"null","","","null","","","","html-keyboard-response","228","1491284","0.0-228.0","614918a6dcc9c2fb0bde6331","6213ce8d471c372b41035c35","","","","","<p style=""color:darkgreen;font-size:24px;"">Correct :)</p>","",""
"2736","key","v","v","16.587575757575475","500","250","psychophysics","229","1494022","0.0-229.0","614918a6dcc9c2fb0bde6331","6213ce8d471c372b41035c35","5","","","","","0","6"
"null","","","null","","","","html-keyboard-response","230","1494524","0.0-230.0","614918a6dcc9c2fb0bde6331","6213ce8d471c372b41035c35","","","","","<p style=""color:red;font-size:24px;"">Error :(</p>","",""
"3272","key","n","n","16.58874619289344","500","250","psychophysics","231","1497798","0.0-231.0","614918a6dcc9c2fb0bde6331","6213ce8d471c372b41035c35","5","","","","","0","4"
"null","","","null","","","","html-keyboard-response","232","1498299","0.0-232.0","614918a6dcc9c2fb0bde6331","6213ce8d471c372b41035c35","","","","","<p style=""color:darkgreen;font-size:24px;"">Correct :)</p>","",""
"2756","key","n","n","16.587538922155375","500","250","psychophysics","233","1501063","0.0-233.0","614918a6dcc9c2fb0bde6331","6213ce8d471c372b41035c35","5","","","","","0","2"
"null","","","null","","","","html-keyboard-response","234","1501564","0.0-234.0","614918a6dcc9c2fb0bde6331","6213ce8d471c372b41035c35","","","","","<p style=""color:darkgreen;font-size:24px;"">Correct :)</p>","",""
"2585","key","v","v","16.587198717949484","500","250","psychophysics","235","1504151","0.0-235.0","614918a6dcc9c2fb0bde6331","6213ce8d471c372b41035c35","5","","","","","0","1"
"null","","","null","","","","html-keyboard-response","236","1504652","0.0-236.0","614918a6dcc9c2fb0bde6331","6213ce8d471c372b41035c35","","","","","<p style=""color:darkgreen;font-size:24px;"">Correct :)</p>","",""
"3033","key","v","v","16.588180327869424","500","250","psychophysics","237","1507687","0.0-237.0","614918a6dcc9c2fb0bde6331","6213ce8d471c372b41035c35","5","","","","","0","9"
"null","","","null","","","","html-keyboard-response","238","1508188","0.0-238.0","614918a6dcc9c2fb0bde6331","6213ce8d471c372b41035c35","","","","","<p style=""color:darkgreen;font-size:24px;"">Correct :)</p>","",""
"3017","key","v","v","16.58799999999906","500","250","psychophysics","239","1511207","0.0-239.0","614918a6dcc9c2fb0bde6331","6213ce8d471c372b41035c35","5","","","","","0","3"
"null","","","null","","","","html-keyboard-response","240","1511709","0.0-240.0","614918a6dcc9c2fb0bde6331","6213ce8d471c372b41035c35","","","","","<p style=""color:darkgreen;font-size:24px;"">Correct :)</p>","",""
"2816","key","n","n","16.58764705882298","500","250","psychophysics","241","1514526","0.0-241.0","614918a6dcc9c2fb0bde6331","6213ce8d471c372b41035c35","5","","","","","0","4"
"null","","","null","","","","html-keyboard-response","242","1515028","0.0-242.0","614918a6dcc9c2fb0bde6331","6213ce8d471c372b41035c35","","","","","<p style=""color:darkgreen;font-size:24px;"">Correct :)</p>","",""
"2568","key","n","n","16.58674193548429","500","250","psychophysics","243","1517598","0.0-243.0","614918a6dcc9c2fb0bde6331","6213ce8d471c372b41035c35","5","","","","","0","6"
"null","","","null","","","","html-keyboard-response","244","1518101","0.0-244.0","614918a6dcc9c2fb0bde6331","6213ce8d471c372b41035c35","","","","","<p style=""color:darkgreen;font-size:24px;"">Correct :)</p>","",""
"2766","key","n","n","16.58746107784518","500","250","psychophysics","245","1520871","0.0-245.0","614918a6dcc9c2fb0bde6331","6213ce8d471c372b41035c35","5","","","","","0","2"
"null","","","null","","","","html-keyboard-response","246","1521372","0.0-246.0","614918a6dcc9c2fb0bde6331","6213ce8d471c372b41035c35","","","","","<p style=""color:darkgreen;font-size:24px;"">Correct :)</p>","",""
"2808","key","v","v","16.58784117647036","500","250","psychophysics","247","1524183","0.0-247.0","614918a6dcc9c2fb0bde6331","6213ce8d471c372b41035c35","5","","","","","0","9"
"null","","","null","","","","html-keyboard-response","248","1524684","0.0-248.0","614918a6dcc9c2fb0bde6331","6213ce8d471c372b41035c35","","","","","<p style=""color:darkgreen;font-size:24px;"">Correct :)</p>","",""
"2904","key","n","n","16.58829142857077","500","250","psychophysics","249","1527590","0.0-249.0","614918a6dcc9c2fb0bde6331","6213ce8d471c372b41035c35","5","","","","","0","4"
"null","","","null","","","","html-keyboard-response","250","1528092","0.0-250.0","614918a6dcc9c2fb0bde6331","6213ce8d471c372b41035c35","","","","","<p style=""color:darkgreen;font-size:24px;"">Correct :)</p>","",""
"2529","key","n","n","16.58659477124228","500","250","psychophysics","251","1530622","0.0-251.0","614918a6dcc9c2fb0bde6331","6213ce8d471c372b41035c35","5","","","","","0","4"
"null","","","null","","","","html-keyboard-response","252","1531124","0.0-252.0","614918a6dcc9c2fb0bde6331","6213ce8d471c372b41035c35","","","","","<p style=""color:darkgreen;font-size:24px;"">Correct :)</p>","",""
"3273","key","n","n","16.588883248731012","500","250","psychophysics","253","1534398","0.0-253.0","614918a6dcc9c2fb0bde6331","6213ce8d471c372b41035c35","5","","","","","0","4"
"null","","","null","","","","html-keyboard-response","254","1534899","0.0-254.0","614918a6dcc9c2fb0bde6331","6213ce8d471c372b41035c35","","","","","<p style=""color:darkgreen;font-size:24px;"">Correct :)</p>","",""
"2545","key","n","n","16.586681818181358","500","250","psychophysics","255","1537446","0.0-255.0","614918a6dcc9c2fb0bde6331","6213ce8d471c372b41035c35","5","","","","","0","6"
"null","","","null","","","","html-keyboard-response","256","1537948","0.0-256.0","614918a6dcc9c2fb0bde6331","6213ce8d471c372b41035c35","","","","","<p style=""color:darkgreen;font-size:24px;"">Correct :)</p>","",""
"2548","key","n","n","16.586506493506022","500","250","psychophysics","257","1540502","0.0-257.0","614918a6dcc9c2fb0bde6331","6213ce8d471c372b41035c35","5","","","","","0","4"
"null","","","null","","","","html-keyboard-response","258","1541003","0.0-258.0","614918a6dcc9c2fb0bde6331","6213ce8d471c372b41035c35","","","","","<p style=""color:darkgreen;font-size:24px;"">Correct :)</p>","",""
"2721","key","v","v","16.587506097561125","500","250","psychophysics","259","1543726","0.0-259.0","614918a6dcc9c2fb0bde6331","6213ce8d471c372b41035c35","5","","","","","0","3"
"null","","","null","","","","html-keyboard-response","260","1544227","0.0-260.0","614918a6dcc9c2fb0bde6331","6213ce8d471c372b41035c35","","","","","<p style=""color:darkgreen;font-size:24px;"">Correct :)</p>","",""
"2800","key","n","n","16.58749112425945","500","250","psychophysics","261","1547030","0.0-261.0","614918a6dcc9c2fb0bde6331","6213ce8d471c372b41035c35","5","","","","","0","8"
"null","","","null","","","","html-keyboard-response","262","1547532","0.0-262.0","614918a6dcc9c2fb0bde6331","6213ce8d471c372b41035c35","","","","","<p style=""color:darkgreen;font-size:24px;"">Correct :)</p>","",""
"2616","key","n","n","16.5870828025479","500","250","psychophysics","263","1550150","0.0-263.0","614918a6dcc9c2fb0bde6331","6213ce8d471c372b41035c35","5","","","","","0","6"
"null","","","null","","","","html-keyboard-response","264","1550653","0.0-264.0","614918a6dcc9c2fb0bde6331","6213ce8d471c372b41035c35","","","","","<p style=""color:darkgreen;font-size:24px;"">Correct :)</p>","",""
"2599","key","n","n","16.586435897435504","500","250","psychophysics","265","1553254","0.0-265.0","614918a6dcc9c2fb0bde6331","6213ce8d471c372b41035c35","5","","","","","0","6"
"null","","","null","","","","html-keyboard-response","266","1553755","0.0-266.0","614918a6dcc9c2fb0bde6331","6213ce8d471c372b41035c35","","","","","<p style=""color:darkgreen;font-size:24px;"">Correct :)</p>","",""
"2713","key","n","n","16.586233128833534","500","250","psychophysics","267","1556470","0.0-267.0","614918a6dcc9c2fb0bde6331","6213ce8d471c372b41035c35","5","","","","","0","6"
"null","","","null","","","","html-keyboard-response","268","1556985","0.0-268.0","614918a6dcc9c2fb0bde6331","6213ce8d471c372b41035c35","","","","","<p style=""color:darkgreen;font-size:24px;"">Correct :)</p>","",""
"2747","key","v","v","16.58685542168713","500","250","psychophysics","269","1559734","0.0-269.0","614918a6dcc9c2fb0bde6331","6213ce8d471c372b41035c35","5","","","","","0","9"
"null","","","null","","","","html-keyboard-response","270","1560235","0.0-270.0","614918a6dcc9c2fb0bde6331","6213ce8d471c372b41035c35","","","","","<p style=""color:darkgreen;font-size:24px;"">Correct :)</p>","",""
"2656","key","n","n","16.587124999999652","500","250","psychophysics","271","1562894","0.0-271.0","614918a6dcc9c2fb0bde6331","6213ce8d471c372b41035c35","5","","","","","0","2"
"null","","","null","","","","html-keyboard-response","272","1563395","0.0-272.0","614918a6dcc9c2fb0bde6331","6213ce8d471c372b41035c35","","","","","<p style=""color:darkgreen;font-size:24px;"">Correct :)</p>","",""
"2737","key","v","v","16.587127272726853","500","250","psychophysics","273","1566134","0.0-273.0","614918a6dcc9c2fb0bde6331","6213ce8d471c372b41035c35","5","","","","","0","7"
"null","","","null","","","","html-keyboard-response","274","1566644","0.0-274.0","614918a6dcc9c2fb0bde6331","6213ce8d471c372b41035c35","","","","","<p style=""color:darkgreen;font-size:24px;"">Correct :)</p>","",""
"2728","key","n","n","16.58666666666695","500","250","psychophysics","275","1569374","0.0-275.0","614918a6dcc9c2fb0bde6331","6213ce8d471c372b41035c35","5","","","","","0","4"
"null","","","null","","","","html-keyboard-response","276","1569877","0.0-276.0","614918a6dcc9c2fb0bde6331","6213ce8d471c372b41035c35","","","","","<p style=""color:darkgreen;font-size:24px;"">Correct :)</p>","",""
"2903","key","n","n","16.58746857142874","500","250","psychophysics","277","1572782","0.0-277.0","614918a6dcc9c2fb0bde6331","6213ce8d471c372b41035c35","5","","","","","0","6"
"null","","","null","","","","html-keyboard-response","278","1573284","0.0-278.0","614918a6dcc9c2fb0bde6331","6213ce8d471c372b41035c35","","","","","<p style=""color:darkgreen;font-size:24px;"">Correct :)</p>","",""
"2944","key","n","n","16.588101123595674","500","250","psychophysics","279","1576230","0.0-279.0","614918a6dcc9c2fb0bde6331","6213ce8d471c372b41035c35","5","","","","","0","6"
"null","","","null","","","","html-keyboard-response","280","1576732","0.0-280.0","614918a6dcc9c2fb0bde6331","6213ce8d471c372b41035c35","","","","","<p style=""color:darkgreen;font-size:24px;"">Correct :)</p>","",""
"2591","key","v","v","16.586576923077256","500","250","psychophysics","281","1579325","0.0-281.0","614918a6dcc9c2fb0bde6331","6213ce8d471c372b41035c35","5","","","","","0","1"
"null","","","null","","","","html-keyboard-response","282","1579828","0.0-282.0","614918a6dcc9c2fb0bde6331","6213ce8d471c372b41035c35","","","","","<p style=""color:darkgreen;font-size:24px;"">Correct :)</p>","",""
"2800","key","n","n","16.58778106508854","500","250","psychophysics","283","1582629","0.0-283.0","614918a6dcc9c2fb0bde6331","6213ce8d471c372b41035c35","5","","","","","0","6"
"null","","","null","","","","html-keyboard-response","284","1583130","0.0-284.0","614918a6dcc9c2fb0bde6331","6213ce8d471c372b41035c35","","","","","<p style=""color:darkgreen;font-size:24px;"">Correct :)</p>","",""
"2625","key","n","n","16.586911949686378","500","250","psychophysics","285","1585758","0.0-285.0","614918a6dcc9c2fb0bde6331","6213ce8d471c372b41035c35","5","","","","","0","6"
"null","","","null","","","","html-keyboard-response","286","1586259","0.0-286.0","614918a6dcc9c2fb0bde6331","6213ce8d471c372b41035c35","","","","","<p style=""color:darkgreen;font-size:24px;"">Correct :)</p>","",""
"2912","key","v","v","16.58793714285695","500","250","psychophysics","287","1589173","0.0-287.0","614918a6dcc9c2fb0bde6331","6213ce8d471c372b41035c35","5","","","","","0","9"
"null","","","null","","","","html-keyboard-response","288","1589675","0.0-288.0","614918a6dcc9c2fb0bde6331","6213ce8d471c372b41035c35","","","","","<p style=""color:darkgreen;font-size:24px;"">Correct :)</p>","",""
"3256","key","n","n","16.588454081632946","500","250","psychophysics","289","1592933","0.0-289.0","614918a6dcc9c2fb0bde6331","6213ce8d471c372b41035c35","5","","","","","0","2"
"null","","","null","","","","html-keyboard-response","290","1593436","0.0-290.0","614918a6dcc9c2fb0bde6331","6213ce8d471c372b41035c35","","","","","<p style=""color:darkgreen;font-size:24px;"">Correct :)</p>","",""
"2919","key","v","v","16.58739204545352","500","250","psychophysics","291","1596358","0.0-291.0","614918a6dcc9c2fb0bde6331","6213ce8d471c372b41035c35","5","","","","","0","7"
"null","","","null","","","","html-keyboard-response","292","1596859","0.0-292.0","614918a6dcc9c2fb0bde6331","6213ce8d471c372b41035c35","","","","","<p style=""color:darkgreen;font-size:24px;"">Correct :)</p>","",""
"2607","key","n","n","16.586930379747482","500","250","psychophysics","293","1599469","0.0-293.0","614918a6dcc9c2fb0bde6331","6213ce8d471c372b41035c35","5","","","","","0","4"
"null","","","null","","","","html-keyboard-response","294","1599971","0.0-294.0","614918a6dcc9c2fb0bde6331","6213ce8d471c372b41035c35","","","","","<p style=""color:darkgreen;font-size:24px;"">Correct :)</p>","",""
"73209","","","n","","","","html-keyboard-response","295","1673182","0.0-295.0","614918a6dcc9c2fb0bde6331","6213ce8d471c372b41035c35","","","","","<p> Here, the tasks are going to switch.  For some trials, your job is to decide if the digit is less than or greater than 5.  For others, it is to decide if the digit is even or odd.  You will be told which type of trial the current one is.  But, pay attention, the type of trial changes too.  We are going to do 50 of these.  </p>  <br><br>  Ready? (press v or n)","",""
"3181","key","v","v","16.59757812499932","500","250","psychophysics","296","1676365","0.0-296.0","614918a6dcc9c2fb0bde6331","6213ce8d471c372b41035c35","6","","","","","1","2"
"null","","","null","","","","html-keyboard-response","297","1676867","0.0-297.0","614918a6dcc9c2fb0bde6331","6213ce8d471c372b41035c35","","","","","<p style=""color:darkgreen;font-size:24px;"">Correct :)</p>","",""
"4016","key","n","n","16.590995867768388","500","250","psychophysics","298","1680885","0.0-298.0","614918a6dcc9c2fb0bde6331","6213ce8d471c372b41035c35","6","","","","","0","4"
"null","","","null","","","","html-keyboard-response","299","1681386","0.0-299.0","614918a6dcc9c2fb0bde6331","6213ce8d471c372b41035c35","","","","","<p style=""color:darkgreen;font-size:24px;"">Correct :)</p>","",""
"3529","key","v","v","16.589647887323814","500","250","psychophysics","300","1684917","0.0-300.0","614918a6dcc9c2fb0bde6331","6213ce8d471c372b41035c35","6","","","","","1","4"
"null","","","null","","","","html-keyboard-response","301","1685418","0.0-301.0","614918a6dcc9c2fb0bde6331","6213ce8d471c372b41035c35","","","","","<p style=""color:darkgreen;font-size:24px;"">Correct :)</p>","",""
"3232","key","n","n","16.58885128205069","500","250","psychophysics","302","1688653","0.0-302.0","614918a6dcc9c2fb0bde6331","6213ce8d471c372b41035c35","6","","","","","1","9"
"null","","","null","","","","html-keyboard-response","303","1689154","0.0-303.0","614918a6dcc9c2fb0bde6331","6213ce8d471c372b41035c35","","","","","<p style=""color:darkgreen;font-size:24px;"">Correct :)</p>","",""
"3121","key","v","v","16.588462765957726","500","250","psychophysics","304","1692277","0.0-304.0","614918a6dcc9c2fb0bde6331","6213ce8d471c372b41035c35","6","","","","","1","3"
"null","","","null","","","","html-keyboard-response","305","1692778","0.0-305.0","614918a6dcc9c2fb0bde6331","6213ce8d471c372b41035c35","","","","","<p style=""color:darkgreen;font-size:24px;"">Correct :)</p>","",""
"2912","key","n","n","16.587943181817536","500","250","psychophysics","306","1695693","0.0-306.0","614918a6dcc9c2fb0bde6331","6213ce8d471c372b41035c35","6","","","","","0","4"
"null","","","null","","","","html-keyboard-response","307","1696194","0.0-307.0","614918a6dcc9c2fb0bde6331","6213ce8d471c372b41035c35","","","","","<p style=""color:darkgreen;font-size:24px;"">Correct :)</p>","",""
"2888","key","n","n","16.58813218390783","500","250","psychophysics","308","1699085","0.0-308.0","614918a6dcc9c2fb0bde6331","6213ce8d471c372b41035c35","6","","","","","0","2"
"null","","","null","","","","html-keyboard-response","309","1699586","0.0-309.0","614918a6dcc9c2fb0bde6331","6213ce8d471c372b41035c35","","","","","<p style=""color:darkgreen;font-size:24px;"">Correct :)</p>","",""
"2985","key","n","n","16.587661111110357","500","250","psychophysics","310","1702573","0.0-310.0","614918a6dcc9c2fb0bde6331","6213ce8d471c372b41035c35","6","","","","","1","9"
"null","","","null","","","","html-keyboard-response","311","1703075","0.0-311.0","614918a6dcc9c2fb0bde6331","6213ce8d471c372b41035c35","","","","","<p style=""color:darkgreen;font-size:24px;"">Correct :)</p>","",""
"2928","key","v","v","16.588113636364472","500","250","psychophysics","312","1706005","0.0-312.0","614918a6dcc9c2fb0bde6331","6213ce8d471c372b41035c35","6","","","","","0","7"
"null","","","null","","","","html-keyboard-response","313","1706507","0.0-313.0","614918a6dcc9c2fb0bde6331","6213ce8d471c372b41035c35","","","","","<p style=""color:darkgreen;font-size:24px;"">Correct :)</p>","",""
"3407","key","v","v","16.58910243902469","500","250","psychophysics","314","1709917","0.0-314.0","614918a6dcc9c2fb0bde6331","6213ce8d471c372b41035c35","6","","","","","0","9"
"null","","","null","","","","html-keyboard-response","315","1710418","0.0-315.0","614918a6dcc9c2fb0bde6331","6213ce8d471c372b41035c35","","","","","<p style=""color:darkgreen;font-size:24px;"">Correct :)</p>","",""
"2584","key","n","n","16.58665384615485","500","250","psychophysics","316","1713005","0.0-316.0","614918a6dcc9c2fb0bde6331","6213ce8d471c372b41035c35","6","","","","","1","6"
"null","","","null","","","","html-keyboard-response","317","1713506","0.0-317.0","614918a6dcc9c2fb0bde6331","6213ce8d471c372b41035c35","","","","","<p style=""color:darkgreen;font-size:24px;"">Correct :)</p>","",""
"2560","key","n","n","16.586361290322195","500","250","psychophysics","318","1716069","0.0-318.0","614918a6dcc9c2fb0bde6331","6213ce8d471c372b41035c35","6","","","","","1","6"
"null","","","null","","","","html-keyboard-response","319","1716571","0.0-319.0","614918a6dcc9c2fb0bde6331","6213ce8d471c372b41035c35","","","","","<p style=""color:darkgreen;font-size:24px;"">Correct :)</p>","",""
"2647","key","n","n","16.586874999999417","500","250","psychophysics","320","1719221","0.0-320.0","614918a6dcc9c2fb0bde6331","6213ce8d471c372b41035c35","6","","","","","0","6"
"null","","","null","","","","html-keyboard-response","321","1719723","0.0-321.0","614918a6dcc9c2fb0bde6331","6213ce8d471c372b41035c35","","","","","<p style=""color:darkgreen;font-size:24px;"">Correct :)</p>","",""
"3015","key","n","n","16.588230769230556","500","250","psychophysics","322","1722741","0.0-322.0","614918a6dcc9c2fb0bde6331","6213ce8d471c372b41035c35","6","","","","","1","7"
"null","","","null","","","","html-keyboard-response","323","1723243","0.0-323.0","614918a6dcc9c2fb0bde6331","6213ce8d471c372b41035c35","","","","","<p style=""color:darkgreen;font-size:24px;"">Correct :)</p>","",""
"2999","key","v","v","16.588093922652295","500","250","psychophysics","324","1726245","0.0-324.0","614918a6dcc9c2fb0bde6331","6213ce8d471c372b41035c35","6","","","","","1","3"
"null","","","null","","","","html-keyboard-response","325","1726746","0.0-325.0","614918a6dcc9c2fb0bde6331","6213ce8d471c372b41035c35","","","","","<p style=""color:darkgreen;font-size:24px;"">Correct :)</p>","",""
"2472","key","v","v","16.58632214765077","500","250","psychophysics","326","1729220","0.0-326.0","614918a6dcc9c2fb0bde6331","6213ce8d471c372b41035c35","6","","","","","1","1"
"null","","","null","","","","html-keyboard-response","327","1729722","0.0-327.0","614918a6dcc9c2fb0bde6331","6213ce8d471c372b41035c35","","","","","<p style=""color:darkgreen;font-size:24px;"">Correct :)</p>","",""
"2648","key","v","v","16.58654999999999","500","250","psychophysics","328","1732373","0.0-328.0","614918a6dcc9c2fb0bde6331","6213ce8d471c372b41035c35","6","","","","","0","3"
"null","","","null","","","","html-keyboard-response","329","1732874","0.0-329.0","614918a6dcc9c2fb0bde6331","6213ce8d471c372b41035c35","","","","","<p style=""color:darkgreen;font-size:24px;"">Correct :)</p>","",""
"2504","key","n","n","16.58609271523179","500","250","psychophysics","330","1735380","0.0-330.0","614918a6dcc9c2fb0bde6331","6213ce8d471c372b41035c35","6","","","","","1","9"
"null","","","null","","","","html-keyboard-response","331","1735881","0.0-331.0","614918a6dcc9c2fb0bde6331","6213ce8d471c372b41035c35","","","","","<p style=""color:darkgreen;font-size:24px;"">Correct :)</p>","",""
"2753","key","v","v","16.587210843374628","500","250","psychophysics","332","1738636","0.0-332.0","614918a6dcc9c2fb0bde6331","6213ce8d471c372b41035c35","6","","","","","1","2"
"null","","","null","","","","html-keyboard-response","333","1739137","0.0-333.0","614918a6dcc9c2fb0bde6331","6213ce8d471c372b41035c35","","","","","<p style=""color:darkgreen;font-size:24px;"">Correct :)</p>","",""
"2537","key","v","v","16.585895424836554","500","250","psychophysics","334","1741676","0.0-334.0","614918a6dcc9c2fb0bde6331","6213ce8d471c372b41035c35","6","","","","","1","1"
"null","","","null","","","","html-keyboard-response","335","1742178","0.0-335.0","614918a6dcc9c2fb0bde6331","6213ce8d471c372b41035c35","","","","","<p style=""color:darkgreen;font-size:24px;"">Correct :)</p>","",""
"2560","key","v","v","16.58645454545463","500","250","psychophysics","336","1744740","0.0-336.0","614918a6dcc9c2fb0bde6331","6213ce8d471c372b41035c35","6","","","","","1","3"
"null","","","null","","","","html-keyboard-response","337","1745242","0.0-337.0","614918a6dcc9c2fb0bde6331","6213ce8d471c372b41035c35","","","","","<p style=""color:darkgreen;font-size:24px;"">Correct :)</p>","",""
"2436","key","v","v","16.58595945945991","500","250","psychophysics","338","1747685","0.0-338.0","614918a6dcc9c2fb0bde6331","6213ce8d471c372b41035c35","6","","","","","1","1"
"null","","","null","","","","html-keyboard-response","339","1748186","0.0-339.0","614918a6dcc9c2fb0bde6331","6213ce8d471c372b41035c35","","","","","<p style=""color:darkgreen;font-size:24px;"">Correct :)</p>","",""
"2632","key","n","n","16.58718354430321","500","250","psychophysics","340","1750820","0.0-340.0","614918a6dcc9c2fb0bde6331","6213ce8d471c372b41035c35","6","","","","","1","9"
"null","","","null","","","","html-keyboard-response","341","1751323","0.0-341.0","614918a6dcc9c2fb0bde6331","6213ce8d471c372b41035c35","","","","","<p style=""color:darkgreen;font-size:24px;"">Correct :)</p>","",""
"2670","key","n","n","16.585621118013346","500","250","psychophysics","342","1753996","0.0-342.0","614918a6dcc9c2fb0bde6331","6213ce8d471c372b41035c35","6","","","","","1","8"
"null","","","null","","","","html-keyboard-response","343","1754497","0.0-343.0","614918a6dcc9c2fb0bde6331","6213ce8d471c372b41035c35","","","","","<p style=""color:darkgreen;font-size:24px;"">Correct :)</p>","",""
"2489","key","n","n","16.585240000000535","500","250","psychophysics","344","1756988","0.0-344.0","614918a6dcc9c2fb0bde6331","6213ce8d471c372b41035c35","6","","","","","1","9"
"null","","","null","","","","html-keyboard-response","345","1757489","0.0-345.0","614918a6dcc9c2fb0bde6331","6213ce8d471c372b41035c35","","","","","<p style=""color:darkgreen;font-size:24px;"">Correct :)</p>","",""
"2713","key","v","v","16.58695121951225","500","250","psychophysics","346","1760204","0.0-346.0","614918a6dcc9c2fb0bde6331","6213ce8d471c372b41035c35","6","","","","","1","4"
"null","","","null","","","","html-keyboard-response","347","1760704","0.0-347.0","614918a6dcc9c2fb0bde6331","6213ce8d471c372b41035c35","","","","","<p style=""color:darkgreen;font-size:24px;"">Correct :)</p>","",""
"2714","key","v","v","16.586902439024968","500","250","psychophysics","348","1763420","0.0-348.0","614918a6dcc9c2fb0bde6331","6213ce8d471c372b41035c35","6","","","","","1","3"
"null","","","null","","","","html-keyboard-response","349","1763922","0.0-349.0","614918a6dcc9c2fb0bde6331","6213ce8d471c372b41035c35","","","","","<p style=""color:darkgreen;font-size:24px;"">Correct :)</p>","",""
"2487","key","n","n","16.58634666666699","500","250","psychophysics","350","1766412","0.0-350.0","614918a6dcc9c2fb0bde6331","6213ce8d471c372b41035c35","6","","","","","0","6"
"null","","","null","","","","html-keyboard-response","351","1766913","0.0-351.0","614918a6dcc9c2fb0bde6331","6213ce8d471c372b41035c35","","","","","<p style=""color:darkgreen;font-size:24px;"">Correct :)</p>","",""
"2680","key","n","n","16.587277777777572","500","250","psychophysics","352","1769596","0.0-352.0","614918a6dcc9c2fb0bde6331","6213ce8d471c372b41035c35","6","","","","","1","9"
"null","","","null","","","","html-keyboard-response","353","1770097","0.0-353.0","614918a6dcc9c2fb0bde6331","6213ce8d471c372b41035c35","","","","","<p style=""color:darkgreen;font-size:24px;"">Correct :)</p>","",""
"2777","key","v","v","16.5868922155699","500","250","psychophysics","354","1772876","0.0-354.0","614918a6dcc9c2fb0bde6331","6213ce8d471c372b41035c35","6","","","","","0","3"
"null","","","null","","","","html-keyboard-response","355","1773377","0.0-355.0","614918a6dcc9c2fb0bde6331","6213ce8d471c372b41035c35","","","","","<p style=""color:darkgreen;font-size:24px;"">Correct :)</p>","",""
"2480","key","n","n","16.586519999999243","500","250","psychophysics","356","1775860","0.0-356.0","614918a6dcc9c2fb0bde6331","6213ce8d471c372b41035c35","6","","","","","1","8"
"null","","","null","","","","html-keyboard-response","357","1776361","0.0-357.0","614918a6dcc9c2fb0bde6331","6213ce8d471c372b41035c35","","","","","<p style=""color:darkgreen;font-size:24px;"">Correct :)</p>","",""
"2528","key","v","v","16.586699346406082","500","250","psychophysics","358","1778892","0.0-358.0","614918a6dcc9c2fb0bde6331","6213ce8d471c372b41035c35","6","","","","","1","4"
"null","","","null","","","","html-keyboard-response","359","1779394","0.0-359.0","614918a6dcc9c2fb0bde6331","6213ce8d471c372b41035c35","","","","","<p style=""color:darkgreen;font-size:24px;"">Correct :)</p>","",""
"2408","key","v","v","16.58576551724129","500","250","psychophysics","360","1781804","0.0-360.0","614918a6dcc9c2fb0bde6331","6213ce8d471c372b41035c35","6","","","","","1","3"
"null","","","null","","","","html-keyboard-response","361","1782305","0.0-361.0","614918a6dcc9c2fb0bde6331","6213ce8d471c372b41035c35","","","","","<p style=""color:darkgreen;font-size:24px;"">Correct :)</p>","",""
"2593","key","n","n","16.586605095540346","500","250","psychophysics","362","1784900","0.0-362.0","614918a6dcc9c2fb0bde6331","6213ce8d471c372b41035c35","6","","","","","1","9"
"null","","","null","","","","html-keyboard-response","363","1785401","0.0-363.0","614918a6dcc9c2fb0bde6331","6213ce8d471c372b41035c35","","","","","<p style=""color:darkgreen;font-size:24px;"">Correct :)</p>","",""
"3289","key","n","n","16.589121212120958","500","250","psychophysics","364","1788692","0.0-364.0","614918a6dcc9c2fb0bde6331","6213ce8d471c372b41035c35","6","","","","","0","4"
"null","","","null","","","","html-keyboard-response","365","1789193","0.0-365.0","614918a6dcc9c2fb0bde6331","6213ce8d471c372b41035c35","","","","","<p style=""color:darkgreen;font-size:24px;"">Correct :)</p>","",""
"2816","key","n","n","16.587682352940934","500","250","psychophysics","366","1792012","0.0-366.0","614918a6dcc9c2fb0bde6331","6213ce8d471c372b41035c35","6","","","","","1","9"
"null","","","null","","","","html-keyboard-response","367","1792513","0.0-367.0","614918a6dcc9c2fb0bde6331","6213ce8d471c372b41035c35","","","","","<p style=""color:darkgreen;font-size:24px;"">Correct :)</p>","",""
"2585","key","n","n","16.586608974358594","500","250","psychophysics","368","1795100","0.0-368.0","614918a6dcc9c2fb0bde6331","6213ce8d471c372b41035c35","6","","","","","1","9"
"null","","","null","","","","html-keyboard-response","369","1795602","0.0-369.0","614918a6dcc9c2fb0bde6331","6213ce8d471c372b41035c35","","","","","<p style=""color:darkgreen;font-size:24px;"">Correct :)</p>","",""
"2447","key","n","n","16.58592567567531","500","250","psychophysics","370","1798052","0.0-370.0","614918a6dcc9c2fb0bde6331","6213ce8d471c372b41035c35","6","","","","","1","9"
"null","","","null","","","","html-keyboard-response","371","1798553","0.0-371.0","614918a6dcc9c2fb0bde6331","6213ce8d471c372b41035c35","","","","","<p style=""color:darkgreen;font-size:24px;"">Correct :)</p>","",""
"2665","key","v","v","16.58738509316709","500","250","psychophysics","372","1801220","0.0-372.0","614918a6dcc9c2fb0bde6331","6213ce8d471c372b41035c35","6","","","","","1","3"
"null","","","null","","","","html-keyboard-response","373","1801722","0.0-373.0","614918a6dcc9c2fb0bde6331","6213ce8d471c372b41035c35","","","","","<p style=""color:darkgreen;font-size:24px;"">Correct :)</p>","",""
"3043","key","n","n","16.587749999999726","500","250","psychophysics","374","1804772","0.0-374.0","614918a6dcc9c2fb0bde6331","6213ce8d471c372b41035c35","6","","","","","0","8"
"null","","","null","","","","html-keyboard-response","375","1805274","0.0-375.0","614918a6dcc9c2fb0bde6331","6213ce8d471c372b41035c35","","","","","<p style=""color:darkgreen;font-size:24px;"">Correct :)</p>","",""
"2639","key","v","v","16.587088050314886","500","250","psychophysics","376","1807916","0.0-376.0","614918a6dcc9c2fb0bde6331","6213ce8d471c372b41035c35","6","","","","","0","3"
"null","","","null","","","","html-keyboard-response","377","1808417","0.0-377.0","614918a6dcc9c2fb0bde6331","6213ce8d471c372b41035c35","","","","","<p style=""color:darkgreen;font-size:24px;"">Correct :)</p>","",""
"2873","key","n","n","16.587491329479423","500","250","psychophysics","378","1811292","0.0-378.0","614918a6dcc9c2fb0bde6331","6213ce8d471c372b41035c35","6","","","","","1","7"
"null","","","null","","","","html-keyboard-response","379","1811793","0.0-379.0","614918a6dcc9c2fb0bde6331","6213ce8d471c372b41035c35","","","","","<p style=""color:darkgreen;font-size:24px;"">Correct :)</p>","",""
"2648","key","v","v","16.58680624999979","500","250","psychophysics","380","1814444","0.0-380.0","614918a6dcc9c2fb0bde6331","6213ce8d471c372b41035c35","6","","","","","1","4"
"null","","","null","","","","html-keyboard-response","381","1814945","0.0-381.0","614918a6dcc9c2fb0bde6331","6213ce8d471c372b41035c35","","","","","<p style=""color:darkgreen;font-size:24px;"">Correct :)</p>","",""
"2672","key","v","v","16.58675776397584","500","250","psychophysics","382","1817619","0.0-382.0","614918a6dcc9c2fb0bde6331","6213ce8d471c372b41035c35","6","","","","","1","2"
"null","","","null","","","","html-keyboard-response","383","1818120","0.0-383.0","614918a6dcc9c2fb0bde6331","6213ce8d471c372b41035c35","","","","","<p style=""color:darkgreen;font-size:24px;"">Correct :)</p>","",""
"2737","key","n","n","16.587581818181118","500","250","psychophysics","384","1820859","0.0-384.0","614918a6dcc9c2fb0bde6331","6213ce8d471c372b41035c35","6","","","","","0","2"
"null","","","null","","","","html-keyboard-response","385","1821362","0.0-385.0","614918a6dcc9c2fb0bde6331","6213ce8d471c372b41035c35","","","","","<p style=""color:darkgreen;font-size:24px;"">Correct :)</p>","",""
"2543","key","n","n","16.585941558440712","500","250","psychophysics","386","1823908","0.0-386.0","614918a6dcc9c2fb0bde6331","6213ce8d471c372b41035c35","6","","","","","0","6"
"null","","","null","","","","html-keyboard-response","387","1824409","0.0-387.0","614918a6dcc9c2fb0bde6331","6213ce8d471c372b41035c35","","","","","<p style=""color:darkgreen;font-size:24px;"">Correct :)</p>","",""
"2632","key","n","n","16.587465408805805","500","250","psychophysics","388","1827043","0.0-388.0","614918a6dcc9c2fb0bde6331","6213ce8d471c372b41035c35","6","","","","","1","7"
"null","","","null","","","","html-keyboard-response","389","1827545","0.0-389.0","614918a6dcc9c2fb0bde6331","6213ce8d471c372b41035c35","","","","","<p style=""color:darkgreen;font-size:24px;"">Correct :)</p>","",""
"2608","key","v","v","16.586458598726256","500","250","psychophysics","390","1830155","0.0-390.0","614918a6dcc9c2fb0bde6331","6213ce8d471c372b41035c35","6","","","","","1","4"
"null","","","null","","","","html-keyboard-response","391","1830656","0.0-391.0","614918a6dcc9c2fb0bde6331","6213ce8d471c372b41035c35","","","","","<p style=""color:darkgreen;font-size:24px;"">Correct :)</p>","",""
"2572","key","v","v","16.5864743589743","500","250","psychophysics","392","1833235","0.0-392.0","614918a6dcc9c2fb0bde6331","6213ce8d471c372b41035c35","6","","","","","1","1"
"null","","","null","","","","html-keyboard-response","393","1833737","0.0-393.0","614918a6dcc9c2fb0bde6331","6213ce8d471c372b41035c35","","","","","<p style=""color:darkgreen;font-size:24px;"">Correct :)</p>","",""
"2488","key","v","v","16.586599999999937","500","250","psychophysics","394","1836228","0.0-394.0","614918a6dcc9c2fb0bde6331","6213ce8d471c372b41035c35","6","","","","","1","2"
"null","","","null","","","","html-keyboard-response","395","1836729","0.0-395.0","614918a6dcc9c2fb0bde6331","6213ce8d471c372b41035c35","","","","","<p style=""color:darkgreen;font-size:24px;"">Correct :)</p>","",""
"12393","","","n","","","","html-keyboard-response","396","1849124","0.0-396.0","614918a6dcc9c2fb0bde6331","6213ce8d471c372b41035c35","","","","","<p> Last set of trials.  Here, the tasks are going to switch once again.  We are going to do 50 of these.  And then you are done with the experiment.  </p>  <br><br>  Ready? (press v or n)","",""
"3469","key","v","v","16.595071770335462","500","250","psychophysics","397","1852595","0.0-397.0","614918a6dcc9c2fb0bde6331","6213ce8d471c372b41035c35","7","","","","","0","3"
"null","","","null","","","","html-keyboard-response","398","1853096","0.0-398.0","614918a6dcc9c2fb0bde6331","6213ce8d471c372b41035c35","","","","","<p style=""color:darkgreen;font-size:24px;"">Correct :)</p>","",""
"3321","key","v","v","16.589124378109982","500","250","psychophysics","399","1856419","0.0-399.0","614918a6dcc9c2fb0bde6331","6213ce8d471c372b41035c35","7","","","","","0","7"
"null","","","null","","","","html-keyboard-response","400","1856922","0.0-400.0","614918a6dcc9c2fb0bde6331","6213ce8d471c372b41035c35","","","","","<p style=""color:darkgreen;font-size:24px;"">Correct :)</p>","",""
"2991","key","n","n","16.58848333333412","500","250","psychophysics","401","1859915","0.0-401.0","614918a6dcc9c2fb0bde6331","6213ce8d471c372b41035c35","7","","","","","0","6"
"null","","","null","","","","html-keyboard-response","402","1860417","0.0-402.0","614918a6dcc9c2fb0bde6331","6213ce8d471c372b41035c35","","","","","<p style=""color:darkgreen;font-size:24px;"">Correct :)</p>","",""
"2672","key","v","v","16.58706790123445","500","250","psychophysics","403","1863091","0.0-403.0","614918a6dcc9c2fb0bde6331","6213ce8d471c372b41035c35","7","","","","","1","3"
"null","","","null","","","","html-keyboard-response","404","1863592","0.0-404.0","614918a6dcc9c2fb0bde6331","6213ce8d471c372b41035c35","","","","","<p style=""color:darkgreen;font-size:24px;"">Correct :)</p>","",""
"2712","key","n","n","16.587521472393014","500","250","psychophysics","405","1866307","0.0-405.0","614918a6dcc9c2fb0bde6331","6213ce8d471c372b41035c35","7","","","","","0","2"
"null","","","null","","","","html-keyboard-response","406","1866808","0.0-406.0","614918a6dcc9c2fb0bde6331","6213ce8d471c372b41035c35","","","","","<p style=""color:darkgreen;font-size:24px;"">Correct :)</p>","",""
"2976","key","v","v","16.587782122904965","500","250","psychophysics","407","1869787","0.0-407.0","614918a6dcc9c2fb0bde6331","6213ce8d471c372b41035c35","7","","","","","0","7"
"null","","","null","","","","html-keyboard-response","408","1870288","0.0-408.0","614918a6dcc9c2fb0bde6331","6213ce8d471c372b41035c35","","","","","<p style=""color:darkgreen;font-size:24px;"">Correct :)</p>","",""
"2732","key","n","n","16.587321212120127","500","250","psychophysics","409","1873027","0.0-409.0","614918a6dcc9c2fb0bde6331","6213ce8d471c372b41035c35","7","","","","","0","4"
"null","","","null","","","","html-keyboard-response","410","1873529","0.0-410.0","614918a6dcc9c2fb0bde6331","6213ce8d471c372b41035c35","","","","","<p style=""color:darkgreen;font-size:24px;"">Correct :)</p>","",""
"2431","key","v","v","16.58608843537434","500","250","psychophysics","411","1875963","0.0-411.0","614918a6dcc9c2fb0bde6331","6213ce8d471c372b41035c35","7","","","","","1","4"
"null","","","null","","","","html-keyboard-response","412","1876464","0.0-412.0","614918a6dcc9c2fb0bde6331","6213ce8d471c372b41035c35","","","","","<p style=""color:darkgreen;font-size:24px;"">Correct :)</p>","",""
"2736","key","n","n","16.587296969697558","500","250","psychophysics","413","1879203","0.0-413.0","614918a6dcc9c2fb0bde6331","6213ce8d471c372b41035c35","7","","","","","0","6"
"null","","","null","","","","html-keyboard-response","414","1879704","0.0-414.0","614918a6dcc9c2fb0bde6331","6213ce8d471c372b41035c35","","","","","<p style=""color:darkgreen;font-size:24px;"">Correct :)</p>","",""
"2784","key","v","v","16.587488095238637","500","250","psychophysics","415","1882491","0.0-415.0","614918a6dcc9c2fb0bde6331","6213ce8d471c372b41035c35","7","","","","","1","1"
"null","","","null","","","","html-keyboard-response","416","1882992","0.0-416.0","614918a6dcc9c2fb0bde6331","6213ce8d471c372b41035c35","","","","","<p style=""color:darkgreen;font-size:24px;"">Correct :)</p>","",""
"2560","key","v","v","16.585668831168636","500","250","psychophysics","417","1885555","0.0-417.0","614918a6dcc9c2fb0bde6331","6213ce8d471c372b41035c35","7","","","","","1","3"
"null","","","null","","","","html-keyboard-response","418","1886056","0.0-418.0","614918a6dcc9c2fb0bde6331","6213ce8d471c372b41035c35","","","","","<p style=""color:darkgreen;font-size:24px;"">Correct :)</p>","",""
"2584","key","n","n","16.586583333333227","500","250","psychophysics","419","1888643","0.0-419.0","614918a6dcc9c2fb0bde6331","6213ce8d471c372b41035c35","7","","","","","1","6"
"null","","","null","","","","html-keyboard-response","420","1889143","0.0-420.0","614918a6dcc9c2fb0bde6331","6213ce8d471c372b41035c35","","","","","<p style=""color:darkgreen;font-size:24px;"">Correct :)</p>","",""
"2865","key","v","v","16.587624277456563","500","250","psychophysics","421","1892011","0.0-421.0","614918a6dcc9c2fb0bde6331","6213ce8d471c372b41035c35","7","","","","","1","1"
"null","","","null","","","","html-keyboard-response","422","1892513","0.0-422.0","614918a6dcc9c2fb0bde6331","6213ce8d471c372b41035c35","","","","","<p style=""color:darkgreen;font-size:24px;"">Correct :)</p>","",""
"5376","key","n","n","16.59254629629661","500","250","psychophysics","423","1897891","0.0-423.0","614918a6dcc9c2fb0bde6331","6213ce8d471c372b41035c35","7","","","","","1","6"
"null","","","null","","","","html-keyboard-response","424","1898392","0.0-424.0","614918a6dcc9c2fb0bde6331","6213ce8d471c372b41035c35","","","","","<p style=""color:darkgreen;font-size:24px;"">Correct :)</p>","",""
"4440","key","n","n","16.591358208955864","500","250","psychophysics","425","1902835","0.0-425.0","614918a6dcc9c2fb0bde6331","6213ce8d471c372b41035c35","7","","","","","1","6"
"null","","","null","","","","html-keyboard-response","426","1903336","0.0-426.0","614918a6dcc9c2fb0bde6331","6213ce8d471c372b41035c35","","","","","<p style=""color:darkgreen;font-size:24px;"">Correct :)</p>","",""
"5049","key","n","n","16.592334426229545","500","250","psychophysics","427","1908387","0.0-427.0","614918a6dcc9c2fb0bde6331","6213ce8d471c372b41035c35","7","","","","","0","2"
"null","","","null","","","","html-keyboard-response","428","1908888","0.0-428.0","614918a6dcc9c2fb0bde6331","6213ce8d471c372b41035c35","","","","","<p style=""color:darkgreen;font-size:24px;"">Correct :)</p>","",""
"2449","key","n","n","16.585965986395266","500","250","psychophysics","429","1911339","0.0-429.0","614918a6dcc9c2fb0bde6331","6213ce8d471c372b41035c35","7","","","","","0","2"
"null","","","null","","","","html-keyboard-response","430","1911841","0.0-430.0","614918a6dcc9c2fb0bde6331","6213ce8d471c372b41035c35","","","","","<p style=""color:darkgreen;font-size:24px;"">Correct :)</p>","",""
"2392","key","n","n","16.585187499999947","500","250","psychophysics","431","1914235","0.0-431.0","614918a6dcc9c2fb0bde6331","6213ce8d471c372b41035c35","7","","","","","0","2"
"null","","","null","","","","html-keyboard-response","432","1914736","0.0-432.0","614918a6dcc9c2fb0bde6331","6213ce8d471c372b41035c35","","","","","<p style=""color:darkgreen;font-size:24px;"">Correct :)</p>","",""
"2560","key","v","v","16.586558441557415","500","250","psychophysics","433","1917299","0.0-433.0","614918a6dcc9c2fb0bde6331","6213ce8d471c372b41035c35","7","","","","","0","7"
"null","","","null","","","","html-keyboard-response","434","1917800","0.0-434.0","614918a6dcc9c2fb0bde6331","6213ce8d471c372b41035c35","","","","","<p style=""color:darkgreen;font-size:24px;"">Correct :)</p>","",""
"3768","key","v","v","16.589850220264097","500","250","psychophysics","435","1921571","0.0-435.0","614918a6dcc9c2fb0bde6331","6213ce8d471c372b41035c35","7","","","","","0","3"
"null","","","null","","","","html-keyboard-response","436","1922072","0.0-436.0","614918a6dcc9c2fb0bde6331","6213ce8d471c372b41035c35","","","","","<p style=""color:darkgreen;font-size:24px;"">Correct :)</p>","",""
"2680","key","n","n","16.587117283949972","500","250","psychophysics","437","1924755","0.0-437.0","614918a6dcc9c2fb0bde6331","6213ce8d471c372b41035c35","7","","","","","0","4"
"null","","","null","","","","html-keyboard-response","438","1925255","0.0-438.0","614918a6dcc9c2fb0bde6331","6213ce8d471c372b41035c35","","","","","<p style=""color:darkgreen;font-size:24px;"">Correct :)</p>","",""
"2833","key","v","v","16.587695906432998","500","250","psychophysics","439","1928091","0.0-439.0","614918a6dcc9c2fb0bde6331","6213ce8d471c372b41035c35","7","","","","","1","2"
"null","","","null","","","","html-keyboard-response","440","1928592","0.0-440.0","614918a6dcc9c2fb0bde6331","6213ce8d471c372b41035c35","","","","","<p style=""color:darkgreen;font-size:24px;"">Correct :)</p>","",""
"2680","key","v","v","16.587061728395373","500","250","psychophysics","441","1931275","0.0-441.0","614918a6dcc9c2fb0bde6331","6213ce8d471c372b41035c35","7","","","","","1","3"
"null","","","null","","","","html-keyboard-response","442","1931778","0.0-442.0","614918a6dcc9c2fb0bde6331","6213ce8d471c372b41035c35","","","","","<p style=""color:darkgreen;font-size:24px;"">Correct :)</p>","",""
"2478","key","v","v","16.585906040268767","500","250","psychophysics","443","1934259","0.0-443.0","614918a6dcc9c2fb0bde6331","6213ce8d471c372b41035c35","7","","","","","0","2"
"null","","","null","","","","html-keyboard-response","444","1934760","0.0-444.0","614918a6dcc9c2fb0bde6331","6213ce8d471c372b41035c35","","","","","<p style=""color:red;font-size:24px;"">Error :(</p>","",""
"3249","key","v","v","16.588579487179718","500","250","psychophysics","445","1938011","0.0-445.0","614918a6dcc9c2fb0bde6331","6213ce8d471c372b41035c35","7","","","","","0","7"
"null","","","null","","","","html-keyboard-response","446","1938512","0.0-446.0","614918a6dcc9c2fb0bde6331","6213ce8d471c372b41035c35","","","","","<p style=""color:darkgreen;font-size:24px;"">Correct :)</p>","",""
"2777","key","n","n","16.586940119761003","500","250","psychophysics","447","1941290","0.0-447.0","614918a6dcc9c2fb0bde6331","6213ce8d471c372b41035c35","7","","","","","0","2"
"null","","","null","","","","html-keyboard-response","448","1941793","0.0-448.0","614918a6dcc9c2fb0bde6331","6213ce8d471c372b41035c35","","","","","<p style=""color:darkgreen;font-size:24px;"">Correct :)</p>","",""
"2712","key","n","n","16.587268292682428","500","250","psychophysics","449","1944507","0.0-449.0","614918a6dcc9c2fb0bde6331","6213ce8d471c372b41035c35","7","","","","","0","4"
"null","","","null","","","","html-keyboard-response","450","1945008","0.0-450.0","614918a6dcc9c2fb0bde6331","6213ce8d471c372b41035c35","","","","","<p style=""color:darkgreen;font-size:24px;"">Correct :)</p>","",""
"2881","key","v","v","16.58770689655138","500","250","psychophysics","451","1947891","0.0-451.0","614918a6dcc9c2fb0bde6331","6213ce8d471c372b41035c35","7","","","","","0","7"
"null","","","null","","","","html-keyboard-response","452","1948393","0.0-452.0","614918a6dcc9c2fb0bde6331","6213ce8d471c372b41035c35","","","","","<p style=""color:darkgreen;font-size:24px;"">Correct :)</p>","",""
"2471","key","n","n","16.586000000000087","500","250","psychophysics","453","1950866","0.0-453.0","614918a6dcc9c2fb0bde6331","6213ce8d471c372b41035c35","7","","","","","0","2"
"null","","","null","","","","html-keyboard-response","454","1951368","0.0-454.0","614918a6dcc9c2fb0bde6331","6213ce8d471c372b41035c35","","","","","<p style=""color:darkgreen;font-size:24px;"">Correct :)</p>","",""
"2705","key","v","v","16.587055214723584","500","250","psychophysics","455","1954074","0.0-455.0","614918a6dcc9c2fb0bde6331","6213ce8d471c372b41035c35","7","","","","","1","3"
"null","","","null","","","","html-keyboard-response","456","1954575","0.0-456.0","614918a6dcc9c2fb0bde6331","6213ce8d471c372b41035c35","","","","","<p style=""color:darkgreen;font-size:24px;"">Correct :)</p>","",""
"2464","key","v","v","16.58600671140902","500","250","psychophysics","457","1957042","0.0-457.0","614918a6dcc9c2fb0bde6331","6213ce8d471c372b41035c35","7","","","","","1","3"
"null","","","null","","","","html-keyboard-response","458","1957545","0.0-458.0","614918a6dcc9c2fb0bde6331","6213ce8d471c372b41035c35","","","","","<p style=""color:darkgreen;font-size:24px;"">Correct :)</p>","",""
"2527","key","n","n","16.586594771240758","500","250","psychophysics","459","1960074","0.0-459.0","614918a6dcc9c2fb0bde6331","6213ce8d471c372b41035c35","7","","","","","0","6"
"null","","","null","","","","html-keyboard-response","460","1960575","0.0-460.0","614918a6dcc9c2fb0bde6331","6213ce8d471c372b41035c35","","","","","<p style=""color:darkgreen;font-size:24px;"">Correct :)</p>","",""
"2552","key","n","n","16.58656493506346","500","250","psychophysics","461","1963130","0.0-461.0","614918a6dcc9c2fb0bde6331","6213ce8d471c372b41035c35","7","","","","","1","6"
"null","","","null","","","","html-keyboard-response","462","1963632","0.0-462.0","614918a6dcc9c2fb0bde6331","6213ce8d471c372b41035c35","","","","","<p style=""color:darkgreen;font-size:24px;"">Correct :)</p>","",""
"2472","key","n","n","16.585697986576207","500","250","psychophysics","463","1966106","0.0-463.0","614918a6dcc9c2fb0bde6331","6213ce8d471c372b41035c35","7","","","","","0","6"
"null","","","null","","","","html-keyboard-response","464","1966608","0.0-464.0","614918a6dcc9c2fb0bde6331","6213ce8d471c372b41035c35","","","","","<p style=""color:darkgreen;font-size:24px;"">Correct :)</p>","",""
"2553","key","v","v","16.58648701298637","500","250","psychophysics","465","1969162","0.0-465.0","614918a6dcc9c2fb0bde6331","6213ce8d471c372b41035c35","7","","","","","1","2"
"null","","","null","","","","html-keyboard-response","466","1969665","0.0-466.0","614918a6dcc9c2fb0bde6331","6213ce8d471c372b41035c35","","","","","<p style=""color:darkgreen;font-size:24px;"">Correct :)</p>","",""
"2607","key","n","n","16.586386075949214","500","250","psychophysics","467","1972274","0.0-467.0","614918a6dcc9c2fb0bde6331","6213ce8d471c372b41035c35","7","","","","","0","6"
"null","","","null","","","","html-keyboard-response","468","1972775","0.0-468.0","614918a6dcc9c2fb0bde6331","6213ce8d471c372b41035c35","","","","","<p style=""color:darkgreen;font-size:24px;"">Correct :)</p>","",""
"2713","key","n","n","16.58711042944799","500","250","psychophysics","469","1975491","0.0-469.0","614918a6dcc9c2fb0bde6331","6213ce8d471c372b41035c35","7","","","","","1","6"
"null","","","null","","","","html-keyboard-response","470","1975993","0.0-470.0","614918a6dcc9c2fb0bde6331","6213ce8d471c372b41035c35","","","","","<p style=""color:darkgreen;font-size:24px;"">Correct :)</p>","",""
"2552","key","v","v","16.585746753247236","500","250","psychophysics","471","1978547","0.0-471.0","614918a6dcc9c2fb0bde6331","6213ce8d471c372b41035c35","7","","","","","0","7"
"null","","","null","","","","html-keyboard-response","472","1979049","0.0-472.0","614918a6dcc9c2fb0bde6331","6213ce8d471c372b41035c35","","","","","<p style=""color:darkgreen;font-size:24px;"">Correct :)</p>","",""
"2585","key","n","n","16.586679487180216","500","250","psychophysics","473","1981635","0.0-473.0","614918a6dcc9c2fb0bde6331","6213ce8d471c372b41035c35","7","","","","","0","6"
"null","","","null","","","","html-keyboard-response","474","1982136","0.0-474.0","614918a6dcc9c2fb0bde6331","6213ce8d471c372b41035c35","","","","","<p style=""color:darkgreen;font-size:24px;"">Correct :)</p>","",""
"2536","key","n","n","16.586352941176848","500","250","psychophysics","475","1984675","0.0-475.0","614918a6dcc9c2fb0bde6331","6213ce8d471c372b41035c35","7","","","","","1","6"
"null","","","null","","","","html-keyboard-response","476","1985176","0.0-476.0","614918a6dcc9c2fb0bde6331","6213ce8d471c372b41035c35","","","","","<p style=""color:darkgreen;font-size:24px;"">Correct :)</p>","",""
"2800","key","n","n","16.587650887574448","500","250","psychophysics","477","1987979","0.0-477.0","614918a6dcc9c2fb0bde6331","6213ce8d471c372b41035c35","7","","","","","1","7"
"null","","","null","","","","html-keyboard-response","478","1988480","0.0-478.0","614918a6dcc9c2fb0bde6331","6213ce8d471c372b41035c35","","","","","<p style=""color:darkgreen;font-size:24px;"">Correct :)</p>","",""
"2577","key","v","v","16.586354838709738","500","250","psychophysics","479","1991059","0.0-479.0","614918a6dcc9c2fb0bde6331","6213ce8d471c372b41035c35","7","","","","","1","4"
"null","","","null","","","","html-keyboard-response","480","1991560","0.0-480.0","614918a6dcc9c2fb0bde6331","6213ce8d471c372b41035c35","","","","","<p style=""color:darkgreen;font-size:24px;"">Correct :)</p>","",""
"2553","key","v","v","16.585766233765376","500","250","psychophysics","481","1994115","0.0-481.0","614918a6dcc9c2fb0bde6331","6213ce8d471c372b41035c35","7","","","","","1","1"
"null","","","null","","","","html-keyboard-response","482","1994616","0.0-482.0","614918a6dcc9c2fb0bde6331","6213ce8d471c372b41035c35","","","","","<p style=""color:darkgreen;font-size:24px;"">Correct :)</p>","",""
"2584","key","v","v","16.586660256409324","500","250","psychophysics","483","1997203","0.0-483.0","614918a6dcc9c2fb0bde6331","6213ce8d471c372b41035c35","7","","","","","1","3"
"null","","","null","","","","html-keyboard-response","484","1997705","0.0-484.0","614918a6dcc9c2fb0bde6331","6213ce8d471c372b41035c35","","","","","<p style=""color:darkgreen;font-size:24px;"">Correct :)</p>","",""
"2496","key","n","n","16.586233333333706","500","250","psychophysics","485","2000203","0.0-485.0","614918a6dcc9c2fb0bde6331","6213ce8d471c372b41035c35","7","","","","","1","7"
"null","","","null","","","","html-keyboard-response","486","2000704","0.0-486.0","614918a6dcc9c2fb0bde6331","6213ce8d471c372b41035c35","","","","","<p style=""color:darkgreen;font-size:24px;"">Correct :)</p>","",""
"2560","key","n","n","16.58617419354738","500","250","psychophysics","487","2003267","0.0-487.0","614918a6dcc9c2fb0bde6331","6213ce8d471c372b41035c35","7","","","","","0","4"
"null","","","null","","","","html-keyboard-response","488","2003768","0.0-488.0","614918a6dcc9c2fb0bde6331","6213ce8d471c372b41035c35","","","","","<p style=""color:darkgreen;font-size:24px;"">Correct :)</p>","",""
"2561","key","n","n","16.586800000000924","500","250","psychophysics","489","2006332","0.0-489.0","614918a6dcc9c2fb0bde6331","6213ce8d471c372b41035c35","7","","","","","1","6"
"null","","","null","","","","html-keyboard-response","490","2006834","0.0-490.0","614918a6dcc9c2fb0bde6331","6213ce8d471c372b41035c35","","","","","<p style=""color:darkgreen;font-size:24px;"">Correct :)</p>","",""
"2863","key","v","v","16.58779651162805","500","250","psychophysics","491","2009699","0.0-491.0","614918a6dcc9c2fb0bde6331","6213ce8d471c372b41035c35","7","","","","","1","4"
"null","","","null","","","","html-keyboard-response","492","2010202","0.0-492.0","614918a6dcc9c2fb0bde6331","6213ce8d471c372b41035c35","","","","","<p style=""color:darkgreen;font-size:24px;"">Correct :)</p>","",""
"2678","key","n","n","16.58644720496934","500","250","psychophysics","493","2012883","0.0-493.0","614918a6dcc9c2fb0bde6331","6213ce8d471c372b41035c35","7","","","","","1","7"
"null","","","null","","","","html-keyboard-response","494","2013384","0.0-494.0","614918a6dcc9c2fb0bde6331","6213ce8d471c372b41035c35","","","","","<p style=""color:darkgreen;font-size:24px;"">Correct :)</p>","",""
"3656","key","v","v","16.589746606334984","500","250","psychophysics","495","2017043","0.0-495.0","614918a6dcc9c2fb0bde6331","6213ce8d471c372b41035c35","7","","","","","1","4"
"null","","","null","","","","html-keyboard-response","496","2017544","0.0-496.0","614918a6dcc9c2fb0bde6331","6213ce8d471c372b41035c35","","","","","<p style=""color:darkgreen;font-size:24px;"">Correct :)</p>","",""
