"rt","response_type","key_press","response","avg_frame_time","center_x","center_y","trial_type","trial_index","time_elapsed","internal_node_id","pid","sid","phase","guide","targ","resp","stimulus","is5","stim"
"3047","key"," "," ","17.12275690607735","500","250","psychophysics","0","3103","0.0-0.0","615e41558dc8efdab16afe00","6213cdc00ae70f1648b40c9d","","","","","","",""
"2386","key"," "," ","16.659591549295776","500","250","psychophysics","1","5495","0.0-1.0","615e41558dc8efdab16afe00","6213cdc00ae70f1648b40c9d","","","","","","",""
"2906","key"," "," ","16.662565714285712","500","250","psychophysics","2","8413","0.0-2.0","615e41558dc8efdab16afe00","6213cdc00ae70f1648b40c9d","","","","","","",""
"1213","key"," "," ","16.65959722222222","500","250","psychophysics","3","9630","0.0-3.0","615e41558dc8efdab16afe00","6213cdc00ae70f1648b40c9d","","","","","","",""
"3285","key"," "," ","16.660948979591836","500","250","psychophysics","4","12921","0.0-4.0","615e41558dc8efdab16afe00","6213cdc00ae70f1648b40c9d","","","","","","",""
"3776","key"," "," ","16.661259911894273","500","250","psychophysics","5","16710","0.0-5.0","615e41558dc8efdab16afe00","6213cdc00ae70f1648b40c9d","","","","","","",""
"5787","key"," "," ","16.65999710982659","500","250","psychophysics","6","22501","0.0-6.0","615e41558dc8efdab16afe00","6213cdc00ae70f1648b40c9d","","","","","","",""
"3107","key"," "," ","16.66063101604278","500","250","psychophysics","7","25624","0.0-7.0","615e41558dc8efdab16afe00","6213cdc00ae70f1648b40c9d","","","","","","",""
"20839","key"," "," ","16.6610456","500","250","psychophysics","8","46468","0.0-8.0","615e41558dc8efdab16afe00","6213cdc00ae70f1648b40c9d","0","0","55","54","","",""
"2410","key"," "," ","16.66118055555555","500","250","psychophysics","9","48883","0.0-9.0","615e41558dc8efdab16afe00","6213cdc00ae70f1648b40c9d","","","","","","",""
"2639","key"," "," ","16.769554140127386","500","250","psychophysics","10","51532","0.0-10.0","615e41558dc8efdab16afe00","6213cdc00ae70f1648b40c9d","","","","","","",""
"2488","key"," "," ","16.658662162162187","500","250","psychophysics","11","54026","0.0-11.0","615e41558dc8efdab16afe00","6213cdc00ae70f1648b40c9d","","","","","","",""
"3229","key"," "," ","16.660608247422697","500","250","psychophysics","12","57265","0.0-12.0","615e41558dc8efdab16afe00","6213cdc00ae70f1648b40c9d","","","","","","",""
"1429","key"," "," ","16.660882352941126","500","250","psychophysics","13","58700","0.0-13.0","615e41558dc8efdab16afe00","6213cdc00ae70f1648b40c9d","","","","","","",""
"3613","key"," "," ","16.662668202764973","500","250","psychophysics","14","62338","0.0-14.0","615e41558dc8efdab16afe00","6213cdc00ae70f1648b40c9d","","","","","","",""
"2917","key"," "," ","16.66099428571424","500","250","psychophysics","15","65267","0.0-15.0","615e41558dc8efdab16afe00","6213cdc00ae70f1648b40c9d","","","","","","",""
"1476","key"," "," ","16.66090909090913","500","250","psychophysics","16","66747","0.0-16.0","615e41558dc8efdab16afe00","6213cdc00ae70f1648b40c9d","","","","","","",""
"9716","key"," "," ","16.660993127147773","500","250","psychophysics","17","76468","0.0-17.0","615e41558dc8efdab16afe00","6213cdc00ae70f1648b40c9d","1","0","30","32","","",""
"8093","key"," "," ","16.661172839506147","500","250","psychophysics","18","84570","0.0-18.0","615e41558dc8efdab16afe00","6213cdc00ae70f1648b40c9d","1","5","24","28","","",""
"11954","key"," "," ","16.66094553072625","500","250","psychophysics","19","96530","0.0-19.0","615e41558dc8efdab16afe00","6213cdc00ae70f1648b40c9d","1","0","51","55","","",""
"10999","key"," "," ","16.660978787878808","500","250","psychophysics","20","107538","0.0-20.0","615e41558dc8efdab16afe00","6213cdc00ae70f1648b40c9d","1","5","33","36","","",""
"9081","key"," "," ","16.66141651376146","500","250","psychophysics","21","116627","0.0-21.0","615e41558dc8efdab16afe00","6213cdc00ae70f1648b40c9d","1","0","37","43","","",""
"7544","key"," "," ","16.660825221238937","500","250","psychophysics","22","124177","0.0-22.0","615e41558dc8efdab16afe00","6213cdc00ae70f1648b40c9d","1","5","35","38","","",""
"7407","key"," "," ","16.661207207207177","500","250","psychophysics","23","131589","0.0-23.0","615e41558dc8efdab16afe00","6213cdc00ae70f1648b40c9d","1","0","26","32","","",""
"10163","key"," "," ","16.660922824302148","500","250","psychophysics","24","141756","0.0-24.0","615e41558dc8efdab16afe00","6213cdc00ae70f1648b40c9d","1","5","45","48","","",""
"7298","key"," "," ","16.737834482758583","500","250","psychophysics","25","149060","0.0-25.0","615e41558dc8efdab16afe00","6213cdc00ae70f1648b40c9d","1","0","36","40","","",""
"5922","key"," "," ","16.661498591549282","500","250","psychophysics","26","154988","0.0-26.0","615e41558dc8efdab16afe00","6213cdc00ae70f1648b40c9d","1","5","58","64","","",""
"7969","key"," "," ","16.695872117400445","500","250","psychophysics","27","162968","0.0-27.0","615e41558dc8efdab16afe00","6213cdc00ae70f1648b40c9d","1","0","50","58","","",""
"13810","key"," "," ","16.66088526570047","500","250","psychophysics","28","176782","0.0-28.0","615e41558dc8efdab16afe00","6213cdc00ae70f1648b40c9d","1","5","43","46","","",""
"6311","key"," "," ","16.70524603174599","500","250","psychophysics","29","183103","0.0-29.0","615e41558dc8efdab16afe00","6213cdc00ae70f1648b40c9d","1","0","39","41","","",""
"14059","key"," "," ","16.661322657176743","500","250","psychophysics","30","197167","0.0-30.0","615e41558dc8efdab16afe00","6213cdc00ae70f1648b40c9d","1","5","49","56","","",""
"8457","key"," "," ","16.660382642998055","500","250","psychophysics","31","205629","0.0-31.0","615e41558dc8efdab16afe00","6213cdc00ae70f1648b40c9d","1","0","58","63","","",""
"21150","key"," "," ","16.66105047318612","500","250","psychophysics","32","226784","0.0-32.0","615e41558dc8efdab16afe00","6213cdc00ae70f1648b40c9d","1","5","59","61","","",""
"6890","key"," "," ","16.661055690072647","500","250","psychophysics","33","233682","0.0-33.0","615e41558dc8efdab16afe00","6213cdc00ae70f1648b40c9d","1","0","34","34","","",""
"6181","key"," "," ","16.66211051212941","500","250","psychophysics","34","239871","0.0-34.0","615e41558dc8efdab16afe00","6213cdc00ae70f1648b40c9d","1","5","21","26","","",""
"5333","key"," "," ","16.662188087774332","500","250","psychophysics","35","245211","0.0-35.0","615e41558dc8efdab16afe00","6213cdc00ae70f1648b40c9d","1","0","34","40","","",""
"8026","key"," "," ","16.66108298755191","500","250","psychophysics","36","253246","0.0-36.0","615e41558dc8efdab16afe00","6213cdc00ae70f1648b40c9d","1","5","45","50","","",""
"3049","key"," "," ","16.660098901098777","500","250","psychophysics","37","256301","0.0-37.0","615e41558dc8efdab16afe00","6213cdc00ae70f1648b40c9d","","","","","","",""
"6456","key"," "," ","16.661997416020746","500","250","psychophysics","38","262760","0.0-38.0","615e41558dc8efdab16afe00","6213cdc00ae70f1648b40c9d","","","","","","",""
"1631","key"," "," ","16.65721649484536","500","250","psychophysics","39","264397","0.0-39.0","615e41558dc8efdab16afe00","6213cdc00ae70f1648b40c9d","","","","","","",""
"4758","key"," "," ","16.661796491227946","500","250","psychophysics","40","269160","0.0-40.0","615e41558dc8efdab16afe00","6213cdc00ae70f1648b40c9d","2","0","22","28","","",""
"6389","key"," "," ","16.661422976501335","500","250","psychophysics","41","275555","0.0-41.0","615e41558dc8efdab16afe00","6213cdc00ae70f1648b40c9d","","","","","","",""
"6814","key"," "," ","16.661990196078442","500","250","psychophysics","42","282374","0.0-42.0","615e41558dc8efdab16afe00","6213cdc00ae70f1648b40c9d","2","0","37","41","","",""
"5622","key"," "," ","16.65980415430265","500","250","psychophysics","43","288001","0.0-43.0","615e41558dc8efdab16afe00","6213cdc00ae70f1648b40c9d","","","","","","",""
"6359","key"," "," ","16.660999999999888","500","250","psychophysics","44","294366","0.0-44.0","615e41558dc8efdab16afe00","6213cdc00ae70f1648b40c9d","2","0","57","61","","",""
"2085","key"," "," ","16.660443548387246","500","250","psychophysics","45","296456","0.0-45.0","615e41558dc8efdab16afe00","6213cdc00ae70f1648b40c9d","","","","","","",""
"6846","key"," "," ","16.661807317073208","500","250","psychophysics","46","303306","0.0-46.0","615e41558dc8efdab16afe00","6213cdc00ae70f1648b40c9d","2","0","42","46","","",""
"3706","key"," "," ","16.661752252252185","500","250","psychophysics","47","307020","0.0-47.0","615e41558dc8efdab16afe00","6213cdc00ae70f1648b40c9d","","","","","","",""
"13422","key"," "," ","16.661121739130483","500","250","psychophysics","48","320449","0.0-48.0","615e41558dc8efdab16afe00","6213cdc00ae70f1648b40c9d","2","0","50","47","","",""
"3677","key"," "," ","16.660454545454492","500","250","psychophysics","49","324136","0.0-49.0","615e41558dc8efdab16afe00","6213cdc00ae70f1648b40c9d","","","","","","",""
"5281","key"," "," ","16.661037854889585","500","250","psychophysics","50","329425","0.0-50.0","615e41558dc8efdab16afe00","6213cdc00ae70f1648b40c9d","2","0","28","29","","",""
"3813","key"," "," ","16.659359649122692","500","250","psychophysics","51","333243","0.0-51.0","615e41558dc8efdab16afe00","6213cdc00ae70f1648b40c9d","","","","","","",""
"4470","key"," "," ","16.660985074626975","500","250","psychophysics","52","337717","0.0-52.0","615e41558dc8efdab16afe00","6213cdc00ae70f1648b40c9d","2","0","31","35","","",""
"3838","key"," "," ","16.6632096069869","500","250","psychophysics","53","341560","0.0-53.0","615e41558dc8efdab16afe00","6213cdc00ae70f1648b40c9d","","","","","","",""
"5995","key"," "," ","16.661772222222094","500","250","psychophysics","54","347564","0.0-54.0","615e41558dc8efdab16afe00","6213cdc00ae70f1648b40c9d","2","0","53","59","","",""
"2070","key"," "," ","16.659495934959487","500","250","psychophysics","55","349639","0.0-55.0","615e41558dc8efdab16afe00","6213cdc00ae70f1648b40c9d","","","","","","",""
"4122","key"," "," ","16.660919028339976","500","250","psychophysics","56","353771","0.0-56.0","615e41558dc8efdab16afe00","6213cdc00ae70f1648b40c9d","2","0","39","41","","",""
"1959","key"," "," ","16.664051282050934","500","250","psychophysics","57","355737","0.0-57.0","615e41558dc8efdab16afe00","6213cdc00ae70f1648b40c9d","","","","","","",""
"8468","key"," "," ","16.661856299212594","500","250","psychophysics","58","364210","0.0-58.0","615e41558dc8efdab16afe00","6213cdc00ae70f1648b40c9d","2","0","45","47","","",""
"2990","key"," "," ","16.660185393258626","500","250","psychophysics","59","367205","0.0-59.0","615e41558dc8efdab16afe00","6213cdc00ae70f1648b40c9d","","","","","","",""
"4894","key"," "," ","16.662438775510346","500","250","psychophysics","60","372107","0.0-60.0","615e41558dc8efdab16afe00","6213cdc00ae70f1648b40c9d","2","0","26","28","","",""
"1543","key"," "," ","16.663543478261207","500","250","psychophysics","61","373655","0.0-61.0","615e41558dc8efdab16afe00","6213cdc00ae70f1648b40c9d","","","","","","",""
"4343","key"," "," ","16.660607692307586","500","250","psychophysics","62","378003","0.0-62.0","615e41558dc8efdab16afe00","6213cdc00ae70f1648b40c9d","2","0","34","35","","",""
"1442","key"," "," ","16.662211764705887","500","250","psychophysics","63","379451","0.0-63.0","615e41558dc8efdab16afe00","6213cdc00ae70f1648b40c9d","","","","","","",""
"4264","key"," "," ","16.661339843750056","500","250","psychophysics","64","383722","0.0-64.0","615e41558dc8efdab16afe00","6213cdc00ae70f1648b40c9d","2","0","35","33","","",""
"1059","key"," "," ","16.660761904762317","500","250","psychophysics","65","384786","0.0-65.0","615e41558dc8efdab16afe00","6213cdc00ae70f1648b40c9d","","","","","","",""
"5443","key"," "," ","16.661226993865025","500","250","psychophysics","66","390233","0.0-66.0","615e41558dc8efdab16afe00","6213cdc00ae70f1648b40c9d","2","0","30","31","","",""
"1266","key"," "," ","16.660893333333078","500","250","psychophysics","67","391505","0.0-67.0","615e41558dc8efdab16afe00","6213cdc00ae70f1648b40c9d","","","","","","",""
"7860","key"," "," ","16.66124840764326","500","250","psychophysics","68","399370","0.0-68.0","615e41558dc8efdab16afe00","6213cdc00ae70f1648b40c9d","2","0","43","44","","",""
"1196","key"," "," ","16.66039436619686","500","250","psychophysics","69","400570","0.0-69.0","615e41558dc8efdab16afe00","6213cdc00ae70f1648b40c9d","","","","","","",""
"2389","key"," "," ","16.661006993006822","500","250","psychophysics","70","402964","0.0-70.0","615e41558dc8efdab16afe00","6213cdc00ae70f1648b40c9d","","","","","","",""
"1701","key"," "," ","16.665509803921406","500","250","psychophysics","71","404689","0.0-71.0","615e41558dc8efdab16afe00","6213cdc00ae70f1648b40c9d","","","","","","",""
"10984","key"," "," ","16.661259484066797","500","250","psychophysics","72","415684","0.0-72.0","615e41558dc8efdab16afe00","6213cdc00ae70f1648b40c9d","3","5","42","47","","",""
"7291","key"," "," ","16.660983981693445","500","250","psychophysics","73","422984","0.0-73.0","615e41558dc8efdab16afe00","6213cdc00ae70f1648b40c9d","3","0","38","42","","",""
"5329","key"," "," ","16.66114687500012","500","250","psychophysics","74","428322","0.0-74.0","615e41558dc8efdab16afe00","6213cdc00ae70f1648b40c9d","3","5","26","31","","",""
"6158","key"," "," ","16.66048238482383","500","250","psychophysics","75","434485","0.0-75.0","615e41558dc8efdab16afe00","6213cdc00ae70f1648b40c9d","3","0","45","47","","",""
"7439","key"," "," ","16.660853932584175","500","250","psychophysics","76","441930","0.0-76.0","615e41558dc8efdab16afe00","6213cdc00ae70f1648b40c9d","3","5","39","43","","",""
"3686","key"," "," ","16.661049773755675","500","250","psychophysics","77","445623","0.0-77.0","615e41558dc8efdab16afe00","6213cdc00ae70f1648b40c9d","3","0","23","26","","",""
"6370","key"," "," ","16.661795811518278","500","250","psychophysics","78","451999","0.0-78.0","615e41558dc8efdab16afe00","6213cdc00ae70f1648b40c9d","3","5","33","37","","",""
"9973","key"," "," ","16.66078762541808","500","250","psychophysics","79","461976","0.0-79.0","615e41558dc8efdab16afe00","6213cdc00ae70f1648b40c9d","3","0","56","60","","",""
"7815","key"," "," ","16.661019230769146","500","250","psychophysics","80","469794","0.0-80.0","615e41558dc8efdab16afe00","6213cdc00ae70f1648b40c9d","3","5","58","65","","",""
"3957","key"," "," ","16.660801687763655","500","250","psychophysics","81","473754","0.0-81.0","615e41558dc8efdab16afe00","6213cdc00ae70f1648b40c9d","3","0","37","39","","",""
"4552","key"," "," ","16.660860294117704","500","250","psychophysics","82","478309","0.0-82.0","615e41558dc8efdab16afe00","6213cdc00ae70f1648b40c9d","3","5","37","38","","",""
"4958","key"," "," ","16.66095286195291","500","250","psychophysics","83","483269","0.0-83.0","615e41558dc8efdab16afe00","6213cdc00ae70f1648b40c9d","3","0","58","63","","",""
"5788","key"," "," ","16.660959537572367","500","250","psychophysics","84","489059","0.0-84.0","615e41558dc8efdab16afe00","6213cdc00ae70f1648b40c9d","3","5","27","31","","",""
"5578","key"," "," ","16.661979041916066","500","250","psychophysics","85","494639","0.0-85.0","615e41558dc8efdab16afe00","6213cdc00ae70f1648b40c9d","3","0","56","54","","",""
"5519","key"," "," ","16.66049546827798","500","250","psychophysics","86","500162","0.0-86.0","615e41558dc8efdab16afe00","6213cdc00ae70f1648b40c9d","3","5","59","65","","",""
"5637","key"," "," ","16.660884272997013","500","250","psychophysics","87","505805","0.0-87.0","615e41558dc8efdab16afe00","6213cdc00ae70f1648b40c9d","3","0","39","42","","",""
"4000","key"," "," ","16.66103333333352","500","250","psychophysics","88","509812","0.0-88.0","615e41558dc8efdab16afe00","6213cdc00ae70f1648b40c9d","3","5","25","28","","",""
"2901","key"," "," ","16.660953757225272","500","250","psychophysics","89","512717","0.0-89.0","615e41558dc8efdab16afe00","6213cdc00ae70f1648b40c9d","3","0","29","31","","",""
"5334","key"," "," ","16.661946875000105","500","250","psychophysics","90","518057","0.0-90.0","615e41558dc8efdab16afe00","6213cdc00ae70f1648b40c9d","3","5","29","36","","",""
"6292","key"," "," ","16.660989389920346","500","250","psychophysics","91","524354","0.0-91.0","615e41558dc8efdab16afe00","6213cdc00ae70f1648b40c9d","3","0","43","46","","",""
"1462","key"," "," ","16.66237931034458","500","250","psychophysics","92","525821","0.0-92.0","615e41558dc8efdab16afe00","6213cdc00ae70f1648b40c9d","","","","","","",""
"25986","","","v","","","","html-keyboard-response","93","551809","0.0-93.0","615e41558dc8efdab16afe00","6213cdc00ae70f1648b40c9d","","","","","<p> In this part of the experiment, we are going present digits 1, 2, 3, 4, 6, 7, 8, and 9.  Notice that 5 is missing.  Your job is to say whether the presented digit is less than or greater than 5.  For example, 3 is less than 5 and 7 is greater than 5.  If the digit is less than 5, press the v key; if it is greater than 5, press the n key. We are going to do 200 of these in total, but only 50 righ now. They go real fast.</p>  <br><br>  Ready? (press v or n)","",""
"2406","key","v","v","16.67189655172446","500","250","psychophysics","94","554233","0.0-94.0","615e41558dc8efdab16afe00","6213cdc00ae70f1648b40c9d","4","","","","","1","3"
"null","","","null","","","","html-keyboard-response","95","554735","0.0-95.0","615e41558dc8efdab16afe00","6213cdc00ae70f1648b40c9d","","","","","<p style=""color:darkgreen;font-size:24px;"">Correct :)</p>","",""
"2400","key","v","v","16.66448611111102","500","250","psychophysics","96","557140","0.0-96.0","615e41558dc8efdab16afe00","6213cdc00ae70f1648b40c9d","4","","","","","1","3"
"null","","","null","","","","html-keyboard-response","97","557643","0.0-97.0","615e41558dc8efdab16afe00","6213cdc00ae70f1648b40c9d","","","","","<p style=""color:darkgreen;font-size:24px;"">Correct :)</p>","",""
"2374","key","n","n","16.661866197183","500","250","psychophysics","98","560022","0.0-98.0","615e41558dc8efdab16afe00","6213cdc00ae70f1648b40c9d","4","","","","","1","6"
"null","","","null","","","","html-keyboard-response","99","560524","0.0-99.0","615e41558dc8efdab16afe00","6213cdc00ae70f1648b40c9d","","","","","<p style=""color:darkgreen;font-size:24px;"">Correct :)</p>","",""
"2374","key","v","v","16.659986013986195","500","250","psychophysics","100","562917","0.0-100.0","615e41558dc8efdab16afe00","6213cdc00ae70f1648b40c9d","4","","","","","1","1"
"null","","","null","","","","html-keyboard-response","101","563421","0.0-101.0","615e41558dc8efdab16afe00","6213cdc00ae70f1648b40c9d","","","","","<p style=""color:darkgreen;font-size:24px;"">Correct :)</p>","",""
"2366","key","n","n","16.659908450703778","500","250","psychophysics","102","565793","0.0-102.0","615e41558dc8efdab16afe00","6213cdc00ae70f1648b40c9d","4","","","","","1","7"
"null","","","null","","","","html-keyboard-response","103","566296","0.0-103.0","615e41558dc8efdab16afe00","6213cdc00ae70f1648b40c9d","","","","","<p style=""color:darkgreen;font-size:24px;"">Correct :)</p>","",""
"2358","key","n","n","16.65998591549291","500","250","psychophysics","104","568659","0.0-104.0","615e41558dc8efdab16afe00","6213cdc00ae70f1648b40c9d","4","","","","","1","8"
"null","","","null","","","","html-keyboard-response","105","569161","0.0-105.0","615e41558dc8efdab16afe00","6213cdc00ae70f1648b40c9d","","","","","<p style=""color:darkgreen;font-size:24px;"">Correct :)</p>","",""
"2714","key","v","v","16.66165644171765","500","250","psychophysics","106","571881","0.0-106.0","615e41558dc8efdab16afe00","6213cdc00ae70f1648b40c9d","4","","","","","1","4"
"null","","","null","","","","html-keyboard-response","107","572384","0.0-107.0","615e41558dc8efdab16afe00","6213cdc00ae70f1648b40c9d","","","","","<p style=""color:darkgreen;font-size:24px;"">Correct :)</p>","",""
"2491","key","v","v","16.65875167785222","500","250","psychophysics","108","574881","0.0-108.0","615e41558dc8efdab16afe00","6213cdc00ae70f1648b40c9d","4","","","","","1","3"
"null","","","null","","","","html-keyboard-response","109","575384","0.0-109.0","615e41558dc8efdab16afe00","6213cdc00ae70f1648b40c9d","","","","","<p style=""color:darkgreen;font-size:24px;"">Correct :)</p>","",""
"2429","key","v","v","16.65988356164379","500","250","psychophysics","110","577819","0.0-110.0","615e41558dc8efdab16afe00","6213cdc00ae70f1648b40c9d","4","","","","","1","3"
"null","","","null","","","","html-keyboard-response","111","578333","0.0-111.0","615e41558dc8efdab16afe00","6213cdc00ae70f1648b40c9d","","","","","<p style=""color:darkgreen;font-size:24px;"">Correct :)</p>","",""
"2448","key","n","n","16.661857142857574","500","250","psychophysics","112","580787","0.0-112.0","615e41558dc8efdab16afe00","6213cdc00ae70f1648b40c9d","4","","","","","1","8"
"null","","","null","","","","html-keyboard-response","113","581289","0.0-113.0","615e41558dc8efdab16afe00","6213cdc00ae70f1648b40c9d","","","","","<p style=""color:darkgreen;font-size:24px;"">Correct :)</p>","",""
"2422","key","n","n","16.66143835616483","500","250","psychophysics","114","583717","0.0-114.0","615e41558dc8efdab16afe00","6213cdc00ae70f1648b40c9d","4","","","","","1","8"
"null","","","null","","","","html-keyboard-response","115","584220","0.0-115.0","615e41558dc8efdab16afe00","6213cdc00ae70f1648b40c9d","","","","","<p style=""color:darkgreen;font-size:24px;"">Correct :)</p>","",""
"2452","key","n","n","16.66299319727866","500","250","psychophysics","116","586677","0.0-116.0","615e41558dc8efdab16afe00","6213cdc00ae70f1648b40c9d","4","","","","","1","7"
"null","","","null","","","","html-keyboard-response","117","587182","0.0-117.0","615e41558dc8efdab16afe00","6213cdc00ae70f1648b40c9d","","","","","<p style=""color:darkgreen;font-size:24px;"">Correct :)</p>","",""
"2431","key","v","v","16.66173469387771","500","250","psychophysics","118","589631","0.0-118.0","615e41558dc8efdab16afe00","6213cdc00ae70f1648b40c9d","4","","","","","1","2"
"null","","","null","","","","html-keyboard-response","119","590134","0.0-119.0","615e41558dc8efdab16afe00","6213cdc00ae70f1648b40c9d","","","","","<p style=""color:darkgreen;font-size:24px;"">Correct :)</p>","",""
"2450","key","n","n","16.660367346938926","500","250","psychophysics","120","592589","0.0-120.0","615e41558dc8efdab16afe00","6213cdc00ae70f1648b40c9d","4","","","","","1","7"
"null","","","null","","","","html-keyboard-response","121","593092","0.0-121.0","615e41558dc8efdab16afe00","6213cdc00ae70f1648b40c9d","","","","","<p style=""color:darkgreen;font-size:24px;"">Correct :)</p>","",""
"2444","key","v","v","16.65921088435361","500","250","psychophysics","122","595543","0.0-122.0","615e41558dc8efdab16afe00","6213cdc00ae70f1648b40c9d","4","","","","","1","1"
"null","","","null","","","","html-keyboard-response","123","596046","0.0-123.0","615e41558dc8efdab16afe00","6213cdc00ae70f1648b40c9d","","","","","<p style=""color:darkgreen;font-size:24px;"">Correct :)</p>","",""
"2381","key","n","n","16.663636363636527","500","250","psychophysics","124","598432","0.0-124.0","615e41558dc8efdab16afe00","6213cdc00ae70f1648b40c9d","4","","","","","1","9"
"null","","","null","","","","html-keyboard-response","125","598934","0.0-125.0","615e41558dc8efdab16afe00","6213cdc00ae70f1648b40c9d","","","","","<p style=""color:darkgreen;font-size:24px;"">Correct :)</p>","",""
"2399","key","n","n","16.663291666666435","500","250","psychophysics","126","601338","0.0-126.0","615e41558dc8efdab16afe00","6213cdc00ae70f1648b40c9d","4","","","","","1","6"
"null","","","null","","","","html-keyboard-response","127","601840","0.0-127.0","615e41558dc8efdab16afe00","6213cdc00ae70f1648b40c9d","","","","","<p style=""color:darkgreen;font-size:24px;"">Correct :)</p>","",""
"2443","key","v","v","16.775315068493125","500","250","psychophysics","128","604289","0.0-128.0","615e41558dc8efdab16afe00","6213cdc00ae70f1648b40c9d","4","","","","","1","1"
"null","","","null","","","","html-keyboard-response","129","604792","0.0-129.0","615e41558dc8efdab16afe00","6213cdc00ae70f1648b40c9d","","","","","<p style=""color:darkgreen;font-size:24px;"">Correct :)</p>","",""
"2471","key","n","n","16.662668918918605","500","250","psychophysics","130","607269","0.0-130.0","615e41558dc8efdab16afe00","6213cdc00ae70f1648b40c9d","4","","","","","1","4"
"null","","","null","","","","html-keyboard-response","131","607771","0.0-131.0","615e41558dc8efdab16afe00","6213cdc00ae70f1648b40c9d","","","","","<p style=""color:red;font-size:24px;"">Error :(</p>","",""
"2469","key","v","v","16.77283783783787","500","250","psychophysics","132","610246","0.0-132.0","615e41558dc8efdab16afe00","6213cdc00ae70f1648b40c9d","4","","","","","1","1"
"null","","","null","","","","html-keyboard-response","133","610749","0.0-133.0","615e41558dc8efdab16afe00","6213cdc00ae70f1648b40c9d","","","","","<p style=""color:darkgreen;font-size:24px;"">Correct :)</p>","",""
"2520","key","v","v","16.662460526315908","500","250","psychophysics","134","613274","0.0-134.0","615e41558dc8efdab16afe00","6213cdc00ae70f1648b40c9d","4","","","","","1","4"
"null","","","null","","","","html-keyboard-response","135","613784","0.0-135.0","615e41558dc8efdab16afe00","6213cdc00ae70f1648b40c9d","","","","","<p style=""color:darkgreen;font-size:24px;"">Correct :)</p>","",""
"2460","key","v","v","16.661331081080938","500","250","psychophysics","136","616250","0.0-136.0","615e41558dc8efdab16afe00","6213cdc00ae70f1648b40c9d","4","","","","","1","3"
"null","","","null","","","","html-keyboard-response","137","616760","0.0-137.0","615e41558dc8efdab16afe00","6213cdc00ae70f1648b40c9d","","","","","<p style=""color:darkgreen;font-size:24px;"">Correct :)</p>","",""
"2753","key","v","v","16.658618181818305","500","250","psychophysics","138","619518","0.0-138.0","615e41558dc8efdab16afe00","6213cdc00ae70f1648b40c9d","4","","","","","1","1"
"null","","","null","","","","html-keyboard-response","139","620027","0.0-139.0","615e41558dc8efdab16afe00","6213cdc00ae70f1648b40c9d","","","","","<p style=""color:darkgreen;font-size:24px;"">Correct :)</p>","",""
"2534","key","v","v","16.663111842104914","500","250","psychophysics","140","622567","0.0-140.0","615e41558dc8efdab16afe00","6213cdc00ae70f1648b40c9d","4","","","","","1","3"
"null","","","null","","","","html-keyboard-response","141","623070","0.0-141.0","615e41558dc8efdab16afe00","6213cdc00ae70f1648b40c9d","","","","","<p style=""color:darkgreen;font-size:24px;"">Correct :)</p>","",""
"2452","key","n","n","16.660442176870493","500","250","psychophysics","142","625528","0.0-142.0","615e41558dc8efdab16afe00","6213cdc00ae70f1648b40c9d","4","","","","","1","6"
"null","","","null","","","","html-keyboard-response","143","626030","0.0-143.0","615e41558dc8efdab16afe00","6213cdc00ae70f1648b40c9d","","","","","<p style=""color:darkgreen;font-size:24px;"">Correct :)</p>","",""
"2454","key","n","n","16.6637905405408","500","250","psychophysics","144","628491","0.0-144.0","615e41558dc8efdab16afe00","6213cdc00ae70f1648b40c9d","4","","","","","1","7"
"null","","","null","","","","html-keyboard-response","145","628993","0.0-145.0","615e41558dc8efdab16afe00","6213cdc00ae70f1648b40c9d","","","","","<p style=""color:darkgreen;font-size:24px;"">Correct :)</p>","",""
"2423","key","n","n","16.659849315068417","500","250","psychophysics","146","631422","0.0-146.0","615e41558dc8efdab16afe00","6213cdc00ae70f1648b40c9d","4","","","","","1","8"
"null","","","null","","","","html-keyboard-response","147","631924","0.0-147.0","615e41558dc8efdab16afe00","6213cdc00ae70f1648b40c9d","","","","","<p style=""color:darkgreen;font-size:24px;"">Correct :)</p>","",""
"2439","key","v","v","16.659142857142662","500","250","psychophysics","148","634369","0.0-148.0","615e41558dc8efdab16afe00","6213cdc00ae70f1648b40c9d","4","","","","","1","1"
"null","","","null","","","","html-keyboard-response","149","634872","0.0-149.0","615e41558dc8efdab16afe00","6213cdc00ae70f1648b40c9d","","","","","<p style=""color:darkgreen;font-size:24px;"">Correct :)</p>","",""
"2378","key","v","v","16.660265734266176","500","250","psychophysics","150","637255","0.0-150.0","615e41558dc8efdab16afe00","6213cdc00ae70f1648b40c9d","4","","","","","1","7"
"null","","","null","","","","html-keyboard-response","151","637758","0.0-151.0","615e41558dc8efdab16afe00","6213cdc00ae70f1648b40c9d","","","","","<p style=""color:red;font-size:24px;"">Error :(</p>","",""
"2414","key","n","n","16.66124827586243","500","250","psychophysics","152","640178","0.0-152.0","615e41558dc8efdab16afe00","6213cdc00ae70f1648b40c9d","4","","","","","1","8"
"null","","","null","","","","html-keyboard-response","153","640679","0.0-153.0","615e41558dc8efdab16afe00","6213cdc00ae70f1648b40c9d","","","","","<p style=""color:darkgreen;font-size:24px;"">Correct :)</p>","",""
"2420","key","v","v","16.66319999999993","500","250","psychophysics","154","643105","0.0-154.0","615e41558dc8efdab16afe00","6213cdc00ae70f1648b40c9d","4","","","","","1","4"
"null","","","null","","","","html-keyboard-response","155","643607","0.0-155.0","615e41558dc8efdab16afe00","6213cdc00ae70f1648b40c9d","","","","","<p style=""color:darkgreen;font-size:24px;"">Correct :)</p>","",""
"2472","key","v","v","16.658791946308945","500","250","psychophysics","156","646085","0.0-156.0","615e41558dc8efdab16afe00","6213cdc00ae70f1648b40c9d","4","","","","","1","2"
"null","","","null","","","","html-keyboard-response","157","646588","0.0-157.0","615e41558dc8efdab16afe00","6213cdc00ae70f1648b40c9d","","","","","<p style=""color:darkgreen;font-size:24px;"">Correct :)</p>","",""
"2600","key","v","v","16.661127388535164","500","250","psychophysics","158","649194","0.0-158.0","615e41558dc8efdab16afe00","6213cdc00ae70f1648b40c9d","4","","","","","1","4"
"null","","","null","","","","html-keyboard-response","159","649697","0.0-159.0","615e41558dc8efdab16afe00","6213cdc00ae70f1648b40c9d","","","","","<p style=""color:darkgreen;font-size:24px;"">Correct :)</p>","",""
"2661","key","n","n","16.662720496894252","500","250","psychophysics","160","652377","0.0-160.0","615e41558dc8efdab16afe00","6213cdc00ae70f1648b40c9d","4","","","","","1","7"
"null","","","null","","","","html-keyboard-response","161","652884","0.0-161.0","615e41558dc8efdab16afe00","6213cdc00ae70f1648b40c9d","","","","","<p style=""color:darkgreen;font-size:24px;"">Correct :)</p>","",""
"2436","key","n","n","16.664013605442083","500","250","psychophysics","162","655327","0.0-162.0","615e41558dc8efdab16afe00","6213cdc00ae70f1648b40c9d","4","","","","","1","8"
"null","","","null","","","","html-keyboard-response","163","655843","0.0-163.0","615e41558dc8efdab16afe00","6213cdc00ae70f1648b40c9d","","","","","<p style=""color:darkgreen;font-size:24px;"">Correct :)</p>","",""
"2450","key","v","v","16.660884353741654","500","250","psychophysics","164","658300","0.0-164.0","615e41558dc8efdab16afe00","6213cdc00ae70f1648b40c9d","4","","","","","1","3"
"null","","","null","","","","html-keyboard-response","165","658802","0.0-165.0","615e41558dc8efdab16afe00","6213cdc00ae70f1648b40c9d","","","","","<p style=""color:darkgreen;font-size:24px;"">Correct :)</p>","",""
"2462","key","v","v","16.663608108108352","500","250","psychophysics","166","661271","0.0-166.0","615e41558dc8efdab16afe00","6213cdc00ae70f1648b40c9d","4","","","","","1","1"
"null","","","null","","","","html-keyboard-response","167","661775","0.0-167.0","615e41558dc8efdab16afe00","6213cdc00ae70f1648b40c9d","","","","","<p style=""color:darkgreen;font-size:24px;"">Correct :)</p>","",""
"2448","key","v","v","16.661034013605583","500","250","psychophysics","168","664229","0.0-168.0","615e41558dc8efdab16afe00","6213cdc00ae70f1648b40c9d","4","","","","","1","3"
"null","","","null","","","","html-keyboard-response","169","664743","0.0-169.0","615e41558dc8efdab16afe00","6213cdc00ae70f1648b40c9d","","","","","<p style=""color:darkgreen;font-size:24px;"">Correct :)</p>","",""
"2481","key","n","n","16.662120805368854","500","250","psychophysics","170","667228","0.0-170.0","615e41558dc8efdab16afe00","6213cdc00ae70f1648b40c9d","4","","","","","1","7"
"null","","","null","","","","html-keyboard-response","171","667731","0.0-171.0","615e41558dc8efdab16afe00","6213cdc00ae70f1648b40c9d","","","","","<p style=""color:darkgreen;font-size:24px;"">Correct :)</p>","",""
"2380","key","v","v","16.662811188811233","500","250","psychophysics","172","670117","0.0-172.0","615e41558dc8efdab16afe00","6213cdc00ae70f1648b40c9d","4","","","","","1","1"
"null","","","null","","","","html-keyboard-response","173","670620","0.0-173.0","615e41558dc8efdab16afe00","6213cdc00ae70f1648b40c9d","","","","","<p style=""color:darkgreen;font-size:24px;"">Correct :)</p>","",""
"2440","key","v","v","16.662931506849716","500","250","psychophysics","174","673065","0.0-174.0","615e41558dc8efdab16afe00","6213cdc00ae70f1648b40c9d","4","","","","","1","2"
"null","","","null","","","","html-keyboard-response","175","673567","0.0-175.0","615e41558dc8efdab16afe00","6213cdc00ae70f1648b40c9d","","","","","<p style=""color:darkgreen;font-size:24px;"">Correct :)</p>","",""
"2453","key","v","v","16.663945578231136","500","250","psychophysics","176","676026","0.0-176.0","615e41558dc8efdab16afe00","6213cdc00ae70f1648b40c9d","4","","","","","1","2"
"null","","","null","","","","html-keyboard-response","177","676543","0.0-177.0","615e41558dc8efdab16afe00","6213cdc00ae70f1648b40c9d","","","","","<p style=""color:darkgreen;font-size:24px;"">Correct :)</p>","",""
"2398","key","n","n","16.65886896551699","500","250","psychophysics","178","678959","0.0-178.0","615e41558dc8efdab16afe00","6213cdc00ae70f1648b40c9d","4","","","","","1","8"
"null","","","null","","","","html-keyboard-response","179","679462","0.0-179.0","615e41558dc8efdab16afe00","6213cdc00ae70f1648b40c9d","","","","","<p style=""color:darkgreen;font-size:24px;"">Correct :)</p>","",""
"2442","key","n","n","16.65895918367326","500","250","psychophysics","180","681910","0.0-180.0","615e41558dc8efdab16afe00","6213cdc00ae70f1648b40c9d","4","","","","","1","6"
"null","","","null","","","","html-keyboard-response","181","682412","0.0-181.0","615e41558dc8efdab16afe00","6213cdc00ae70f1648b40c9d","","","","","<p style=""color:darkgreen;font-size:24px;"">Correct :)</p>","",""
"2386","key","n","n","16.77574825174846","500","250","psychophysics","182","684804","0.0-182.0","615e41558dc8efdab16afe00","6213cdc00ae70f1648b40c9d","4","","","","","1","7"
"null","","","null","","","","html-keyboard-response","183","685306","0.0-183.0","615e41558dc8efdab16afe00","6213cdc00ae70f1648b40c9d","","","","","<p style=""color:darkgreen;font-size:24px;"">Correct :)</p>","",""
"2424","key","v","v","16.658109589040514","500","250","psychophysics","184","687736","0.0-184.0","615e41558dc8efdab16afe00","6213cdc00ae70f1648b40c9d","4","","","","","1","2"
"null","","","null","","","","html-keyboard-response","185","688245","0.0-185.0","615e41558dc8efdab16afe00","6213cdc00ae70f1648b40c9d","","","","","<p style=""color:darkgreen;font-size:24px;"">Correct :)</p>","",""
"2409","key","v","v","16.664041666666485","500","250","psychophysics","186","690660","0.0-186.0","615e41558dc8efdab16afe00","6213cdc00ae70f1648b40c9d","4","","","","","1","3"
"null","","","null","","","","html-keyboard-response","187","691161","0.0-187.0","615e41558dc8efdab16afe00","6213cdc00ae70f1648b40c9d","","","","","<p style=""color:darkgreen;font-size:24px;"">Correct :)</p>","",""
"2433","key","v","v","16.66137671232868","500","250","psychophysics","188","693606","0.0-188.0","615e41558dc8efdab16afe00","6213cdc00ae70f1648b40c9d","4","","","","","1","2"
"null","","","null","","","","html-keyboard-response","189","694123","0.0-189.0","615e41558dc8efdab16afe00","6213cdc00ae70f1648b40c9d","","","","","<p style=""color:darkgreen;font-size:24px;"">Correct :)</p>","",""
"2412","key","v","v","16.664255172414062","500","250","psychophysics","190","696542","0.0-190.0","615e41558dc8efdab16afe00","6213cdc00ae70f1648b40c9d","4","","","","","1","3"
"null","","","null","","","","html-keyboard-response","191","697046","0.0-191.0","615e41558dc8efdab16afe00","6213cdc00ae70f1648b40c9d","","","","","<p style=""color:darkgreen;font-size:24px;"">Correct :)</p>","",""
"2458","key","n","n","16.661108108108387","500","250","psychophysics","192","699510","0.0-192.0","615e41558dc8efdab16afe00","6213cdc00ae70f1648b40c9d","4","","","","","1","4"
"null","","","null","","","","html-keyboard-response","193","700013","0.0-193.0","615e41558dc8efdab16afe00","6213cdc00ae70f1648b40c9d","","","","","<p style=""color:red;font-size:24px;"">Error :(</p>","",""
"14147","","","n","","","","html-keyboard-response","194","714162","0.0-194.0","615e41558dc8efdab16afe00","6213cdc00ae70f1648b40c9d","","","","","<p> Ok, now we are going present the same digits as before.  Your job is to say whether the digit is even or odd  If the digit is odd, press to v key; if it is even, press the n key. We are going to do 50 of these.  </p>  <br><br>  Ready? (press v or n)","",""
"2571","key","n","n","16.66741935483916","500","250","psychophysics","195","716741","0.0-195.0","615e41558dc8efdab16afe00","6213cdc00ae70f1648b40c9d","5","","","","","0","7"
"null","","","null","","","","html-keyboard-response","196","717243","0.0-196.0","615e41558dc8efdab16afe00","6213cdc00ae70f1648b40c9d","","","","","<p style=""color:red;font-size:24px;"">Error :(</p>","",""
"2843","key","v","v","16.66205263157901","500","250","psychophysics","197","720092","0.0-197.0","615e41558dc8efdab16afe00","6213cdc00ae70f1648b40c9d","5","","","","","0","9"
"null","","","null","","","","html-keyboard-response","198","720594","0.0-198.0","615e41558dc8efdab16afe00","6213cdc00ae70f1648b40c9d","","","","","<p style=""color:darkgreen;font-size:24px;"">Correct :)</p>","",""
"2512","key","v","v","16.661552631578832","500","250","psychophysics","199","723124","0.0-199.0","615e41558dc8efdab16afe00","6213cdc00ae70f1648b40c9d","5","","","","","0","9"
"null","","","null","","","","html-keyboard-response","200","723626","0.0-200.0","615e41558dc8efdab16afe00","6213cdc00ae70f1648b40c9d","","","","","<p style=""color:darkgreen;font-size:24px;"">Correct :)</p>","",""
"2649","key","v","v","16.663754716981202","500","250","psychophysics","201","726282","0.0-201.0","615e41558dc8efdab16afe00","6213cdc00ae70f1648b40c9d","5","","","","","0","7"
"null","","","null","","","","html-keyboard-response","202","726785","0.0-202.0","615e41558dc8efdab16afe00","6213cdc00ae70f1648b40c9d","","","","","<p style=""color:darkgreen;font-size:24px;"">Correct :)</p>","",""
"2461","key","v","v","16.66253378378413","500","250","psychophysics","203","729251","0.0-203.0","615e41558dc8efdab16afe00","6213cdc00ae70f1648b40c9d","5","","","","","0","7"
"null","","","null","","","","html-keyboard-response","204","729754","0.0-204.0","615e41558dc8efdab16afe00","6213cdc00ae70f1648b40c9d","","","","","<p style=""color:darkgreen;font-size:24px;"">Correct :)</p>","",""
"2652","key","n","n","16.659496855345825","500","250","psychophysics","205","732412","0.0-205.0","615e41558dc8efdab16afe00","6213cdc00ae70f1648b40c9d","5","","","","","0","2"
"null","","","null","","","","html-keyboard-response","206","732913","0.0-206.0","615e41558dc8efdab16afe00","6213cdc00ae70f1648b40c9d","","","","","<p style=""color:darkgreen;font-size:24px;"">Correct :)</p>","",""
"2691","key","v","v","16.661173913043616","500","250","psychophysics","207","735610","0.0-207.0","615e41558dc8efdab16afe00","6213cdc00ae70f1648b40c9d","5","","","","","0","7"
"null","","","null","","","","html-keyboard-response","208","736111","0.0-208.0","615e41558dc8efdab16afe00","6213cdc00ae70f1648b40c9d","","","","","<p style=""color:darkgreen;font-size:24px;"">Correct :)</p>","",""
"2599","key","v","v","16.658653846153847","500","250","psychophysics","209","738718","0.0-209.0","615e41558dc8efdab16afe00","6213cdc00ae70f1648b40c9d","5","","","","","0","3"
"null","","","null","","","","html-keyboard-response","210","739220","0.0-210.0","615e41558dc8efdab16afe00","6213cdc00ae70f1648b40c9d","","","","","<p style=""color:darkgreen;font-size:24px;"">Correct :)</p>","",""
"2603","key","n","n","16.65935031847085","500","250","psychophysics","211","741828","0.0-211.0","615e41558dc8efdab16afe00","6213cdc00ae70f1648b40c9d","5","","","","","0","8"
"null","","","null","","","","html-keyboard-response","212","742332","0.0-212.0","615e41558dc8efdab16afe00","6213cdc00ae70f1648b40c9d","","","","","<p style=""color:darkgreen;font-size:24px;"">Correct :)</p>","",""
"2645","key","n","n","16.660062893081466","500","250","psychophysics","213","744982","0.0-213.0","615e41558dc8efdab16afe00","6213cdc00ae70f1648b40c9d","5","","","","","0","6"
"null","","","null","","","","html-keyboard-response","214","745484","0.0-214.0","615e41558dc8efdab16afe00","6213cdc00ae70f1648b40c9d","","","","","<p style=""color:darkgreen;font-size:24px;"">Correct :)</p>","",""
"2659","key","v","v","16.66105000000025","500","250","psychophysics","215","748150","0.0-215.0","615e41558dc8efdab16afe00","6213cdc00ae70f1648b40c9d","5","","","","","0","1"
"null","","","null","","","","html-keyboard-response","216","748652","0.0-216.0","615e41558dc8efdab16afe00","6213cdc00ae70f1648b40c9d","","","","","<p style=""color:darkgreen;font-size:24px;"">Correct :)</p>","",""
"2509","key","v","v","16.661172185430846","500","250","psychophysics","217","751167","0.0-217.0","615e41558dc8efdab16afe00","6213cdc00ae70f1648b40c9d","5","","","","","0","3"
"null","","","null","","","","html-keyboard-response","218","751670","0.0-218.0","615e41558dc8efdab16afe00","6213cdc00ae70f1648b40c9d","","","","","<p style=""color:darkgreen;font-size:24px;"">Correct :)</p>","",""
"2471","key","v","v","16.658993288590228","500","250","psychophysics","219","754147","0.0-219.0","615e41558dc8efdab16afe00","6213cdc00ae70f1648b40c9d","5","","","","","0","1"
"null","","","null","","","","html-keyboard-response","220","754651","0.0-220.0","615e41558dc8efdab16afe00","6213cdc00ae70f1648b40c9d","","","","","<p style=""color:darkgreen;font-size:24px;"">Correct :)</p>","",""
"2577","key","n","n","16.66065161290293","500","250","psychophysics","221","757234","0.0-221.0","615e41558dc8efdab16afe00","6213cdc00ae70f1648b40c9d","5","","","","","0","2"
"null","","","null","","","","html-keyboard-response","222","757736","0.0-222.0","615e41558dc8efdab16afe00","6213cdc00ae70f1648b40c9d","","","","","<p style=""color:darkgreen;font-size:24px;"">Correct :)</p>","",""
"2470","key","v","v","16.772358108108165","500","250","psychophysics","223","760212","0.0-223.0","615e41558dc8efdab16afe00","6213cdc00ae70f1648b40c9d","5","","","","","0","3"
"null","","","null","","","","html-keyboard-response","224","760714","0.0-224.0","615e41558dc8efdab16afe00","6213cdc00ae70f1648b40c9d","","","","","<p style=""color:darkgreen;font-size:24px;"">Correct :)</p>","",""
"2447","key","n","n","16.661371621621043","500","250","psychophysics","225","763180","0.0-225.0","615e41558dc8efdab16afe00","6213cdc00ae70f1648b40c9d","5","","","","","0","8"
"null","","","null","","","","html-keyboard-response","226","763682","0.0-226.0","615e41558dc8efdab16afe00","6213cdc00ae70f1648b40c9d","","","","","<p style=""color:darkgreen;font-size:24px;"">Correct :)</p>","",""
"2505","key","v","v","16.660880794701637","500","250","psychophysics","227","766193","0.0-227.0","615e41558dc8efdab16afe00","6213cdc00ae70f1648b40c9d","5","","","","","0","2"
"null","","","null","","","","html-keyboard-response","228","766707","0.0-228.0","615e41558dc8efdab16afe00","6213cdc00ae70f1648b40c9d","","","","","<p style=""color:red;font-size:24px;"">Error :(</p>","",""
"2534","key","v","v","16.66134868421068","500","250","psychophysics","229","769246","0.0-229.0","615e41558dc8efdab16afe00","6213cdc00ae70f1648b40c9d","5","","","","","0","1"
"null","","","null","","","","html-keyboard-response","230","769748","0.0-230.0","615e41558dc8efdab16afe00","6213cdc00ae70f1648b40c9d","","","","","<p style=""color:darkgreen;font-size:24px;"">Correct :)</p>","",""
"2461","key","v","v","16.658493243242816","500","250","psychophysics","231","772216","0.0-231.0","615e41558dc8efdab16afe00","6213cdc00ae70f1648b40c9d","5","","","","","0","7"
"null","","","null","","","","html-keyboard-response","232","772719","0.0-232.0","615e41558dc8efdab16afe00","6213cdc00ae70f1648b40c9d","","","","","<p style=""color:darkgreen;font-size:24px;"">Correct :)</p>","",""
"2513","key","n","n","16.663927152318053","500","250","psychophysics","233","775237","0.0-233.0","615e41558dc8efdab16afe00","6213cdc00ae70f1648b40c9d","5","","","","","0","7"
"null","","","null","","","","html-keyboard-response","234","775739","0.0-234.0","615e41558dc8efdab16afe00","6213cdc00ae70f1648b40c9d","","","","","<p style=""color:red;font-size:24px;"">Error :(</p>","",""
"2467","key","n","n","16.661677852348774","500","250","psychophysics","235","778225","0.0-235.0","615e41558dc8efdab16afe00","6213cdc00ae70f1648b40c9d","5","","","","","0","8"
"null","","","null","","","","html-keyboard-response","236","778727","0.0-236.0","615e41558dc8efdab16afe00","6213cdc00ae70f1648b40c9d","","","","","<p style=""color:darkgreen;font-size:24px;"">Correct :)</p>","",""
"2528","key","n","n","16.66280921052691","500","250","psychophysics","237","781261","0.0-237.0","615e41558dc8efdab16afe00","6213cdc00ae70f1648b40c9d","5","","","","","0","8"
"null","","","null","","","","html-keyboard-response","238","781764","0.0-238.0","615e41558dc8efdab16afe00","6213cdc00ae70f1648b40c9d","","","","","<p style=""color:darkgreen;font-size:24px;"">Correct :)</p>","",""
"2542","key","v","v","16.66038815789522","500","250","psychophysics","239","784311","0.0-239.0","615e41558dc8efdab16afe00","6213cdc00ae70f1648b40c9d","5","","","","","0","1"
"null","","","null","","","","html-keyboard-response","240","784815","0.0-240.0","615e41558dc8efdab16afe00","6213cdc00ae70f1648b40c9d","","","","","<p style=""color:darkgreen;font-size:24px;"">Correct :)</p>","",""
"2538","key","n","n","16.664059210526542","500","250","psychophysics","241","787357","0.0-241.0","615e41558dc8efdab16afe00","6213cdc00ae70f1648b40c9d","5","","","","","0","6"
"null","","","null","","","","html-keyboard-response","242","787859","0.0-242.0","615e41558dc8efdab16afe00","6213cdc00ae70f1648b40c9d","","","","","<p style=""color:darkgreen;font-size:24px;"">Correct :)</p>","",""
"2486","key","n","n","16.66290666666658","500","250","psychophysics","243","790350","0.0-243.0","615e41558dc8efdab16afe00","6213cdc00ae70f1648b40c9d","5","","","","","0","4"
"null","","","null","","","","html-keyboard-response","244","790853","0.0-244.0","615e41558dc8efdab16afe00","6213cdc00ae70f1648b40c9d","","","","","<p style=""color:darkgreen;font-size:24px;"">Correct :)</p>","",""
"2453","key","n","n","16.66101351351323","500","250","psychophysics","245","793312","0.0-245.0","615e41558dc8efdab16afe00","6213cdc00ae70f1648b40c9d","5","","","","","0","2"
"null","","","null","","","","html-keyboard-response","246","793815","0.0-246.0","615e41558dc8efdab16afe00","6213cdc00ae70f1648b40c9d","","","","","<p style=""color:darkgreen;font-size:24px;"">Correct :)</p>","",""
"2502","key","n","n","16.65865333333301","500","250","psychophysics","247","796323","0.0-247.0","615e41558dc8efdab16afe00","6213cdc00ae70f1648b40c9d","5","","","","","0","6"
"null","","","null","","","","html-keyboard-response","248","796825","0.0-248.0","615e41558dc8efdab16afe00","6213cdc00ae70f1648b40c9d","","","","","<p style=""color:darkgreen;font-size:24px;"">Correct :)</p>","",""
"2558","key","v","v","16.662143790849417","500","250","psychophysics","249","799389","0.0-249.0","615e41558dc8efdab16afe00","6213cdc00ae70f1648b40c9d","5","","","","","0","3"
"null","","","null","","","","html-keyboard-response","250","799890","0.0-250.0","615e41558dc8efdab16afe00","6213cdc00ae70f1648b40c9d","","","","","<p style=""color:darkgreen;font-size:24px;"">Correct :)</p>","",""
"2870","key","n","n","16.65902906976746","500","250","psychophysics","251","802766","0.0-251.0","615e41558dc8efdab16afe00","6213cdc00ae70f1648b40c9d","5","","","","","0","8"
"null","","","null","","","","html-keyboard-response","252","803267","0.0-252.0","615e41558dc8efdab16afe00","6213cdc00ae70f1648b40c9d","","","","","<p style=""color:darkgreen;font-size:24px;"">Correct :)</p>","",""
"2581","key","n","n","16.664147435897924","500","250","psychophysics","253","805867","0.0-253.0","615e41558dc8efdab16afe00","6213cdc00ae70f1648b40c9d","5","","","","","0","2"
"null","","","null","","","","html-keyboard-response","254","806379","0.0-254.0","615e41558dc8efdab16afe00","6213cdc00ae70f1648b40c9d","","","","","<p style=""color:darkgreen;font-size:24px;"">Correct :)</p>","",""
"2616","key","v","v","16.661617834395344","500","250","psychophysics","255","809001","0.0-255.0","615e41558dc8efdab16afe00","6213cdc00ae70f1648b40c9d","5","","","","","0","9"
"null","","","null","","","","html-keyboard-response","256","809503","0.0-256.0","615e41558dc8efdab16afe00","6213cdc00ae70f1648b40c9d","","","","","<p style=""color:darkgreen;font-size:24px;"">Correct :)</p>","",""
"2491","key","n","n","16.659182432432488","500","250","psychophysics","257","811998","0.0-257.0","615e41558dc8efdab16afe00","6213cdc00ae70f1648b40c9d","5","","","","","0","8"
"null","","","null","","","","html-keyboard-response","258","812500","0.0-258.0","615e41558dc8efdab16afe00","6213cdc00ae70f1648b40c9d","","","","","<p style=""color:darkgreen;font-size:24px;"">Correct :)</p>","",""
"2585","key","v","v","16.661506410256827","500","250","psychophysics","259","815094","0.0-259.0","615e41558dc8efdab16afe00","6213cdc00ae70f1648b40c9d","5","","","","","0","9"
"null","","","null","","","","html-keyboard-response","260","815596","0.0-260.0","615e41558dc8efdab16afe00","6213cdc00ae70f1648b40c9d","","","","","<p style=""color:darkgreen;font-size:24px;"">Correct :)</p>","",""
"2984","key","n","n","16.662743016760068","500","250","psychophysics","261","818586","0.0-261.0","615e41558dc8efdab16afe00","6213cdc00ae70f1648b40c9d","5","","","","","0","3"
"null","","","null","","","","html-keyboard-response","262","819090","0.0-262.0","615e41558dc8efdab16afe00","6213cdc00ae70f1648b40c9d","","","","","<p style=""color:red;font-size:24px;"">Error :(</p>","",""
"2698","key","v","v","16.658401234567677","500","250","psychophysics","263","821794","0.0-263.0","615e41558dc8efdab16afe00","6213cdc00ae70f1648b40c9d","5","","","","","0","9"
"null","","","null","","","","html-keyboard-response","264","822296","0.0-264.0","615e41558dc8efdab16afe00","6213cdc00ae70f1648b40c9d","","","","","<p style=""color:darkgreen;font-size:24px;"">Correct :)</p>","",""
"2588","key","v","v","16.66058333333319","500","250","psychophysics","265","824890","0.0-265.0","615e41558dc8efdab16afe00","6213cdc00ae70f1648b40c9d","5","","","","","0","7"
"null","","","null","","","","html-keyboard-response","266","825393","0.0-266.0","615e41558dc8efdab16afe00","6213cdc00ae70f1648b40c9d","","","","","<p style=""color:darkgreen;font-size:24px;"">Correct :)</p>","",""
"2488","key","n","n","16.662739999999758","500","250","psychophysics","267","827886","0.0-267.0","615e41558dc8efdab16afe00","6213cdc00ae70f1648b40c9d","5","","","","","0","4"
"null","","","null","","","","html-keyboard-response","268","828389","0.0-268.0","615e41558dc8efdab16afe00","6213cdc00ae70f1648b40c9d","","","","","<p style=""color:darkgreen;font-size:24px;"">Correct :)</p>","",""
"2500","key","v","v","16.66262666666725","500","250","psychophysics","269","830894","0.0-269.0","615e41558dc8efdab16afe00","6213cdc00ae70f1648b40c9d","5","","","","","0","1"
"null","","","null","","","","html-keyboard-response","270","831409","0.0-270.0","615e41558dc8efdab16afe00","6213cdc00ae70f1648b40c9d","","","","","<p style=""color:darkgreen;font-size:24px;"">Correct :)</p>","",""
"2500","key","n","n","16.659993377483346","500","250","psychophysics","271","833915","0.0-271.0","615e41558dc8efdab16afe00","6213cdc00ae70f1648b40c9d","5","","","","","0","2"
"null","","","null","","","","html-keyboard-response","272","834418","0.0-272.0","615e41558dc8efdab16afe00","6213cdc00ae70f1648b40c9d","","","","","<p style=""color:darkgreen;font-size:24px;"">Correct :)</p>","",""
"2541","key","v","v","16.65976470588247","500","250","psychophysics","273","836965","0.0-273.0","615e41558dc8efdab16afe00","6213cdc00ae70f1648b40c9d","5","","","","","0","1"
"null","","","null","","","","html-keyboard-response","274","837468","0.0-274.0","615e41558dc8efdab16afe00","6213cdc00ae70f1648b40c9d","","","","","<p style=""color:darkgreen;font-size:24px;"">Correct :)</p>","",""
"2955","key","n","n","16.660988764044713","500","250","psychophysics","275","840429","0.0-275.0","615e41558dc8efdab16afe00","6213cdc00ae70f1648b40c9d","5","","","","","0","1"
"null","","","null","","","","html-keyboard-response","276","840931","0.0-276.0","615e41558dc8efdab16afe00","6213cdc00ae70f1648b40c9d","","","","","<p style=""color:red;font-size:24px;"">Error :(</p>","",""
"2704","key","v","v","16.658549382715677","500","250","psychophysics","277","843640","0.0-277.0","615e41558dc8efdab16afe00","6213cdc00ae70f1648b40c9d","5","","","","","0","3"
"null","","","null","","","","html-keyboard-response","278","844143","0.0-278.0","615e41558dc8efdab16afe00","6213cdc00ae70f1648b40c9d","","","","","<p style=""color:darkgreen;font-size:24px;"">Correct :)</p>","",""
"2436","key","v","v","16.661517006802836","500","250","psychophysics","279","846597","0.0-279.0","615e41558dc8efdab16afe00","6213cdc00ae70f1648b40c9d","5","","","","","0","3"
"null","","","null","","","","html-keyboard-response","280","847106","0.0-280.0","615e41558dc8efdab16afe00","6213cdc00ae70f1648b40c9d","","","","","<p style=""color:darkgreen;font-size:24px;"">Correct :)</p>","",""
"2442","key","v","v","16.77619178082207","500","250","psychophysics","281","849554","0.0-281.0","615e41558dc8efdab16afe00","6213cdc00ae70f1648b40c9d","5","","","","","0","1"
"null","","","null","","","","html-keyboard-response","282","850057","0.0-282.0","615e41558dc8efdab16afe00","6213cdc00ae70f1648b40c9d","","","","","<p style=""color:darkgreen;font-size:24px;"">Correct :)</p>","",""
"2511","key","v","v","16.658562913907087","500","250","psychophysics","283","852575","0.0-283.0","615e41558dc8efdab16afe00","6213cdc00ae70f1648b40c9d","5","","","","","0","1"
"null","","","null","","","","html-keyboard-response","284","853078","0.0-284.0","615e41558dc8efdab16afe00","6213cdc00ae70f1648b40c9d","","","","","<p style=""color:darkgreen;font-size:24px;"">Correct :)</p>","",""
"2486","key","v","v","16.6596778523491","500","250","psychophysics","285","855570","0.0-285.0","615e41558dc8efdab16afe00","6213cdc00ae70f1648b40c9d","5","","","","","0","3"
"null","","","null","","","","html-keyboard-response","286","856071","0.0-286.0","615e41558dc8efdab16afe00","6213cdc00ae70f1648b40c9d","","","","","<p style=""color:darkgreen;font-size:24px;"">Correct :)</p>","",""
"2409","key","n","n","16.662347222222404","500","250","psychophysics","287","858486","0.0-287.0","615e41558dc8efdab16afe00","6213cdc00ae70f1648b40c9d","5","","","","","0","4"
"null","","","null","","","","html-keyboard-response","288","858988","0.0-288.0","615e41558dc8efdab16afe00","6213cdc00ae70f1648b40c9d","","","","","<p style=""color:darkgreen;font-size:24px;"">Correct :)</p>","",""
"2534","key","n","n","16.662269736841584","500","250","psychophysics","289","861525","0.0-289.0","615e41558dc8efdab16afe00","6213cdc00ae70f1648b40c9d","5","","","","","0","8"
"null","","","null","","","","html-keyboard-response","290","862028","0.0-290.0","615e41558dc8efdab16afe00","6213cdc00ae70f1648b40c9d","","","","","<p style=""color:darkgreen;font-size:24px;"">Correct :)</p>","",""
"2523","key","n","n","16.660703947368585","500","250","psychophysics","291","864557","0.0-291.0","615e41558dc8efdab16afe00","6213cdc00ae70f1648b40c9d","5","","","","","0","2"
"null","","","null","","","","html-keyboard-response","292","865060","0.0-292.0","615e41558dc8efdab16afe00","6213cdc00ae70f1648b40c9d","","","","","<p style=""color:darkgreen;font-size:24px;"">Correct :)</p>","",""
"2626","key","v","v","16.662468354430644","500","250","psychophysics","293","867692","0.0-293.0","615e41558dc8efdab16afe00","6213cdc00ae70f1648b40c9d","5","","","","","0","7"
"null","","","null","","","","html-keyboard-response","294","868196","0.0-294.0","615e41558dc8efdab16afe00","6213cdc00ae70f1648b40c9d","","","","","<p style=""color:darkgreen;font-size:24px;"">Correct :)</p>","",""
"12771","","","v","","","","html-keyboard-response","295","880967","0.0-295.0","615e41558dc8efdab16afe00","6213cdc00ae70f1648b40c9d","","","","","<p> Here, the tasks are going to switch.  For some trials, your job is to decide if the digit is less than or greater than 5.  For others, it is to decide if the digit is even or odd.  You will be told which type of trial the current one is.  But, pay attention, the type of trial changes too.  We are going to do 50 of these.  </p>  <br><br>  Ready? (press v or n)","",""
"3167","key","v","v","16.662478947368648","500","250","psychophysics","296","884140","0.0-296.0","615e41558dc8efdab16afe00","6213cdc00ae70f1648b40c9d","6","","","","","1","1"
"null","","","null","","","","html-keyboard-response","297","884643","0.0-297.0","615e41558dc8efdab16afe00","6213cdc00ae70f1648b40c9d","","","","","<p style=""color:darkgreen;font-size:24px;"">Correct :)</p>","",""
"2498","key","n","n","16.7696199999998","500","250","psychophysics","298","887147","0.0-298.0","615e41558dc8efdab16afe00","6213cdc00ae70f1648b40c9d","6","","","","","1","7"
"null","","","null","","","","html-keyboard-response","299","887650","0.0-299.0","615e41558dc8efdab16afe00","6213cdc00ae70f1648b40c9d","","","","","<p style=""color:darkgreen;font-size:24px;"">Correct :)</p>","",""
"2599","key","v","v","16.662750000000532","500","250","psychophysics","300","890255","0.0-300.0","615e41558dc8efdab16afe00","6213cdc00ae70f1648b40c9d","6","","","","","0","7"
"null","","","null","","","","html-keyboard-response","301","890757","0.0-301.0","615e41558dc8efdab16afe00","6213cdc00ae70f1648b40c9d","","","","","<p style=""color:darkgreen;font-size:24px;"">Correct :)</p>","",""
"2637","key","n","n","16.66169182389957","500","250","psychophysics","302","893400","0.0-302.0","615e41558dc8efdab16afe00","6213cdc00ae70f1648b40c9d","6","","","","","0","2"
"null","","","null","","","","html-keyboard-response","303","893902","0.0-303.0","615e41558dc8efdab16afe00","6213cdc00ae70f1648b40c9d","","","","","<p style=""color:darkgreen;font-size:24px;"">Correct :)</p>","",""
"2780","key","v","v","16.663137724550587","500","250","psychophysics","304","896688","0.0-304.0","615e41558dc8efdab16afe00","6213cdc00ae70f1648b40c9d","6","","","","","0","7"
"null","","","null","","","","html-keyboard-response","305","897192","0.0-305.0","615e41558dc8efdab16afe00","6213cdc00ae70f1648b40c9d","","","","","<p style=""color:darkgreen;font-size:24px;"">Correct :)</p>","",""
"2486","key","v","v","16.661086666666282","500","250","psychophysics","306","899696","0.0-306.0","615e41558dc8efdab16afe00","6213cdc00ae70f1648b40c9d","6","","","","","1","2"
"null","","","null","","","","html-keyboard-response","307","900206","0.0-307.0","615e41558dc8efdab16afe00","6213cdc00ae70f1648b40c9d","","","","","<p style=""color:darkgreen;font-size:24px;"">Correct :)</p>","",""
"2652","key","n","n","16.661396226415164","500","250","psychophysics","308","902866","0.0-308.0","615e41558dc8efdab16afe00","6213cdc00ae70f1648b40c9d","6","","","","","0","6"
"null","","","null","","","","html-keyboard-response","309","903368","0.0-309.0","615e41558dc8efdab16afe00","6213cdc00ae70f1648b40c9d","","","","","<p style=""color:darkgreen;font-size:24px;"">Correct :)</p>","",""
"2489","key","v","v","16.660973333333775","500","250","psychophysics","310","905863","0.0-310.0","615e41558dc8efdab16afe00","6213cdc00ae70f1648b40c9d","6","","","","","0","1"
"null","","","null","","","","html-keyboard-response","311","906366","0.0-311.0","615e41558dc8efdab16afe00","6213cdc00ae70f1648b40c9d","","","","","<p style=""color:darkgreen;font-size:24px;"">Correct :)</p>","",""
"2744","key","v","v","16.659733333332802","500","250","psychophysics","312","909118","0.0-312.0","615e41558dc8efdab16afe00","6213cdc00ae70f1648b40c9d","6","","","","","0","9"
"null","","","null","","","","html-keyboard-response","313","909621","0.0-313.0","615e41558dc8efdab16afe00","6213cdc00ae70f1648b40c9d","","","","","<p style=""color:darkgreen;font-size:24px;"">Correct :)</p>","",""
"2519","key","n","n","16.660715231787574","500","250","psychophysics","314","912142","0.0-314.0","615e41558dc8efdab16afe00","6213cdc00ae70f1648b40c9d","6","","","","","0","6"
"null","","","null","","","","html-keyboard-response","315","912644","0.0-315.0","615e41558dc8efdab16afe00","6213cdc00ae70f1648b40c9d","","","","","<p style=""color:darkgreen;font-size:24px;"">Correct :)</p>","",""
"2824","key","v","v","16.65877058823552","500","250","psychophysics","316","915474","0.0-316.0","615e41558dc8efdab16afe00","6213cdc00ae70f1648b40c9d","6","","","","","1","2"
"null","","","null","","","","html-keyboard-response","317","915977","0.0-317.0","615e41558dc8efdab16afe00","6213cdc00ae70f1648b40c9d","","","","","<p style=""color:darkgreen;font-size:24px;"">Correct :)</p>","",""
"2513","key","v","v","16.660728476821316","500","250","psychophysics","318","918495","0.0-318.0","615e41558dc8efdab16afe00","6213cdc00ae70f1648b40c9d","6","","","","","0","3"
"null","","","null","","","","html-keyboard-response","319","918997","0.0-319.0","615e41558dc8efdab16afe00","6213cdc00ae70f1648b40c9d","","","","","<p style=""color:darkgreen;font-size:24px;"">Correct :)</p>","",""
"2992","key","v","v","16.66181111111073","500","250","psychophysics","320","921995","0.0-320.0","615e41558dc8efdab16afe00","6213cdc00ae70f1648b40c9d","6","","","","","0","7"
"null","","","null","","","","html-keyboard-response","321","922497","0.0-321.0","615e41558dc8efdab16afe00","6213cdc00ae70f1648b40c9d","","","","","<p style=""color:darkgreen;font-size:24px;"">Correct :)</p>","",""
"2587","key","v","v","16.66230769230811","500","250","psychophysics","322","925089","0.0-322.0","615e41558dc8efdab16afe00","6213cdc00ae70f1648b40c9d","6","","","","","0","3"
"null","","","null","","","","html-keyboard-response","323","925592","0.0-323.0","615e41558dc8efdab16afe00","6213cdc00ae70f1648b40c9d","","","","","<p style=""color:darkgreen;font-size:24px;"">Correct :)</p>","",""
"2451","key","n","n","16.660878378378754","500","250","psychophysics","324","928049","0.0-324.0","615e41558dc8efdab16afe00","6213cdc00ae70f1648b40c9d","6","","","","","0","2"
"null","","","null","","","","html-keyboard-response","325","928552","0.0-325.0","615e41558dc8efdab16afe00","6213cdc00ae70f1648b40c9d","","","","","<p style=""color:darkgreen;font-size:24px;"">Correct :)</p>","",""
"2519","key","n","n","16.661754966886953","500","250","psychophysics","326","931077","0.0-326.0","615e41558dc8efdab16afe00","6213cdc00ae70f1648b40c9d","6","","","","","0","8"
"null","","","null","","","","html-keyboard-response","327","931583","0.0-327.0","615e41558dc8efdab16afe00","6213cdc00ae70f1648b40c9d","","","","","<p style=""color:darkgreen;font-size:24px;"">Correct :)</p>","",""
"2572","key","n","n","16.661311688311336","500","250","psychophysics","328","934161","0.0-328.0","615e41558dc8efdab16afe00","6213cdc00ae70f1648b40c9d","6","","","","","1","2"
"null","","","null","","","","html-keyboard-response","329","934664","0.0-329.0","615e41558dc8efdab16afe00","6213cdc00ae70f1648b40c9d","","","","","<p style=""color:red;font-size:24px;"">Error :(</p>","",""
"2547","key","n","n","16.659947712417978","500","250","psychophysics","330","937213","0.0-330.0","615e41558dc8efdab16afe00","6213cdc00ae70f1648b40c9d","6","","","","","1","8"
"null","","","null","","","","html-keyboard-response","331","937717","0.0-331.0","615e41558dc8efdab16afe00","6213cdc00ae70f1648b40c9d","","","","","<p style=""color:darkgreen;font-size:24px;"">Correct :)</p>","",""
"2876","key","v","v","16.661641618496645","500","250","psychophysics","332","940599","0.0-332.0","615e41558dc8efdab16afe00","6213cdc00ae70f1648b40c9d","6","","","","","0","9"
"null","","","null","","","","html-keyboard-response","333","941108","0.0-333.0","615e41558dc8efdab16afe00","6213cdc00ae70f1648b40c9d","","","","","<p style=""color:darkgreen;font-size:24px;"">Correct :)</p>","",""
"2829","key","n","n","16.66340476190505","500","250","psychophysics","334","943941","0.0-334.0","615e41558dc8efdab16afe00","6213cdc00ae70f1648b40c9d","6","","","","","0","4"
"null","","","null","","","","html-keyboard-response","335","944444","0.0-335.0","615e41558dc8efdab16afe00","6213cdc00ae70f1648b40c9d","","","","","<p style=""color:darkgreen;font-size:24px;"">Correct :)</p>","",""
"2528","key","v","v","16.66142105263134","500","250","psychophysics","336","946978","0.0-336.0","615e41558dc8efdab16afe00","6213cdc00ae70f1648b40c9d","6","","","","","1","3"
"null","","","null","","","","html-keyboard-response","337","947495","0.0-337.0","615e41558dc8efdab16afe00","6213cdc00ae70f1648b40c9d","","","","","<p style=""color:darkgreen;font-size:24px;"">Correct :)</p>","",""
"2548","key","v","v","16.657967320261402","500","250","psychophysics","338","950049","0.0-338.0","615e41558dc8efdab16afe00","6213cdc00ae70f1648b40c9d","6","","","","","0","3"
"null","","","null","","","","html-keyboard-response","339","950552","0.0-339.0","615e41558dc8efdab16afe00","6213cdc00ae70f1648b40c9d","","","","","<p style=""color:darkgreen;font-size:24px;"">Correct :)</p>","",""
"2548","key","v","v","16.66061688311679","500","250","psychophysics","340","953107","0.0-340.0","615e41558dc8efdab16afe00","6213cdc00ae70f1648b40c9d","6","","","","","1","2"
"null","","","null","","","","html-keyboard-response","341","953617","0.0-341.0","615e41558dc8efdab16afe00","6213cdc00ae70f1648b40c9d","","","","","<p style=""color:darkgreen;font-size:24px;"">Correct :)</p>","",""
"2552","key","n","n","16.662805194804722","500","250","psychophysics","342","956175","0.0-342.0","615e41558dc8efdab16afe00","6213cdc00ae70f1648b40c9d","6","","","","","1","8"
"null","","","null","","","","html-keyboard-response","343","956679","0.0-343.0","615e41558dc8efdab16afe00","6213cdc00ae70f1648b40c9d","","","","","<p style=""color:darkgreen;font-size:24px;"">Correct :)</p>","",""
"2467","key","v","v","16.660736486486417","500","250","psychophysics","344","959152","0.0-344.0","615e41558dc8efdab16afe00","6213cdc00ae70f1648b40c9d","6","","","","","1","1"
"null","","","null","","","","html-keyboard-response","345","959656","0.0-345.0","615e41558dc8efdab16afe00","6213cdc00ae70f1648b40c9d","","","","","<p style=""color:darkgreen;font-size:24px;"">Correct :)</p>","",""
"2875","key","v","v","16.66084883720912","500","250","psychophysics","346","962536","0.0-346.0","615e41558dc8efdab16afe00","6213cdc00ae70f1648b40c9d","6","","","","","0","4"
"null","","","null","","","","html-keyboard-response","347","963043","0.0-347.0","615e41558dc8efdab16afe00","6213cdc00ae70f1648b40c9d","","","","","<p style=""color:red;font-size:24px;"">Error :(</p>","",""
"2776","key","n","n","16.660880952381245","500","250","psychophysics","348","965837","0.0-348.0","615e41558dc8efdab16afe00","6213cdc00ae70f1648b40c9d","6","","","","","0","4"
"null","","","null","","","","html-keyboard-response","349","966356","0.0-349.0","615e41558dc8efdab16afe00","6213cdc00ae70f1648b40c9d","","","","","<p style=""color:darkgreen;font-size:24px;"">Correct :)</p>","",""
"2777","key","v","v","16.662155688622505","500","250","psychophysics","350","969139","0.0-350.0","615e41558dc8efdab16afe00","6213cdc00ae70f1648b40c9d","6","","","","","1","3"
"null","","","null","","","","html-keyboard-response","351","969642","0.0-351.0","615e41558dc8efdab16afe00","6213cdc00ae70f1648b40c9d","","","","","<p style=""color:darkgreen;font-size:24px;"">Correct :)</p>","",""
"2918","key","v","v","16.661571428571563","500","250","psychophysics","352","972566","0.0-352.0","615e41558dc8efdab16afe00","6213cdc00ae70f1648b40c9d","6","","","","","1","4"
"null","","","null","","","","html-keyboard-response","353","973070","0.0-353.0","615e41558dc8efdab16afe00","6213cdc00ae70f1648b40c9d","","","","","<p style=""color:darkgreen;font-size:24px;"">Correct :)</p>","",""
"2456","key","v","v","16.661897959183666","500","250","psychophysics","354","975531","0.0-354.0","615e41558dc8efdab16afe00","6213cdc00ae70f1648b40c9d","6","","","","","1","1"
"null","","","null","","","","html-keyboard-response","355","976034","0.0-355.0","615e41558dc8efdab16afe00","6213cdc00ae70f1648b40c9d","","","","","<p style=""color:darkgreen;font-size:24px;"">Correct :)</p>","",""
"2946","key","n","n","16.65980790960497","500","250","psychophysics","356","978985","0.0-356.0","615e41558dc8efdab16afe00","6213cdc00ae70f1648b40c9d","6","","","","","0","2"
"null","","","null","","","","html-keyboard-response","357","979487","0.0-357.0","615e41558dc8efdab16afe00","6213cdc00ae70f1648b40c9d","","","","","<p style=""color:darkgreen;font-size:24px;"">Correct :)</p>","",""
"2635","key","v","v","16.659786163522487","500","250","psychophysics","358","982140","0.0-358.0","615e41558dc8efdab16afe00","6213cdc00ae70f1648b40c9d","6","","","","","0","3"
"null","","","null","","","","html-keyboard-response","359","982642","0.0-359.0","615e41558dc8efdab16afe00","6213cdc00ae70f1648b40c9d","","","","","<p style=""color:darkgreen;font-size:24px;"">Correct :)</p>","",""
"2478","key","n","n","16.6603959731542","500","250","psychophysics","360","985127","0.0-360.0","615e41558dc8efdab16afe00","6213cdc00ae70f1648b40c9d","6","","","","","0","4"
"null","","","null","","","","html-keyboard-response","361","985643","0.0-361.0","615e41558dc8efdab16afe00","6213cdc00ae70f1648b40c9d","","","","","<p style=""color:darkgreen;font-size:24px;"">Correct :)</p>","",""
"2434","key","v","v","16.775363013698488","500","250","psychophysics","362","988083","0.0-362.0","615e41558dc8efdab16afe00","6213cdc00ae70f1648b40c9d","6","","","","","0","7"
"null","","","null","","","","html-keyboard-response","363","988586","0.0-363.0","615e41558dc8efdab16afe00","6213cdc00ae70f1648b40c9d","","","","","<p style=""color:darkgreen;font-size:24px;"">Correct :)</p>","",""
"2541","key","n","n","16.66039869281025","500","250","psychophysics","364","991131","0.0-364.0","615e41558dc8efdab16afe00","6213cdc00ae70f1648b40c9d","6","","","","","1","9"
"null","","","null","","","","html-keyboard-response","365","991633","0.0-365.0","615e41558dc8efdab16afe00","6213cdc00ae70f1648b40c9d","","","","","<p style=""color:darkgreen;font-size:24px;"">Correct :)</p>","",""
"2569","key","n","n","16.658149350649985","500","250","psychophysics","366","994208","0.0-366.0","615e41558dc8efdab16afe00","6213cdc00ae70f1648b40c9d","6","","","","","0","6"
"null","","","null","","","","html-keyboard-response","367","994712","0.0-367.0","615e41558dc8efdab16afe00","6213cdc00ae70f1648b40c9d","","","","","<p style=""color:darkgreen;font-size:24px;"">Correct :)</p>","",""
"2693","key","v","v","16.662049382715917","500","250","psychophysics","368","997412","0.0-368.0","615e41558dc8efdab16afe00","6213cdc00ae70f1648b40c9d","6","","","","","0","7"
"null","","","null","","","","html-keyboard-response","369","997914","0.0-369.0","615e41558dc8efdab16afe00","6213cdc00ae70f1648b40c9d","","","","","<p style=""color:darkgreen;font-size:24px;"">Correct :)</p>","",""
"2439","key","v","v","16.661149659864034","500","250","psychophysics","370","1000358","0.0-370.0","615e41558dc8efdab16afe00","6213cdc00ae70f1648b40c9d","6","","","","","1","3"
"null","","","null","","","","html-keyboard-response","371","1000862","0.0-371.0","615e41558dc8efdab16afe00","6213cdc00ae70f1648b40c9d","","","","","<p style=""color:darkgreen;font-size:24px;"">Correct :)</p>","",""
"2493","key","n","n","16.66214666666696","500","250","psychophysics","372","1003361","0.0-372.0","615e41558dc8efdab16afe00","6213cdc00ae70f1648b40c9d","6","","","","","0","8"
"null","","","null","","","","html-keyboard-response","373","1003864","0.0-373.0","615e41558dc8efdab16afe00","6213cdc00ae70f1648b40c9d","","","","","<p style=""color:darkgreen;font-size:24px;"">Correct :)</p>","",""
"2578","key","n","n","16.658954838709153","500","250","psychophysics","374","1006448","0.0-374.0","615e41558dc8efdab16afe00","6213cdc00ae70f1648b40c9d","6","","","","","0","8"
"null","","","null","","","","html-keyboard-response","375","1006950","0.0-375.0","615e41558dc8efdab16afe00","6213cdc00ae70f1648b40c9d","","","","","<p style=""color:darkgreen;font-size:24px;"">Correct :)</p>","",""
"2637","key","v","v","16.661811320754733","500","250","psychophysics","376","1009593","0.0-376.0","615e41558dc8efdab16afe00","6213cdc00ae70f1648b40c9d","6","","","","","0","7"
"null","","","null","","","","html-keyboard-response","377","1010094","0.0-377.0","615e41558dc8efdab16afe00","6213cdc00ae70f1648b40c9d","","","","","<p style=""color:darkgreen;font-size:24px;"">Correct :)</p>","",""
"2689","key","n","n","16.66082716049385","500","250","psychophysics","378","1012789","0.0-378.0","615e41558dc8efdab16afe00","6213cdc00ae70f1648b40c9d","6","","","","","1","8"
"null","","","null","","","","html-keyboard-response","379","1013292","0.0-379.0","615e41558dc8efdab16afe00","6213cdc00ae70f1648b40c9d","","","","","<p style=""color:darkgreen;font-size:24px;"">Correct :)</p>","",""
"2632","key","v","v","16.660803797468397","500","250","psychophysics","380","1015931","0.0-380.0","615e41558dc8efdab16afe00","6213cdc00ae70f1648b40c9d","6","","","","","1","3"
"null","","","null","","","","html-keyboard-response","381","1016433","0.0-381.0","615e41558dc8efdab16afe00","6213cdc00ae70f1648b40c9d","","","","","<p style=""color:darkgreen;font-size:24px;"">Correct :)</p>","",""
"2508","key","n","n","16.65920134228201","500","250","psychophysics","382","1018945","0.0-382.0","615e41558dc8efdab16afe00","6213cdc00ae70f1648b40c9d","6","","","","","0","6"
"null","","","null","","","","html-keyboard-response","383","1019447","0.0-383.0","615e41558dc8efdab16afe00","6213cdc00ae70f1648b40c9d","","","","","<p style=""color:darkgreen;font-size:24px;"">Correct :)</p>","",""
"2708","key","n","n","16.660490797546213","500","250","psychophysics","384","1022161","0.0-384.0","615e41558dc8efdab16afe00","6213cdc00ae70f1648b40c9d","6","","","","","0","2"
"null","","","null","","","","html-keyboard-response","385","1022664","0.0-385.0","615e41558dc8efdab16afe00","6213cdc00ae70f1648b40c9d","","","","","<p style=""color:darkgreen;font-size:24px;"">Correct :)</p>","",""
"2618","key","n","n","16.76603184713371","500","250","psychophysics","386","1025288","0.0-386.0","615e41558dc8efdab16afe00","6213cdc00ae70f1648b40c9d","6","","","","","1","6"
"null","","","null","","","","html-keyboard-response","387","1025791","0.0-387.0","615e41558dc8efdab16afe00","6213cdc00ae70f1648b40c9d","","","","","<p style=""color:darkgreen;font-size:24px;"">Correct :)</p>","",""
"2803","key","v","v","16.658207100591508","500","250","psychophysics","388","1028600","0.0-388.0","615e41558dc8efdab16afe00","6213cdc00ae70f1648b40c9d","6","","","","","0","9"
"null","","","null","","","","html-keyboard-response","389","1029114","0.0-389.0","615e41558dc8efdab16afe00","6213cdc00ae70f1648b40c9d","","","","","<p style=""color:darkgreen;font-size:24px;"">Correct :)</p>","",""
"2765","key","n","n","16.659036144578454","500","250","psychophysics","390","1031884","0.0-390.0","615e41558dc8efdab16afe00","6213cdc00ae70f1648b40c9d","6","","","","","0","4"
"null","","","null","","","","html-keyboard-response","391","1032387","0.0-391.0","615e41558dc8efdab16afe00","6213cdc00ae70f1648b40c9d","","","","","<p style=""color:darkgreen;font-size:24px;"">Correct :)</p>","",""
"2744","key","n","n","16.66257228915641","500","250","psychophysics","392","1035149","0.0-392.0","615e41558dc8efdab16afe00","6213cdc00ae70f1648b40c9d","6","","","","","1","9"
"null","","","null","","","","html-keyboard-response","393","1035652","0.0-393.0","615e41558dc8efdab16afe00","6213cdc00ae70f1648b40c9d","","","","","<p style=""color:darkgreen;font-size:24px;"">Correct :)</p>","",""
"2582","key","v","v","16.663129032257523","500","250","psychophysics","394","1038241","0.0-394.0","615e41558dc8efdab16afe00","6213cdc00ae70f1648b40c9d","6","","","","","1","3"
"null","","","null","","","","html-keyboard-response","395","1038743","0.0-395.0","615e41558dc8efdab16afe00","6213cdc00ae70f1648b40c9d","","","","","<p style=""color:darkgreen;font-size:24px;"">Correct :)</p>","",""
"4877","","","v","","","","html-keyboard-response","396","1043622","0.0-396.0","615e41558dc8efdab16afe00","6213cdc00ae70f1648b40c9d","","","","","<p> Last set of trials.  Here, the tasks are going to switch once again.  We are going to do 50 of these.  And then you are done with the experiment.  </p>  <br><br>  Ready? (press v or n)","",""
"2559","key","v","v","16.66366233766251","500","250","psychophysics","397","1046187","0.0-397.0","615e41558dc8efdab16afe00","6213cdc00ae70f1648b40c9d","7","","","","","1","1"
"null","","","null","","","","html-keyboard-response","398","1046704","0.0-398.0","615e41558dc8efdab16afe00","6213cdc00ae70f1648b40c9d","","","","","<p style=""color:darkgreen;font-size:24px;"">Correct :)</p>","",""
"2464","key","v","v","16.66122972972949","500","250","psychophysics","399","1049174","0.0-399.0","615e41558dc8efdab16afe00","6213cdc00ae70f1648b40c9d","7","","","","","1","4"
"null","","","null","","","","html-keyboard-response","400","1049675","0.0-400.0","615e41558dc8efdab16afe00","6213cdc00ae70f1648b40c9d","","","","","<p style=""color:darkgreen;font-size:24px;"">Correct :)</p>","",""
"2778","key","v","v","16.661137724550397","500","250","psychophysics","401","1052459","0.0-401.0","615e41558dc8efdab16afe00","6213cdc00ae70f1648b40c9d","7","","","","","1","2"
"null","","","null","","","","html-keyboard-response","402","1052962","0.0-402.0","615e41558dc8efdab16afe00","6213cdc00ae70f1648b40c9d","","","","","<p style=""color:darkgreen;font-size:24px;"">Correct :)</p>","",""
"2463","key","n","n","16.663317567566597","500","250","psychophysics","403","1055433","0.0-403.0","615e41558dc8efdab16afe00","6213cdc00ae70f1648b40c9d","7","","","","","1","6"
"null","","","null","","","","html-keyboard-response","404","1055936","0.0-404.0","615e41558dc8efdab16afe00","6213cdc00ae70f1648b40c9d","","","","","<p style=""color:darkgreen;font-size:24px;"">Correct :)</p>","",""
"2649","key","n","n","16.766044025157093","500","250","psychophysics","405","1058588","0.0-405.0","615e41558dc8efdab16afe00","6213cdc00ae70f1648b40c9d","7","","","","","0","6"
"null","","","null","","","","html-keyboard-response","406","1059094","0.0-406.0","615e41558dc8efdab16afe00","6213cdc00ae70f1648b40c9d","","","","","<p style=""color:darkgreen;font-size:24px;"">Correct :)</p>","",""
"2500","key","v","v","16.662293333333608","500","250","psychophysics","407","1061599","0.0-407.0","615e41558dc8efdab16afe00","6213cdc00ae70f1648b40c9d","7","","","","","1","4"
"null","","","null","","","","html-keyboard-response","408","1062101","0.0-408.0","615e41558dc8efdab16afe00","6213cdc00ae70f1648b40c9d","","","","","<p style=""color:darkgreen;font-size:24px;"">Correct :)</p>","",""
"2467","key","v","v","16.66132432432543","500","250","psychophysics","409","1064574","0.0-409.0","615e41558dc8efdab16afe00","6213cdc00ae70f1648b40c9d","7","","","","","0","3"
"null","","","null","","","","html-keyboard-response","410","1065077","0.0-410.0","615e41558dc8efdab16afe00","6213cdc00ae70f1648b40c9d","","","","","<p style=""color:darkgreen;font-size:24px;"">Correct :)</p>","",""
"2551","key","v","v","16.660701298702193","500","250","psychophysics","411","1067647","0.0-411.0","615e41558dc8efdab16afe00","6213cdc00ae70f1648b40c9d","7","","","","","1","1"
"null","","","null","","","","html-keyboard-response","412","1068150","0.0-412.0","615e41558dc8efdab16afe00","6213cdc00ae70f1648b40c9d","","","","","<p style=""color:darkgreen;font-size:24px;"">Correct :)</p>","",""
"2448","key","v","v","16.661367346939702","500","250","psychophysics","413","1070606","0.0-413.0","615e41558dc8efdab16afe00","6213cdc00ae70f1648b40c9d","7","","","","","1","3"
"null","","","null","","","","html-keyboard-response","414","1071109","0.0-414.0","615e41558dc8efdab16afe00","6213cdc00ae70f1648b40c9d","","","","","<p style=""color:darkgreen;font-size:24px;"">Correct :)</p>","",""
"2416","key","n","n","16.664282758620665","500","250","psychophysics","415","1073531","0.0-415.0","615e41558dc8efdab16afe00","6213cdc00ae70f1648b40c9d","7","","","","","0","6"
"null","","","null","","","","html-keyboard-response","416","1074035","0.0-416.0","615e41558dc8efdab16afe00","6213cdc00ae70f1648b40c9d","","","","","<p style=""color:darkgreen;font-size:24px;"">Correct :)</p>","",""
"2563","key","n","n","16.661909090908388","500","250","psychophysics","417","1076603","0.0-417.0","615e41558dc8efdab16afe00","6213cdc00ae70f1648b40c9d","7","","","","","0","4"
"null","","","null","","","","html-keyboard-response","418","1077110","0.0-418.0","615e41558dc8efdab16afe00","6213cdc00ae70f1648b40c9d","","","","","<p style=""color:darkgreen;font-size:24px;"">Correct :)</p>","",""
"2465","key","v","v","16.663234899329932","500","250","psychophysics","419","1079582","0.0-419.0","615e41558dc8efdab16afe00","6213cdc00ae70f1648b40c9d","7","","","","","1","3"
"null","","","null","","","","html-keyboard-response","420","1080086","0.0-420.0","615e41558dc8efdab16afe00","6213cdc00ae70f1648b40c9d","","","","","<p style=""color:darkgreen;font-size:24px;"">Correct :)</p>","",""
"2461","key","n","n","16.65985135135014","500","250","psychophysics","421","1082554","0.0-421.0","615e41558dc8efdab16afe00","6213cdc00ae70f1648b40c9d","7","","","","","0","6"
"null","","","null","","","","html-keyboard-response","422","1083057","0.0-422.0","615e41558dc8efdab16afe00","6213cdc00ae70f1648b40c9d","","","","","<p style=""color:darkgreen;font-size:24px;"">Correct :)</p>","",""
"2561","key","n","n","16.659175324675555","500","250","psychophysics","423","1085626","0.0-423.0","615e41558dc8efdab16afe00","6213cdc00ae70f1648b40c9d","7","","","","","0","2"
"null","","","null","","","","html-keyboard-response","424","1086128","0.0-424.0","615e41558dc8efdab16afe00","6213cdc00ae70f1648b40c9d","","","","","<p style=""color:darkgreen;font-size:24px;"">Correct :)</p>","",""
"2565","key","n","n","16.66250649350544","500","250","psychophysics","425","1088698","0.0-425.0","615e41558dc8efdab16afe00","6213cdc00ae70f1648b40c9d","7","","","","","0","4"
"null","","","null","","","","html-keyboard-response","426","1089210","0.0-426.0","615e41558dc8efdab16afe00","6213cdc00ae70f1648b40c9d","","","","","<p style=""color:darkgreen;font-size:24px;"">Correct :)</p>","",""
"2611","key","n","n","16.659057324841193","500","250","psychophysics","427","1091827","0.0-427.0","615e41558dc8efdab16afe00","6213cdc00ae70f1648b40c9d","7","","","","","1","7"
"null","","","null","","","","html-keyboard-response","428","1092344","0.0-428.0","615e41558dc8efdab16afe00","6213cdc00ae70f1648b40c9d","","","","","<p style=""color:darkgreen;font-size:24px;"">Correct :)</p>","",""
"2587","key","n","n","16.659743589744604","500","250","psychophysics","429","1094951","0.0-429.0","615e41558dc8efdab16afe00","6213cdc00ae70f1648b40c9d","7","","","","","0","2"
"null","","","null","","","","html-keyboard-response","430","1095454","0.0-430.0","615e41558dc8efdab16afe00","6213cdc00ae70f1648b40c9d","","","","","<p style=""color:darkgreen;font-size:24px;"">Correct :)</p>","",""
"2437","key","v","v","16.66114285714183","500","250","psychophysics","431","1097896","0.0-431.0","615e41558dc8efdab16afe00","6213cdc00ae70f1648b40c9d","7","","","","","1","2"
"null","","","null","","","","html-keyboard-response","432","1098409","0.0-432.0","615e41558dc8efdab16afe00","6213cdc00ae70f1648b40c9d","","","","","<p style=""color:darkgreen;font-size:24px;"">Correct :)</p>","",""
"2845","key","v","v","16.663233918128316","500","250","psychophysics","433","1101260","0.0-433.0","615e41558dc8efdab16afe00","6213cdc00ae70f1648b40c9d","7","","","","","0","3"
"null","","","null","","","","html-keyboard-response","434","1101762","0.0-434.0","615e41558dc8efdab16afe00","6213cdc00ae70f1648b40c9d","","","","","<p style=""color:darkgreen;font-size:24px;"">Correct :)</p>","",""
"2799","key","n","n","16.663244047619326","500","250","psychophysics","435","1104567","0.0-435.0","615e41558dc8efdab16afe00","6213cdc00ae70f1648b40c9d","7","","","","","1","7"
"null","","","null","","","","html-keyboard-response","436","1105075","0.0-436.0","615e41558dc8efdab16afe00","6213cdc00ae70f1648b40c9d","","","","","<p style=""color:darkgreen;font-size:24px;"">Correct :)</p>","",""
"3128","key","v","v","16.661380952380586","500","250","psychophysics","437","1108222","0.0-437.0","615e41558dc8efdab16afe00","6213cdc00ae70f1648b40c9d","7","","","","","1","4"
"null","","","null","","","","html-keyboard-response","438","1108725","0.0-438.0","615e41558dc8efdab16afe00","6213cdc00ae70f1648b40c9d","","","","","<p style=""color:darkgreen;font-size:24px;"">Correct :)</p>","",""
"2486","key","v","v","16.659590604027496","500","250","psychophysics","439","1111216","0.0-439.0","615e41558dc8efdab16afe00","6213cdc00ae70f1648b40c9d","7","","","","","0","1"
"null","","","null","","","","html-keyboard-response","440","1111719","0.0-440.0","615e41558dc8efdab16afe00","6213cdc00ae70f1648b40c9d","","","","","<p style=""color:darkgreen;font-size:24px;"">Correct :)</p>","",""
"2812","key","n","n","16.65839644970466","500","250","psychophysics","441","1114537","0.0-441.0","615e41558dc8efdab16afe00","6213cdc00ae70f1648b40c9d","7","","","","","0","7"
"null","","","null","","","","html-keyboard-response","442","1115040","0.0-442.0","615e41558dc8efdab16afe00","6213cdc00ae70f1648b40c9d","","","","","<p style=""color:red;font-size:24px;"">Error :(</p>","",""
"2612","key","v","v","16.66240764331298","500","250","psychophysics","443","1117658","0.0-443.0","615e41558dc8efdab16afe00","6213cdc00ae70f1648b40c9d","7","","","","","1","3"
"null","","","null","","","","html-keyboard-response","444","1118160","0.0-444.0","615e41558dc8efdab16afe00","6213cdc00ae70f1648b40c9d","","","","","<p style=""color:darkgreen;font-size:24px;"">Correct :)</p>","",""
"2678","key","n","n","16.66362111801166","500","250","psychophysics","445","1120844","0.0-445.0","615e41558dc8efdab16afe00","6213cdc00ae70f1648b40c9d","7","","","","","0","6"
"null","","","null","","","","html-keyboard-response","446","1121348","0.0-446.0","615e41558dc8efdab16afe00","6213cdc00ae70f1648b40c9d","","","","","<p style=""color:darkgreen;font-size:24px;"">Correct :)</p>","",""
"2624","key","v","v","16.663605095541318","500","250","psychophysics","447","1123978","0.0-447.0","615e41558dc8efdab16afe00","6213cdc00ae70f1648b40c9d","7","","","","","1","2"
"null","","","null","","","","html-keyboard-response","448","1124493","0.0-448.0","615e41558dc8efdab16afe00","6213cdc00ae70f1648b40c9d","","","","","<p style=""color:darkgreen;font-size:24px;"">Correct :)</p>","",""
"2530","key","n","n","16.66015789473558","500","250","psychophysics","449","1127029","0.0-449.0","615e41558dc8efdab16afe00","6213cdc00ae70f1648b40c9d","7","","","","","0","6"
"null","","","null","","","","html-keyboard-response","450","1127532","0.0-450.0","615e41558dc8efdab16afe00","6213cdc00ae70f1648b40c9d","","","","","<p style=""color:darkgreen;font-size:24px;"">Correct :)</p>","",""
"2584","key","v","v","16.66007741935431","500","250","psychophysics","451","1130121","0.0-451.0","615e41558dc8efdab16afe00","6213cdc00ae70f1648b40c9d","7","","","","","0","1"
"null","","","null","","","","html-keyboard-response","452","1130622","0.0-452.0","615e41558dc8efdab16afe00","6213cdc00ae70f1648b40c9d","","","","","<p style=""color:darkgreen;font-size:24px;"">Correct :)</p>","",""
"2450","key","n","n","16.66390476190504","500","250","psychophysics","453","1133078","0.0-453.0","615e41558dc8efdab16afe00","6213cdc00ae70f1648b40c9d","7","","","","","0","4"
"null","","","null","","","","html-keyboard-response","454","1133581","0.0-454.0","615e41558dc8efdab16afe00","6213cdc00ae70f1648b40c9d","","","","","<p style=""color:darkgreen;font-size:24px;"">Correct :)</p>","",""
"2508","key","n","n","16.6607748344371","500","250","psychophysics","455","1136107","0.0-455.0","615e41558dc8efdab16afe00","6213cdc00ae70f1648b40c9d","7","","","","","0","6"
"null","","","null","","","","html-keyboard-response","456","1136624","0.0-456.0","615e41558dc8efdab16afe00","6213cdc00ae70f1648b40c9d","","","","","<p style=""color:darkgreen;font-size:24px;"">Correct :)</p>","",""
"2448","key","v","v","16.66331756756817","500","250","psychophysics","457","1139078","0.0-457.0","615e41558dc8efdab16afe00","6213cdc00ae70f1648b40c9d","7","","","","","1","2"
"null","","","null","","","","html-keyboard-response","458","1139582","0.0-458.0","615e41558dc8efdab16afe00","6213cdc00ae70f1648b40c9d","","","","","<p style=""color:darkgreen;font-size:24px;"">Correct :)</p>","",""
"2600","key","n","n","16.65958974358942","500","250","psychophysics","459","1142187","0.0-459.0","615e41558dc8efdab16afe00","6213cdc00ae70f1648b40c9d","7","","","","","0","6"
"null","","","null","","","","html-keyboard-response","460","1142695","0.0-460.0","615e41558dc8efdab16afe00","6213cdc00ae70f1648b40c9d","","","","","<p style=""color:darkgreen;font-size:24px;"">Correct :)</p>","",""
"2507","key","n","n","16.65800662251615","500","250","psychophysics","461","1145209","0.0-461.0","615e41558dc8efdab16afe00","6213cdc00ae70f1648b40c9d","7","","","","","1","6"
"null","","","null","","","","html-keyboard-response","462","1145712","0.0-462.0","615e41558dc8efdab16afe00","6213cdc00ae70f1648b40c9d","","","","","<p style=""color:darkgreen;font-size:24px;"">Correct :)</p>","",""
"2487","key","v","v","16.65783221476505","500","250","psychophysics","463","1148204","0.0-463.0","615e41558dc8efdab16afe00","6213cdc00ae70f1648b40c9d","7","","","","","1","1"
"null","","","null","","","","html-keyboard-response","464","1148718","0.0-464.0","615e41558dc8efdab16afe00","6213cdc00ae70f1648b40c9d","","","","","<p style=""color:darkgreen;font-size:24px;"">Correct :)</p>","",""
"2442","key","n","n","16.661149659864034","500","250","psychophysics","465","1151167","0.0-465.0","615e41558dc8efdab16afe00","6213cdc00ae70f1648b40c9d","7","","","","","1","7"
"null","","","null","","","","html-keyboard-response","466","1151675","0.0-466.0","615e41558dc8efdab16afe00","6213cdc00ae70f1648b40c9d","","","","","<p style=""color:darkgreen;font-size:24px;"">Correct :)</p>","",""
"2428","key","v","v","16.66142465753404","500","250","psychophysics","467","1154110","0.0-467.0","615e41558dc8efdab16afe00","6213cdc00ae70f1648b40c9d","7","","","","","1","2"
"null","","","null","","","","html-keyboard-response","468","1154612","0.0-468.0","615e41558dc8efdab16afe00","6213cdc00ae70f1648b40c9d","","","","","<p style=""color:darkgreen;font-size:24px;"">Correct :)</p>","",""
"2455","key","v","v","16.659925675675638","500","250","psychophysics","469","1157074","0.0-469.0","615e41558dc8efdab16afe00","6213cdc00ae70f1648b40c9d","7","","","","","1","3"
"null","","","null","","","","html-keyboard-response","470","1157576","0.0-470.0","615e41558dc8efdab16afe00","6213cdc00ae70f1648b40c9d","","","","","<p style=""color:darkgreen;font-size:24px;"">Correct :)</p>","",""
"2482","key","v","v","16.663617449665704","500","250","psychophysics","471","1160066","0.0-471.0","615e41558dc8efdab16afe00","6213cdc00ae70f1648b40c9d","7","","","","","1","3"
"null","","","null","","","","html-keyboard-response","472","1160580","0.0-472.0","615e41558dc8efdab16afe00","6213cdc00ae70f1648b40c9d","","","","","<p style=""color:darkgreen;font-size:24px;"">Correct :)</p>","",""
"2536","key","v","v","16.660091503267633","500","250","psychophysics","473","1163135","0.0-473.0","615e41558dc8efdab16afe00","6213cdc00ae70f1648b40c9d","7","","","","","0","3"
"null","","","null","","","","html-keyboard-response","474","1163639","0.0-474.0","615e41558dc8efdab16afe00","6213cdc00ae70f1648b40c9d","","","","","<p style=""color:darkgreen;font-size:24px;"">Correct :)</p>","",""
"2570","key","n","n","16.660688311688588","500","250","psychophysics","475","1166216","0.0-475.0","615e41558dc8efdab16afe00","6213cdc00ae70f1648b40c9d","7","","","","","0","2"
"null","","","null","","","","html-keyboard-response","476","1166720","0.0-476.0","615e41558dc8efdab16afe00","6213cdc00ae70f1648b40c9d","","","","","<p style=""color:darkgreen;font-size:24px;"">Correct :)</p>","",""
"2513","key","n","n","16.663735099338822","500","250","psychophysics","477","1169239","0.0-477.0","615e41558dc8efdab16afe00","6213cdc00ae70f1648b40c9d","7","","","","","0","4"
"null","","","null","","","","html-keyboard-response","478","1169742","0.0-478.0","615e41558dc8efdab16afe00","6213cdc00ae70f1648b40c9d","","","","","<p style=""color:darkgreen;font-size:24px;"">Correct :)</p>","",""
"2527","key","v","v","16.662888157895253","500","250","psychophysics","479","1172276","0.0-479.0","615e41558dc8efdab16afe00","6213cdc00ae70f1648b40c9d","7","","","","","0","3"
"null","","","null","","","","html-keyboard-response","480","1172778","0.0-480.0","615e41558dc8efdab16afe00","6213cdc00ae70f1648b40c9d","","","","","<p style=""color:darkgreen;font-size:24px;"">Correct :)</p>","",""
"2675","key","v","v","16.662546583850467","500","250","psychophysics","481","1175459","0.0-481.0","615e41558dc8efdab16afe00","6213cdc00ae70f1648b40c9d","7","","","","","0","7"
"null","","","null","","","","html-keyboard-response","482","1175961","0.0-482.0","615e41558dc8efdab16afe00","6213cdc00ae70f1648b40c9d","","","","","<p style=""color:darkgreen;font-size:24px;"">Correct :)</p>","",""
"2494","key","v","v","16.773053691275543","500","250","psychophysics","483","1178459","0.0-483.0","615e41558dc8efdab16afe00","6213cdc00ae70f1648b40c9d","7","","","","","0","3"
"null","","","null","","","","html-keyboard-response","484","1178962","0.0-484.0","615e41558dc8efdab16afe00","6213cdc00ae70f1648b40c9d","","","","","<p style=""color:darkgreen;font-size:24px;"">Correct :)</p>","",""
"2485","key","n","n","16.661348993288378","500","250","psychophysics","485","1181454","0.0-485.0","615e41558dc8efdab16afe00","6213cdc00ae70f1648b40c9d","7","","","","","1","7"
"null","","","null","","","","html-keyboard-response","486","1181956","0.0-486.0","615e41558dc8efdab16afe00","6213cdc00ae70f1648b40c9d","","","","","<p style=""color:darkgreen;font-size:24px;"">Correct :)</p>","",""
"2458","key","n","n","16.65953378378401","500","250","psychophysics","487","1184419","0.0-487.0","615e41558dc8efdab16afe00","6213cdc00ae70f1648b40c9d","7","","","","","0","2"
"null","","","null","","","","html-keyboard-response","488","1184921","0.0-488.0","615e41558dc8efdab16afe00","6213cdc00ae70f1648b40c9d","","","","","<p style=""color:darkgreen;font-size:24px;"">Correct :)</p>","",""
"2444","key","v","v","16.66133108108015","500","250","psychophysics","489","1187384","0.0-489.0","615e41558dc8efdab16afe00","6213cdc00ae70f1648b40c9d","7","","","","","0","7"
"null","","","null","","","","html-keyboard-response","490","1187887","0.0-490.0","615e41558dc8efdab16afe00","6213cdc00ae70f1648b40c9d","","","","","<p style=""color:darkgreen;font-size:24px;"">Correct :)</p>","",""
"2477","key","v","v","16.66009395973188","500","250","psychophysics","491","1190370","0.0-491.0","615e41558dc8efdab16afe00","6213cdc00ae70f1648b40c9d","7","","","","","0","1"
"null","","","null","","","","html-keyboard-response","492","1190872","0.0-492.0","615e41558dc8efdab16afe00","6213cdc00ae70f1648b40c9d","","","","","<p style=""color:darkgreen;font-size:24px;"">Correct :)</p>","",""
"2423","key","v","v","16.660869863013456","500","250","psychophysics","493","1193301","0.0-493.0","615e41558dc8efdab16afe00","6213cdc00ae70f1648b40c9d","7","","","","","0","7"
"null","","","null","","","","html-keyboard-response","494","1193803","0.0-494.0","615e41558dc8efdab16afe00","6213cdc00ae70f1648b40c9d","","","","","<p style=""color:darkgreen;font-size:24px;"">Correct :)</p>","",""
"2441","key","v","v","16.661897959182877","500","250","psychophysics","495","1196250","0.0-495.0","615e41558dc8efdab16afe00","6213cdc00ae70f1648b40c9d","7","","","","","1","1"
"null","","","null","","","","html-keyboard-response","496","1196752","0.0-496.0","615e41558dc8efdab16afe00","6213cdc00ae70f1648b40c9d","","","","","<p style=""color:darkgreen;font-size:24px;"">Correct :)</p>","",""
